time,seconds_elapsed,z,y,x
1776554381475513300,0.111513427734375,-0.8992767333984375,-0.4037017822265625,-0.0469512939453125
1776554381485553400,0.121553466796875,-0.89697265625,-0.4066162109375,-0.052001953125
1776554381495593500,0.131593505859375,-0.9042510986328125,-0.400787353515625,-0.0508575439453125
1776554381505633500,0.141633544921875,-0.9066162109375,-0.4053192138671875,-0.0513763427734375
1776554381515674600,0.151674560546875,-0.9072265625,-0.4008941650390625,-0.0513763427734375
1776554381525714700,0.161714599609375,-0.906341552734375,-0.4046783447265625,-0.0514678955078125
1776554381535754500,0.17175439453125,-0.9103240966796875,-0.408447265625,-0.0443878173828125
1776554381545794600,0.181794677734375,-0.916046142578125,-0.408599853515625,-0.0511932373046875
1776554381555834600,0.191834716796875,-0.913543701171875,-0.419647216796875,-0.0594635009765625
1776554381565874700,0.201874755859375,-0.915557861328125,-0.428070068359375,-0.0634613037109375
1776554381575915500,0.21191552734375,-0.9024810791015625,-0.4274444580078125,-0.057830810546875
1776554381585955600,0.22195556640625,-0.9263916015625,-0.433563232421875,-0.0509796142578125
1776554381595995600,0.23199560546875,-0.92144775390625,-0.4078521728515625,-0.0544586181640625
1776554381606035500,0.242035400390625,-0.885162353515625,-0.4187469482421875,-0.0587158203125
1776554381616075500,0.252075439453125,-0.9183349609375,-0.4296722412109375,-0.04718017578125
1776554381626115600,0.262115478515625,-0.917022705078125,-0.4078216552734375,-0.0496826171875
1776554381636155600,0.27215576171875,-0.919097900390625,-0.4141998291015625,-0.06939697265625
1776554381646196500,0.282196533203125,-0.9180755615234375,-0.4254913330078125,-0.06512451171875
1776554381656236500,0.292236572265625,-0.9215545654296875,-0.423980712890625,-0.0478515625
1776554381666276400,0.3022763671875,-0.916168212890625,-0.41619873046875,-0.050140380859375
1776554381676316400,0.31231640625,-0.9236297607421875,-0.4173583984375,-0.0613250732421875
1776554381686356500,0.3223564453125,-0.932159423828125,-0.411376953125,-0.044464111328125
1776554381696396500,0.332396484375,-0.90704345703125,-0.4207916259765625,-0.0471954345703125
1776554381706437600,0.342437744140625,-0.8986663818359375,-0.4626312255859375,-0.04168701171875
1776554381716477700,0.352477783203125,-0.8933258056640625,-0.4732666015625,-0.0870819091796875
1776554381726517500,0.362517578125,-0.897613525390625,-0.45074462890625,-0.1212921142578125
1776554381736557600,0.3725576171875,-0.8443756103515625,-0.445037841796875,-0.1224365234375
1776554381746597600,0.38259765625,-0.7888336181640625,-0.434906005859375,-0.10162353515625
1776554381756637700,0.3926376953125,-0.7239837646484375,-0.4644775390625,-0.0843505859375
1776554381766678500,0.402678466796875,-0.59490966796875,-0.501373291015625,-0.1161041259765625
1776554381776718600,0.412718505859375,-0.648529052734375,-0.5387420654296875,-0.0818634033203125
1776554381786758700,0.422758544921875,-0.7754058837890625,-0.4966583251953125,-0.02227783203125
1776554381796798700,0.432798828125,-0.7174072265625,-0.423126220703125,-0.0182342529296875
1776554381806838500,0.442838623046875,-0.7270050048828125,-0.3694305419921875,-0.0279693603515625
1776554381816878600,0.452878662109375,-0.7854156494140625,-0.3036651611328125,-0.047760009765625
1776554381826919700,0.462919677734375,-0.738739013671875,-0.3459014892578125,-0.0297698974609375
1776554381836959500,0.47295947265625,-0.7786865234375,-0.4164886474609375,-0.0109710693359375
1776554381846999600,0.48299951171875,-0.8085784912109375,-0.4292449951171875,-0.0023040771484375
1776554381857039600,0.49303955078125,-0.87078857421875,-0.3860321044921875,-0.00018310546875
1776554381867079400,0.503079345703125,-0.9962310791015625,-0.2468109130859375,0.0368499755859375
1776554381877119500,0.513119384765625,-1.08880615234375,-0.21282958984375,0.1255645751953125
1776554381887159600,0.52315966796875,-1.3873138427734375,-0.143096923828125,0.202728271484375
1776554381897200600,0.53320068359375,-1.4262847900390625,-0.0763702392578125,0.24072265625
1776554381907240700,0.54324072265625,-1.2315673828125,-0.1860809326171875,0.1781463623046875
1776554381917280800,0.55328076171875,-1.1364898681640625,-0.157073974609375,0.2113494873046875
1776554381927320600,0.563320556640625,-1.1420745849609375,-0.0532989501953125,0.2931365966796875
1776554381937360600,0.573360595703125,-1.10736083984375,-0.000152587890625,0.3525238037109375
1776554381947400400,0.583400390625,-0.9573974609375,0.0037689208984375,0.5130615234375
1776554381957441500,0.593441650390625,-0.820220947265625,-0.113922119140625,0.669708251953125
1776554381967481600,0.603481689453125,-0.958953857421875,-0.26080322265625,0.7049713134765625
1776554381977521700,0.613521728515625,-1.0863800048828125,-0.365447998046875,0.660400390625
1776554381987561700,0.623561767578125,-1.1747894287109375,-0.414794921875,0.6054534912109375
1776554381997601500,0.6336015625,-1.1304473876953125,-0.3835906982421875,0.754180908203125
1776554382007641600,0.6436416015625,-0.831787109375,-0.3820037841796875,0.7686767578125
1776554382017682400,0.653682373046875,-1.338104248046875,-0.2353973388671875,0.5991058349609375
1776554382027722500,0.663722412109375,-1.18353271484375,-0.175811767578125,0.6713409423828125
1776554382037762600,0.673762451171875,-1.161346435546875,-0.069061279296875,0.5928497314453125
1776554382047802600,0.683802734375,-1.45025634765625,-0.018157958984375,0.2838134765625
1776554382057842400,0.693842529296875,-1.16387939453125,-0.070037841796875,0.4214019775390625
1776554382067882500,0.703882568359375,-1.1918487548828125,-0.1279296875,0.260406494140625
1776554382077922600,0.713922607421875,-1.090576171875,-0.2107086181640625,0.36492919921875
1776554382087963600,0.723963623046875,-0.9941253662109375,-0.2502288818359375,0.5117645263671875
1776554382098003700,0.734003662109375,-1.095184326171875,-0.1903533935546875,0.5161285400390625
1776554382108043800,0.744043701171875,-1.085723876953125,-0.08624267578125,0.5758514404296875
1776554382118083600,0.75408349609375,-1.0493316650390625,0.008544921875,0.5500946044921875
1776554382128123600,0.76412353515625,-1.0738677978515625,0.01080322265625,0.5228271484375
1776554382138163500,0.77416357421875,-1.0073394775390625,0.04278564453125,0.4959564208984375
1776554382148204500,0.78420458984375,-0.93609619140625,0.1064453125,0.4634246826171875
1776554382158244600,0.79424462890625,-0.80169677734375,0.111236572265625,0.428436279296875
1776554382168284700,0.80428466796875,-0.84405517578125,0.0552978515625,0.4081573486328125
1776554382178324700,0.81432470703125,-0.9451904296875,0.0447998046875,0.4459686279296875
1776554382188364500,0.824364501953125,-1.064666748046875,0.1144256591796875,0.437225341796875
1776554382198404600,0.834404541015625,-1.2227630615234375,0.283966064453125,0.36627197265625
1776554382208445400,0.844445556640625,-1.4358978271484375,0.4813385009765625,0.1978302001953125
1776554382218485500,0.854485595703125,-1.586212158203125,0.627685546875,0.0858917236328125
1776554382228525600,0.864525634765625,-1.3058624267578125,0.570098876953125,0.03631591796875
1776554382238565600,0.874565673828125,-1.1767578125,0.456085205078125,-0.010650634765625
1776554382248605400,0.88460546875,-1.2594757080078125,0.42059326171875,0.011077880859375
1776554382258645500,0.8946455078125,-1.10009765625,0.388397216796875,-0.02734375
1776554382268686600,0.9046865234375,-0.9529266357421875,0.4166717529296875,-0.09271240234375
1776554382278726700,0.9147265625,-0.7535858154296875,0.4327239990234375,-0.14349365234375
1776554382288766700,0.9247666015625,-0.624786376953125,0.4465484619140625,-0.1853485107421875
1776554382298806800,0.934806884765625,-0.557037353515625,0.45208740234375,-0.194915771484375
1776554382308846600,0.9448466796875,-0.51812744140625,0.4052734375,-0.19989013671875
1776554382318886400,0.954886474609375,-0.4588775634765625,0.3626861572265625,-0.1956329345703125
1776554382328926500,0.964926513671875,-0.422393798828125,0.3299713134765625,-0.1699066162109375
1776554382338967600,0.974967529296875,-0.402801513671875,0.3028411865234375,-0.1213226318359375
1776554382349007600,0.985007568359375,-0.3843231201171875,0.2941131591796875,-0.0562286376953125
1776554382359047700,0.995047607421875,-0.3858795166015625,0.2980804443359375,-0.02099609375
1776554382369087700,1.005087646484375,-0.3777618408203125,0.321563720703125,-0.0159454345703125
1776554382379127600,1.01512744140625,-0.3894805908203125,0.3412933349609375,-0.00653076171875
1776554382389167600,1.025167724609375,-0.4144439697265625,0.3574676513671875,0.0316925048828125
1776554382399208400,1.03520849609375,-0.4022216796875,0.3839874267578125,0.1012115478515625
1776554382409248500,1.04524853515625,-0.36871337890625,0.4105987548828125,0.1529541015625
1776554382419288600,1.05528857421875,-0.3658447265625,0.4218902587890625,0.20263671875
1776554382429328600,1.06532861328125,-0.3695068359375,0.428680419921875,0.262451171875
1776554382439368400,1.075368408203125,-0.336395263671875,0.4726104736328125,0.32220458984375
1776554382449408500,1.085408447265625,-0.3128509521484375,0.5374908447265625,0.376434326171875
1776554382459449600,1.09544970703125,-0.3108978271484375,0.626190185546875,0.4384765625
1776554382469489700,1.10548974609375,-0.279144287109375,0.702728271484375,0.5268707275390625
1776554382479529700,1.11552978515625,-0.269134521484375,0.7449493408203125,0.6508636474609375
1776554382489569800,1.12556982421875,-0.3148193359375,0.8203887939453125,0.8041839599609375
1776554382499609600,1.135609619140625,-0.3436431884765625,0.9135589599609375,0.992095947265625
1776554382509649400,1.1456494140625,-0.356414794921875,0.963226318359375,1.1630401611328125
1776554382519690500,1.1556904296875,-0.3583831787109375,0.945587158203125,1.29754638671875
1776554382529730600,1.16573046875,-0.434173583984375,0.9196929931640625,1.465545654296875
1776554382539770600,1.1757705078125,-0.5354461669921875,0.9363555908203125,1.6157989501953125
1776554382549810700,1.185810791015625,-0.64495849609375,0.9515533447265625,1.73248291015625
1776554382559850800,1.195850830078125,-0.75018310546875,0.949615478515625,1.8378753662109375
1776554382569890600,1.205890625,-0.839447021484375,0.919219970703125,1.907806396484375
1776554382579931400,1.215931396484375,-0.967071533203125,0.8353118896484375,1.98291015625
1776554382589971500,1.225971435546875,-1.0722198486328125,0.72845458984375,2.011383056640625
1776554382600011500,1.236011474609375,-1.1472320556640625,0.697998046875,1.9734954833984375
1776554382610051600,1.246051513671875,-1.1747283935546875,0.686187744140625,1.9800567626953125
1776554382620091600,1.256091552734375,-1.16510009765625,0.641845703125,1.9664764404296875
1776554382630131500,1.26613134765625,-1.1773834228515625,0.6491546630859375,1.891326904296875
1776554382640171500,1.276171630859375,-1.229766845703125,0.635284423828125,1.788299560546875
1776554382650212600,1.286212646484375,-1.375335693359375,0.5476837158203125,1.774749755859375
1776554382660252700,1.296252685546875,-1.5517578125,0.3910369873046875,1.75885009765625
1776554382670292700,1.306292724609375,-1.6581268310546875,0.338714599609375,1.6827545166015625
1776554382680332500,1.31633251953125,-1.6497955322265625,0.3652191162109375,1.6096954345703125
1776554382690372600,1.32637255859375,-1.601165771484375,0.37286376953125,1.5041046142578125
1776554382700412400,1.336412353515625,-1.633636474609375,0.282989501953125,1.3746795654296875
1776554382710453500,1.34645361328125,-1.84222412109375,0.2529754638671875,0.709991455078125
1776554382720493600,1.35649365234375,-2.4308013916015625,-0.01702880859375,-0.2942962646484375
1776554382730533600,1.36653369140625,-2.1103515625,-0.3946685791015625,-0.03607177734375
1776554382740573700,1.37657373046875,-1.7784271240234375,-0.27142333984375,0.274932861328125
1776554382750613800,1.38661376953125,-1.53802490234375,-0.0680999755859375,0.645599365234375
1776554382760654000,1.396654052734375,-1.331512451171875,0.167999267578125,1.071136474609375
1776554382770695000,1.40669482421875,-1.1681060791015625,0.281219482421875,1.3365936279296875
1776554382780735000,1.41673486328125,-0.9368438720703125,0.2605438232421875,1.41363525390625
1776554382790774800,1.42677490234375,-0.7027435302734375,0.303924560546875,1.16351318359375
1776554382800814800,1.43681494140625,-0.5567779541015625,0.2939910888671875,0.90374755859375
1776554382810855000,1.44685498046875,-0.468017578125,0.2617340087890625,0.8065643310546875
1776554382820895000,1.45689501953125,-0.3737335205078125,0.1038818359375,1.033966064453125
1776554382830936000,1.46693603515625,-0.2817840576171875,-0.0123138427734375,1.26708984375
1776554382840976000,1.476975830078125,-0.1510772705078125,-0.0130615234375,1.2576446533203125
1776554382851016000,1.487015869140625,-0.0429229736328125,0.12469482421875,1.04034423828125
1776554382861055700,1.4970556640625,0.011810302734375,0.0930938720703125,0.86749267578125
1776554382871095800,1.507095703125,-0.0478515625,-0.0593414306640625,0.732452392578125
1776554382881135900,1.517135986328125,-0.1144866943359375,-0.1342926025390625,0.666107177734375
1776554382891177000,1.527177001953125,-0.1415252685546875,-0.0293426513671875,0.6224365234375
1776554382901217000,1.537217041015625,-0.163909912109375,-0.0538787841796875,0.5791015625
1776554382911257000,1.547257080078125,-0.1613006591796875,0.0945587158203125,0.3642578125
1776554382921297000,1.557296875,-0.3050537109375,0.105865478515625,0.2545013427734375
1776554382931337000,1.5673369140625,-0.4712677001953125,0.105072021484375,0.2298431396484375
1776554382941377000,1.577376953125,-0.5890655517578125,0.15167236328125,0.2112274169921875
1776554382951417000,1.5874169921875,-0.732574462890625,0.0028076171875,0.297332763671875
1776554382961458000,1.5974580078125,-0.81640625,0.085968017578125,0.329010009765625
1776554382971498000,1.607498046875,-0.780242919921875,0.174835205078125,0.369232177734375
1776554382981537800,1.617537841796875,-0.681671142578125,0.30194091796875,0.421539306640625
1776554382991577900,1.627577880859375,-0.60308837890625,0.6038818359375,0.5528106689453125
1776554383001618000,1.637617919921875,-0.46563720703125,0.63482666015625,0.6933135986328125
1776554383011658000,1.647657958984375,-0.4539794921875,0.5947418212890625,0.7904510498046875
1776554383021699000,1.657698974609375,-0.5015716552734375,0.666748046875,0.8463592529296875
1776554383031739000,1.66773876953125,-0.431640625,0.412384033203125,0.8267974853515625
1776554383041779000,1.677779052734375,-0.6184844970703125,0.389495849609375,0.8858489990234375
1776554383051818800,1.68781884765625,-0.7992706298828125,0.312225341796875,0.849945068359375
1776554383061858800,1.69785888671875,-0.810455322265625,0.0806121826171875,0.8105010986328125
1776554383071899000,1.70789892578125,-0.8645782470703125,-0.0614471435546875,0.8266754150390625
1776554383081940000,1.71793994140625,-0.7877044677734375,-0.0518951416015625,0.7737884521484375
1776554383091980000,1.72797998046875,-0.4720916748046875,-0.054229736328125,0.5781402587890625
1776554383102020000,1.73802001953125,-0.285308837890625,0.231201171875,0.6682586669921875
1776554383112060000,1.748059814453125,-0.3420257568359375,0.3316802978515625,0.9561004638671875
1776554383122100000,1.758099853515625,-0.4926910400390625,0.1348876953125,0.95758056640625
1776554383132140000,1.76814013671875,-0.6013031005859375,-0.01690673828125,0.865509033203125
1776554383142180900,1.778180908203125,-0.6732940673828125,-0.035186767578125,0.850921630859375
1776554383152221000,1.788220947265625,-0.6675262451171875,-0.0642242431640625,0.8516845703125
1776554383162261000,1.798260986328125,-0.65264892578125,-0.093017578125,0.8431549072265625
1776554383172300800,1.80830078125,-0.5059967041015625,-0.084014892578125,0.78582763671875
1776554383182340900,1.8183408203125,-0.5416717529296875,-0.11590576171875,0.72259521484375
1776554383192381000,1.828380859375,-0.69879150390625,-0.1829376220703125,0.7084808349609375
1776554383202422000,1.838422119140625,-0.8300933837890625,-0.1766510009765625,0.632965087890625
1776554383212461800,1.8484619140625,-0.867401123046875,-0.18023681640625,0.51751708984375
1776554383222502000,1.858501953125,-0.7706451416015625,-0.1116485595703125,0.44158935546875
1776554383232542000,1.8685419921875,-0.606170654296875,-0.0344085693359375,0.448883056640625
1776554383242581800,1.878581787109375,-0.5656890869140625,0.044677734375,0.5166473388671875
1776554383252622800,1.888622802734375,-0.547393798828125,0.05926513671875,0.6501922607421875
1776554383262663000,1.898662841796875,-0.4640960693359375,-0.067413330078125,0.7381134033203125
1776554383272703000,1.908702880859375,-0.4593505859375,-0.1741485595703125,0.7728118896484375
1776554383282743000,1.918742919921875,-0.5154571533203125,-0.1097869873046875,0.827789306640625
1776554383292783000,1.928783203125,-0.521209716796875,-0.000701904296875,0.9322662353515625
1776554383302823000,1.938822998046875,-0.559112548828125,0.073516845703125,0.9537811279296875
1776554383312863700,1.94886376953125,-0.5433349609375,0.0552978515625,0.930572509765625
1776554383322903800,1.95890380859375,-0.660125732421875,0.0632476806640625,0.9037628173828125
1776554383332944000,1.96894384765625,-0.8000030517578125,0.0914154052734375,0.875152587890625
1776554383342984000,1.97898388671875,-0.730743408203125,0.2347259521484375,0.832794189453125
1776554383353024000,1.98902392578125,-0.6518096923828125,0.4745025634765625,0.878021240234375
1776554383363063800,1.999063720703125,-0.6555328369140625,0.6898651123046875,0.930694580078125
1776554383373105000,2.00910498046875,-0.9287109375,0.5462188720703125,0.995697021484375
1776554383383145000,2.01914501953125,-0.6907196044921875,0.4685516357421875,1.020111083984375
1776554383393185000,2.02918505859375,-0.3889923095703125,0.402557373046875,0.7793426513671875
1776554383403224800,2.039224853515625,-0.461822509765625,0.327972412109375,0.4863433837890625
1776554383413265000,2.049264892578125,-0.4990692138671875,0.4544677734375,0.5487060546875
1776554383423305000,2.059304931640625,-0.54718017578125,0.519561767578125,0.6063385009765625
1776554383433346000,2.069345947265625,-0.628631591796875,0.5543212890625,0.645233154296875
1776554383443385900,2.0793857421875,-0.6460723876953125,0.5928802490234375,0.5814056396484375
1776554383453426000,2.089426025390625,-0.6695404052734375,0.5919342041015625,0.490692138671875
1776554383463466000,2.099466064453125,-0.5872955322265625,0.4518280029296875,0.4486846923828125
1776554383473506000,2.109506103515625,-0.6105194091796875,0.4271087646484375,0.320648193359375
1776554383483546000,2.119546142578125,-0.5316162109375,0.4884033203125,0.2410736083984375
1776554383493587000,2.1295869140625,-0.40838623046875,0.5465850830078125,0.306304931640625
1776554383503626800,2.139626708984375,-0.3713531494140625,0.6009979248046875,0.3843536376953125
1776554383513666800,2.149666748046875,-0.428985595703125,0.624237060546875,0.473876953125
1776554383523707000,2.159706787109375,-0.554931640625,0.5879364013671875,0.5705413818359375
1776554383533747000,2.169746826171875,-0.6536865234375,0.5636444091796875,0.6162261962890625
1776554383543787000,2.179787109375,-0.67626953125,0.552642822265625,0.64697265625
1776554383553828000,2.189828125,-0.6522369384765625,0.541900634765625,0.67938232421875
1776554383563868000,2.199867919921875,-0.6295013427734375,0.5238189697265625,0.70135498046875
1776554383573908000,2.209907958984375,-0.6310272216796875,0.509979248046875,0.7359161376953125
1776554383583947800,2.21994775390625,-0.6522216796875,0.462066650390625,0.782073974609375
1776554383593987800,2.22998779296875,-0.604095458984375,0.404876708984375,0.771636962890625
1776554383604028000,2.24002783203125,-0.558319091796875,0.351348876953125,0.717681884765625
1776554383614069000,2.250069091796875,-0.5733795166015625,0.2987823486328125,0.6700592041015625
1776554383624109000,2.260109130859375,-0.6253204345703125,0.3240203857421875,0.6603546142578125
1776554383634148900,2.27014892578125,-0.68658447265625,0.3982696533203125,0.722442626953125
1776554383644189000,2.28018896484375,-0.6329498291015625,0.4067230224609375,0.78839111328125
1776554383654229000,2.29022900390625,-0.553955078125,0.4103546142578125,0.791656494140625
1776554383664269000,2.30026904296875,-0.5243072509765625,0.4308929443359375,0.770965576171875
1776554383674310000,2.310309814453125,-0.496734619140625,0.4578094482421875,0.7816162109375
1776554383684350000,2.320349853515625,-0.504425048828125,0.444488525390625,0.800811767578125
1776554383694389800,2.3303896484375,-0.5039825439453125,0.4230804443359375,0.8104400634765625
1776554383704429800,2.340429931640625,-0.35443115234375,0.315948486328125,0.799041748046875
1776554383714470000,2.350469970703125,-0.569549560546875,0.360107421875,0.8175506591796875
1776554383724511000,2.360510986328125,-0.8688812255859375,0.4732818603515625,0.8815155029296875
1776554383734551000,2.370551025390625,-0.7423858642578125,0.36572265625,0.9161224365234375
1776554383744591000,2.380591064453125,-0.5136871337890625,0.14166259765625,0.9436187744140625
1776554383754631200,2.390631103515625,-0.3937225341796875,0.038970947265625,0.9200897216796875
1776554383764671000,2.4006708984375,-0.3714599609375,0.0145111083984375,0.902313232421875
1776554383774710800,2.410710693359375,-0.34246826171875,0.0610809326171875,0.8958740234375
1776554383784751900,2.420751953125,-0.2965545654296875,0.16375732421875,0.868743896484375
1776554383794791700,2.430791748046875,-0.1714019775390625,0.162628173828125,0.850982666015625
1776554383804831700,2.440831787109375,-0.240631103515625,0.2023468017578125,0.812408447265625
1776554383814871800,2.450871826171875,-0.5479736328125,0.3732147216796875,0.7557525634765625
1776554383824912000,2.460911865234375,-0.7980804443359375,0.4976959228515625,0.7195587158203125
1776554383834952000,2.470951904296875,-0.72900390625,0.43011474609375,0.77557373046875
1776554383844992800,2.48099267578125,-0.5446624755859375,0.350738525390625,0.8169403076171875
1776554383855032600,2.491032470703125,-0.3652496337890625,0.2918243408203125,0.8438568115234375
1776554383865072600,2.50107275390625,-0.307586669921875,0.2770233154296875,0.875396728515625
1776554383875112700,2.51111279296875,-0.2982025146484375,0.2869415283203125,0.910003662109375
1776554383885152800,2.52115283203125,-0.3337860107421875,0.3381805419921875,0.96337890625
1776554383895192800,2.53119287109375,-0.37353515625,0.4495849609375,1.0086212158203125
1776554383905234000,2.54123388671875,-0.36260986328125,0.4901885986328125,1.023101806640625
1776554383915274000,2.55127392578125,-0.2454986572265625,0.3835296630859375,0.97796630859375
1776554383925313800,2.561313720703125,-0.262359619140625,0.40411376953125,0.904388427734375
1776554383935353900,2.571353759765625,-0.3753509521484375,0.46240234375,0.8271942138671875
1776554383945394000,2.581393798828125,-0.5180206298828125,0.471038818359375,0.751129150390625
1776554383955433700,2.591433837890625,-0.44342041015625,0.36456298828125,0.735443115234375
1776554383965474800,2.601474853515625,-0.29986572265625,0.253570556640625,0.7426605224609375
1776554383975515000,2.611514892578125,-0.2878875732421875,0.194122314453125,0.74969482421875
1776554383985554700,2.6215546875,-0.2785797119140625,0.194915771484375,0.7830657958984375
1776554383995594800,2.6315947265625,-0.3188629150390625,0.28082275390625,0.8348846435546875
1776554384005634800,2.641634765625,-0.3593292236328125,0.3847198486328125,0.8770751953125
1776554384015676000,2.651676025390625,-0.3878631591796875,0.4549407958984375,0.9221038818359375
1776554384025715700,2.6617158203125,-0.344940185546875,0.4500885009765625,0.9839935302734375
1776554384035755800,2.671755859375,-0.2598114013671875,0.3740997314453125,1.062408447265625
1776554384045795800,2.6817958984375,-0.401947021484375,0.3043975830078125,1.073394775390625
1776554384055835600,2.691835693359375,-0.443603515625,0.2384185791015625,1.0221710205078125
1776554384065875700,2.701875732421875,-0.3576812744140625,0.2738189697265625,0.9287872314453125
1776554384075916800,2.711916748046875,-0.29595947265625,0.3667449951171875,0.842742919921875
1776554384085956900,2.721956787109375,-0.27032470703125,0.415496826171875,0.837127685546875
1776554384095997000,2.731996826171875,-0.27947998046875,0.414520263671875,0.8312225341796875
1776554384106037000,2.742037109375,-0.3423004150390625,0.4105224609375,0.824798583984375
1776554384116076800,2.752076904296875,-0.3424835205078125,0.3098297119140625,0.8367767333984375
1776554384126116900,2.762116943359375,-0.3261566162109375,0.2408599853515625,0.813873291015625
1776554384136157700,2.77215771484375,-0.3837127685546875,0.3170623779296875,0.8160247802734375
1776554384146197800,2.78219775390625,-0.3232879638671875,0.3101959228515625,0.8226165771484375
1776554384156237800,2.79223779296875,-0.288360595703125,0.2853851318359375,0.78814697265625
1776554384166278000,2.80227783203125,-0.2799835205078125,0.253814697265625,0.776397705078125
1776554384176317700,2.812317626953125,-0.1855621337890625,0.229583740234375,0.8040313720703125
1776554384186357800,2.822357666015625,-0.1691436767578125,0.3857421875,0.81304931640625
1776554384196398800,2.83239892578125,-0.26763916015625,0.530242919921875,0.8398895263671875
1776554384206438700,2.842438720703125,-0.31298828125,0.5477294921875,0.92669677734375
1776554384216478700,2.852478759765625,-0.3557281494140625,0.507171630859375,0.963897705078125
1776554384226518800,2.862518798828125,-0.339141845703125,0.440673828125,0.9395904541015625
1776554384236558800,2.872558837890625,-0.3243255615234375,0.332977294921875,0.8949737548828125
1776554384246598700,2.8825986328125,-0.3758697509765625,0.3228759765625,0.8558807373046875
1776554384256639700,2.8926396484375,-0.4015655517578125,0.354034423828125,0.8209075927734375
1776554384266679800,2.9026796875,-0.3415374755859375,0.34661865234375,0.818084716796875
1776554384276719900,2.912719970703125,-0.28936767578125,0.335418701171875,0.82745361328125
1776554384286760000,2.922760009765625,-0.256744384765625,0.3825225830078125,0.8343963623046875
1776554384296800000,2.932800048828125,-0.2150421142578125,0.3811187744140625,0.86224365234375
1776554384306840800,2.9428408203125,-0.1650238037109375,0.252838134765625,0.8762969970703125
1776554384316880600,2.952880615234375,-0.236328125,0.1078338623046875,0.8739776611328125
1776554384326920700,2.962920654296875,-0.3145751953125,0.1030120849609375,0.8643646240234375
1776554384336960800,2.972960693359375,-0.2588043212890625,0.19696044921875,0.8552703857421875
1776554384347000800,2.983000732421875,-0.2373504638671875,0.3470458984375,0.8712615966796875
1776554384357041000,2.993041015625,-0.227386474609375,0.4768524169921875,0.9288330078125
1776554384367082000,3.00308203125,-0.2736053466796875,0.4671630859375,0.9384918212890625
1776554384377121800,3.013121826171875,-0.3604278564453125,0.4055938720703125,0.9761199951171875
1776554384387161900,3.023161865234375,-0.35333251953125,0.3881683349609375,0.9970550537109375
1776554384397201700,3.03320166015625,-0.3284912109375,0.420074462890625,0.9898681640625
1776554384407241700,3.04324169921875,-0.2496490478515625,0.3635711669921875,0.92645263671875
1776554384417281800,3.05328173828125,-0.1387786865234375,0.421173095703125,0.865264892578125
1776554384427323000,3.063322998046875,-0.27801513671875,0.3559112548828125,0.7656402587890625
1776554384437363000,3.073363037109375,-0.068511962890625,-0.9678497314453125,0.5147857666015625
1776554384447402800,3.08340283203125,0.041015625,-0.2631378173828125,0.657562255859375
1776554384457442800,3.09344287109375,-0.2057037353515625,0.6586151123046875,0.798004150390625
1776554384467483000,3.10348291015625,-0.0348358154296875,0.7820892333984375,1.0333709716796875
1776554384477523700,3.113523681640625,-0.2350006103515625,0.947601318359375,1.4048309326171875
1776554384487563800,3.123563720703125,-0.297821044921875,0.86285400390625,1.5509033203125
1776554384497603800,3.133603759765625,-0.3211212158203125,0.6973876953125,1.4770660400390625
1776554384507643600,3.1436435546875,-0.3707427978515625,0.4695587158203125,1.1731414794921875
1776554384517683700,3.15368359375,-0.2285614013671875,0.2362213134765625,0.9364471435546875
1776554384527723800,3.163723876953125,-0.1277008056640625,0.2939453125,0.9355316162109375
1776554384537764900,3.173764892578125,-0.060089111328125,0.2653656005859375,0.9615325927734375
1776554384547805000,3.183804931640625,-0.0659027099609375,0.2452392578125,0.9639892578125
1776554384557845000,3.193844970703125,-0.150970458984375,0.3238677978515625,0.919830322265625
1776554384567884800,3.203884765625,-0.2302093505859375,0.270416259765625,0.884857177734375
1776554384577924600,3.213924560546875,-0.3045654296875,0.192901611328125,0.8947296142578125
1776554384587964700,3.223964599609375,-0.3371124267578125,0.1435089111328125,0.9088592529296875
1776554384598005800,3.234005859375,-0.322540283203125,0.1311187744140625,0.953765869140625
1776554384608045800,3.2440458984375,-0.2581939697265625,0.0932769775390625,1.01971435546875
1776554384618086000,3.2540859375,-0.163818359375,0.02520751953125,1.0113983154296875
1776554384628126000,3.2641259765625,-0.1015472412109375,-0.06622314453125,0.9070281982421875
1776554384638165800,3.274165771484375,-0.0460357666015625,-0.018646240234375,0.8319244384765625
1776554384648205800,3.284205810546875,0.0164337158203125,0.1218414306640625,0.867401123046875
1776554384658246700,3.29424658203125,-0.0122528076171875,0.1020660400390625,0.94769287109375
1776554384668286700,3.30428662109375,-0.1321258544921875,0.0511932373046875,0.974639892578125
1776554384678326800,3.314326904296875,-0.2245330810546875,0.0289154052734375,0.9907379150390625
1776554384688366800,3.324366943359375,-0.2972412109375,0.0180206298828125,1.017486572265625
1776554384698406700,3.33440673828125,-0.292633056640625,0.074005126953125,1.0596466064453125
1776554384708446700,3.34444677734375,-0.20062255859375,0.35009765625,1.004974365234375
1776554384718487800,3.35448779296875,-0.18853759765625,0.2138519287109375,1.0041046142578125
1776554384728528000,3.36452783203125,-0.1981048583984375,0.2931060791015625,1.0178985595703125
1776554384738568000,3.37456787109375,-0.18682861328125,0.32281494140625,0.9733734130859375
1776554384748608000,3.38460791015625,-0.205841064453125,0.263702392578125,0.962890625
1776554384758647300,3.394647216796875,-0.1931610107421875,0.336029052734375,0.932342529296875
1776554384768688000,3.404688232421875,-0.1772308349609375,0.3458709716796875,0.92681884765625
1776554384778728200,3.414728271484375,-0.1821136474609375,0.355377197265625,0.9309539794921875
1776554384788768300,3.424768310546875,-0.1888885498046875,0.3117523193359375,0.947296142578125
1776554384798808000,3.43480810546875,-0.1985931396484375,0.287261962890625,0.9822540283203125
1776554384808848100,3.44484814453125,-0.2210845947265625,0.230377197265625,1.030975341796875
1776554384818888200,3.45488818359375,-0.2532806396484375,0.2470245361328125,1.0313720703125
1776554384828929300,3.46492919921875,-0.268310546875,0.2155609130859375,1.0226287841796875
1776554384838969300,3.47496923828125,-0.2519683837890625,0.1913604736328125,1.02423095703125
1776554384849009200,3.485009033203125,-0.239013671875,0.1849517822265625,1.0150909423828125
1776554384859049000,3.495049072265625,-0.2333984375,0.21661376953125,0.9702606201171875
1776554384869089000,3.505089111328125,-0.2610626220703125,0.212921142578125,0.970733642578125
1776554384879129000,3.515129150390625,-0.1225433349609375,0.1483612060546875,0.9551239013671875
1776554384889170200,3.525170166015625,-0.120361328125,0.1023712158203125,0.9397735595703125
1776554384899210200,3.535210205078125,-0.144927978515625,0.08062744140625,0.9402313232421875
1776554384909250300,3.545250244140625,-0.1851959228515625,0.1214141845703125,0.9250030517578125
1776554384919290000,3.5552900390625,-0.217376708984375,0.1351776123046875,0.920684814453125
1776554384929330200,3.565330078125,-0.244781494140625,0.0890655517578125,0.927734375
1776554384939370200,3.575370361328125,-0.2550506591796875,0.205474853515625,0.9987640380859375
1776554384949411000,3.5854111328125,-0.257110595703125,0.291748046875,0.9957275390625
1776554384959451100,3.595451171875,-0.223114013671875,0.247406005859375,0.9548492431640625
1776554384969491200,3.6054912109375,-0.185089111328125,0.169647216796875,0.9158172607421875
1776554384979531300,3.61553125,-0.1554412841796875,0.0969696044921875,0.8851318359375
1776554384989571000,3.625571044921875,-0.138824462890625,0.0139923095703125,0.872772216796875
1776554384999611100,3.635611083984375,-0.1326751708984375,-0.051055908203125,0.86370849609375
1776554385009652200,3.64565234375,-0.1470184326171875,-0.1101226806640625,0.87652587890625
1776554385019692300,3.6556923828125,-0.163421630859375,-0.1070709228515625,0.9068603515625
1776554385029732400,3.665732421875,-0.17132568359375,-0.092010498046875,0.9581146240234375
1776554385039772200,3.675772216796875,-0.1840972900390625,-0.068115234375,1.0154571533203125
1776554385049812000,3.68581201171875,-0.186187744140625,-0.0679473876953125,1.0606842041015625
1776554385059853000,3.69585302734375,-0.18035888671875,-0.0228424072265625,1.03857421875
1776554385069893000,3.70589306640625,-0.1646270751953125,0.0654296875,0.984619140625
1776554385079933200,3.71593310546875,-0.16546630859375,0.1020050048828125,0.980255126953125
1776554385089973200,3.72597314453125,-0.2010345458984375,0.096343994140625,1.0063323974609375
1776554385100013300,3.736013427734375,-0.273651123046875,0.1388092041015625,1.0322723388671875
1776554385110053000,3.74605322265625,-0.2181549072265625,0.1203765869140625,1.0020294189453125
1776554385120094000,3.756093994140625,-0.184539794921875,0.108428955078125,0.9673309326171875
1776554385130134000,3.766134033203125,-0.157562255859375,0.112335205078125,0.96734619140625
1776554385140174000,3.776174072265625,-0.137725830078125,0.0995025634765625,0.9846038818359375
1776554385150214100,3.786214111328125,-0.127899169921875,0.0988006591796875,0.9897003173828125
1776554385160254200,3.796254150390625,-0.1331634521484375,0.09796142578125,0.985687255859375
1776554385170294300,3.806294189453125,-0.1434326171875,0.0944671630859375,0.97882080078125
1776554385180335400,3.81633544921875,-0.1617431640625,0.0972137451171875,0.9717254638671875
1776554385190375200,3.826375244140625,-0.1771087646484375,0.0985107421875,0.9670257568359375
1776554385200415200,3.836415283203125,-0.1810455322265625,0.098297119140625,0.9652099609375
1776554385210455300,3.846455322265625,-0.1772613525390625,0.1010589599609375,0.9627227783203125
1776554385220495000,3.8564951171875,-0.1755218505859375,0.1050567626953125,0.962432861328125
1776554385230535200,3.86653515625,-0.166229248046875,0.111328125,0.9705352783203125
1776554385240576300,3.876576171875,-0.149444580078125,0.118438720703125,0.9843902587890625
1776554385250616000,3.886615966796875,-0.134979248046875,0.1213531494140625,0.995391845703125
1776554385260656000,3.89665625,-0.13751220703125,0.1205291748046875,0.9985504150390625
1776554385270696200,3.9066962890625,-0.1468353271484375,0.122222900390625,0.9932708740234375
1776554385280736300,3.916736328125,-0.16107177734375,0.126373291015625,0.9900054931640625
1776554385290776300,3.9267763671875,-0.1688385009765625,0.1309967041015625,0.992034912109375
1776554385300817200,3.936817138671875,-0.1744384765625,0.13385009765625,0.9922332763671875
1776554385310857000,3.94685693359375,-0.1707916259765625,0.1403350830078125,0.992767333984375
1776554385320897000,3.95689697265625,-0.1680755615234375,0.1499176025390625,0.991790771484375
1776554385330937000,3.96693701171875,-0.1658172607421875,0.149566650390625,0.9899139404296875
1776554385340977200,3.97697705078125,-0.1670379638671875,0.15338134765625,0.9813385009765625
1776554385351018200,3.987018310546875,-0.170501708984375,0.1499786376953125,0.976806640625
1776554385361058300,3.997058349609375,-0.1694488525390625,0.1392669677734375,0.985382080078125
1776554385371098400,4.007098388671875,-0.163055419921875,0.141143798828125,0.985687255859375
1776554385381138200,4.01713818359375,-0.1575164794921875,0.151641845703125,0.9934234619140625
1776554385391178200,4.02717822265625,-0.1582183837890625,0.1588134765625,1.0030059814453125
1776554385401218000,4.037218017578125,-0.1600341796875,0.1612091064453125,1.00927734375
1776554385411259100,4.047259033203125,-0.170379638671875,0.1627960205078125,1.015106201171875
1776554385421299200,4.05729931640625,-0.1808929443359375,0.1696624755859375,1.0131378173828125
1776554385431339300,4.06733935546875,-0.1927947998046875,0.17254638671875,0.994384765625
1776554385441379000,4.077379150390625,-0.2029876708984375,0.188140869140625,0.9626617431640625
1776554385451419100,4.087419189453125,-0.2181243896484375,0.1660614013671875,0.946685791015625
1776554385461459200,4.097459228515625,-0.2168121337890625,0.147003173828125,0.941741943359375
1776554385471500000,4.1075,-0.20794677734375,0.1415557861328125,0.9306640625
1776554385481540000,4.1175400390625,-0.201446533203125,0.143463134765625,0.9099273681640625
1776554385491580200,4.127580078125,-0.1867218017578125,0.1847991943359375,0.9175872802734375
1776554385501620200,4.1376201171875,-0.1912384033203125,0.1512298583984375,0.9116973876953125
1776554385511660000,4.147659912109375,-0.19921875,0.129241943359375,0.93292236328125
1776554385521700000,4.1577001953125,-0.205780029296875,0.12896728515625,0.946197509765625
1776554385531741200,4.1677412109375,-0.2074737548828125,0.1067352294921875,0.9626922607421875
1776554385541781200,4.17778125,-0.2183837890625,0.0865936279296875,0.969940185546875
1776554385551821300,4.1878212890625,-0.2241058349609375,0.10552978515625,0.975067138671875
1776554385561861400,4.197861328125,-0.2436676025390625,0.0677947998046875,0.95294189453125
1776554385571901200,4.207901123046875,-0.2522125244140625,0.0261383056640625,0.967437744140625
1776554385581941200,4.217941162109375,-0.261383056640625,0.03717041015625,0.9582061767578125
1776554385591982000,4.227982177734375,-0.2673797607421875,0.043304443359375,0.93603515625
1776554385602022100,4.238022216796875,-0.2680816650390625,0.0631103515625,0.91741943359375
1776554385612062200,4.248062255859375,-0.2571258544921875,0.1099853515625,0.888275146484375
1776554385622102300,4.258102294921875,-0.255767822265625,0.0429229736328125,0.909912109375
1776554385632142000,4.26814208984375,-0.2566375732421875,0.023834228515625,0.9155731201171875
1776554385642182100,4.27818212890625,-0.2371063232421875,0.02642822265625,0.922637939453125
1776554385652223200,4.28822314453125,-0.2295074462890625,0.0117034912109375,0.9285736083984375
1776554385662263000,4.298262939453125,-0.2360382080078125,-0.015167236328125,0.9354400634765625
1776554385672303000,4.30830322265625,-0.238372802734375,-0.0057373046875,0.951446533203125
1776554385682343200,4.31834326171875,-0.2374725341796875,0.0713958740234375,0.9451904296875
1776554385692383200,4.32838330078125,-0.245819091796875,0.0432586669921875,1.0102996826171875
1776554385702424300,4.33842431640625,-0.246307373046875,0.049041748046875,1.0613250732421875
1776554385712464100,4.348464111328125,-0.2462921142578125,0.018402099609375,1.0844268798828125
1776554385722504200,4.358504150390625,-0.25433349609375,-0.025390625,1.0515594482421875
1776554385732544300,4.368544189453125,-0.2588043212890625,0.0026397705078125,0.9634552001953125
1776554385742584300,4.378584228515625,-0.2701263427734375,-0.075592041015625,0.881591796875
1776554385752624400,4.388624267578125,-0.2808837890625,-0.118133544921875,0.85009765625
1776554385762665200,4.398665283203125,-0.2467193603515625,-0.116302490234375,0.8720550537109375
1776554385772706300,4.408706298828125,-0.2083587646484375,-0.1263427734375,0.926300048828125
1776554385782746000,4.41874609375,-0.1844482421875,-0.127166748046875,0.9906158447265625
1776554385792786200,4.4287861328125,-0.17791748046875,-0.1092376708984375,1.0471038818359375
1776554385802826200,4.438826171875,-0.183197021484375,-0.089752197265625,1.080291748046875
1776554385812866300,4.4488662109375,-0.1981658935546875,-0.109466552734375,1.084075927734375
1776554385822907100,4.4589072265625,-0.2127227783203125,-0.12176513671875,1.0529632568359375
1776554385832947200,4.468947265625,-0.2263946533203125,-0.1298675537109375,1.0161285400390625
1776554385842987000,4.478987060546875,-0.2408294677734375,-0.1580810546875,0.993621826171875
1776554385853027000,4.489027099609375,-0.244598388671875,-0.162994384765625,0.982147216796875
1776554385863067100,4.499067138671875,-0.2397613525390625,-0.148040771484375,0.9832000732421875
1776554385873107200,4.509107177734375,-0.22882080078125,-0.136505126953125,0.99322509765625
1776554385883148300,4.519148193359375,-0.210052490234375,-0.1461029052734375,1.016204833984375
1776554385893188400,4.529188232421875,-0.1924896240234375,-0.1383514404296875,1.03607177734375
1776554385903228200,4.539228271484375,-0.1851654052734375,-0.1186370849609375,1.051727294921875
1776554385913268000,4.54926806640625,-0.19256591796875,-0.099273681640625,1.0365447998046875
1776554385923308000,4.55930810546875,-0.2109222412109375,-0.0757904052734375,1.006011962890625
1776554385933348000,4.56934814453125,-0.2355194091796875,-0.0495452880859375,0.984954833984375
1776554385943389200,4.57938916015625,-0.249176025390625,-0.00762939453125,0.9839630126953125
1776554385953429200,4.58942919921875,-0.25152587890625,0.0064239501953125,0.9710845947265625
1776554385963469300,4.59946923828125,-0.2509613037109375,0.0193328857421875,0.9769287109375
1776554385973509000,4.609509033203125,-0.244476318359375,0.02691650390625,0.9919586181640625
1776554385983549200,4.619549072265625,-0.218963623046875,0.026763916015625,0.984710693359375
1776554385993589200,4.62958935546875,-0.20361328125,0.0118560791015625,0.9643402099609375
1776554386003630000,4.639630126953125,-0.1989593505859375,-0.00885009765625,0.9342041015625
1776554386013670100,4.649670166015625,-0.212677001953125,-0.0377197265625,0.9008331298828125
1776554386023710200,4.659710205078125,-0.237823486328125,-0.0810089111328125,0.8963623046875
1776554386033750000,4.66975,-0.2750244140625,-0.10760498046875,0.9248504638671875
1776554386043790000,4.6797900390625,-0.310272216796875,-0.12493896484375,0.985595703125
1776554386053830100,4.689830078125,-0.345184326171875,-0.11688232421875,1.0546112060546875
1776554386063871200,4.699871337890625,-0.3547210693359375,-0.10064697265625,1.0762939453125
1776554386073911300,4.709911376953125,-0.3392791748046875,-0.1133270263671875,1.034698486328125
1776554386083951400,4.719951416015625,-0.318817138671875,-0.1085662841796875,0.973968505859375
1776554386093991200,4.7299912109375,-0.285125732421875,-0.108551025390625,0.9186553955078125
1776554386104031000,4.740031005859375,-0.2570953369140625,-0.1355438232421875,0.8791046142578125
1776554386114072000,4.750072021484375,-0.23651123046875,-0.1434173583984375,0.864471435546875
1776554386124112100,4.760112060546875,-0.2255706787109375,-0.1353759765625,0.8675079345703125
1776554386134152200,4.770152099609375,-0.2332000732421875,-0.114776611328125,0.8899078369140625
1776554386144192300,4.780192138671875,-0.25274658203125,-0.1070404052734375,0.9066009521484375
1776554386154232300,4.790232421875,-0.2766876220703125,-0.1234893798828125,0.9185638427734375
1776554386164272000,4.800272216796875,-0.300506591796875,-0.15997314453125,0.8872528076171875
1776554386174313000,4.81031298828125,-0.3183746337890625,-0.18463134765625,0.82891845703125
1776554386184353000,4.82035302734375,-0.3154754638671875,-0.1735687255859375,0.790435791015625
1776554386194393000,4.83039306640625,-0.295745849609375,-0.12200927734375,0.8097686767578125
1776554386204433200,4.84043310546875,-0.281280517578125,-0.0675201416015625,0.8803558349609375
1776554386214473200,4.85047314453125,-0.2740325927734375,-0.033294677734375,0.96136474609375
1776554386224513300,4.86051318359375,-0.2817840576171875,-0.0295257568359375,1.026763916015625
1776554386234554400,4.870554443359375,-0.3087921142578125,-0.086395263671875,1.0280914306640625
1776554386244594200,4.88059423828125,-0.3087921142578125,-0.1623077392578125,0.9450836181640625
1776554386254634200,4.89063427734375,-0.2850189208984375,-0.170623779296875,0.8742218017578125
1776554386264674300,4.90067431640625,-0.263641357421875,-0.1123199462890625,0.8767242431640625
1776554386274714000,4.910714111328125,-0.246337890625,-0.0298614501953125,0.9375152587890625
1776554386284754200,4.920754150390625,-0.25140380859375,0.0098724365234375,1.005218505859375
1776554386294795300,4.930795166015625,-0.2721710205078125,-0.0374908447265625,1.0306243896484375
1776554386304835000,4.9408349609375,-0.2813262939453125,-0.1279144287109375,0.97845458984375
1776554386314875100,4.950875244140625,-0.271881103515625,-0.1803436279296875,0.894439697265625
1776554386324915200,4.960915283203125,-0.270233154296875,-0.16925048828125,0.8458709716796875
1776554386334955300,4.970955322265625,-0.27239990234375,-0.1075897216796875,0.8633270263671875
1776554386344995300,4.980995361328125,-0.2715606689453125,-0.04864501953125,0.921875
1776554386355036200,4.9910361328125,-0.2708740234375,-0.0419769287109375,0.9723052978515625
1776554386365076000,5.001075927734375,-0.2780609130859375,-0.0931243896484375,0.9941253662109375
1776554386375116000,5.011115966796875,-0.274871826171875,-0.1427001953125,0.9703521728515625
1776554386385156000,5.021156005859375,-0.253326416015625,-0.163909912109375,0.9137115478515625
1776554386395196200,5.031196044921875,-0.232666015625,-0.1701507568359375,0.8689117431640625
1776554386405236200,5.041236328125,-0.21990966796875,-0.157501220703125,0.8519287109375
1776554386415277300,5.05127734375,-0.205230712890625,-0.125457763671875,0.8646240234375
1776554386425317400,5.0613173828125,-0.1842193603515625,-0.0897674560546875,0.9011383056640625
1776554386435357200,5.071357177734375,-0.1747283935546875,-0.073272705078125,0.9515380859375
1776554386445397200,5.081397216796875,-0.1833953857421875,-0.0657806396484375,1.004913330078125
1776554386455437000,5.09143701171875,-0.2003173828125,-0.06781005859375,1.0373992919921875
1776554386465478100,5.10147802734375,-0.22430419921875,-0.07958984375,1.0357513427734375
1776554386475518200,5.111518310546875,-0.2554168701171875,-0.09210205078125,1.014495849609375
1776554386485558300,5.121558349609375,-0.2754974365234375,-0.0996551513671875,0.9830474853515625
1776554386495598000,5.13159814453125,-0.28570556640625,-0.1081390380859375,0.958221435546875
1776554386505638100,5.14163818359375,-0.2847442626953125,-0.116455078125,0.9449005126953125
1776554386515678200,5.15167822265625,-0.2620697021484375,-0.111358642578125,0.9459381103515625
1776554386525719000,5.161718994140625,-0.2340240478515625,-0.09259033203125,0.9614715576171875
1776554386535759000,5.171759033203125,-0.214569091796875,-0.0754241943359375,0.993621826171875
1776554386545799200,5.181799072265625,-0.20343017578125,-0.0627288818359375,1.031341552734375
1776554386555839000,5.1918388671875,-0.2021942138671875,-0.06146240234375,1.0557098388671875
1776554386565879000,5.201879150390625,-0.2128753662109375,-0.07611083984375,1.0587005615234375
1776554386575919000,5.211919189453125,-0.2304840087890625,-0.089599609375,1.0416412353515625
1776554386585960200,5.221960205078125,-0.242523193359375,-0.093963623046875,1.0079345703125
1776554386596000300,5.232000244140625,-0.24517822265625,-0.0947113037109375,0.9738006591796875
1776554386606040300,5.242040283203125,-0.2381439208984375,-0.0991668701171875,0.9538726806640625
1776554386616080400,5.252080322265625,-0.22662353515625,-0.102630615234375,0.9507293701171875
1776554386626120200,5.2621201171875,-0.214385986328125,-0.0958251953125,0.95892333984375
1776554386636160300,5.27216015625,-0.2050018310546875,-0.08294677734375,0.976348876953125
1776554386646201000,5.282201171875,-0.1988677978515625,-0.0679473876953125,0.998199462890625
1776554386656241200,5.2922412109375,-0.196502685546875,-0.05853271484375,1.0160369873046875
1776554386666281200,5.30228125,-0.1947479248046875,-0.0576171875,1.0220947265625
1776554386676321300,5.3123212890625,-0.194427490234375,-0.0627593994140625,1.0131378173828125
1776554386686361000,5.322361083984375,-0.2010040283203125,-0.07098388671875,0.994720458984375
1776554386696401200,5.332401123046875,-0.212371826171875,-0.0711517333984375,0.976959228515625
1776554386706442200,5.342442138671875,-0.22821044921875,-0.0623931884765625,0.9681854248046875
1776554386716482000,5.35248193359375,-0.22711181640625,-0.052276611328125,0.970703125
1776554386726522000,5.362522216796875,-0.1991729736328125,-0.055328369140625,0.972900390625
1776554386736562200,5.372562255859375,-0.1652069091796875,-0.06903076171875,0.9694061279296875
1776554386746602000,5.38260205078125,-0.1499481201171875,-0.0883941650390625,0.9642181396484375
1776554386756642000,5.39264208984375,-0.179351806640625,-0.0946044921875,0.9623870849609375
1776554386766682600,5.4026826171875,-0.20159912109375,-0.0982513427734375,0.95465087890625
1776554386776722700,5.41272265625,-0.2085418701171875,-0.111785888671875,0.940765380859375
1776554386786762800,5.4227626953125,-0.2164764404296875,-0.1246337890625,0.936126708984375
1776554386796802800,5.432802734375,-0.2358856201171875,-0.1319427490234375,0.9483184814453125
1776554386806842600,5.442842529296875,-0.247039794921875,-0.1446990966796875,0.9691619873046875
1776554386816882700,5.452882568359375,-0.248321533203125,-0.166168212890625,0.98187255859375
1776554386826923500,5.462923583984375,-0.2513580322265625,-0.1792755126953125,0.9914703369140625
1776554386836963600,5.472963623046875,-0.25244140625,-0.1807403564453125,0.9983673095703125
1776554386847003600,5.483003662109375,-0.245086669921875,-0.1772308349609375,0.9946746826171875
1776554386857043700,5.493043701171875,-0.2321014404296875,-0.1673126220703125,0.9788360595703125
1776554386867083800,5.503083740234375,-0.2243499755859375,-0.1546630859375,0.9593963623046875
1776554386877123600,5.51312353515625,-0.2258148193359375,-0.1430206298828125,0.939453125
1776554386887164700,5.52316455078125,-0.2291107177734375,-0.127410888671875,0.9212493896484375
1776554386897204700,5.533204833984375,-0.232147216796875,-0.1135711669921875,0.9123077392578125
1776554386907244800,5.543244873046875,-0.2328338623046875,-0.1022796630859375,0.9124755859375
1776554386917284600,5.55328466796875,-0.2303009033203125,-0.09796142578125,0.91986083984375
1776554386927324700,5.56332470703125,-0.2250823974609375,-0.1005859375,0.930145263671875
1776554386937364500,5.573364501953125,-0.2223968505859375,-0.113311767578125,0.9395904541015625
1776554386947405600,5.583405517578125,-0.2238006591796875,-0.13262939453125,0.945709228515625
1776554386957445600,5.593445556640625,-0.22991943359375,-0.1531219482421875,0.947357177734375
1776554386967485700,5.603485595703125,-0.236053466796875,-0.165802001953125,0.947021484375
1776554386977525800,5.61352587890625,-0.2395172119140625,-0.163543701171875,0.94842529296875
1776554386987565800,5.62356591796875,-0.2373199462890625,-0.152740478515625,0.9532623291015625
1776554386997605600,5.633605712890625,-0.235870361328125,-0.1378631591796875,0.9556427001953125
1776554387007646500,5.643646484375,-0.235809326171875,-0.1216583251953125,0.956878662109375
1776554387017686500,5.6536865234375,-0.2352447509765625,-0.1080169677734375,0.9571075439453125
1776554387027726600,5.6637265625,-0.237396240234375,-0.0948486328125,0.9564056396484375
1776554387037766700,5.6737666015625,-0.23748779296875,-0.0850067138671875,0.9556427001953125
1776554387047806700,5.683806640625,-0.2350311279296875,-0.0777130126953125,0.95233154296875
1776554387057846800,5.6938466796875,-0.2313690185546875,-0.0753936767578125,0.946807861328125
1776554387067887900,5.703887939453125,-0.228424072265625,-0.07940673828125,0.9442291259765625
1776554387077927700,5.713927734375,-0.2238616943359375,-0.0836029052734375,0.9441986083984375
1776554387087967700,5.7239677734375,-0.2209930419921875,-0.0870513916015625,0.94622802734375
1776554387098007600,5.734007568359375,-0.2197723388671875,-0.0909271240234375,0.951873779296875
1776554387108047600,5.744047607421875,-0.2172088623046875,-0.0931549072265625,0.960418701171875
1776554387118087700,5.754087646484375,-0.21466064453125,-0.0941162109375,0.97125244140625
1776554387128128800,5.764128662109375,-0.214691162109375,-0.0983123779296875,0.980987548828125
1776554387138168600,5.77416845703125,-0.2176055908203125,-0.097412109375,0.9874267578125
1776554387148208600,5.784208740234375,-0.219757080078125,-0.09161376953125,0.9898529052734375
1776554387158248700,5.794248779296875,-0.22332763671875,-0.0832672119140625,0.9872894287109375
1776554387168288800,5.804288818359375,-0.2231597900390625,-0.0690765380859375,0.986785888671875
1776554387178328800,5.814328857421875,-0.2171478271484375,-0.052459716796875,0.988250732421875
1776554387188369700,5.82436962890625,-0.207122802734375,-0.041839599609375,0.99371337890625
1776554387198409500,5.834409423828125,-0.2000579833984375,-0.035400390625,0.9999847412109375
1776554387208449500,5.844449462890625,-0.196533203125,-0.035369873046875,1.0042724609375
1776554387218489600,5.854489501953125,-0.1951141357421875,-0.040374755859375,1.00677490234375
1776554387228529700,5.86452978515625,-0.196502685546875,-0.0500335693359375,1.0090179443359375
1776554387238569700,5.87456982421875,-0.2028656005859375,-0.06475830078125,1.0064697265625
1776554387248610800,5.88461083984375,-0.2068328857421875,-0.0770416259765625,0.998809814453125
1776554387258651000,5.89465087890625,-0.21014404296875,-0.0821685791015625,0.99029541015625
1776554387268690700,5.904690673828125,-0.207122802734375,-0.0808258056640625,0.9879150390625
1776554387278730800,5.914730712890625,-0.205413818359375,-0.076995849609375,0.9925689697265625
1776554387288770600,5.9247705078125,-0.202392578125,-0.07666015625,0.999114990234375
1776554387298810600,5.934810546875,-0.19781494140625,-0.0743408203125,1.00433349609375
1776554387308850700,5.9448505859375,-0.202301025390625,-0.0757904052734375,1.0051116943359375
1776554387318891800,5.954891845703125,-0.2141876220703125,-0.0800018310546875,0.9942779541015625
1776554387328931600,5.964931640625,-0.2241058349609375,-0.0798492431640625,0.9728546142578125
1776554387338971600,5.9749716796875,-0.23907470703125,-0.081207275390625,0.9531402587890625
1776554387349011700,5.98501171875,-0.2535552978515625,-0.0829315185546875,0.9368438720703125
1776554387359051800,5.9950517578125,-0.268280029296875,-0.0863037109375,0.9202423095703125
1776554387369091800,6.005091796875,-0.2773284912109375,-0.090606689453125,0.9059295654296875
1776554387379132700,6.015132568359375,-0.28094482421875,-0.0906829833984375,0.898284912109375
1776554387389172700,6.0251728515625,-0.276458740234375,-0.0886688232421875,0.9033355712890625
1776554387399212500,6.035212646484375,-0.2615203857421875,-0.0886077880859375,0.923828125
1776554387409252600,6.045252685546875,-0.24298095703125,-0.09381103515625,0.952423095703125
1776554387419292700,6.055292724609375,-0.2226104736328125,-0.0925750732421875,0.97430419921875
1776554387429332700,6.065332763671875,-0.2028656005859375,-0.081512451171875,0.9837188720703125
1776554387439372800,6.075372802734375,-0.180877685546875,-0.0628814697265625,0.981292724609375
1776554387449414000,6.085413818359375,-0.1652679443359375,-0.045440673828125,0.9751739501953125
1776554387459453700,6.09545361328125,-0.1575775146484375,-0.0399932861328125,0.9711151123046875
1776554387469493500,6.105493408203125,-0.1592559814453125,-0.040740966796875,0.9733428955078125
1776554387479533600,6.115533447265625,-0.1614532470703125,-0.0484161376953125,0.9781341552734375
1776554387489573600,6.12557373046875,-0.1767578125,-0.0662689208984375,0.9880828857421875
1776554387499613700,6.13561376953125,-0.1832122802734375,-0.0889892578125,0.9933929443359375
1776554387509654800,6.14565478515625,-0.19415283203125,-0.109283447265625,1.0035858154296875
1776554387519694600,6.155694580078125,-0.1955108642578125,-0.1189727783203125,1.0130615234375
1776554387529734700,6.165734619140625,-0.18878173828125,-0.125579833984375,1.020416259765625
1776554387539774700,6.175774658203125,-0.176605224609375,-0.124664306640625,1.015869140625
1776554387549814800,6.185814697265625,-0.1615753173828125,-0.1286468505859375,0.9943695068359375
1776554387559854800,6.195854736328125,-0.1479034423828125,-0.135498046875,0.9676361083984375
1776554387569895000,6.20589501953125,-0.1467437744140625,-0.1428375244140625,0.9524383544921875
1776554387579935700,6.215935791015625,-0.1534881591796875,-0.1543121337890625,0.9579315185546875
1776554387589975600,6.2259755859375,-0.1537628173828125,-0.164581298828125,0.967864990234375
1776554387600015600,6.236015625,-0.141326904296875,-0.1729278564453125,0.9690093994140625
1776554387610055700,6.2460556640625,-0.133209228515625,-0.18048095703125,0.97003173828125
1776554387620095700,6.256095703125,-0.14447021484375,-0.184112548828125,0.9774322509765625
1776554387630135800,6.2661357421875,-0.172088623046875,-0.18060302734375,0.988311767578125
1776554387640177000,6.276177001953125,-0.2060699462890625,-0.1690826416015625,0.98956298828125
1776554387650216700,6.286216796875,-0.2415924072265625,-0.15521240234375,0.9769287109375
1776554387660256500,6.296256591796875,-0.290679931640625,-0.136260986328125,0.966583251953125
1776554387670296600,6.306296630859375,-0.3287353515625,-0.1143798828125,0.96197509765625
1776554387680336600,6.316336669921875,-0.3455352783203125,-0.0984039306640625,0.9581756591796875
1776554387690376700,6.326376708984375,-0.352264404296875,-0.0944061279296875,0.9555816650390625
1776554387700416500,6.33641650390625,-0.3492584228515625,-0.102325439453125,0.9569091796875
1776554387710457600,6.34645751953125,-0.3267059326171875,-0.12249755859375,0.960540771484375
1776554387720497700,6.35649755859375,-0.2921600341796875,-0.136383056640625,0.9638214111328125
1776554387730537700,6.366537841796875,-0.2643585205078125,-0.1401824951171875,0.96014404296875
1776554387740577800,6.376577880859375,-0.248931884765625,-0.134429931640625,0.94378662109375
1776554387750617900,6.386617919921875,-0.2420806884765625,-0.1173095703125,0.912933349609375
1776554387760657700,6.39665771484375,-0.2435302734375,-0.0937042236328125,0.875579833984375
1776554387770697500,6.406697509765625,-0.2465362548828125,-0.0600128173828125,0.8435516357421875
1776554387780738600,6.416738525390625,-0.2454071044921875,-0.0128021240234375,0.8316650390625
1776554387790778600,6.426778564453125,-0.2323150634765625,0.03271484375,0.8533782958984375
1776554387800818700,6.436818603515625,-0.2194061279296875,0.0531768798828125,0.888397216796875
1776554387810858800,6.446858642578125,-0.2172698974609375,0.0418853759765625,0.9128265380859375
1776554387820898800,6.45689892578125,-0.2332611083984375,0.0157012939453125,0.92626953125
1776554387830938600,6.466938720703125,-0.2621307373046875,-0.0124969482421875,0.93792724609375
1776554387840979500,6.4769794921875,-0.297515869140625,-0.036712646484375,0.9564666748046875
1776554387851019500,6.48701953125,-0.321136474609375,-0.0569610595703125,0.9798583984375
1776554387861059600,6.4970595703125,-0.3330841064453125,-0.0829620361328125,1.0077972412109375
1776554387871099600,6.507099609375,-0.3334197998046875,-0.110992431640625,1.030181884765625
1776554387881139700,6.5171396484375,-0.3265533447265625,-0.13421630859375,1.0357208251953125
1776554387891179500,6.527179443359375,-0.3191680908203125,-0.1385040283203125,1.021728515625
1776554387901219600,6.537219482421875,-0.312774658203125,-0.1285858154296875,0.9949951171875
1776554387911259600,6.547259765625,-0.3053436279296875,-0.1161346435546875,0.9706573486328125
1776554387921300700,6.55730078125,-0.2936553955078125,-0.1053619384765625,0.957794189453125
1776554387931340800,6.5673408203125,-0.27752685546875,-0.101165771484375,0.96221923828125
1776554387941380900,6.577380859375,-0.257232666015625,-0.09832763671875,0.9794921875
1776554387951420700,6.587420654296875,-0.240509033203125,-0.0979766845703125,0.9998626708984375
1776554387961460500,6.59746044921875,-0.2295684814453125,-0.0980377197265625,1.0084228515625
1776554387971500500,6.60750048828125,-0.2291717529296875,-0.0969696044921875,0.9937591552734375
1776554387981541600,6.617541748046875,-0.2324676513671875,-0.0943450927734375,0.9631500244140625
1776554387991581700,6.627581787109375,-0.2398223876953125,-0.09088134765625,0.9290313720703125
1776554388001621800,6.637621826171875,-0.2435302734375,-0.0890655517578125,0.8988189697265625
1776554388011661800,6.647661865234375,-0.247650146484375,-0.0940704345703125,0.8784332275390625
1776554388021701600,6.65770166015625,-0.2540740966796875,-0.1023101806640625,0.8645477294921875
1776554388031741700,6.66774169921875,-0.2568511962890625,-0.1092529296875,0.8614501953125
1776554388041781800,6.67778173828125,-0.2474517822265625,-0.109039306640625,0.8637542724609375
1776554388051822600,6.687822509765625,-0.2354736328125,-0.1089324951171875,0.8847808837890625
1776554388061862700,6.697862548828125,-0.2310791015625,-0.0994110107421875,0.909423828125
1776554388071902700,6.70790283203125,-0.2058258056640625,-0.08319091796875,0.9366607666015625
1776554388081942500,6.717942626953125,-0.198028564453125,-0.0688629150390625,0.958740234375
1776554388091982600,6.727982666015625,-0.1959686279296875,-0.0497589111328125,0.9706573486328125
1776554388102022700,6.738022705078125,-0.1963958740234375,-0.0373077392578125,0.9786834716796875
1776554388112062700,6.748062744140625,-0.1998748779296875,-0.0323028564453125,0.984619140625
1776554388122103800,6.758103759765625,-0.2061614990234375,-0.0354461669921875,0.99609375
1776554388132143600,6.7681435546875,-0.2199249267578125,-0.0459136962890625,1.0084686279296875
1776554388142183700,6.77818359375,-0.234130859375,-0.0611114501953125,1.0184326171875
1776554388152223500,6.788223388671875,-0.2490997314453125,-0.0733795166015625,1.022186279296875
1776554388162263600,6.798263671875,-0.25860595703125,-0.0805206298828125,1.018646240234375
1776554388172303600,6.8083037109375,-0.257659912109375,-0.0858001708984375,1.0128021240234375
1776554388182343700,6.81834375,-0.244873046875,-0.090362548828125,1.0069580078125
1776554388192384800,6.828384765625,-0.223907470703125,-0.0947723388671875,0.998199462890625
1776554388202424800,6.8384248046875,-0.2037353515625,-0.099945068359375,0.9889984130859375
1776554388212464600,6.848464599609375,-0.1905975341796875,-0.106536865234375,0.9826812744140625
1776554388222504700,6.858504638671875,-0.1849365234375,-0.1095733642578125,0.9774932861328125
1776554388232544800,6.868544677734375,-0.186279296875,-0.1110687255859375,0.976531982421875
1776554388242584800,6.878584716796875,-0.19482421875,-0.1087799072265625,0.9743499755859375
1776554388252624600,6.888624755859375,-0.2053680419921875,-0.1043243408203125,0.9707183837890625
1776554388262664700,6.898664794921875,-0.215057373046875,-0.10235595703125,0.9662017822265625
1776554388272705800,6.908705810546875,-0.22088623046875,-0.0986480712890625,0.9608612060546875
1776554388282745600,6.91874560546875,-0.2226409912109375,-0.1006927490234375,0.960540771484375
1776554388292785700,6.92878564453125,-0.222625732421875,-0.1019744873046875,0.9635772705078125
1776554388302825700,6.93882568359375,-0.221466064453125,-0.1036529541015625,0.9675140380859375
1776554388312865800,6.94886572265625,-0.2232513427734375,-0.1081085205078125,0.971832275390625
1776554388322905900,6.95890576171875,-0.224090576171875,-0.1104736328125,0.9751739501953125
1776554388332945700,6.968945556640625,-0.2222442626953125,-0.1096038818359375,0.9780731201171875
1776554388342986500,6.978986572265625,-0.2190704345703125,-0.105438232421875,0.9781036376953125
1776554388353026600,6.989026611328125,-0.21795654296875,-0.1004180908203125,0.9722137451171875
1776554388363066600,6.999066650390625,-0.2166900634765625,-0.096221923828125,0.9620361328125
1776554388373106700,7.009106689453125,-0.2183837890625,-0.0931854248046875,0.955718994140625
1776554388383146800,7.019146728515625,-0.2218475341796875,-0.092071533203125,0.9521636962890625
1776554388393186600,7.0291865234375,-0.224578857421875,-0.0915374755859375,0.951812744140625
1776554388403226600,7.0392265625,-0.2247772216796875,-0.0940093994140625,0.9549102783203125
1776554388413267700,7.049267822265625,-0.2244110107421875,-0.0979766845703125,0.9571990966796875
1776554388423307800,7.059307861328125,-0.2261199951171875,-0.1023101806640625,0.9607086181640625
1776554388433347600,7.06934765625,-0.2274932861328125,-0.10614013671875,0.96319580078125
1776554388443387600,7.0793876953125,-0.228607177734375,-0.107940673828125,0.9659576416015625
1776554388453427700,7.089427734375,-0.2273712158203125,-0.1053466796875,0.96881103515625
1776554388463467500,7.099467529296875,-0.2289276123046875,-0.103271484375,0.9702911376953125
1776554388473507600,7.109507568359375,-0.2306976318359375,-0.0965576171875,0.9716339111328125
1776554388483547600,7.119547607421875,-0.2343597412109375,-0.0912933349609375,0.9716033935546875
1776554388493588700,7.129588623046875,-0.2386932373046875,-0.0879058837890625,0.970062255859375
1776554388503628800,7.13962890625,-0.2407989501953125,-0.0871734619140625,0.9692840576171875
1776554388513668900,7.1496689453125,-0.241058349609375,-0.0860595703125,0.9702301025390625
1776554388523708700,7.159708740234375,-0.23779296875,-0.0867462158203125,0.97125244140625
1776554388533748700,7.169748779296875,-0.234619140625,-0.084930419921875,0.9733123779296875
1776554388543788500,7.17978857421875,-0.2306365966796875,-0.0854644775390625,0.973541259765625
1776554388553828600,7.18982861328125,-0.2251739501953125,-0.083984375,0.971649169921875
1776554388563869700,7.19986962890625,-0.220611572265625,-0.084564208984375,0.9682769775390625
1776554388573909800,7.20990966796875,-0.2163238525390625,-0.083953857421875,0.9649505615234375
1776554388583949600,7.219949462890625,-0.2142791748046875,-0.081634521484375,0.9622039794921875
1776554388593989600,7.22998974609375,-0.214019775390625,-0.082275390625,0.959503173828125
1776554388604029700,7.24002978515625,-0.215606689453125,-0.0850677490234375,0.957489013671875
1776554388614069800,7.25006982421875,-0.21881103515625,-0.08782958984375,0.9581756591796875
1776554388624109800,7.26010986328125,-0.22149658203125,-0.091339111328125,0.9600067138671875
1776554388634150000,7.27014990234375,-0.22369384765625,-0.091552734375,0.9629364013671875
1776554388644190700,7.280190673828125,-0.2270660400390625,-0.0940093994140625,0.96759033203125
1776554388654230500,7.29023046875,-0.2291717529296875,-0.09478759765625,0.972381591796875
1776554388664270600,7.3002705078125,-0.2313690185546875,-0.0962371826171875,0.9754486083984375
1776554388674310700,7.310310546875,-0.2315216064453125,-0.101043701171875,0.976287841796875
1776554388684350700,7.320350830078125,-0.230316162109375,-0.1062469482421875,0.9749603271484375
1776554388694390800,7.330390869140625,-0.2324676513671875,-0.1085357666015625,0.972869873046875
1776554388704430600,7.3404306640625,-0.2358245849609375,-0.108795166015625,0.96844482421875
1776554388714470700,7.350470703125,-0.236480712890625,-0.109710693359375,0.966461181640625
1776554388724511700,7.36051171875,-0.2345733642578125,-0.1079864501953125,0.9636688232421875
1776554388734551600,7.370551513671875,-0.233734130859375,-0.1053314208984375,0.9599151611328125
1776554388744591600,7.380591552734375,-0.23028564453125,-0.1033477783203125,0.955230712890625
1776554388754631700,7.390631591796875,-0.2277984619140625,-0.1031494140625,0.9508209228515625
1776554388764671200,7.400671142578125,-0.224761962890625,-0.1036224365234375,0.94854736328125
1776554388774711300,7.410711181640625,-0.2245941162109375,-0.10467529296875,0.948883056640625
1776554388784751400,7.42075146484375,-0.2262725830078125,-0.1045989990234375,0.950347900390625
1776554388794792400,7.43079248046875,-0.229705810546875,-0.1057586669921875,0.9527130126953125
1776554388804832500,7.44083251953125,-0.2325592041015625,-0.1086273193359375,0.95574951171875
1776554388814872600,7.45087255859375,-0.2330474853515625,-0.1104278564453125,0.958831787109375
1776554388824912400,7.460912353515625,-0.2342681884765625,-0.1099853515625,0.9613037109375
1776554388834952400,7.470952392578125,-0.2352142333984375,-0.108428955078125,0.96246337890625
1776554388844992500,7.480992431640625,-0.2351226806640625,-0.1060333251953125,0.962554931640625
1776554388855032300,7.4910322265625,-0.2366790771484375,-0.1038665771484375,0.962371826171875
1776554388865072400,7.501072265625,-0.236572265625,-0.103302001953125,0.963104248046875
1776554388875112400,7.511112548828125,-0.2370758056640625,-0.10028076171875,0.9613494873046875
1776554388885153500,7.521153564453125,-0.2354583740234375,-0.098907470703125,0.9601898193359375
1776554388895193300,7.531193359375,-0.2355499267578125,-0.0972900390625,0.960479736328125
1776554388905233400,7.5412333984375,-0.2371063232421875,-0.0923919677734375,0.961517333984375
1776554388915273500,7.5512734375,-0.23797607421875,-0.0906524658203125,0.96307373046875
1776554388925313500,7.5613134765625,-0.238739013671875,-0.089874267578125,0.96258544921875
1776554388935353600,7.571353515625,-0.237091064453125,-0.0914764404296875,0.96112060546875
1776554388945393400,7.581393310546875,-0.237030029296875,-0.091766357421875,0.95977783203125
1776554388955433500,7.59143359375,-0.2360382080078125,-0.0914154052734375,0.958953857421875
1776554388965474300,7.601474365234375,-0.23712158203125,-0.090484619140625,0.958343505859375
1776554388975514400,7.611514404296875,-0.2373504638671875,-0.089019775390625,0.9575958251953125
1776554388985554400,7.621554443359375,-0.234161376953125,-0.086700439453125,0.9564208984375
1776554388995594500,7.631594482421875,-0.2310791015625,-0.08673095703125,0.9558868408203125
1776554389005634300,7.64163427734375,-0.2299346923828125,-0.086700439453125,0.9566497802734375
1776554389015674400,7.65167431640625,-0.2306671142578125,-0.086578369140625,0.9613494873046875
1776554389025714400,7.66171435546875,-0.233673095703125,-0.0882568359375,0.9664764404296875
1776554389035754500,7.67175439453125,-0.2363128662109375,-0.092559814453125,0.9701995849609375
1776554389045795300,7.68179541015625,-0.2371673583984375,-0.0974578857421875,0.9718475341796875
1776554389055835400,7.69183544921875,-0.239288330078125,-0.1043701171875,0.97064208984375
1776554389065875500,7.70187548828125,-0.240386962890625,-0.1098480224609375,0.969207763671875
1776554389075915300,7.711915283203125,-0.2388153076171875,-0.1133575439453125,0.9654388427734375
1776554389085955300,7.721955322265625,-0.237579345703125,-0.1118927001953125,0.961181640625
1776554389095995400,7.731995361328125,-0.236480712890625,-0.1090240478515625,0.95654296875
1776554389106035500,7.742035400390625,-0.2336883544921875,-0.1071319580078125,0.953399658203125
1776554389116075500,7.752075439453125,-0.2311553955078125,-0.1057586669921875,0.95343017578125
1776554389126116600,7.76211669921875,-0.228240966796875,-0.10565185546875,0.956817626953125
1776554389136156400,7.772156494140625,-0.22491455078125,-0.1032867431640625,0.959747314453125
1776554389146196500,7.782196533203125,-0.2232208251953125,-0.1043701171875,0.9622039794921875
1776554389156236300,7.792236328125,-0.222900390625,-0.1035614013671875,0.96246337890625
1776554389166276400,7.8022763671875,-0.2238311767578125,-0.1022796630859375,0.96331787109375
1776554389176316400,7.81231640625,-0.22515869140625,-0.100311279296875,0.965087890625
1776554389186356500,7.8223564453125,-0.2281341552734375,-0.0950164794921875,0.9662628173828125
1776554389196396300,7.832396240234375,-0.23138427734375,-0.0925750732421875,0.970367431640625
1776554389206436400,7.842436279296875,-0.233489990234375,-0.088226318359375,0.974334716796875
1776554389216477400,7.8524775390625,-0.2335357666015625,-0.086212158203125,0.9792327880859375
1776554389226517500,7.862517578125,-0.234100341796875,-0.08624267578125,0.982086181640625
1776554389236557600,7.8725576171875,-0.23345947265625,-0.086578369140625,0.982269287109375
1776554389246597600,7.88259765625,-0.231781005859375,-0.0847625732421875,0.9781951904296875
1776554389256637400,7.892637451171875,-0.2329559326171875,-0.0839996337890625,0.9722900390625
1776554389266677500,7.902677490234375,-0.234375,-0.0841522216796875,0.967254638671875
1776554389276717300,7.91271728515625,-0.2321624755859375,-0.0852508544921875,0.96240234375
1776554389286757400,7.92275732421875,-0.2331085205078125,-0.088897705078125,0.9597625732421875
1776554389296798500,7.932798583984375,-0.2333526611328125,-0.0923309326171875,0.9588623046875
1776554389306838500,7.942838623046875,-0.2342681884765625,-0.095245361328125,0.9576568603515625
1776554389316878300,7.95287841796875,-0.234344482421875,-0.0960845947265625,0.956634521484375
1776554389326918400,7.96291845703125,-0.2340087890625,-0.094818115234375,0.9557342529296875
1776554389336958500,7.97295849609375,-0.2350006103515625,-0.09344482421875,0.9564056396484375
1776554389346998500,7.98299853515625,-0.2358551025390625,-0.092132568359375,0.955535888671875
1776554389357038600,7.99303857421875,-0.235443115234375,-0.093658447265625,0.956512451171875
1776554389367078700,8.00307861328125,-0.2374420166015625,-0.096405029296875,0.9558258056640625
1776554389377118500,8.013118408203125,-0.239471435546875,-0.100006103515625,0.956787109375
1776554389387159300,8.0231591796875,-0.24261474609375,-0.10711669921875,0.9571990966796875
1776554389397199400,8.033199462890625,-0.2425537109375,-0.111663818359375,0.95843505859375
1776554389407239400,8.043239501953124,-0.2421875,-0.11407470703125,0.9597930908203125
1776554389417279500,8.053279541015625,-0.2421417236328125,-0.11468505859375,0.9586639404296875
1776554389427319600,8.063319580078126,-0.238739013671875,-0.1127471923828125,0.9575653076171875
1776554389437359400,8.073359375,-0.236724853515625,-0.110198974609375,0.9571075439453125
1776554389447399400,8.0833994140625,-0.2353668212890625,-0.1073150634765625,0.9564056396484375
1776554389457439500,8.093439453125,-0.235015869140625,-0.1049346923828125,0.9564666748046875
1776554389467479600,8.1034794921875,-0.2354278564453125,-0.1016998291015625,0.956634521484375
1776554389477520400,8.113520263671875,-0.239044189453125,-0.098388671875,0.955902099609375
1776554389487560400,8.123560546875,-0.2400970458984375,-0.0960845947265625,0.956878662109375
1776554389497600300,8.133600341796875,-0.23919677734375,-0.0939483642578125,0.9581298828125
1776554389507640300,8.143640380859376,-0.238006591796875,-0.09295654296875,0.959259033203125
1776554389517680400,8.153680419921875,-0.235076904296875,-0.093353271484375,0.96002197265625
1776554389527720400,8.163720458984375,-0.2327880859375,-0.0937652587890625,0.961669921875
1776554389537760500,8.173760498046875,-0.23211669921875,-0.096160888671875,0.9615020751953125
1776554389547800600,8.183800537109375,-0.231201171875,-0.0988006591796875,0.9622955322265625
1776554389557840400,8.19384033203125,-0.2332916259765625,-0.0990753173828125,0.961944580078125
1776554389567881500,8.203881591796875,-0.2324981689453125,-0.0996856689453125,0.96063232421875
1776554389577921300,8.21392138671875,-0.2321929931640625,-0.10009765625,0.959014892578125
1776554389587961300,8.22396142578125,-0.231781005859375,-0.1008453369140625,0.9582977294921875
1776554389598001400,8.23400146484375,-0.230804443359375,-0.10516357421875,0.9577789306640625
1776554389608041500,8.24404150390625,-0.231658935546875,-0.1100311279296875,0.9584808349609375
1776554389618081300,8.254081298828124,-0.23236083984375,-0.1110076904296875,0.9610443115234375
1776554389628121300,8.264121337890625,-0.2312774658203125,-0.1088104248046875,0.964385986328125
1776554389638161400,8.274161376953124,-0.2330169677734375,-0.103240966796875,0.965576171875
1776554389648201500,8.284201416015625,-0.23480224609375,-0.098480224609375,0.9650115966796875
1776554389658242600,8.29424267578125,-0.2346343994140625,-0.09442138671875,0.9646759033203125
1776554389668282600,8.30428271484375,-0.2333831787109375,-0.0939178466796875,0.9647064208984375
1776554389678322400,8.314322509765624,-0.23236083984375,-0.0964813232421875,0.9625396728515625
1776554389688362200,8.3243623046875,-0.2281036376953125,-0.09710693359375,0.9609375
1776554389698402300,8.33440234375,-0.2272491455078125,-0.0980377197265625,0.960662841796875
1776554389708442400,8.3444423828125,-0.2256317138671875,-0.096588134765625,0.9608154296875
1776554389718482400,8.354482421875,-0.2246551513671875,-0.0937042236328125,0.9623565673828125
1776554389728522500,8.3645224609375,-0.2237396240234375,-0.090576171875,0.9637298583984375
1776554389738562300,8.374562255859376,-0.22576904296875,-0.0887298583984375,0.966064453125
1776554389748603400,8.384603271484375,-0.2271728515625,-0.0874481201171875,0.968902587890625
1776554389758643500,8.3946435546875,-0.228607177734375,-0.0847625732421875,0.9713134765625
1776554389768684000,8.40468408203125,-0.2294464111328125,-0.0827178955078125,0.9723052978515625
1776554389778723800,8.414723876953126,-0.228668212890625,-0.085540771484375,0.9703826904296875
1776554389788764000,8.424763916015625,-0.2272186279296875,-0.087738037109375,0.96868896484375
1776554389798804000,8.434803955078126,-0.2263031005859375,-0.0908203125,0.9672393798828125
1776554389808844000,8.444843994140625,-0.2252044677734375,-0.0919342041015625,0.9664764404296875
1776554389818884000,8.454884033203125,-0.2232666015625,-0.093017578125,0.96746826171875
1776554389828924000,8.464923828125,-0.2194976806640625,-0.095489501953125,0.9691619873046875
1776554389838965000,8.474965087890626,-0.217864990234375,-0.097442626953125,0.9711761474609375
1776554389849005000,8.485005126953125,-0.2188568115234375,-0.0994110107421875,0.973388671875
1776554389859045000,8.495045166015625,-0.2211761474609375,-0.099212646484375,0.97137451171875
1776554389869085200,8.505085205078124,-0.225311279296875,-0.097930908203125,0.9691314697265625
1776554389879125000,8.515125,-0.2299652099609375,-0.097686767578125,0.9673614501953125
1776554389889165000,8.5251650390625,-0.230621337890625,-0.09814453125,0.9654388427734375
1776554389899204900,8.535204833984375,-0.2305908203125,-0.0983123779296875,0.965057373046875
1776554389909245000,8.545244873046874,-0.2276458740234375,-0.1010589599609375,0.9647216796875
1776554389919285000,8.555284912109375,-0.223785400390625,-0.10247802734375,0.966400146484375
1776554389929325000,8.565324951171876,-0.2190399169921875,-0.10260009765625,0.9667205810546875
1776554389939366100,8.5753662109375,-0.2155609130859375,-0.1023101806640625,0.9660491943359375
1776554389949406200,8.58540625,-0.2149658203125,-0.1006927490234375,0.96624755859375
1776554389959446000,8.595446044921875,-0.2154541015625,-0.09735107421875,0.9663848876953125
1776554389969486000,8.605486083984376,-0.2203826904296875,-0.0957794189453125,0.966796875
1776554389979526100,8.615526123046875,-0.2232513427734375,-0.0963287353515625,0.966644287109375
1776554389989566200,8.625566162109376,-0.225189208984375,-0.0985107421875,0.9679718017578125
1776554389999606000,8.63560595703125,-0.226226806640625,-0.099884033203125,0.968719482421875
1776554390009645800,8.645645751953126,-0.22705078125,-0.101776123046875,0.9674224853515625
1776554390019686000,8.655685791015625,-0.2254638671875,-0.1026153564453125,0.9665679931640625
1776554390029727000,8.66572705078125,-0.2245635986328125,-0.10247802734375,0.967041015625
1776554390039767000,8.67576708984375,-0.221466064453125,-0.103546142578125,0.96826171875
1776554390049807000,8.68580712890625,-0.220489501953125,-0.1018524169921875,0.969879150390625
1776554390059847200,8.69584716796875,-0.2207489013671875,-0.1011505126953125,0.969970703125
1776554390069887200,8.70588720703125,-0.2212371826171875,-0.1019744873046875,0.9695281982421875
1776554390079927000,8.715927001953125,-0.22064208984375,-0.106536865234375,0.9678497314453125
1776554390089967000,8.725967041015625,-0.2227325439453125,-0.1112518310546875,0.965789794921875
1776554390100007200,8.736007080078124,-0.2243194580078125,-0.11431884765625,0.962493896484375
1776554390110047000,8.746046875,-0.22760009765625,-0.114593505859375,0.95953369140625
1776554390120087000,8.756087158203124,-0.229583740234375,-0.11260986328125,0.95648193359375
1776554390130128100,8.766128173828125,-0.2297821044921875,-0.109100341796875,0.9555816650390625
1776554390140168000,8.77616796875,-0.2278289794921875,-0.106414794921875,0.957855224609375
1776554390150208000,8.7862080078125,-0.2271881103515625,-0.1036376953125,0.9607696533203125
1776554390160248000,8.796248046875,-0.225555419921875,-0.101409912109375,0.962799072265625
1776554390170288000,8.8062880859375,-0.2231903076171875,-0.09893798828125,0.9644927978515625
1776554390180328200,8.816328125,-0.224029541015625,-0.0984039306640625,0.9636077880859375
1776554390190368000,8.826367919921875,-0.224945068359375,-0.0994110107421875,0.96124267578125
1776554390200408000,8.836407958984376,-0.228546142578125,-0.0998382568359375,0.9586181640625
1776554390210448100,8.8464482421875,-0.2318115234375,-0.10089111328125,0.9571685791015625
1776554390220488200,8.85648828125,-0.23602294921875,-0.10394287109375,0.95526123046875
1776554390230529000,8.866529052734375,-0.2366943359375,-0.1055755615234375,0.956573486328125
1776554390240569000,8.876569091796876,-0.236358642578125,-0.1059112548828125,0.95855712890625
1776554390250609200,8.886609130859375,-0.23406982421875,-0.103790283203125,0.9603271484375
1776554390260649000,8.89664892578125,-0.2313232421875,-0.0988311767578125,0.9630279541015625
1776554390270689000,8.90668896484375,-0.2291717529296875,-0.0941619873046875,0.965728759765625
1776554390280729000,8.91672900390625,-0.2278289794921875,-0.0882110595703125,0.965484619140625
1776554390290769200,8.92676904296875,-0.2281646728515625,-0.0850830078125,0.9630279541015625
1776554390300809200,8.936809326171876,-0.2292327880859375,-0.08465576171875,0.9606475830078125
1776554390310849000,8.94684912109375,-0.2314453125,-0.0860595703125,0.9607086181640625
1776554390320889900,8.956889892578126,-0.2350921630859375,-0.0866241455078125,0.961456298828125
1776554390330930000,8.966929931640625,-0.235015869140625,-0.087921142578125,0.9633941650390625
1776554390340970000,8.976969970703125,-0.234344482421875,-0.08953857421875,0.9653778076171875
1776554390351010000,8.987010009765624,-0.2305450439453125,-0.0915679931640625,0.9664306640625
1776554390361050000,8.997050048828125,-0.2277679443359375,-0.0935516357421875,0.966400146484375
1776554390371090000,9.00708984375,-0.22723388671875,-0.093505859375,0.9658355712890625
1776554390381130000,9.0171298828125,-0.2281646728515625,-0.094940185546875,0.9658966064453125
1776554390391170000,9.027170166015624,-0.2310638427734375,-0.0953216552734375,0.9674224853515625
1776554390401210000,9.037210205078125,-0.2335052490234375,-0.0944976806640625,0.968505859375
1776554390411250200,9.047250244140624,-0.2342071533203125,-0.0941619873046875,0.9695892333984375
1776554390421291000,9.057291015625,-0.2338714599609375,-0.0939178466796875,0.967437744140625
1776554390431331000,9.0673310546875,-0.2332763671875,-0.0953826904296875,0.96380615234375
1776554390441371000,9.077370849609375,-0.23162841796875,-0.0975189208984375,0.9614105224609375
1776554390451411000,9.087410888671876,-0.2313232421875,-0.1009521484375,0.9597320556640625
1776554390461451000,9.097450927734375,-0.2319488525390625,-0.1044769287109375,0.9591064453125
1776554390471491000,9.107490966796876,-0.2302398681640625,-0.106231689453125,0.960113525390625
1776554390481531100,9.11753125,-0.2307586669921875,-0.1066741943359375,0.960479736328125
1776554390491571000,9.127571044921876,-0.230072021484375,-0.105255126953125,0.96148681640625
1776554390501611000,9.137611083984375,-0.23193359375,-0.1033935546875,0.9622955322265625
1776554390511651000,9.147651123046876,-0.2305450439453125,-0.1010589599609375,0.9615936279296875
1776554390521692200,9.157692138671875,-0.2303924560546875,-0.099700927734375,0.96038818359375
1776554390531732000,9.16773193359375,-0.23114013671875,-0.0991973876953125,0.9597015380859375
1776554390541772000,9.17777197265625,-0.229888916015625,-0.102783203125,0.958038330078125
1776554390551811800,9.187811767578125,-0.2300262451171875,-0.10430908203125,0.9598236083984375
1776554390561852000,9.197851806640625,-0.2316741943359375,-0.10614013671875,0.96044921875
1776554390571892000,9.20789208984375,-0.23150634765625,-0.107513427734375,0.96099853515625
1776554390581932000,9.21793212890625,-0.23052978515625,-0.1078643798828125,0.96343994140625
1776554390591972000,9.22797216796875,-0.230133056640625,-0.1051483154296875,0.9645538330078125
1776554390602012200,9.23801220703125,-0.22857666015625,-0.10137939453125,0.963836669921875
1776554390612052000,9.248052001953125,-0.23046875,-0.098114013671875,0.9625701904296875
1776554390622093000,9.258093017578124,-0.2304229736328125,-0.0948638916015625,0.96197509765625
1776554390632133000,9.268133056640625,-0.2319183349609375,-0.092864990234375,0.9624481201171875
1776554390642173000,9.2781728515625,-0.2336578369140625,-0.0912933349609375,0.9647979736328125
1776554390652213000,9.288212890625,-0.2351531982421875,-0.0893707275390625,0.9662628173828125
1776554390662253000,9.298253173828124,-0.23553466796875,-0.08868408203125,0.96881103515625
1776554390672292900,9.30829296875,-0.233184814453125,-0.090972900390625,0.9698333740234375
1776554390682333000,9.3183330078125,-0.23138427734375,-0.09381103515625,0.9687347412109375
1776554390692373000,9.328373046875,-0.2284698486328125,-0.093994140625,0.966156005859375
1776554390702413000,9.3384130859375,-0.2290802001953125,-0.0961761474609375,0.96282958984375
1776554390712453000,9.348453125,-0.230255126953125,-0.095855712890625,0.96112060546875
1776554390722493000,9.358492919921876,-0.232208251953125,-0.095489501953125,0.9602203369140625
1776554390732534300,9.3685341796875,-0.233734130859375,-0.0942230224609375,0.961181640625
1776554390742574000,9.378573974609376,-0.2334747314453125,-0.090301513671875,0.9620819091796875
1776554390752614100,9.3886142578125,-0.2335205078125,-0.0864715576171875,0.9645233154296875
1776554390762654000,9.398654052734376,-0.2343597412109375,-0.08270263671875,0.965911865234375
1776554390772693800,9.40869384765625,-0.23345947265625,-0.0794525146484375,0.9654998779296875
1776554390782733600,9.418733642578125,-0.2333526611328125,-0.079376220703125,0.963836669921875
1776554390792773600,9.428773681640624,-0.2326812744140625,-0.081634521484375,0.9632110595703125
1776554390802813700,9.438813720703125,-0.2325286865234375,-0.08935546875,0.9635162353515625
1776554390812853800,9.448853759765624,-0.2326507568359375,-0.0965728759765625,0.96405029296875
1776554390822893600,9.4588935546875,-0.23284912109375,-0.1017913818359375,0.964599609375
1776554390832934700,9.4689345703125,-0.23358154296875,-0.1051788330078125,0.9647674560546875
1776554390842974700,9.478974609375,-0.2332305908203125,-0.104522705078125,0.966339111328125
1776554390853014800,9.489014892578124,-0.2335052490234375,-0.1033935546875,0.968353271484375
1776554390863054800,9.499054931640625,-0.2315826416015625,-0.1004486083984375,0.96990966796875
1776554390873095000,9.509094970703124,-0.2318878173828125,-0.0982513427734375,0.9693603515625
1776554390883134700,9.519134765625,-0.2322845458984375,-0.09759521484375,0.9676055908203125
1776554390893174500,9.529174560546876,-0.232208251953125,-0.098114013671875,0.962890625
1776554390903214600,9.539214599609375,-0.2343292236328125,-0.1001739501953125,0.9575347900390625
1776554390913254700,9.549254638671876,-0.23480224609375,-0.1020660400390625,0.9553680419921875
1776554390923294700,9.559294677734375,-0.2336883544921875,-0.1046905517578125,0.9547119140625
1776554390933335800,9.569335693359376,-0.233123779296875,-0.1071929931640625,0.955810546875
1776554390943376000,9.5793759765625,-0.2317657470703125,-0.1082916259765625,0.957000732421875
1776554390953415700,9.589415771484376,-0.2301788330078125,-0.10748291015625,0.9557342529296875
1776554390963455700,9.599455810546875,-0.22784423828125,-0.106842041015625,0.9534454345703125
1776554390973495800,9.609495849609376,-0.2287445068359375,-0.1054840087890625,0.952484130859375
1776554390983535900,9.619535888671875,-0.2301483154296875,-0.106170654296875,0.9532470703125
1776554390993576000,9.629575927734376,-0.2332611083984375,-0.1075897216796875,0.9561767578125
1776554391003615700,9.63961572265625,-0.2374420166015625,-0.1076202392578125,0.9596405029296875
1776554391013655600,9.649655517578125,-0.24029541015625,-0.10577392578125,0.96197509765625
1776554391023695600,9.659695556640624,-0.24163818359375,-0.103363037109375,0.964752197265625
1776554391033736700,9.66973681640625,-0.2388458251953125,-0.0983734130859375,0.96429443359375
1776554391043776800,9.67977685546875,-0.235076904296875,-0.0968170166015625,0.9640655517578125
1776554391053816800,9.68981689453125,-0.2310943603515625,-0.0973052978515625,0.9633026123046875
1776554391063856600,9.699856689453124,-0.2278900146484375,-0.0978851318359375,0.963134765625
1776554391073896700,9.709896728515625,-0.22906494140625,-0.09735107421875,0.9640960693359375
1776554391083936800,9.719936767578124,-0.230255126953125,-0.0955657958984375,0.9654388427734375
1776554391093976800,9.729976806640625,-0.2303924560546875,-0.0947723388671875,0.96478271484375
1776554391104017000,9.740016845703124,-0.229461669921875,-0.0930328369140625,0.9611358642578125
1776554391114056700,9.750056640625,-0.228485107421875,-0.0901641845703125,0.9580841064453125
1776554391124096500,9.760096435546876,-0.2268524169921875,-0.0883331298828125,0.9577178955078125
1776554391134136600,9.770136474609375,-0.226837158203125,-0.0898284912109375,0.9612884521484375
1776554391144177700,9.780177734375,-0.22589111328125,-0.09222412109375,0.9686431884765625
1776554391154217700,9.7902177734375,-0.2271270751953125,-0.097137451171875,0.976043701171875
1776554391164257800,9.8002578125,-0.2312774658203125,-0.102325439453125,0.9813690185546875
1776554391174297900,9.8102978515625,-0.234039306640625,-0.1046142578125,0.98284912109375
1776554391184337700,9.820337646484376,-0.2350921630859375,-0.1012725830078125,0.978485107421875
1776554391194377700,9.830377685546875,-0.2338104248046875,-0.095733642578125,0.97119140625
1776554391204417800,9.840417724609376,-0.233551025390625,-0.091094970703125,0.9659423828125
1776554391214457900,9.850457763671875,-0.2330780029296875,-0.08892822265625,0.9631500244140625
1776554391224498000,9.860497802734375,-0.233428955078125,-0.090911865234375,0.9609222412109375
1776554391234537700,9.870537841796875,-0.2325897216796875,-0.091094970703125,0.958251953125
1776554391244577500,9.88057763671875,-0.2304534912109375,-0.0904998779296875,0.957366943359375
1776554391254618600,9.89061865234375,-0.2302703857421875,-0.0910186767578125,0.955657958984375
1776554391264658700,9.90065869140625,-0.229400634765625,-0.0938720703125,0.9524078369140625
1776554391274698800,9.91069873046875,-0.22979736328125,-0.09759521484375,0.950164794921875
1776554391284738800,9.92073876953125,-0.230224609375,-0.100677490234375,0.9485015869140625
1776554391294779000,9.93077880859375,-0.2332916259765625,-0.1029510498046875,0.9508056640625
1776554391304818700,9.940818603515625,-0.2376861572265625,-0.1006927490234375,0.9542236328125
1776554391314858800,9.950858642578124,-0.2413177490234375,-0.0986328125,0.955596923828125
1776554391324898800,9.96089892578125,-0.2441864013671875,-0.09869384765625,0.9577484130859375
1776554391334939000,9.97093896484375,-0.245513916015625,-0.0997314453125,0.9587249755859375
1776554391344978700,9.980978759765625,-0.24530029296875,-0.1013336181640625,0.959625244140625
1776554391355018500,9.9910185546875,-0.242279052734375,-0.1019439697265625,0.960235595703125
1776554391365059600,10.0010595703125,-0.2401885986328125,-0.0999908447265625,0.9602508544921875
1776554391375099600,10.011099609375,-0.2396240234375,-0.09674072265625,0.960235595703125
1776554391385139700,10.0211396484375,-0.2389068603515625,-0.0934295654296875,0.9594268798828125
1776554391395179800,10.0311796875,-0.23895263671875,-0.092437744140625,0.9617919921875
1776554391405219800,10.0412197265625,-0.238983154296875,-0.0928497314453125,0.9632415771484375
1776554391415259600,10.051259765625,-0.238983154296875,-0.09588623046875,0.9637908935546875
1776554391425299700,10.0612998046875,-0.23663330078125,-0.0989532470703125,0.961639404296875
1776554391435339800,10.07133984375,-0.236602783203125,-0.0991973876953125,0.959686279296875
1776554391445379800,10.0813798828125,-0.2353973388671875,-0.097625732421875,0.9579315185546875
1776554391455420000,10.091419921875,-0.23284912109375,-0.0950775146484375,0.9579620361328125
1776554391465460700,10.101460693359375,-0.231842041015625,-0.093536376953125,0.9609527587890625
1776554391475500800,10.111500732421876,-0.227325439453125,-0.0916290283203125,0.964324951171875
1776554391485540600,10.12154052734375,-0.2256927490234375,-0.0896148681640625,0.9683074951171875
1776554391495580700,10.13158056640625,-0.227264404296875,-0.0881805419921875,0.97265625
1776554391505620700,10.141620849609374,-0.2292938232421875,-0.0882720947265625,0.97393798828125
1776554391515660800,10.151660888671875,-0.2323455810546875,-0.089141845703125,0.97503662109375
1776554391525700900,10.161700927734374,-0.2330780029296875,-0.089935302734375,0.9754486083984375
1776554391535740700,10.17174072265625,-0.2352752685546875,-0.0907440185546875,0.9741973876953125
1776554391545780700,10.18178076171875,-0.2353973388671875,-0.0902862548828125,0.9728546142578125
1776554391555820800,10.19182080078125,-0.2337799072265625,-0.09033203125,0.9696807861328125
1776554391565860900,10.20186083984375,-0.2329254150390625,-0.091339111328125,0.9663848876953125
1776554391575901700,10.211901611328125,-0.2306365966796875,-0.0919342041015625,0.9618988037109375
1776554391585941800,10.221941650390624,-0.2284698486328125,-0.09344482421875,0.95916748046875
1776554391595981800,10.23198193359375,-0.228759765625,-0.0950469970703125,0.956787109375
1776554391606021600,10.242021728515626,-0.2265777587890625,-0.0984649658203125,0.9554443359375
1776554391616061700,10.252061767578125,-0.22784423828125,-0.1028594970703125,0.9550018310546875
1776554391626101800,10.262101806640626,-0.228363037109375,-0.1073150634765625,0.954315185546875
1776554391636141800,10.272141845703125,-0.2291259765625,-0.1116943359375,0.953857421875
1776554391646182000,10.282181884765626,-0.2297210693359375,-0.112396240234375,0.9556427001953125
1776554391656221700,10.2922216796875,-0.2301025390625,-0.111907958984375,0.9574432373046875
1776554391666261800,10.30226171875,-0.228302001953125,-0.1113128662109375,0.9596099853515625
1776554391676301800,10.3123017578125,-0.22772216796875,-0.108612060546875,0.9600372314453125
1776554391686342700,10.3223427734375,-0.2262725830078125,-0.10858154296875,0.960845947265625
1776554391696382700,10.3323828125,-0.226226806640625,-0.10882568359375,0.9631500244140625
1776554391706422800,10.3424228515625,-0.2263641357421875,-0.106536865234375,0.9636993408203125
1776554391716462600,10.352462646484375,-0.2263336181640625,-0.10406494140625,0.963836669921875
1776554391726502700,10.362502685546875,-0.2285003662109375,-0.101654052734375,0.96417236328125
1776554391736542700,10.372542724609374,-0.2280120849609375,-0.1004791259765625,0.9660491943359375
1776554391746582800,10.382582763671875,-0.227325439453125,-0.0997161865234375,0.9679107666015625
1776554391756622800,10.392622802734374,-0.225555419921875,-0.0983123779296875,0.9693450927734375
1776554391766662400,10.402662353515625,-0.2245330810546875,-0.0965423583984375,0.9685821533203125
1776554391776702500,10.412702392578124,-0.2243194580078125,-0.097076416015625,0.9669342041015625
1776554391786742500,10.422742431640625,-0.2250518798828125,-0.0985260009765625,0.9663543701171875
1776554391796783400,10.432783447265624,-0.2264404296875,-0.0983734130859375,0.966094970703125
1776554391806823400,10.442823486328125,-0.22698974609375,-0.099151611328125,0.966949462890625
1776554391816863500,10.452863525390624,-0.226287841796875,-0.098846435546875,0.96820068359375
1776554391826903300,10.4629033203125,-0.2261962890625,-0.098907470703125,0.96588134765625
1776554391836943400,10.472943359375,-0.2259368896484375,-0.098907470703125,0.9642791748046875
1776554391846983400,10.4829833984375,-0.2278900146484375,-0.0957489013671875,0.9645233154296875
1776554391857023500,10.4930234375,-0.2295989990234375,-0.0931243896484375,0.96533203125
1776554391867063600,10.5030634765625,-0.2303009033203125,-0.0902557373046875,0.9643096923828125
1776554391877103400,10.513103271484376,-0.2317962646484375,-0.09063720703125,0.9651031494140625
1776554391887143400,10.523143310546875,-0.2310028076171875,-0.0946807861328125,0.9658966064453125
1776554391897183500,10.53318359375,-0.2308807373046875,-0.0997314453125,0.9662933349609375
1776554391907223600,10.5432236328125,-0.227081298828125,-0.102752685546875,0.9666595458984375
1776554391917264400,10.553264404296876,-0.226715087890625,-0.1024932861328125,0.96453857421875
1776554391927304400,10.563304443359375,-0.2257232666015625,-0.1031341552734375,0.9606781005859375
1776554391937344300,10.57334423828125,-0.2247314453125,-0.102020263671875,0.9587249755859375
1776554391947384300,10.58338427734375,-0.224151611328125,-0.101287841796875,0.9583282470703125
1776554391957424400,10.59342431640625,-0.2264251708984375,-0.1021728515625,0.960235595703125
1776554391967464400,10.60346435546875,-0.2289886474609375,-0.1040802001953125,0.962921142578125
1776554391977504500,10.61350439453125,-0.2301788330078125,-0.1044769287109375,0.965850830078125
1776554391987544600,10.623544677734374,-0.229644775390625,-0.1018524169921875,0.9681854248046875
1776554391997584400,10.63358447265625,-0.22833251953125,-0.097320556640625,0.9687957763671875
1776554392007624400,10.64362451171875,-0.2259368896484375,-0.09234619140625,0.9680938720703125
1776554392017664500,10.65366455078125,-0.2246856689453125,-0.0901947021484375,0.965789794921875
1776554392027705300,10.663705322265624,-0.22198486328125,-0.0888519287109375,0.9636077880859375
1776554392037745400,10.673745361328125,-0.22161865234375,-0.089691162109375,0.962921142578125
1776554392047785500,10.683785400390626,-0.2245330810546875,-0.0923614501953125,0.9632110595703125
1776554392057825300,10.6938251953125,-0.22723388671875,-0.097503662109375,0.9622039794921875
1776554392067865300,10.703865234375,-0.22930908203125,-0.101287841796875,0.9632568359375
1776554392077905400,10.713905517578125,-0.2283172607421875,-0.1045989990234375,0.9642791748046875
1776554392087945500,10.723945556640626,-0.2280731201171875,-0.1053466796875,0.9639434814453125
1776554392097985500,10.733985595703125,-0.2270355224609375,-0.1066436767578125,0.9633636474609375
1776554392108025300,10.744025390625,-0.227203369140625,-0.106781005859375,0.9631805419921875
1776554392118065400,10.7540654296875,-0.2269134521484375,-0.1046905517578125,0.96405029296875
1776554392128105500,10.76410546875,-0.2264251708984375,-0.10467529296875,0.963836669921875
1776554392138145500,10.7741455078125,-0.226104736328125,-0.103790283203125,0.962982177734375
1776554392148186400,10.784186279296875,-0.225830078125,-0.1019287109375,0.96246337890625
1776554392158226400,10.794226318359375,-0.2256622314453125,-0.0995330810546875,0.961761474609375
1776554392168266500,10.8042666015625,-0.2253570556640625,-0.0982208251953125,0.961761474609375
1776554392178306300,10.814306396484374,-0.224212646484375,-0.097076416015625,0.9621734619140625
1776554392188346400,10.824346435546875,-0.2238311767578125,-0.095916748046875,0.9604339599609375
1776554392198386400,10.834386474609374,-0.2264862060546875,-0.0962982177734375,0.96160888671875
1776554392208426500,10.844426513671875,-0.2275390625,-0.096923828125,0.9639434814453125
1776554392218466600,10.854466552734374,-0.227874755859375,-0.09686279296875,0.96661376953125
1776554392228506400,10.86450634765625,-0.2276153564453125,-0.0968017578125,0.9670867919921875
1776554392238546400,10.87454638671875,-0.2275848388671875,-0.099609375,0.9683380126953125
1776554392248586500,10.88458642578125,-0.2270965576171875,-0.0990447998046875,0.9679718017578125
1776554392258626600,10.89462646484375,-0.2259063720703125,-0.09857177734375,0.967071533203125
1776554392268667400,10.90466748046875,-0.225372314453125,-0.0975799560546875,0.96563720703125
1776554392278707500,10.91470751953125,-0.224334716796875,-0.0970001220703125,0.964874267578125
1776554392288747300,10.924747314453125,-0.2227020263671875,-0.096588134765625,0.9629058837890625
1776554392298787300,10.934787353515626,-0.2233734130859375,-0.09783935546875,0.96380615234375
1776554392308827400,10.944827392578125,-0.2256317138671875,-0.0983734130859375,0.9636993408203125
1776554392318867500,10.954867431640626,-0.227264404296875,-0.0991973876953125,0.9638519287109375
1776554392328907500,10.964907470703125,-0.2287445068359375,-0.09808349609375,0.964111328125
1776554392338947600,10.974947509765625,-0.2296142578125,-0.098663330078125,0.9651336669921875
1776554392348987400,10.9849873046875,-0.2281951904296875,-0.0984039306640625,0.9651031494140625
1776554392359027500,10.99502734375,-0.2259368896484375,-0.0994110107421875,0.964324951171875
1776554392369067500,11.005067626953124,-0.2238311767578125,-0.1001129150390625,0.964874267578125
1776554392379107600,11.015107666015625,-0.223114013671875,-0.0997161865234375,0.963897705078125
1776554392389148400,11.0251484375,-0.2236328125,-0.100372314453125,0.96380615234375
1776554392399188500,11.0351884765625,-0.222625732421875,-0.100311279296875,0.9629669189453125
1776554392409228300,11.045228271484374,-0.22509765625,-0.0984344482421875,0.9640960693359375
1776554392419268400,11.055268310546875,-0.2260589599609375,-0.0945281982421875,0.964202880859375
1776554392429308400,11.065308349609374,-0.2255401611328125,-0.0937042236328125,0.964630126953125
1776554392439348500,11.075348388671875,-0.224884033203125,-0.0943450927734375,0.964813232421875
1776554392449388500,11.085388427734374,-0.2241973876953125,-0.09521484375,0.965057373046875
1776554392459428400,11.095428466796875,-0.2241058349609375,-0.09716796875,0.965240478515625
1776554392469468400,11.105468505859376,-0.224395751953125,-0.1004180908203125,0.965484619140625
1776554392479508500,11.115508544921875,-0.224761962890625,-0.1041107177734375,0.9648284912109375
1776554392489548500,11.125548583984376,-0.2250213623046875,-0.105438232421875,0.9642486572265625
1776554392499588600,11.135588623046875,-0.2248992919921875,-0.104949951171875,0.96527099609375
1776554392509629400,11.14562939453125,-0.2259063720703125,-0.102325439453125,0.96527099609375
1776554392519669500,11.15566943359375,-0.2253875732421875,-0.0995941162109375,0.9659881591796875
1776554392529709300,11.165709228515626,-0.2246856689453125,-0.0977935791015625,0.96661376953125
1776554392539749400,11.175749267578125,-0.225250244140625,-0.0955657958984375,0.967376708984375
1776554392549789400,11.18578955078125,-0.2228546142578125,-0.0949249267578125,0.967987060546875
1776554392559829500,11.19582958984375,-0.223052978515625,-0.0953216552734375,0.9676361083984375
1776554392569869600,11.20586962890625,-0.2224578857421875,-0.0966796875,0.96527099609375
1776554392579909400,11.215909423828125,-0.222869873046875,-0.0999603271484375,0.963165283203125
1776554392589949400,11.225949462890625,-0.22137451171875,-0.1015167236328125,0.960662841796875
1776554392599989500,11.235989501953124,-0.221893310546875,-0.104278564453125,0.9599761962890625
1776554392610029600,11.246029541015625,-0.22052001953125,-0.10394287109375,0.959869384765625
1776554392620069400,11.2560693359375,-0.220306396484375,-0.103515625,0.962158203125
1776554392630109200,11.266109130859375,-0.2229156494140625,-0.1034088134765625,0.9646759033203125
1776554392640150300,11.276150390625,-0.225128173828125,-0.1028289794921875,0.9675445556640625
1776554392650190300,11.2861904296875,-0.2244873046875,-0.1019287109375,0.967681884765625
1776554392660230400,11.29623046875,-0.2241058349609375,-0.099700927734375,0.9671173095703125
1776554392670270500,11.3062705078125,-0.224822998046875,-0.098663330078125,0.9653472900390625
1776554392680310500,11.316310546875,-0.2252655029296875,-0.0972747802734375,0.9631805419921875
1776554392690350600,11.3263505859375,-0.2242584228515625,-0.0970458984375,0.96234130859375
1776554392700390400,11.336390380859376,-0.2229461669921875,-0.0986480712890625,0.9621429443359375
1776554392710430500,11.346430419921875,-0.2226104736328125,-0.1011962890625,0.9626617431640625
1776554392720470500,11.356470458984376,-0.2207489013671875,-0.10223388671875,0.963836669921875
1776554392730510600,11.366510498046875,-0.22113037109375,-0.1018524169921875,0.9640045166015625
1776554392740550400,11.37655029296875,-0.2227020263671875,-0.0987701416015625,0.965545654296875
1776554392750590200,11.386590087890625,-0.22222900390625,-0.0970458984375,0.9656524658203125
1776554392760630300,11.39663037109375,-0.22320556640625,-0.0963134765625,0.9665374755859375
1776554392770671900,11.406671875,-0.223175048828125,-0.095703125,0.9671478271484375
1776554392780712000,11.4167119140625,-0.225006103515625,-0.095489501953125,0.967864990234375
1776554392790752000,11.426751953125,-0.2244110107421875,-0.095611572265625,0.9667510986328125
1776554392800792000,11.4367919921875,-0.2245635986328125,-0.0951385498046875,0.966705322265625
1776554392810832100,11.44683203125,-0.2242431640625,-0.0962066650390625,0.966064453125
1776554392820872000,11.456871826171875,-0.222686767578125,-0.097137451171875,0.9648895263671875
1776554392830912000,11.466912109375,-0.2213287353515625,-0.0970611572265625,0.9647064208984375
1776554392840951800,11.476951904296875,-0.22125244140625,-0.09881591796875,0.964263916015625
1776554392850991900,11.486991943359374,-0.22125244140625,-0.098968505859375,0.9634552001953125
1776554392861032000,11.497031982421875,-0.2236328125,-0.0995941162109375,0.963897705078125
1776554392871071700,11.50707177734375,-0.224151611328125,-0.100128173828125,0.9649810791015625
1776554392881111800,11.51711181640625,-0.2247314453125,-0.0983123779296875,0.9673919677734375
1776554392891152000,11.52715185546875,-0.2230224609375,-0.096954345703125,0.9676361083984375
1776554392901192000,11.53719189453125,-0.224090576171875,-0.0965576171875,0.966766357421875
1776554392911233000,11.54723291015625,-0.2237396240234375,-0.096343994140625,0.9661407470703125
1776554392921273000,11.557273193359375,-0.223388671875,-0.095733642578125,0.96466064453125
1776554392931313200,11.567313232421874,-0.2240142822265625,-0.0965423583984375,0.9630889892578125
1776554392941353000,11.57735302734375,-0.2238311767578125,-0.0965118408203125,0.963287353515625
1776554392951392800,11.587392822265626,-0.2234344482421875,-0.098541259765625,0.9626922607421875
1776554392961432800,11.597432861328125,-0.2234954833984375,-0.0983428955078125,0.962005615234375
1776554392971473000,11.607472900390626,-0.2215576171875,-0.0983428955078125,0.9635772705078125
1776554392981513000,11.617512939453125,-0.2203216552734375,-0.099090576171875,0.965179443359375
1776554392991552800,11.627552734375,-0.220703125,-0.0977630615234375,0.9667510986328125
1776554393001592800,11.6375927734375,-0.22125244140625,-0.09759521484375,0.9661712646484375
1776554393011633000,11.6476328125,-0.221923828125,-0.097320556640625,0.965667724609375
1776554393021673000,11.6576728515625,-0.2227630615234375,-0.097930908203125,0.96588134765625
1776554393031713000,11.667713134765625,-0.2245635986328125,-0.1001129150390625,0.9665985107421875
1776554393041752800,11.6777529296875,-0.2235870361328125,-0.1007537841796875,0.9658203125
1776554393051794000,11.6877939453125,-0.223785400390625,-0.1021728515625,0.9654693603515625
1776554393061834000,11.697833984375,-0.222808837890625,-0.1019439697265625,0.9657745361328125
1776554393071873800,11.707873779296875,-0.2222900390625,-0.10101318359375,0.9650421142578125
1776554393081913900,11.717913818359374,-0.2222900390625,-0.1007843017578125,0.9654998779296875
1776554393091954000,11.727953857421875,-0.2220916748046875,-0.0991363525390625,0.9649658203125
1776554393101994000,11.737993896484374,-0.221710205078125,-0.099334716796875,0.9657135009765625
1776554393112033800,11.74803369140625,-0.2216644287109375,-0.0985565185546875,0.9648284912109375
1776554393122073900,11.758073974609376,-0.22235107421875,-0.0981597900390625,0.9645538330078125
1776554393132114000,11.768114013671875,-0.2227783203125,-0.0980072021484375,0.9642333984375
1776554393142154000,11.778154052734376,-0.2225189208984375,-0.0987548828125,0.9637908935546875
1776554393152194000,11.788194091796875,-0.2218170166015625,-0.101043701171875,0.963653564453125
1776554393162233900,11.79823388671875,-0.2228240966796875,-0.10125732421875,0.96246337890625
1776554393172274000,11.80827392578125,-0.22259521484375,-0.102386474609375,0.96185302734375
1776554393182314000,11.81831396484375,-0.2234649658203125,-0.1031951904296875,0.9627532958984375
1776554393192354000,11.82835400390625,-0.2243194580078125,-0.10009765625,0.963775634765625
1776554393202395000,11.838394775390626,-0.224365234375,-0.0966033935546875,0.9651336669921875
1776554393212435000,11.84843505859375,-0.2242889404296875,-0.093231201171875,0.9649658203125
1776554393222474800,11.858474853515625,-0.2227630615234375,-0.0921783447265625,0.967010498046875
1776554393232514800,11.868514892578125,-0.2228851318359375,-0.0922698974609375,0.969024658203125
1776554393242555000,11.878554931640625,-0.22247314453125,-0.0958709716796875,0.9693450927734375
1776554393252595000,11.888594970703124,-0.223236083984375,-0.0984954833984375,0.9678497314453125
1776554393262635000,11.898635009765625,-0.222869873046875,-0.10113525390625,0.965606689453125
1776554393272675000,11.908675048828124,-0.224578857421875,-0.1007232666015625,0.9647064208984375
1776554393282715000,11.91871484375,-0.2253875732421875,-0.10113525390625,0.9628753662109375
1776554393292755000,11.9287548828125,-0.2246246337890625,-0.0998687744140625,0.9619903564453125
1776554393302795000,11.938794921875,-0.2226409912109375,-0.09906005859375,0.962799072265625
1776554393312835000,11.9488349609375,-0.2226409912109375,-0.0993804931640625,0.963531494140625
1776554393322875100,11.958875244140625,-0.221649169921875,-0.0989990234375,0.96588134765625
1776554393332915000,11.9689150390625,-0.2209930419921875,-0.0970611572265625,0.966400146484375
1776554393342954800,11.978954833984375,-0.2215728759765625,-0.0971832275390625,0.9654541015625
1776554393352995800,11.988995849609376,-0.22381591796875,-0.0976409912109375,0.9639739990234375
1776554393363036000,11.999035888671875,-0.2246856689453125,-0.096466064453125,0.9639739990234375
1776554393373076000,12.009075927734376,-0.226318359375,-0.0973663330078125,0.9635467529296875
1776554393383116000,12.019115966796875,-0.2252197265625,-0.099517822265625,0.964447021484375
1776554393393155800,12.02915576171875,-0.221405029296875,-0.1013031005859375,0.963714599609375
1776554393403196000,12.03919580078125,-0.2205352783203125,-0.1022186279296875,0.9632110595703125
1776554393413236000,12.049236083984376,-0.2205352783203125,-0.1013031005859375,0.963348388671875
1776554393423276000,12.059276123046875,-0.2191009521484375,-0.1004791259765625,0.9638824462890625
1776554393433316000,12.069316162109375,-0.2184906005859375,-0.0995025634765625,0.96441650390625
1776554393443356200,12.079356201171874,-0.2223358154296875,-0.0995330810546875,0.9650421142578125
1776554393453396000,12.08939599609375,-0.2225341796875,-0.0989227294921875,0.9650726318359375
1776554393463435800,12.099435791015624,-0.2244873046875,-0.0989837646484375,0.967132568359375
1776554393473475800,12.109475830078125,-0.22442626953125,-0.1002349853515625,0.96759033203125
1776554393483516000,12.119515869140624,-0.2236175537109375,-0.099700927734375,0.96697998046875
1776554393493556000,12.129555908203125,-0.2213287353515625,-0.0991363525390625,0.9666595458984375
1776554393503595800,12.139595703125,-0.21905517578125,-0.099822998046875,0.966278076171875
1776554393513636900,12.149636962890625,-0.2178802490234375,-0.0978240966796875,0.9649200439453125
1776554393523677000,12.159677001953124,-0.218994140625,-0.0957489013671875,0.9646759033203125
1776554393533717000,12.169717041015625,-0.21893310546875,-0.0963287353515625,0.96441650390625
1776554393543757000,12.179757080078126,-0.2213897705078125,-0.097137451171875,0.9643707275390625
1776554393553797000,12.189797119140625,-0.222900390625,-0.0978240966796875,0.966705322265625
1776554393563837000,12.1998369140625,-0.2228240966796875,-0.1004791259765625,0.965118408203125
1776554393573876700,12.209876708984375,-0.223388671875,-0.1001739501953125,0.966094970703125
1776554393583916800,12.219916748046876,-0.22216796875,-0.1010284423828125,0.9662628173828125
1776554393593956900,12.229956787109375,-0.221771240234375,-0.0998077392578125,0.9658203125
1776554393603997000,12.239996826171875,-0.2209320068359375,-0.10009765625,0.964935302734375
1776554393614037000,12.250037109375,-0.2193145751953125,-0.1001434326171875,0.964508056640625
1776554393624076800,12.260076904296875,-0.2194976806640625,-0.1009521484375,0.9644012451171875
1776554393634116900,12.270116943359374,-0.2203521728515625,-0.1005096435546875,0.964385986328125
1776554393644157000,12.280156982421875,-0.2215423583984375,-0.099945068359375,0.9654083251953125
1776554393654197000,12.290197021484374,-0.2220916748046875,-0.0985870361328125,0.9657745361328125
1776554393664237000,12.300237060546875,-0.2218475341796875,-0.0985565185546875,0.9667510986328125
1776554393674278100,12.310278076171874,-0.222259521484375,-0.0995941162109375,0.9669952392578125
1776554393684318000,12.32031787109375,-0.22161865234375,-0.098602294921875,0.9667816162109375
1776554393694357800,12.330357666015624,-0.222076416015625,-0.099395751953125,0.9659576416015625
1776554393704397800,12.340397705078125,-0.2225799560546875,-0.09820556640625,0.964935302734375
1776554393714438000,12.35043798828125,-0.221710205078125,-0.0996246337890625,0.9642486572265625
1776554393724478000,12.36047802734375,-0.220916748046875,-0.1006317138671875,0.9639739990234375
1776554393734517800,12.370517822265626,-0.22174072265625,-0.1009063720703125,0.9645233154296875
1776554393744557800,12.380557861328125,-0.2210693359375,-0.1002960205078125,0.9642181396484375
1776554393754598000,12.390597900390626,-0.2212066650390625,-0.1001434326171875,0.963897705078125
1776554393764637200,12.40063720703125,-0.2197723388671875,-0.1002655029296875,0.966217041015625
1776554393774677200,12.41067724609375,-0.220367431640625,-0.100738525390625,0.9658966064453125
1776554393784717300,12.42071728515625,-0.2198944091796875,-0.100250244140625,0.9668121337890625
1776554393794757400,12.43075732421875,-0.2194671630859375,-0.099456787109375,0.967071533203125
1776554393804797400,12.44079736328125,-0.220672607421875,-0.0999908447265625,0.965850830078125
1776554393814837500,12.45083740234375,-0.2212371826171875,-0.100372314453125,0.9649505615234375
1776554393824877300,12.460877197265624,-0.2233123779296875,-0.09918212890625,0.965362548828125
1776554393834917400,12.47091748046875,-0.2230987548828125,-0.09967041015625,0.9653778076171875
1776554393844957400,12.48095751953125,-0.2219696044921875,-0.097869873046875,0.965911865234375
1776554393854998300,12.490998291015625,-0.21990966796875,-0.0973968505859375,0.9648590087890625
1776554393865038300,12.501038330078124,-0.22052001953125,-0.0962371826171875,0.96539306640625
1776554393875078400,12.511078369140625,-0.2208404541015625,-0.09521484375,0.965484619140625
1776554393885118200,12.5211181640625,-0.22174072265625,-0.0941925048828125,0.9654541015625
1776554393895158300,12.531158203125,-0.2227325439453125,-0.093017578125,0.9656829833984375
1776554393905198300,12.5411982421875,-0.22247314453125,-0.0921173095703125,0.965484619140625
1776554393915238400,12.55123828125,-0.222320556640625,-0.091400146484375,0.966583251953125
1776554393925278500,12.561278564453126,-0.22174072265625,-0.096099853515625,0.9670867919921875
1776554393935318300,12.571318359375,-0.222808837890625,-0.1017303466796875,0.967620849609375
1776554393945358300,12.5813583984375,-0.22357177734375,-0.106781005859375,0.9668121337890625
1776554393955398400,12.5913984375,-0.224090576171875,-0.109466552734375,0.9639739990234375
1776554393965438500,12.6014384765625,-0.2243499755859375,-0.110260009765625,0.9621429443359375
1776554393975478500,12.611478515625,-0.223785400390625,-0.108673095703125,0.9605712890625
1776554393985518300,12.621518310546875,-0.2220611572265625,-0.1042022705078125,0.9591064453125
1776554393995558100,12.63155810546875,-0.2213287353515625,-0.1003570556640625,0.961578369140625
1776554394005598200,12.64159814453125,-0.2191925048828125,-0.0994873046875,0.9649505615234375
1776554394015638300,12.65163818359375,-0.2187042236328125,-0.1002197265625,0.967620849609375
1776554394025678300,12.66167822265625,-0.219970703125,-0.1001434326171875,0.969024658203125
1776554394035718400,12.671718505859374,-0.2200775146484375,-0.099334716796875,0.96710205078125
1776554394045759500,12.681759521484375,-0.2213897705078125,-0.0991363525390625,0.965087890625
1776554394055799300,12.69179931640625,-0.2235107421875,-0.0986480712890625,0.9630889892578125
1776554394065839400,12.70183935546875,-0.2238616943359375,-0.0997772216796875,0.961578369140625
1776554394075879400,12.71187939453125,-0.2236480712890625,-0.1001739501953125,0.9622802734375
1776554394085919500,12.72191943359375,-0.2222137451171875,-0.1008453369140625,0.96466064453125
1776554394095959600,12.73195947265625,-0.219482421875,-0.1014556884765625,0.9646759033203125
1776554394105999000,12.7419990234375,-0.21722412109375,-0.1020660400390625,0.9663543701171875
1776554394116039200,12.7520390625,-0.2173919677734375,-0.099456787109375,0.9650726318359375
1776554394126079200,12.762079345703125,-0.2176055908203125,-0.097991943359375,0.9652557373046875
1776554394136119300,12.772119384765626,-0.2215576171875,-0.0963592529296875,0.9660491943359375
1776554394146159400,12.782159423828125,-0.2238922119140625,-0.0957794189453125,0.966094970703125
1776554394156199400,12.792199462890625,-0.225372314453125,-0.0959320068359375,0.96710205078125
1776554394166239200,12.8022392578125,-0.22528076171875,-0.094329833984375,0.968109130859375
1776554394176279300,12.812279296875,-0.2248382568359375,-0.094329833984375,0.96722412109375
1776554394186319400,12.8223193359375,-0.22137451171875,-0.0945587158203125,0.96697998046875
1776554394196359400,12.832359375,-0.2198944091796875,-0.0942840576171875,0.9658966064453125
1776554394206399500,12.8423994140625,-0.220733642578125,-0.094512939453125,0.9655914306640625
1776554394216439300,12.852439208984375,-0.2201080322265625,-0.0944976806640625,0.9653167724609375
1776554394226479400,12.862479248046874,-0.220794677734375,-0.0969085693359375,0.9649810791015625
1776554394236519400,12.87251953125,-0.221405029296875,-0.0975799560546875,0.9647674560546875
1776554394246560300,12.882560302734374,-0.2218475341796875,-0.0970611572265625,0.9643096923828125
1776554394256600300,12.892600341796875,-0.223175048828125,-0.09857177734375,0.9635467529296875
1776554394266640400,12.902640380859374,-0.2236175537109375,-0.1003875732421875,0.9647979736328125
1776554394276680200,12.91268017578125,-0.223419189453125,-0.1028900146484375,0.9658966064453125
1776554394286720300,12.92272021484375,-0.2232818603515625,-0.10333251953125,0.966278076171875
1776554394296760300,12.93276025390625,-0.2225341796875,-0.102630615234375,0.9664459228515625
1776554394306800400,12.94280029296875,-0.222015380859375,-0.10223388671875,0.96612548828125
1776554394316840400,12.95284033203125,-0.2201995849609375,-0.1017303466796875,0.966583251953125
1776554394326880500,12.962880615234376,-0.219970703125,-0.10174560546875,0.9652862548828125
1776554394336920300,12.97292041015625,-0.219482421875,-0.101043701171875,0.965545654296875
1776554394346960400,12.98296044921875,-0.22137451171875,-0.100555419921875,0.9651947021484375
1776554394357000400,12.99300048828125,-0.22125244140625,-0.10040283203125,0.96539306640625
1776554394367040500,13.00304052734375,-0.221466064453125,-0.1002960205078125,0.96478271484375
1776554394377080300,13.013080322265624,-0.222412109375,-0.09979248046875,0.9645233154296875
1776554394387120000,13.0231201171875,-0.221343994140625,-0.100250244140625,0.96405029296875
