time,seconds_elapsed,z,y,x
1776554381470493400,0.106493408203125,-0.004689826630055904,0.01104279700666666,0.02118757739663124
1776554381480533500,0.116533447265625,0.010745322331786156,-0.0006996124284341931,0.00242187874391675
1776554381490573600,0.126573486328125,0.010374610312283039,-0.008589759469032288,-0.018218684941530228
1776554381500613400,0.13661328125,0.009707754477858543,-0.010837733745574951,-0.02484835870563984
1776554381510654500,0.146654541015625,-0.0028519791085273027,-0.0052046156488358974,-0.006134591531008482
1776554381520694500,0.156694580078125,-0.0245524812489748,0.00800413079559803,0.015076687559485435
1776554381530734600,0.166734619140625,-0.03278511017560959,0.02160143293440342,0.024572188034653664
1776554381540774700,0.176774658203125,-0.03309004381299019,0.015150723047554493,0.02389041893184185
1776554381550814700,0.186814697265625,-0.02472398802638054,0.02112472616136074,0.022167619317770004
1776554381560854500,0.1968544921875,0.002357163932174444,-0.003044259501621127,0.003187004942446947
1776554381570894600,0.20689453125,0.01853666640818119,0.04584738239645958,-0.02611176110804081
1776554381580935400,0.216935302734375,0.04211176559329033,-0.010146643966436386,-0.0331995002925396
1776554381590975500,0.2269755859375,0.020147079601883888,0.010058226995170116,-0.01672198809683323
1776554381601015600,0.237015625,0.018551580607891083,0.06319521367549896,-0.03941904380917549
1776554381611055600,0.2470556640625,0.017199760302901268,-0.0012277172645553946,-0.07936512678861618
1776554381621095700,0.257095703125,0.013607953675091267,0.029941920191049576,-0.08059124648571014
1776554381631135500,0.267135498046875,0.03460964187979698,0.03658757358789444,-0.07326515763998032
1776554381641176600,0.277176513671875,0.05607578530907631,0.02130022831261158,-0.04963146895170212
1776554381651216400,0.28721630859375,0.047210123389959335,0.013447898440063,-0.06202342361211777
1776554381661256400,0.29725634765625,0.03815111517906189,0.028668662533164024,-0.07895686477422714
1776554381671296500,0.307296630859375,0.05163363367319107,0.02726570889353752,-0.06380454450845718
1776554381681336600,0.317336669921875,0.07370751351118088,0.013719541020691395,-0.03185034170746803
1776554381691376400,0.32737646484375,0.09372995048761368,0.03582298010587692,-0.0035864789970219135
1776554381701417500,0.33741748046875,0.15907727181911469,0.06071394681930542,-0.007881891913712025
1776554381711457500,0.34745751953125,0.22290419042110443,0.11698121577501297,-0.060926202684640884
1776554381721497600,0.35749755859375,0.2672426104545593,0.14198750257492065,-0.16612398624420166
1776554381731537700,0.36753759765625,0.30358970165252686,0.2644505500793457,-0.25681740045547485
1776554381741577700,0.37757763671875,0.31834015250205994,0.44195398688316345,-0.3395266830921173
1776554381751617800,0.38761767578125,0.4151996076107025,0.7273457646369934,-0.40552806854248047
1776554381761657600,0.39765771484375,0.5792689323425293,1.2676353454589844,-0.4536828100681305
1776554381771698400,0.407698486328125,0.7504830360412598,1.4820730686187744,-0.6248601675033569
1776554381781738500,0.417738525390625,0.8421035408973694,1.5226292610168457,-0.9760059118270874
1776554381791778600,0.427778564453125,0.908488392829895,1.811950922012329,-1.2767274379730225
1776554381801818600,0.437818603515625,0.9589616656303406,2.061868906021118,-1.442878246307373
1776554381811858700,0.447858642578125,0.9543344378471375,2.2634501457214355,-1.5400152206420898
1776554381821898800,0.457898681640625,0.9838276505470276,2.6512012481689453,-1.557848572731018
1776554381831939600,0.467939697265625,1.0572205781936646,3.0080671310424805,-1.4330618381500244
1776554381841979400,0.4779794921875,1.1915539503097534,3.3905577659606934,-1.078618049621582
1776554381852019500,0.48801953125,1.344915509223938,3.6027934551239014,-0.6025745272636414
1776554381862059500,0.4980595703125,1.5681536197662354,3.4537692070007324,-0.3428598940372467
1776554381872099600,0.508099609375,1.828626036643982,3.274430274963379,-0.1741507649421692
1776554381882139600,0.5181396484375,1.8789719343185425,2.8021414279937744,-0.17619900405406952
1776554381892180700,0.5281806640625,1.7070415019989014,2.7282731533050537,-0.32549554109573364
1776554381902220500,0.538220458984375,1.578948736190796,2.94734787940979,-0.49481239914894104
1776554381912260600,0.548260498046875,1.3639544248580933,3.234572410583496,-0.8024753928184509
1776554381922300700,0.55830078125,1.004874348640442,3.368612289428711,-1.29853093624115
1776554381932340700,0.5683408203125,0.6362441182136536,3.4285521507263184,-1.7103939056396484
1776554381942380500,0.578380615234375,0.361477255821228,3.555525541305542,-1.8846837282180786
1776554381952421600,0.588421630859375,0.198581263422966,3.754392147064209,-1.6508411169052124
1776554381962461700,0.598461669921875,-0.08907900750637054,3.483962059020996,-1.0932390689849854
1776554381972501500,0.60850146484375,-0.3807255029678345,2.538003444671631,-0.5181837677955627
1776554381982541600,0.61854150390625,-0.6096228957176208,1.2806878089904785,-0.035538818687200546
1776554381992581600,0.62858154296875,-0.41674181818962097,0.3374808430671692,0.25126925110816956
1776554382002621700,0.63862158203125,0.027663052082061768,0.24879543483257294,0.13362278044223785
1776554382012661800,0.648661865234375,0.07211147993803024,-0.8624418377876282,0.17793937027454376
1776554382022702600,0.65870263671875,-0.07775178551673889,-1.3320143222808838,0.33698442578315735
1776554382032742400,0.668742431640625,-0.40739893913269043,-1.5035789012908936,0.5220929980278015
1776554382042782500,0.678782470703125,-0.5061084628105164,-1.9060579538345337,0.8581804633140564
1776554382052822500,0.688822509765625,-0.34566205739974976,-1.4693986177444458,1.224539875984192
1776554382062862600,0.698862548828125,-0.025784458965063095,-0.9771231412887573,1.3199206590652466
1776554382072902700,0.708902587890625,0.2294078916311264,-0.428764671087265,1.223799705505371
1776554382082943700,0.71894384765625,0.3721493184566498,-0.19803930819034576,1.0586602687835693
1776554382092983600,0.728983642578125,0.466574102640152,-0.49024108052253723,0.7603228688240051
1776554382103023600,0.739023681640625,0.6442628502845764,-0.8535127639770508,0.49854961037635803
1776554382113063700,0.749063720703125,0.673288106918335,-1.2159090042114258,0.4088607430458069
1776554382123103700,0.759103759765625,0.5839750170707703,-1.581632137298584,0.419723242521286
1776554382133143600,0.7691435546875,0.4144006371498108,-1.6624168157577515,0.228728786110878
1776554382143184600,0.7791845703125,0.12209741026163101,-1.4012528657913208,-0.23628391325473785
1776554382153224700,0.789224609375,-0.2575910687446594,-0.744929313659668,-0.7830175757408142
1776554382163264500,0.799264404296875,-0.6324411034584045,-0.2384924590587616,-1.411339282989502
1776554382173304600,0.8093046875,-0.9052465558052063,0.2239454835653305,-1.968584418296814
1776554382183344600,0.8193447265625,-1.034676194190979,0.4708809554576874,-2.2906877994537354
1776554382193384700,0.829384765625,-1.041862964630127,0.4338318705558777,-2.2159688472747803
1776554382203425500,0.839425537109375,-1.0181258916854858,-0.09616701304912567,-1.7232491970062256
1776554382213465600,0.849465576171875,-1.1107051372528076,-0.9121909737586975,-0.9952731132507324
1776554382223505400,0.85950537109375,-1.1249668598175049,-0.9161484241485596,-0.04589825123548508
1776554382233545500,0.86954541015625,-1.0575332641601562,-0.8846073150634766,0.914015531539917
1776554382243585500,0.87958544921875,-1.0662298202514648,-1.2134613990783691,1.6009166240692139
1776554382253625600,0.88962548828125,-1.1429851055145264,-1.4478455781936646,1.9040429592132568
1776554382263665700,0.899665771484375,-1.2803632020950317,-1.5096296072006226,1.8699641227722168
1776554382273706800,0.909706787109375,-1.4087070226669312,-1.2267524003982544,1.6755839586257935
1776554382283746600,0.91974658203125,-1.5033589601516724,-0.790073573589325,1.4000294208526611
1776554382293786600,0.92978662109375,-1.6576124429702759,-0.4861067831516266,1.1955492496490479
1776554382303826700,0.93982666015625,-1.8356884717941284,-0.3643052577972412,1.0399521589279175
1776554382313866500,0.949866455078125,-2.01129150390625,-0.28874310851097107,0.8800061345100403
1776554382323906600,0.959906494140625,-2.1638009548187256,-0.2649773359298706,0.680529773235321
1776554382333947600,0.96994775390625,-2.3023619651794434,-0.24188800156116486,0.44120535254478455
1776554382343987700,0.97998779296875,-2.435380458831787,-0.13814349472522736,0.20360025763511658
1776554382354027500,0.990027587890625,-2.566979169845581,0.028418058529496193,-0.007983890362083912
1776554382364067600,1.000067626953125,-2.756699800491333,0.2603633999824524,-0.15256451070308685
1776554382374107600,1.010107666015625,-3.0096662044525146,0.4493253529071808,-0.2532748878002167
1776554382384147700,1.020147705078125,-3.2789523601531982,0.5185227990150452,-0.3345779776573181
1776554382394188500,1.0301884765625,-3.539165496826172,0.5644221305847168,-0.4305364787578583
1776554382404228600,1.040228515625,-3.784313678741455,0.6100590825080872,-0.5812644362449646
1776554382414268400,1.050268310546875,-4.004368305206299,0.6199788451194763,-0.7217496633529663
1776554382424308500,1.06030859375,-4.164730548858643,0.5911703705787659,-0.8288958072662354
1776554382434348500,1.0703486328125,-4.279823303222656,0.5549846291542053,-0.9288490414619446
1776554382444388600,1.080388671875,-4.381888389587402,0.38789820671081543,-1.0507725477218628
1776554382454428700,1.0904287109375,-4.497288703918457,0.1007593646645546,-1.2788736820220947
1776554382464469800,1.1004697265625,-4.591731548309326,-0.18778960406780243,-1.6204701662063599
1776554382474509600,1.110509521484375,-4.607210159301758,-0.4658105671405792,-2.034881114959717
1776554382484549600,1.120549560546875,-4.544768333435059,-0.7368013262748718,-2.5022082328796387
1776554382494589400,1.13058935546875,-4.4131903648376465,-0.8798098564147949,-2.944545030593872
1776554382504629500,1.14062939453125,-4.193058013916016,-0.847896933555603,-3.3595452308654785
1776554382514669600,1.150669677734375,-3.886566162109375,-0.6503151655197144,-3.7266387939453125
1776554382524710700,1.160710693359375,-3.5884928703308105,-0.3954581022262573,-4.087565898895264
1776554382534750700,1.170750732421875,-3.3284506797790527,0.007523430045694113,-4.4164581298828125
1776554382544790500,1.18079052734375,-3.0039615631103516,0.4765162169933319,-4.627749443054199
1776554382554830600,1.19083056640625,-2.53125,0.896986722946167,-4.699100971221924
1776554382564870700,1.20087060546875,-1.980612874031067,1.0536112785339355,-4.678047180175781
1776554382574910700,1.21091064453125,-1.384198784828186,0.9924759864807129,-4.696148872375488
1776554382584951600,1.22095166015625,-0.7137327790260315,1.0590720176696777,-4.684185981750488
1776554382594991600,1.23099169921875,-0.054239802062511444,1.1931188106536865,-4.5645012855529785
1776554382605031400,1.241031494140625,0.620594322681427,1.414623737335205,-4.3914875984191895
1776554382615071500,1.251071533203125,1.2415651082992554,1.6256587505340576,-4.253968715667725
1776554382625111600,1.261111572265625,1.7341228723526,1.9180877208709717,-4.260563373565674
1776554382635151600,1.271151611328125,2.1262807846069336,2.2316172122955322,-4.312063694000244
1776554382645192700,1.281192626953125,2.5110082626342773,2.4150354862213135,-4.272599220275879
1776554382655232800,1.291232666015625,2.9671719074249268,2.528960704803467,-3.9878408908843994
1776554382665272600,1.3012724609375,3.395292043685913,2.4103188514709473,-3.420030117034912
1776554382675312600,1.311312744140625,3.7613818645477295,2.0961570739746094,-2.8326942920684814
1776554382685352400,1.3213525390625,4.08199405670166,1.7021024227142334,-2.493929624557495
1776554382695392500,1.331392578125,4.434576988220215,1.3698631525039673,-2.311976671218872
1776554382705433600,1.34143359375,3.559239387512207,2.205044746398926,-1.1052451133728027
1776554382715473700,1.3514736328125,1.4082345962524414,3.1400530338287354,0.7983741164207458
1776554382725513700,1.361513671875,0.3219490051269531,3.538116216659546,1.5856679677963257
1776554382735553500,1.371553466796875,0.14708931744098663,3.4282400608062744,1.7469780445098877
1776554382745593600,1.381593505859375,0.6103280782699585,2.8391003608703613,1.9941627979278564
1776554382755634000,1.391634033203125,1.4729053974151611,1.7533410787582397,2.3723719120025635
1776554382765674000,1.401674072265625,2.464437246322632,0.6720332503318787,2.4553463459014893
1776554382775714800,1.41171484375,3.3649439811706543,0.05276601016521454,2.2164576053619385
1776554382785755000,1.4217548828125,3.5982279777526855,-0.365033894777298,1.7654368877410889
1776554382795795000,1.431794921875,3.553374767303467,-0.27551013231277466,1.5152055025100708
1776554382805835000,1.4418349609375,3.3127052783966064,-0.18886685371398926,1.3761253356933594
1776554382815874800,1.451874755859375,3.426753282546997,-0.31456565856933594,1.1758012771606445
1776554382825915000,1.461914794921875,3.9042277336120605,-0.5542799830436707,1.029007911682129
1776554382835956000,1.4719560546875,4.25154447555542,-0.9126684665679932,0.7017378807067871
1776554382845995800,1.481995849609375,4.262615203857422,-0.8495119214057922,0.4270322918891907
1776554382856035800,1.492035888671875,4.036322116851807,-0.7332382798194885,0.07354293018579483
1776554382866076000,1.502075927734375,3.7574682235717773,-0.6276662945747375,-0.1976369172334671
1776554382876116000,1.512115966796875,3.4907798767089844,-0.4587092399597168,-0.21474319696426392
1776554382886155800,1.52215576171875,3.228816270828247,-0.4200950264930725,-0.00038509309524670243
1776554382896196900,1.53219677734375,2.9619178771972656,-0.5095008015632629,0.18937818706035614
1776554382906237000,1.54223681640625,2.4786128997802734,-0.6396987438201904,0.2354908138513565
1776554382916277000,1.552277099609375,1.9930822849273682,-1.155722737312317,0.283253014087677
1776554382926317000,1.562317138671875,1.5021640062332153,-1.5230604410171509,0.4822230935096741
1776554382936357000,1.572357177734375,1.133467435836792,-1.6613432168960571,0.7653629183769226
1776554382946397000,1.58239697265625,0.9234811663627625,-1.876306414604187,0.9131262898445129
1776554382956437800,1.592437744140625,0.605286717414856,-1.9621883630752563,1.036782145500183
1776554382966477800,1.602477783203125,0.284488707780838,-2.060556411743164,1.1435552835464478
1776554382976518000,1.612517822265625,-0.03357686847448349,-1.9817625284194946,1.0732704401016235
1776554382986558000,1.622557861328125,-0.1413174420595169,-1.8468345403671265,1.1751538515090942
1776554382996598000,1.632597900390625,0.009064335376024246,-1.7187604904174805,1.1700925827026367
1776554383006637800,1.642637939453125,0.27798768877983093,-1.721130132675171,0.9427273273468018
1776554383016679000,1.652678955078125,0.6472850441932678,-1.9058877229690552,0.7105073928833008
1776554383026719000,1.662718994140625,1.0376641750335693,-1.649613857269287,0.4501945972442627
1776554383036758800,1.6727587890625,1.2071294784545898,-1.4968163967132568,0.28360748291015625
1776554383046798800,1.682798828125,1.1139709949493408,-1.4239903688430786,0.2344236820936203
1776554383056839000,1.6928388671875,0.8486130833625793,-1.2874096632003784,0.27014148235321045
1776554383066879000,1.70287890625,0.41755810379981995,-1.4891808032989502,0.48197171092033386
1776554383076920000,1.712920166015625,-0.17573560774326324,-1.5633418560028076,0.9114812612533569
1776554383086959900,1.7229599609375,-0.8947725892066956,-0.5242275595664978,1.0296376943588257
1776554383097000000,1.733,-1.390621542930603,0.6731299161911011,0.841538667678833
1776554383107040000,1.7430400390625,-1.521086573600769,0.9612740874290466,0.7230666279792786
1776554383117080000,1.753080078125,-1.5514659881591797,0.6935867667198181,0.7684341073036194
1776554383127120100,1.7631201171875,-1.6115301847457886,0.2660039961338043,0.7941927313804626
1776554383137161000,1.773160888671875,-1.6440894603729248,-0.15983760356903076,0.8034861087799072
1776554383147200800,1.78320068359375,-1.588051438331604,0.008077367208898067,0.7169849872589111
1776554383157240800,1.79324072265625,-1.2197887897491455,0.7056745886802673,0.5144116878509521
1776554383167281000,1.803281005859375,-0.728499710559845,1.768467903137207,0.33669307827949524
1776554383177321000,1.813321044921875,-0.6796400547027588,2.5364978313446045,0.1806344985961914
1776554383187361000,1.823361083984375,-0.8968671560287476,2.601097345352173,0.11693114787340164
1776554383197402000,1.833402099609375,-1.3451673984527588,2.1706364154815674,0.28500962257385254
1776554383207442000,1.84344189453125,-1.881969928741455,1.4826831817626953,0.41315802931785583
1776554383217481700,1.853481689453125,-2.193208932876587,0.9463361501693726,0.5247556567192078
1776554383227521800,1.863521728515625,-2.450779914855957,0.6901243925094604,0.6072744727134705
1776554383237561900,1.873561767578125,-2.5577244758605957,0.32313597202301025,0.5390762686729431
1776554383247602000,1.883601806640625,-2.6313438415527344,-0.1555408537387848,0.5517451763153076
1776554383257643000,1.89364306640625,-2.686950445175171,-0.43334823846817017,0.6512070894241333
1776554383267683000,1.90368310546875,-2.702850341796875,-0.7648345828056335,0.5684554576873779
1776554383277723000,1.913722900390625,-2.8313026428222656,-1.248536467552185,0.36571618914604187
1776554383287763000,1.923762939453125,-3.0730385780334473,-1.587831735610962,0.15118418633937836
1776554383297803000,1.933802978515625,-2.976422071456909,-1.7782797813415527,-0.08818311989307404
1776554383307843000,1.943843017578125,-3.0511560440063477,-1.4247467517852783,-0.3890193998813629
1776554383317884000,1.9538837890625,-3.1094565391540527,-0.945701003074646,-0.5908939242362976
1776554383327924000,1.963924072265625,-2.9014363288879395,-0.3675268888473511,-0.7004790306091309
1776554383337963800,1.9739638671875,-2.454880475997925,0.3049148917198181,-0.509864866733551
1776554383348003800,1.98400390625,-2.3947055339813232,0.6572995781898499,-0.4344257414340973
1776554383358044000,1.9940439453125,-2.5231404304504395,0.3264545500278473,-0.2770385146141052
1776554383368084000,2.004083984375,-2.7705154418945312,-1.31515634059906,-0.16311116516590118
1776554383378125000,2.014125,-3.177652597427368,-1.8256858587265015,-0.008449677377939224
1776554383388165000,2.0241650390625,-3.324613332748413,-1.2068431377410889,-0.05850085988640785
1776554383398205000,2.034204833984375,-2.7463090419769287,-0.45223352313041687,-0.5025896430015564
1776554383408244700,2.04424462890625,-2.1269893646240234,0.07962425798177719,-0.9451135396957397
1776554383418284800,2.054284912109375,-1.7537744045257568,0.41644036769866943,-1.156116008758545
1776554383428326000,2.064325927734375,-1.4222809076309204,0.34039005637168884,-0.8845908045768738
1776554383438366000,2.074365966796875,-1.0195083618164062,0.17504318058490753,-0.3959481418132782
1776554383448406000,2.084406005859375,-0.7229068279266357,-0.18919043242931366,0.026013491675257683
1776554383458446000,2.094446044921875,-0.20238026976585388,-0.27605822682380676,0.2601359784603119
1776554383468486000,2.10448583984375,0.36461445689201355,-0.32365450263023376,0.2929098904132843
1776554383478526000,2.11452587890625,0.8128753304481506,-0.06737104803323746,0.2229132354259491
1776554383488566000,2.12456591796875,1.036102533340454,0.4052220582962036,0.059845756739377975
1776554383498606800,2.13460693359375,1.112690806388855,0.8166940212249756,-0.0440625324845314
1776554383508647000,2.14464697265625,1.1412323713302612,0.994335949420929,-0.037568412721157074
1776554383518687000,2.15468701171875,1.2004730701446533,0.9335705637931824,0.022816898301243782
1776554383528726800,2.164726806640625,1.2511365413665771,0.7707923054695129,0.15920722484588623
1776554383538766800,2.174766845703125,1.2650984525680542,0.5844812989234924,0.3194490969181061
1776554383548808000,2.184807861328125,1.2569787502288818,0.486601859331131,0.45044201612472534
1776554383558848000,2.194847900390625,1.2171589136123657,0.4213520288467407,0.49471545219421387
1776554383568888000,2.20488818359375,1.1773518323898315,0.41927316784858704,0.4356697201728821
1776554383578927900,2.214927978515625,1.1524392366409302,0.4685991704463959,0.29456424713134766
1776554383588968000,2.224968017578125,1.150118350982666,0.6416378021240234,0.1968291699886322
1776554383599007700,2.2350078125,1.2448978424072266,0.7344388365745544,0.20898064970970154
1776554383609048800,2.245048828125,1.3470619916915894,0.7409704923629761,0.2227286845445633
1776554383619089000,2.2550888671875,1.243748426437378,0.6423028111457825,0.19936157763004303
1776554383629129000,2.26512890625,1.074965238571167,0.4272562563419342,0.21800316870212555
1776554383639169000,2.2751689453125,0.9989461302757263,0.45171046257019043,0.2741870880126953
1776554383649209000,2.285208984375,1.0740560293197632,0.6051021814346313,0.24006585776805878
1776554383659249000,2.295248779296875,1.222823143005371,0.7472707629203796,0.09442051500082016
1776554383669289700,2.305289794921875,1.370764136314392,0.9070484042167664,-0.09589297324419022
1776554383679329800,2.315329833984375,1.4942957162857056,1.0307749509811401,-0.3250795602798462
1776554383689369900,2.325369873046875,1.5525299310684204,1.162837028503418,-0.44323867559432983
1776554383699410000,2.335409912109375,1.7820284366607666,1.6355223655700684,-0.09791325032711029
1776554383709450000,2.345449951171875,1.8268003463745117,1.1884976625442505,-0.045643649995326996
1776554383719489800,2.35548974609375,1.4026280641555786,0.29655149579048157,-0.2848152220249176
1776554383729531000,2.36553076171875,0.8133277893066406,0.068075992166996,-0.4647549092769623
1776554383739571000,2.375571044921875,0.3093186914920807,0.46326857805252075,-0.6292809844017029
1776554383749611000,2.385611083984375,-0.0805094912648201,1.0090059041976929,-0.8794887065887451
1776554383759650800,2.39565087890625,-0.445914626121521,1.504947304725647,-1.1729952096939087
1776554383769691000,2.40569091796875,-0.8160942792892456,2.03544282913208,-1.416478157043457
1776554383779730700,2.415730712890625,-1.144310474395752,2.5996625423431396,-1.5409481525421143
1776554383789771800,2.425771728515625,-1.251828670501709,3.3525099754333496,-1.2671881914138794
1776554383799811800,2.435811767578125,-1.2484630346298218,3.5030007362365723,-0.8008636832237244
1776554383809852000,2.445851806640625,-1.3102813959121704,2.5783638954162598,-0.2808854579925537
1776554383819891700,2.4558916015625,-1.4339830875396729,0.9067096710205078,0.18675071001052856
1776554383829931800,2.465931884765625,-1.4217854738235474,-0.5998413562774658,0.5884536504745483
1776554383839971800,2.475971923828125,-1.210559606552124,-1.4773668050765991,1.0021296739578247
1776554383850012700,2.4860126953125,-0.8684030175209045,-1.7019681930541992,1.3967797756195068
1776554383860052700,2.496052734375,-0.5064312219619751,-1.6014761924743652,1.6190333366394043
1776554383870092800,2.5060927734375,-0.21536850929260254,-1.3155122995376587,1.6111112833023071
1776554383880132900,2.5161328125,-0.0865039974451065,-0.972069263458252,1.367469310760498
1776554383890172700,2.526172607421875,-0.23358266055583954,-0.38331595063209534,0.8601203560829163
1776554383900213800,2.5362138671875,-0.5839241743087769,0.3763613700866699,0.19571571052074432
1776554383910253800,2.54625390625,-0.7998180985450745,1.169330358505249,-0.41305920481681824
1776554383920294000,2.5562939453125,-0.9774323105812073,1.6443110704421997,-0.8162897825241089
1776554383930334000,2.566333984375,-1.1626099348068237,1.7631194591522217,-0.9536385536193848
1776554383940374000,2.5763740234375,-1.268175721168518,1.537552833557129,-0.8757232427597046
1776554383950413800,2.586413818359375,-1.1761081218719482,1.524519681930542,-0.7101342678070068
1776554383960454700,2.59645458984375,-0.9435393214225769,1.6564006805419922,-0.5253098607063293
1776554383970494700,2.60649462890625,-0.6102018356323242,1.6798924207687378,-0.36958178877830505
1776554383980534800,2.61653466796875,-0.2923988401889801,1.591991901397705,-0.23375682532787323
1776554383990574800,2.626574951171875,-0.11019068956375122,1.3200373649597168,-0.06914898008108139
1776554384000615000,2.636614990234375,-0.06723203510046005,0.958842396736145,0.12337865680456161
1776554384010654700,2.64665478515625,-0.12697286903858185,0.5495787262916565,0.3011036515235901
1776554384020695800,2.65669580078125,-0.22227275371551514,0.34317973256111145,0.4251643419265747
1776554384030735600,2.666735595703125,-0.294607937335968,0.384128212928772,0.45884189009666443
1776554384040775700,2.676775634765625,-0.2890419363975525,0.16421957314014435,0.2893252968788147
1776554384050815700,2.686815673828125,-0.15229526162147522,0.002603772561997175,0.07562392204999924
1776554384060855800,2.696855712890625,-0.018062356859445572,0.04675045982003212,-0.05748965963721275
1776554384070895900,2.706895751953125,-0.0019313243683427572,0.13360252976417542,-0.09886452555656433
1776554384080937000,2.71693701171875,-0.006025135517120361,0.21730701625347137,-0.08025036752223969
1776554384090976800,2.726976806640625,0.007995874620974064,0.18283213675022125,-0.05239902436733246
1776554384101016800,2.737016845703125,0.005019525997340679,-0.03774125501513481,-0.023502130061388016
1776554384111057000,2.747056884765625,0.08384563028812408,-0.2330167442560196,0.04820987209677696
1776554384121097000,2.757096923828125,0.14779052138328552,-0.5073910355567932,0.3636549115180969
1776554384131137800,2.7671376953125,0.005402488633990288,-0.9331103563308716,0.6346882581710815
1776554384141177900,2.777177734375,-0.16792109608650208,-1.1560699939727783,0.7023658752441406
1776554384151217700,2.7872177734375,-0.23669110238552094,-1.2133151292800903,0.7416743636131287
1776554384161257700,2.7972578125,-0.20076292753219604,-1.04439115524292,0.8334115147590637
1776554384171297800,2.8072978515625,-0.1068074032664299,-0.44991016387939453,0.7397811412811279
1776554384181337900,2.817337890625,-0.16241900622844696,0.1685117781162262,0.4902094006538391
1776554384191379000,2.82737890625,-0.2586323618888855,0.3823479115962982,0.24999625980854034
1776554384201418800,2.837418701171875,-0.38907185196876526,0.3614857792854309,0.19480571150779724
1776554384211458600,2.84745849609375,-0.4294815957546234,0.27507975697517395,0.20709273219108582
1776554384221498600,2.85749853515625,-0.2931714355945587,0.2557433545589447,0.21571098268032074
1776554384231538700,2.86753857421875,-0.07960694283246994,0.31444182991981506,0.2751500904560089
1776554384241578800,2.877578857421875,0.01889672502875328,0.26197728514671326,0.29547426104545593
1776554384251619800,2.887619873046875,0.10818959027528763,0.14259204268455505,0.18747535347938538
1776554384261660000,2.897659912109375,0.1832563728094101,0.15946555137634277,-0.01787780039012432
1776554384271700000,2.907699951171875,0.23083508014678955,0.2474747747182846,-0.3280170261859894
1776554384281739800,2.91773974609375,0.16297906637191772,0.360815167427063,-0.5265871286392212
1776554384291779800,2.92777978515625,0.11145142465829849,0.49302807450294495,-0.5331299304962158
1776554384301820000,2.93781982421875,0.1712718904018402,0.708840012550354,-0.4777258336544037
1776554384311860700,2.94786083984375,0.36967313289642334,0.7087284326553345,-0.4892357289791107
1776554384321900800,2.95790087890625,0.6034440398216248,0.5386080741882324,-0.5382200479507446
1776554384331940900,2.96794091796875,0.8234930634498596,0.5328583121299744,-0.5887535214424133
1776554384341980700,2.977980712890625,1.0103611946105957,0.6269552707672119,-0.5113295912742615
1776554384352020700,2.988020751953125,1.0736578702926636,0.7478113770484924,-0.2649989128112793
1776554384362060800,2.998060791015625,1.012723684310913,0.7862256169319153,-0.01407800242304802
1776554384372102000,3.008101806640625,0.7218846678733826,0.5779741406440735,0.19986571371555328
1776554384382142000,3.018141845703125,0.26778990030288696,0.39471641182899475,0.3774242401123047
1776554384392181800,3.028181640625,-0.05957065150141716,0.2264629602432251,0.30684328079223633
1776554384402221800,3.038221923828125,-0.03586345911026001,0.10907828062772751,-0.06083805114030838
1776554384412261600,3.04826171875,0.34228143095970154,0.23363672196865082,-0.45562317967414856
1776554384422302700,3.058302734375,1.0445612668991089,-0.14984488487243652,-1.4071706533432007
1776554384432342800,3.0683427734375,2.965899705886841,0.23129500448703766,-1.2624787092208862
1776554384442382800,3.0783828125,4.03033447265625,0.702494740486145,-1.0756198167800903
1776554384452423000,3.0884228515625,4.436791896820068,1.0486716032028198,-1.0424613952636719
1776554384462463000,3.098462890625,4.147310256958008,1.5303479433059692,-0.868516206741333
1776554384472502800,3.108502685546875,3.0437188148498535,1.3823139667510986,-0.7517126202583313
1776554384482543600,3.118543701171875,1.6198538541793823,0.8180687427520752,-0.18215063214302063
1776554384492583700,3.128583740234375,0.31940117478370667,0.06118639186024666,0.5683475732803345
1776554384502623700,3.138623779296875,-0.0839654728770256,-0.40433070063591003,0.866654634475708
1776554384512663800,3.148663818359375,-0.02358468808233738,-0.30756980180740356,0.8835734724998474
1776554384522704000,3.158703857421875,-0.06059170886874199,-0.08416680991649628,0.6114780306816101
1776554384532743700,3.16874365234375,-0.15368223190307617,0.19275400042533875,0.18209949135780334
1776554384542784800,3.17878466796875,-0.20714226365089417,0.3039838671684265,-0.295288622379303
1776554384552824800,3.188824951171875,-0.23628364503383636,0.2718570828437805,-0.7062282562255859
1776554384562865000,3.198864990234375,-0.21234342455863953,0.17546290159225464,-0.9332390427589417
1776554384572904700,3.20890478515625,-0.17576970160007477,0.030290793627500534,-1.0040374994277954
1776554384582944800,3.21894482421875,-0.11841239780187607,-0.1524965912103653,-0.9686667919158936
1776554384592984800,3.22898486328125,-0.1902109533548355,-0.3230949640274048,-0.9029293060302734
1776554384603026000,3.23902587890625,-0.2985006868839264,-0.3467355966567993,-0.8925027847290039
1776554384613065700,3.249065673828125,-0.26105475425720215,-0.23122923076152802,-0.8841481804847717
1776554384623105800,3.259105712890625,0.07719118893146515,-0.04983812943100929,-0.8782828450202942
1776554384633145900,3.269145751953125,0.5206030011177063,0.19393937289714813,-0.7867891192436218
1776554384643186000,3.27918603515625,0.6824834942817688,0.44527414441108704,-0.47831544280052185
1776554384653226800,3.289226806640625,0.73954838514328,0.46954166889190674,-0.07997419685125351
1776554384663266800,3.299266845703125,0.7498838305473328,0.25006842613220215,0.2595953643321991
1776554384673306600,3.309306640625,0.8295355439186096,-0.07797815650701523,0.4439079463481903
1776554384683346700,3.3193466796875,1.1113659143447876,-0.3164093792438507,0.40471500158309937
1776554384693386800,3.32938671875,1.2932685613632202,-0.2619147002696991,0.1815013438463211
1776554384703426800,3.3394267578125,1.0270334482192993,-0.1657029539346695,0.055930644273757935
1776554384713468000,3.349468017578125,0.8374637365341187,-0.09783974289894104,0.0034288198221474886
1776554384723508000,3.359508056640625,0.7614589929580688,-0.017729196697473526,0.017408818006515503
1776554384733547800,3.3695478515625,0.7108176350593567,0.005513275973498821,0.14469966292381287
1776554384743587800,3.379587890625,0.7993398308753967,-0.08301179856061935,0.2551193833351135
1776554384753628000,3.3896279296875,0.724746823310852,-0.09628205746412277,0.3649366796016693
1776554384763667200,3.399667236328125,0.5307552218437195,-0.05343899130821228,0.43831369280815125
1776554384773708000,3.4097080078125,0.2231454700231552,-0.006808104924857616,0.429926335811615
1776554384783748000,3.419748046875,0.03755243495106697,-0.008643821813166142,0.3149334490299225
1776554384793788200,3.4297880859375,-0.07108455896377563,-0.06917507946491241,0.1698385626077652
1776554384803828200,3.439828125,-0.11124929040670395,-0.1335652470588684,0.06408337503671646
1776554384813868300,3.449868408203125,-0.09926746785640717,-0.213786318898201,0.057976484298706055
1776554384823908000,3.459908203125,-0.06347297877073288,-0.3004636764526367,0.10913953930139542
1776554384833949200,3.46994921875,-0.041310153901576996,-0.3575964868068695,0.16822975873947144
1776554384843989200,3.4799892578125,-0.07143156975507736,-0.4043309688568115,0.20156773924827576
1776554384854029000,3.490029052734375,0.10892488807439804,-0.40735605359077454,0.1508299857378006
1776554384864069000,3.500069091796875,0.4140925109386444,-0.41061681509017944,0.17088013887405396
1776554384874109200,3.510109130859375,0.6189364790916443,-0.13340678811073303,0.24052418768405914
1776554384884150300,3.520150390625,0.5387654900550842,0.030109167098999023,0.24522094428539276
1776554384894190000,3.530190185546875,0.33337023854255676,0.10324862599372864,0.1921880841255188
1776554384904230100,3.540230224609375,0.031440213322639465,0.08431754261255264,0.10115458071231842
1776554384914270200,3.550270263671875,-0.1464725285768509,0.04796566069126129,0.032521456480026245
1776554384924310300,3.560310302734375,-0.20487432181835175,-0.018794460222125053,0.000955009541939944
1776554384934350300,3.570350341796875,-0.3122361898422241,-0.0835321769118309,-0.004011785611510277
1776554384944391200,3.58039111328125,-0.5230525732040405,-0.08124851435422897,0.003020024625584483
1776554384954431200,3.59043115234375,-0.5401782989501953,-0.023677099496126175,0.011452125385403633
1776554384964471000,3.600470947265625,-0.4392942786216736,0.05765104666352272,0.04150110483169556
1776554384974511000,3.610510986328125,-0.2877771854400635,0.10837920755147934,0.07803221791982651
1776554384984551200,3.62055126953125,-0.11274252831935883,0.14167776703834534,0.06258295476436615
1776554384994591200,3.63059130859375,0.019834158942103386,0.17969626188278198,0.04308275505900383
1776554385004632300,3.64063232421875,0.08665420114994049,0.1708761304616928,0.019592609256505966
1776554385014672400,3.65067236328125,0.08256039023399353,0.15712463855743408,0.01629534922540188
1776554385024712200,3.660712158203125,0.02443690039217472,0.20286709070205688,0.07182519137859344
1776554385034752300,3.670752197265625,-0.04579731449484825,0.2217925786972046,0.13448138535022736
1776554385044792000,3.6807919921875,-0.040591634809970856,0.2505139708518982,0.21032235026359558
1776554385054832000,3.69083203125,0.031690020114183426,0.27277907729148865,0.26857179403305054
1776554385064873200,3.700873291015625,0.0335283987224102,0.28775322437286377,0.287695974111557
1776554385074913300,3.710913330078125,0.0194860827177763,0.27790936827659607,0.26143160462379456
1776554385084953000,3.720953125,-0.009583118371665478,0.1801316887140274,0.18127818405628204
1776554385094993200,3.7309931640625,-0.08392739295959473,-0.05259503424167633,0.0914529487490654
1776554385105033200,3.741033203125,-0.02606329135596752,-0.07519248872995377,0.1403837352991104
1776554385115073300,3.7510732421875,0.02581455372273922,-0.05273431912064552,0.18164142966270447
1776554385125114000,3.761114013671875,0.02496260777115822,-0.06775827705860138,0.18143370747566223
1776554385135154200,3.771154296875,0.0317014716565609,-0.050937749445438385,0.1764589250087738
1776554385145194200,3.7811943359375,0.03659342974424362,-0.011843076907098293,0.16351622343063354
1776554385155234000,3.791234130859375,0.04333176091313362,0.0513814315199852,0.1519642323255539
1776554385165274000,3.801274169921875,0.05534821003675461,0.10925458371639252,0.14720755815505981
1776554385175315200,3.811315185546875,0.06759075820446014,0.132864311337471,0.13634346425533295
1776554385185355300,3.821355224609375,0.07868389040231705,0.11535828560590744,0.12490704655647278
1776554385195395300,3.831395263671875,0.07653019577264786,0.10564599931240082,0.12036342918872833
1776554385205435400,3.841435302734375,0.07042036950588226,0.11130575090646744,0.1217392161488533
1776554385215475200,3.85147509765625,0.06990131735801697,0.08633009344339371,0.10538528114557266
1776554385225515000,3.861514892578125,0.07552511990070343,0.023180153220891953,0.07315117865800858
1776554385235556000,3.87155615234375,0.0768100917339325,-0.014583736658096313,0.057489391416311264
1776554385245596200,3.88159619140625,0.0768982395529747,0.009816411882638931,0.0668482705950737
1776554385255636200,3.89163623046875,0.08135717362165451,0.05492929369211197,0.0766172781586647
1776554385265676300,3.90167626953125,0.0881090834736824,0.07824686914682388,0.07332214713096619
1776554385275716000,3.911716064453125,0.09129342436790466,0.08292178064584732,0.06224233657121658
1776554385285756200,3.921756103515625,0.10229095071554184,0.07686015963554382,0.05020271614193916
1776554385295797000,3.931796875,0.11429275572299957,0.04926368594169617,0.020532438531517982
1776554385305837000,3.941837158203125,0.1402071714401245,0.021345501765608788,-0.006678408943116665
1776554385315877000,3.951877197265625,0.14794579148292542,0.002522812457755208,-0.028309402987360954
1776554385325917200,3.961917236328125,0.14467942714691162,0.009700031951069832,-0.031091606244444847
1776554385335957200,3.971957275390625,0.13154791295528412,0.0032783513888716698,-0.03201518952846527
1776554385345997000,3.9819970703125,0.12543728947639465,-0.03298990800976753,-0.05083202198147774
1776554385356038100,3.9920380859375,0.14441630244255066,-0.0820045918226242,-0.06885070353746414
1776554385366078200,4.002078125,0.16075505316257477,-0.09500214457511902,-0.07682660222053528
1776554385376118300,4.0121181640625,0.16793440282344818,-0.07369738817214966,-0.07898935675621033
1776554385386158300,4.022158447265625,0.17400695383548737,-0.060568537563085556,-0.09362688660621643
1776554385396198400,4.032198486328125,0.18908709287643433,-0.054250720888376236,-0.11399874091148376
1776554385406238000,4.042238037109375,0.2178468406200409,-0.0569935105741024,-0.1275329291820526
1776554385416279000,4.052279052734375,0.23676301538944244,-0.06792152673006058,-0.13810567557811737
1776554385426319000,4.062319091796875,0.25840437412261963,-0.08811627328395844,-0.14599528908729553
1776554385436359200,4.072359130859375,0.23848554491996765,-0.11429408192634583,-0.14473481476306915
1776554385446399200,4.082399169921875,0.24681751430034637,-0.18407022953033447,-0.16417056322097778
1776554385456439300,4.092439208984375,0.2713566720485687,-0.24917520582675934,-0.1861293911933899
1776554385466479000,4.10247900390625,0.2954811751842499,-0.29145607352256775,-0.2030963897705078
1776554385476520000,4.11252001953125,0.29927751421928406,-0.3247472047805786,-0.20810499787330627
1776554385486560000,4.12256005859375,0.24752457439899445,-0.2982404828071594,-0.20117226243019104
1776554385496600000,4.13260009765625,0.2329895794391632,-0.29231202602386475,-0.18661941587924957
1776554385506640100,4.14264013671875,0.22477665543556213,-0.3046051859855652,-0.17168760299682617
1776554385516680200,4.15268017578125,0.21448034048080444,-0.3127549886703491,-0.16948357224464417
1776554385526721300,4.16272119140625,0.22140562534332275,-0.2649243474006653,-0.16905613243579865
1776554385536761300,4.17276123046875,0.23310302197933197,-0.2258365899324417,-0.17424103617668152
1776554385546801200,4.18280126953125,0.21267737448215485,-0.1441800743341446,-0.17265965044498444
1776554385556841200,4.19284130859375,0.2551302909851074,-0.1501290500164032,-0.1793638914823532
1776554385566881300,4.20288134765625,0.3150940239429474,-0.1758250892162323,-0.178799569606781
1776554385576921300,4.21292138671875,0.3600306212902069,-0.24115829169750214,-0.17127427458763123
1776554385586962200,4.222962158203125,0.38267573714256287,-0.3141757845878601,-0.1497460901737213
1776554385597002200,4.233002197265625,0.3883354961872101,-0.39396142959594727,-0.10746600478887558
1776554385607042000,4.2430419921875,0.32827243208885193,-0.44349542260169983,-0.06336165964603424
1776554385617082000,4.25308203125,0.34943336248397827,-0.4730250835418701,-0.012374644167721272
1776554385627122200,4.2631220703125,0.3776998817920685,-0.48768097162246704,0.028295820578932762
1776554385637162200,4.273162353515625,0.36598092317581177,-0.35776373744010925,0.07006031274795532
1776554385647203300,4.283203369140625,0.3388307988643646,-0.19241738319396973,0.08040136843919754
1776554385657243100,4.2932431640625,0.3120489716529846,-0.027523236349225044,0.0338226780295372
1776554385667283000,4.303282958984375,0.2753535509109497,0.12602104246616364,-0.039382025599479675
1776554385677323000,4.313322998046875,0.17302104830741882,0.2693891227245331,-0.11194491386413574
1776554385687363000,4.323363037109375,0.10449977964162827,0.25834980607032776,-0.17057493329048157
1776554385697403100,4.333403076171875,0.05404645577073097,0.0895562469959259,-0.17750820517539978
1776554385707444200,4.3434443359375,0.04771852120757103,-0.10262304544448853,-0.12787647545337677
1776554385717484300,4.353484375,0.05223763734102249,-0.23962856829166412,-0.03683391585946083
1776554385727524400,4.3635244140625,0.0016708672046661377,-0.2933730185031891,0.0937962681055069
1776554385737564200,4.373564208984375,0.049314819276332855,-0.3451126515865326,0.18297061324119568
1776554385747604200,4.383604248046875,0.16159315407276154,-0.4252820611000061,0.22947873175144196
1776554385757645000,4.39364501953125,0.2698346674442291,-0.3820056915283203,0.24454262852668762
1776554385767686100,4.40368603515625,0.3330000638961792,-0.24660179018974304,0.23881284892559052
1776554385777726200,4.413726318359375,0.33289220929145813,-0.06491880863904953,0.21988655626773834
1776554385787766300,4.423766357421875,0.3214765787124634,0.04036713019013405,0.18009866774082184
1776554385797806300,4.433806396484375,0.2750001549720764,0.07956806570291519,0.11587546765804291
1776554385807846100,4.44384619140625,0.23057807981967926,0.03419818356633186,0.03410870209336281
1776554385817886200,4.45388623046875,0.2038239687681198,-0.008502407930791378,-0.04917420446872711
1776554385827927000,4.463927001953125,0.20318907499313354,-0.0433725081384182,-0.1024472787976265
1776554385837967000,4.473967041015625,0.2253074198961258,-0.06998414546251297,-0.15688975155353546
1776554385848007200,4.484007080078125,0.2556818425655365,-0.08033665269613266,-0.17193368077278137
1776554385858047200,4.494047119140625,0.25724485516548157,-0.08676499128341675,-0.15803410112857819
1776554385868087300,4.50408740234375,0.25849440693855286,-0.12461916357278824,-0.12395816296339035
1776554385878128400,4.51412841796875,0.2856362760066986,-0.14495453238487244,-0.10553601384162903
1776554385888168200,4.524168212890625,0.31001031398773193,-0.11327755451202393,-0.08208475261926651
1776554385898208300,4.534208251953125,0.34034478664398193,-0.051296744495630264,-0.055258993059396744
1776554385908248000,4.544248046875,0.3622559607028961,0.0157744362950325,-0.04501168429851532
1776554385918288100,4.5542880859375,0.4047171175479889,0.06226417422294617,-0.05639296770095825
1776554385928328200,4.564328125,0.42557793855667114,0.07548916339874268,-0.06889810413122177
1776554385938369300,4.574369384765625,0.4086093306541443,0.0936194360256195,-0.07747241854667664
1776554385948409000,4.5844091796875,0.35691899061203003,0.11000826209783554,-0.07413654774427414
1776554385958449200,4.59444921875,0.3066624701023102,0.04843038320541382,-0.05944681540131569
1776554385968489200,4.6044892578125,0.27159714698791504,-0.11265251040458679,-0.018626680597662926
1776554385978529300,4.614529296875,0.23810070753097534,-0.24445341527462006,0.035950012505054474
1776554385988569300,4.6245693359375,0.21037188172340393,-0.28601497411727905,0.09259464591741562
1776554385998610200,4.634610107421875,0.1956070512533188,-0.24082618951797485,0.13896134495735168
1776554386008650000,4.64464990234375,0.17883393168449402,-0.1358821988105774,0.15379968285560608
1776554386018690000,4.65468994140625,0.1482669711112976,-0.030216757208108902,0.10478420555591583
1776554386028730000,4.664730224609375,0.0744185745716095,0.06896575540304184,0.02371651493012905
1776554386038770200,4.674770263671875,-0.020053869113326073,0.12073973566293716,-0.053105030208826065
1776554386048810200,4.684810302734375,-0.10489872097969055,0.035767585039138794,-0.09422530233860016
1776554386058851300,4.694851318359375,-0.13807211816310883,-0.14916737377643585,-0.06052006781101227
1776554386068891400,4.704891357421875,-0.09380052983760834,-0.35757145285606384,0.0473984070122242
1776554386078931200,4.71493115234375,-0.02340093068778515,-0.47618013620376587,0.16964469850063324
1776554386088971300,4.72497119140625,0.06303063035011292,-0.49541959166526794,0.2572704255580902
1776554386099011000,4.735010986328125,0.1619470864534378,-0.43139639496803284,0.27438467741012573
1776554386109051100,4.745051025390625,0.23083508014678955,-0.30055156350135803,0.25599023699760437
1776554386119092200,4.75509228515625,0.2414589673280716,-0.16267094016075134,0.20886746048927307
1776554386129132300,4.76513232421875,0.18107178807258606,-0.06103193014860153,0.17670606076717377
1776554386139172000,4.775172119140625,0.0740973949432373,-0.0026762105990201235,0.1461644023656845
1776554386149212200,4.785212158203125,0.03802115097641945,0.02262355387210846,0.11537958681583405
1776554386159252200,4.795252197265625,0.07979442924261093,0.009641974233090878,0.0947805717587471
1776554386169292300,4.805292236328125,0.13400600850582123,-0.0446457639336586,0.09771563857793808
1776554386179333000,4.8153330078125,0.13537167012691498,-0.06654200702905655,0.1401270180940628
1776554386189373200,4.825373291015625,0.08909285813570023,-0.03437182307243347,0.1854012906551361
1776554386199413000,4.8354130859375,0.041848380118608475,0.0308641716837883,0.2028529793024063
1776554386209453000,4.845453125,-0.0002247707889182493,0.10150798410177231,0.15594325959682465
1776554386219493000,4.8554931640625,-0.02773149684071541,0.14162451028823853,0.05217638611793518
1776554386229533200,4.865533203125,-0.0007922904333099723,0.07156659662723541,-0.04228833317756653
1776554386239574300,4.87557421875,0.05903322622179985,-0.003865312086418271,-0.024397751316428185
1776554386249614300,4.8856142578125,0.10219161212444305,-0.023187877610325813,0.07860533148050308
1776554386259654400,4.895654296875,0.12271766364574432,0.011713380925357342,0.20403781533241272
1776554386269694200,4.905694091796875,0.10768305510282516,0.05590454488992691,0.24422305822372437
1776554386279734000,4.915734130859375,0.056473396718502045,0.09466765075922012,0.1886138617992401
1776554386289775000,4.925775146484375,0.033854369074106216,0.10000569373369217,0.11100322008132935
1776554386299815200,4.935815185546875,0.04525429755449295,0.07355038076639175,0.09472064673900604
1776554386309855200,4.945855224609375,0.06569112837314606,0.0993201956152916,0.1675804704427719
1776554386319895300,4.955895263671875,0.07806497067213058,0.1332280933856964,0.2538847327232361
1776554386329935000,4.96593505859375,0.08977223187685013,0.16888755559921265,0.2909780442714691
1776554386339975200,4.97597509765625,0.08099711686372757,0.1748303920030594,0.24031513929367065
1776554386350016000,4.98601611328125,0.050335608422756195,0.1621529459953308,0.15085315704345703
1776554386360056000,4.99605615234375,0.04807165637612343,0.10442893952131271,0.075220987200737
1776554386370096000,5.00609619140625,0.04941442236304283,0.04995877295732498,0.07296662032604218
1776554386380136200,5.01613623046875,0.041191112250089645,0.05182671174407005,0.13888518512248993
1776554386390176000,5.026176025390625,0.05427176132798195,0.0828205794095993,0.24592188000679016
1776554386400216000,5.036216064453125,0.07739891856908798,0.10847827047109604,0.33018484711647034
1776554386410257200,5.046257080078125,0.05950833484530449,0.14223571121692657,0.36677268147468567
1776554386420297200,5.056297119140625,0.004006193019449711,0.20647087693214417,0.3441760241985321
1776554386430337300,5.066337158203125,-0.0667305588722229,0.28664320707321167,0.26905837655067444
1776554386440377300,5.07637744140625,-0.12969860434532166,0.3567706346511841,0.16515274345874786
1776554386450417400,5.08641748046875,-0.1517929881811142,0.41450637578964233,0.07847962528467178
1776554386460457000,5.09645703125,-0.1333061307668686,0.4378569722175598,0.04855688288807869
1776554386470498000,5.106498046875,-0.08655539900064468,0.4161785840988159,0.08165571093559265
1776554386480538000,5.1165380859375,-0.05121445283293724,0.3486432135105133,0.1456935554742813
1776554386490578200,5.126578125,-0.019115371629595757,0.23273470997810364,0.20023509860038757
1776554386500618200,5.1366181640625,0.0013571468880400062,0.10591045022010803,0.2368524968624115
1776554386510658300,5.146658203125,0.01770149916410446,0.028724588453769684,0.2395649254322052
1776554386520698000,5.156697998046875,0.017250092700123787,0.017349163070321083,0.22215449810028076
1776554386530739000,5.166739013671875,0.02269039861857891,0.04598533362150192,0.1862471103668213
1776554386540779000,5.176779052734375,0.02911953628063202,0.10072235018014908,0.14490365982055664
1776554386550819000,5.186819091796875,0.03160027042031288,0.15018151700496674,0.096535325050354
1776554386560859100,5.196859130859375,0.042818568646907806,0.17945045232772827,0.05772082135081291
1776554386570899200,5.206899169921875,0.05078461766242981,0.17264766991138458,0.0321214497089386
1776554386580939300,5.216939208984375,0.04561249166727066,0.133089080452919,0.016408801078796387
1776554386590980400,5.22698046875,0.03308817744255066,0.08422273397445679,0.005516738165169954
1776554386601020200,5.237020263671875,0.0231734961271286,0.04532327130436897,-0.006652310024946928
1776554386611060200,5.247060302734375,0.015444735996425152,0.024207601323723793,-0.01565246284008026
1776554386621100300,5.257100341796875,0.012780509889125824,0.015239140018820763,-0.034205373376607895
1776554386631140400,5.267140380859375,0.009098423644900322,0.013579990714788437,-0.05631839856505394
1776554386641181200,5.27718115234375,0.003938282374292612,0.008222510106861591,-0.08018910884857178
1776554386651221200,5.28722119140625,0.0016410398529842496,-0.00014274542627390474,-0.09841179102659225
1776554386661261000,5.297260986328125,0.007553790230304003,-0.003628556849434972,-0.10601165145635605
1776554386671301000,5.307301025390625,0.020313793793320656,0.014602910727262497,-0.09945042431354523
1776554386681341200,5.317341064453125,0.03633856773376465,0.030708910897374153,-0.07993558049201965
1776554386691381200,5.32738134765625,0.04381725564599037,0.028381040319800377,-0.06210837885737419
1776554386701422300,5.33742236328125,0.034156106412410736,-0.029684659093618393,-0.05096811056137085
1776554386711462100,5.347462158203125,0.013586648739874363,-0.10314955562353134,-0.05156039446592331
1776554386721502000,5.357501953125,-0.000874582096002996,-0.1326128989458084,-0.05090738832950592
1776554386731542000,5.3675419921875,-0.01691693253815174,-0.09449081867933273,-0.0648474395275116
1776554386741582000,5.37758203125,-0.027222832664847374,-0.02827691100537777,-0.08628455549478531
1776554386751622100,5.3876220703125,-0.04433204606175423,-0.014852182939648628,-0.10315381735563278
1776554386761662700,5.397662841796875,-0.0559636652469635,-0.025497369468212128,-0.10217297077178955
1776554386771702800,5.407702880859375,-0.052320994436740875,-0.024622522294521332,-0.07406251132488251
1776554386781742600,5.41774267578125,-0.048473525792360306,-0.008191883563995361,-0.04872998967766762
1776554386791782700,5.42778271484375,-0.06480216234922409,-0.02732882648706436,-0.03560326620936394
1776554386801822700,5.43782275390625,-0.08095131069421768,-0.04956462234258652,-0.027032682672142982
1776554386811862800,5.44786279296875,-0.07191307097673416,-0.07538823038339615,0.012600746937096119
1776554386821903600,5.457903564453125,-0.06259653717279434,-0.12078740447759628,0.049730803817510605
1776554386831943700,5.467943603515625,-0.055040616542100906,-0.16117610037326813,0.07303772866725922
1776554386841983700,5.477983642578125,-0.04246276989579201,-0.17272384464740753,0.08254095166921616
1776554386852023600,5.4880234375,-0.031867917627096176,-0.16149409115314484,0.09869728237390518
1776554386862063600,5.498063720703125,-0.02183366008102894,-0.1391725391149521,0.11224211752414703
1776554386872103700,5.508103759765625,-0.0145286088809371,-0.12415070831775665,0.11403495818376541
1776554386882144800,5.518144775390625,-0.010792193934321404,-0.12964481115341187,0.10919573158025742
1776554386892184800,5.528184814453125,-0.015930229797959328,-0.14318352937698364,0.09881366044282913
1776554386902225000,5.538224853515625,-0.02888304740190506,-0.14221839606761932,0.09698673337697983
1776554386912264700,5.5482646484375,-0.032158467918634415,-0.1272900402545929,0.08811946958303452
1776554386922304500,5.558304443359375,-0.03707493096590042,-0.08750162273645401,0.07735204696655273
1776554386932344600,5.568344482421875,-0.037403032183647156,-0.03924300894141197,0.06478485465049744
1776554386942385700,5.5783857421875,-0.03284795954823494,0.0031989889685064554,0.05576739087700844
1776554386952425700,5.58842578125,-0.01991911232471466,0.02857491932809353,0.056342367082834244
1776554386962465800,5.5984658203125,-0.009639844298362732,0.040526654571294785,0.05796343460679054
1776554386972505600,5.608505615234375,-0.0015041533624753356,0.05168076977133751,0.060554422438144684
1776554386982545700,5.618545654296875,0.003998736385256052,0.06402958184480667,0.05618630722165108
1776554386992585700,5.628585693359375,0.009917612187564373,0.07661700993776321,0.041855305433273315
1776554387002626600,5.63862646484375,0.01726767048239708,0.08581317216157913,0.02046133205294609
1776554387012666600,5.64866650390625,0.022946327924728394,0.09721603244543076,-0.005939381662756205
1776554387022706700,5.658706787109375,0.0329560860991478,0.09607220441102982,-0.025852901861071587
1776554387032746800,5.668746826171875,0.040823329240083694,0.09604290872812271,-0.038728222250938416
1776554387042786600,5.67878662109375,0.045459628105163574,0.09478216618299484,-0.04361618682742119
1776554387052826600,5.68882666015625,0.05108555406332016,0.09284339100122452,-0.04752464219927788
1776554387062866700,5.69886669921875,0.06148306652903557,0.0991675928235054,-0.05822735279798508
1776554387072907800,5.70890771484375,0.06769835203886032,0.11196115612983704,-0.07700663059949875
1776554387082947800,5.71894775390625,0.0706174448132515,0.12505538761615753,-0.08896209299564362
1776554387092987600,5.728987548828125,0.06684454530477524,0.14289803802967072,-0.10542389750480652
1776554387103027500,5.73902734375,0.05903828516602516,0.15858352184295654,-0.12192723900079727
1776554387113067500,5.749067626953125,0.04467000067234039,0.17246390879154205,-0.13205577433109283
1776554387123107600,5.759107666015625,0.03640487790107727,0.18063688278198242,-0.1366923302412033
1776554387133148700,5.769148681640625,0.03837934508919716,0.1677708923816681,-0.12854652106761932
1776554387143188700,5.779188720703125,0.04253334552049637,0.14447888731956482,-0.11907605826854706
1776554387153228800,5.789228759765625,0.04964851215481758,0.10369656980037689,-0.10199880599975586
1776554387163268600,5.7992685546875,0.05782974511384964,0.05961938947439194,-0.08248981833457947
1776554387173308700,5.80930859375,0.05693891644477844,0.024778850376605988,-0.0621722936630249
1776554387183348700,5.8193486328125,0.04838191345334053,0.0048919604159891605,-0.04887140169739723
1776554387193389600,5.8293896484375,0.03664136677980423,-0.00504136411473155,-0.0422944612801075
1776554387203429600,5.8394296875,0.014926218427717686,-0.009412676095962524,-0.040162332355976105
1776554387213469700,5.8494697265625,-0.001841842196881771,-0.018214156851172447,-0.03778572753071785
1776554387223509800,5.859509765625,-0.012111257761716843,-0.03623736649751663,-0.02845774032175541
1776554387233549600,5.869549560546875,-0.014090784825384617,-0.06555557250976562,-0.012073174118995667
1776554387243589600,5.879589599609375,-0.012071310542523861,-0.0936703011393547,0.0026431872975081205
1776554387253630700,5.889630615234375,-0.015034343115985394,-0.11167033761739731,0.026016419753432274
1776554387263670800,5.8996708984375,-0.02101287432014942,-0.11678334325551987,0.04007498174905777
1776554387273710800,5.9097109375,-0.03602617606520653,-0.12362659722566605,0.0459805428981781
1776554387283750700,5.919750732421875,-0.0425485260784626,-0.11039707809686661,0.04817658290266991
1776554387293790500,5.92979052734375,-0.045945920050144196,-0.09076159447431564,0.034804318100214005
1776554387303830500,5.93983056640625,-0.03165246918797493,-0.06271477788686752,0.02707662433385849
1776554387313871600,5.94987158203125,-0.015019429847598076,-0.04529637470841408,0.031974177807569504
1776554387323911700,5.95991162109375,-0.0008306399104185402,-0.012949886731803417,0.04124011471867561
1776554387333951700,5.96995166015625,0.022473083809018135,0.024204671382904053,0.04601356387138367
1776554387343991800,5.97999169921875,0.04203879460692406,0.04445295035839081,0.05349038913846016
1776554387354031600,5.990031494140625,0.05980474501848221,0.04074183851480484,0.07689664512872696
1776554387364071700,6.00007177734375,0.0717889666557312,0.021164674311876297,0.11383255571126938
1776554387374111700,6.01011181640625,0.07118763029575348,0.012954148463904858,0.15982800722122192
1776554387384152600,6.020152587890625,0.07985062152147293,0.026644127443432808,0.20407909154891968
1776554387394192600,6.030192626953125,0.08844650536775589,0.05010204762220383,0.22137393057346344
1776554387404232700,6.040232666015625,0.09327002614736557,0.05693944916129112,0.20239917933940887
1776554387414272800,6.050272705078125,0.08659347891807556,0.05483794957399368,0.15456746518611908
1776554387424312600,6.0603125,0.06163273751735687,0.038187067955732346,0.09148410707712173
1776554387434352600,6.0703525390625,0.02039075829088688,0.03936950862407684,0.0433725081384182
1776554387444393700,6.080393798828125,-0.03056403435766697,0.0691676214337349,0.02611735463142395
1776554387454433800,6.090433837890625,-0.06928479671478271,0.10636425763368607,0.035769980400800705
1776554387464473600,6.1004736328125,-0.09762189537286758,0.11931201070547104,0.06052140146493912
1776554387474513700,6.110513671875,-0.10877788066864014,0.13036173582077026,0.10723164677619934
1776554387484553500,6.120553466796875,-0.10877282172441483,0.12284229695796967,0.156942218542099
1776554387494593500,6.130593505859375,-0.09369853138923645,0.10628755390644073,0.19917568564414978
1776554387504633600,6.140633544921875,-0.07693365961313248,0.05513116344809532,0.22684407234191895
1776554387514674700,6.1506748046875,-0.06258348375558853,-0.021864285692572594,0.24302144348621368
1776554387524714800,6.16071484375,-0.06255685538053513,-0.11176514625549316,0.23548895120620728
1776554387534754800,6.1707548828125,-0.08053851872682571,-0.2047874927520752,0.23033413290977478
1776554387544794600,6.180794677734375,-0.09565648436546326,-0.25268444418907166,0.24298441410064697
1776554387554834700,6.190834716796875,-0.11428849399089813,-0.25830718874931335,0.25891783833503723
1776554387564874800,6.200874755859375,-0.143048495054245,-0.23677073419094086,0.24280571937561035
1776554387574915600,6.21091552734375,-0.16422462463378906,-0.19084851443767548,0.1742498278617859
1776554387584955600,6.22095556640625,-0.1691914200782776,-0.14207644760608673,0.07921013236045837
1776554387594995700,6.23099560546875,-0.1437917947769165,-0.0842035636305809,-0.006339122075587511
1776554387605035800,6.241035888671875,-0.10514505952596664,-0.00887977797538042,-0.08856555074453354
1776554387615075600,6.25107568359375,-0.07855472713708878,0.08218488097190857,-0.1901925802230835
1776554387625115600,6.26111572265625,-0.051350004971027374,0.14818920195102692,-0.28613802790641785
1776554387635156700,6.27115673828125,-0.009755691513419151,0.1785244643688202,-0.32867002487182617
1776554387645196800,6.28119677734375,0.03345596045255661,0.1828920543193817,-0.33763208985328674
1776554387655236600,6.291236572265625,0.06085536256432533,0.13812938332557678,-0.34969407320022583
1776554387665276700,6.301276611328125,0.060109943151474,0.057311493903398514,-0.36520886421203613
1776554387675316500,6.31131640625,0.04923519119620323,-0.05662812665104866,-0.36915886402130127
1776554387685356500,6.3213564453125,0.03688877448439598,-0.18790918588638306,-0.34621065855026245
1776554387695396600,6.331396728515625,0.02756291814148426,-0.32012075185775757,-0.3239474594593048
1776554387705437700,6.341437744140625,0.02726304531097412,-0.4078940153121948,-0.2973659038543701
1776554387715477800,6.351477783203125,0.04114237800240517,-0.45141351222991943,-0.2637259066104889
1776554387725517800,6.361517822265625,0.05909128487110138,-0.44794556498527527,-0.22739960253238678
1776554387735558000,6.371557861328125,0.09225483238697052,-0.41453513503074646,-0.1897483617067337
1776554387745597700,6.38159765625,0.11542406678199768,-0.36504027247428894,-0.14577051997184753
1776554387755637800,6.3916376953125,0.13008396327495575,-0.3121112883090973,-0.09338933229446411
1776554387765677600,6.401677490234375,0.12576724588871002,-0.24240118265151978,-0.05180540680885315
1776554387775718700,6.41171875,0.08892188221216202,-0.13766013085842133,-0.04427851364016533
1776554387785758700,6.4217587890625,0.03921984136104584,-0.018031464889645576,-0.07248831540346146
1776554387795798800,6.431798828125,0.0006775081856176257,0.09982060641050339,-0.11726856976747513
1776554387805838600,6.441838623046875,-0.03875165805220604,0.18697015941143036,-0.16233591735363007
1776554387815878700,6.451878662109375,-0.07339538633823395,0.2247588038444519,-0.18467584252357483
1776554387825918700,6.461918701171875,-0.10130371898412704,0.20762349665164948,-0.16238358616828918
1776554387835958800,6.471958740234375,-0.11681796610355377,0.12785384058952332,-0.0948716476559639
1776554387845999600,6.48199951171875,-0.13329094648361206,0.027840685099363327,-0.005088767968118191
1776554387856039700,6.492039794921875,-0.12527243793010712,-0.06463358551263809,0.07613764703273773
1776554387866079500,6.50207958984375,-0.09433609247207642,-0.1485615074634552,0.13419029116630554
1776554387876119600,6.51211962890625,-0.05655302479863167,-0.21585053205490112,0.17235712707042694
1776554387886159600,6.52215966796875,-0.01732093282043934,-0.2530578374862671,0.19731253385543823
1776554387896199700,6.53219970703125,-0.0005251753609627485,-0.267040491104126,0.21870118379592896
1776554387906239700,6.54223974609375,0.005648830905556679,-0.2657105028629303,0.2312859445810318
1776554387916280800,6.55228076171875,0.0038919434882700443,-0.25443601608276367,0.22932720184326172
1776554387926321000,6.56232080078125,0.007505853194743395,-0.23763732612133026,0.20301809906959534
1776554387936360700,6.572360595703125,0.019629627466201782,-0.20261196792125702,0.14653778076171875
1776554387946400800,6.58240087890625,0.03858520835638046,-0.14708878099918365,0.07729851454496384
1776554387956440600,6.592440673828125,0.05391010269522667,-0.0813707560300827,0.014640728011727333
1776554387966480600,6.602480712890625,0.07042383402585983,-0.012383166700601578,-0.01997077837586403
1776554387976521700,6.612521728515625,0.08696259558200836,0.050700727850198746,-0.03395051136612892
1776554387986561800,6.622561767578125,0.09466365724802017,0.09543943405151367,-0.030606910586357117
1776554387996601600,6.6326015625,0.09094322472810745,0.11970189958810806,-0.020684771239757538
1776554388006641700,6.6426416015625,0.0864398181438446,0.13209998607635498,-0.01943441852927208
1776554388016681700,6.652681640625,0.08579453080892563,0.12364364415407181,-0.027300596237182617
1776554388026721800,6.6627216796875,0.0904308333992958,0.09751137346029282,-0.038968704640865326
1776554388036761900,6.672761962890625,0.09681548923254013,0.09839394688606262,-0.04683834686875343
1776554388046801700,6.6828017578125,0.11895248293876648,0.10308004915714264,-0.04530543088912964
1776554388056842500,6.692842529296875,0.12867648899555206,0.12080951035022736,-0.03845098614692688
1776554388066882600,6.702882568359375,0.1402772217988968,0.1756000518798828,-0.03549540787935257
1776554388076922600,6.712922607421875,0.1372518688440323,0.23117968440055847,-0.040470995008945465
1776554388086962700,6.722962646484375,0.12484659254550934,0.27916744351387024,-0.04706764221191406
1776554388097002800,6.733002685546875,0.10102994740009308,0.33114758133888245,-0.06042606011033058
1776554388107042800,6.743042724609375,0.07671235501766205,0.36747440695762634,-0.08507388085126877
1776554388117082600,6.75308251953125,0.05013959854841232,0.38563159108161926,-0.10950545221567154
1776554388127123700,6.763123779296875,0.032162465155124664,0.3801811635494232,-0.13230371475219727
1776554388137163500,6.77316357421875,0.034629348665475845,0.34551239013671875,-0.1319977194070816
1776554388147203600,6.78320361328125,0.04258314520120621,0.28272464871406555,-0.12519147992134094
1776554388157243600,6.79324365234375,0.055019840598106384,0.20254458487033844,-0.10301293432712555
1776554388167283700,6.80328369140625,0.06289640814065933,0.11329886317253113,-0.0766814649105072
1776554388177323500,6.813323486328125,0.06418777257204056,0.046302784234285355,-0.05567045137286186
1776554388187363600,6.823363525390625,0.06449403613805771,0.005489307455718517,-0.043055057525634766
1776554388197404700,6.83340478515625,0.05669017881155014,-0.01079805288463831,-0.032888442277908325
1776554388207444700,6.84344482421875,0.05428507551550865,-0.0035156388767063618,-0.032400548458099365
1776554388217484800,6.85348486328125,0.0487787239253521,0.007273092865943909,-0.027776237577199936
1776554388227524900,6.86352490234375,0.041914694011211395,0.028973860666155815,-0.01966904290020466
1776554388237564700,6.873564697265625,0.03774098679423332,0.03864539787173271,-0.012872123159468174
1776554388247604700,6.883604736328125,0.03359631076455116,0.0401410274207592,-0.006613427773118019
1776554388257644500,6.89364453125,0.02581215649843216,0.029589317739009857,0.001272990950383246
1776554388267685600,6.903685546875,0.01691373623907566,0.017242103815078735,0.005429120268672705
1776554388277725700,6.9137255859375,0.006010221783071756,0.002130262553691864,0.0032431974541395903
1776554388287765800,6.923765869140625,-0.0009147958480753005,-0.004025634378194809,-0.0003861583536490798
1776554388297805800,6.933805908203125,-0.00475534051656723,-0.013991981744766235,0.0010495517635717988
1776554388307845600,6.943845703125,-0.003516437951475382,-0.02153884805738926,0.005560946650803089
1776554388317885700,6.9538857421875,0.0013068130938336253,-0.03160479664802551,0.0129951611161232
1776554388327925800,6.96392578125,0.0057798586785793304,-0.041363153606653214,0.02719460241496563
1776554388337966600,6.973966552734375,0.007954595610499382,-0.037882667034864426,0.04357970133423805
1776554388348006700,6.984006591796875,0.003913781605660915,-0.0322524793446064,0.052452556788921356
1776554388358046700,6.994046630859375,0.00018109494703821838,-0.02106666937470436,0.05155613645911217
1776554388368086500,7.00408642578125,-0.000051132694352418184,-0.013825002126395702,0.03837108984589577
1776554388378126600,7.014126708984375,-0.004942294210195541,-0.013590643182396889,0.02341557666659355
1776554388388166700,7.024166748046875,-0.006820089183747768,-0.015962455421686172,0.009208678267896175
1776554388398206700,7.034206787109375,-0.009529856033623219,-0.021825404837727547,-0.001986984396353364
1776554388408246800,7.044246826171875,-0.0050099384970963,-0.01395629532635212,-0.000987766426987946
1776554388418287900,7.054287841796875,-0.0054845139384269714,-0.017110543325543404,-0.0009808422764763236
1776554388428327700,7.06432763671875,0.0031579763162881136,-0.022166555747389793,0.0044264402240514755
1776554388438367500,7.074367431640625,0.012990633025765419,-0.031798943877220154,0.009659817442297935
1776554388448407600,7.084407470703125,0.020853349938988686,-0.027710722759366035,0.017956629395484924
1776554388458447600,7.094447509765625,0.025722673162817955,-0.02335086278617382,0.02256123535335064
1776554388468487700,7.10448779296875,0.02917679399251938,-0.014288391917943954,0.02871047332882881
1776554388478527700,7.11452783203125,0.028922460973262787,-0.01606578566133976,0.031789086759090424
1776554388488568800,7.12456884765625,0.025462748482823372,-0.02214285358786583,0.034753188490867615
1776554388498608600,7.134608642578125,0.02407604083418846,-0.0407831147313118,0.04061879962682724
1776554388508648700,7.144648681640625,0.023422235623002052,-0.05596845969557762,0.03845977410674095
1776554388518688800,7.154688720703125,0.027599936351180077,-0.06868026405572891,0.04054662585258484
1776554388528728800,7.164728759765625,0.031611986458301544,-0.07070346176624298,0.043599143624305725
1776554388538769000,7.174768798828125,0.03639103099703789,-0.07080014050006866,0.045533664524555206
1776554388548808400,7.184808349609375,0.03671992942690849,-0.06567541509866714,0.04680239409208298
1776554388558848500,7.1948486328125,0.03472096100449562,-0.059232696890830994,0.04668468236923218
1776554388568889600,7.2048896484375,0.027115507051348686,-0.04821440204977989,0.04125609248876572
1776554388578929700,7.2149296875,0.019088739529252052,-0.03421895578503609,0.03621979057788849
1776554388588969700,7.2249697265625,0.011985556222498417,-0.02666143886744976,0.037515416741371155
1776554388599009800,7.235009765625,0.004226702731102705,-0.019302858039736748,0.034139860421419144
1776554388609049600,7.245049560546875,0.0022213426418602467,-0.01595446467399597,0.026669161394238472
1776554388619089700,7.255089599609375,0.004622981417924166,-0.014141651801764965,0.023188943043351173
1776554388629129700,7.265129638671875,0.00387383415363729,-0.014227405190467834,0.018329206854104996
1776554388639169800,7.275169677734375,0.0006522081675939262,-0.01489079836755991,0.01506923045963049
1776554388649210600,7.285210693359375,0.004720453172922134,-0.02161022089421749,0.0172016229480505
1776554388659250700,7.295250732421875,-0.001986984396353364,-0.02989957481622696,0.015504657290875912
1776554388669290800,7.305290771484375,-0.0027899276465177536,-0.034078340977430344,0.02141527645289898
1776554388679330600,7.31533056640625,-0.004935370292514563,-0.032584309577941895,0.023184947669506073
1776554388689370600,7.32537060546875,-0.005597964394837618,-0.0339270755648613,0.027824440971016884
1776554388699410700,7.33541064453125,-0.0028485171496868134,-0.03966778516769409,0.028657477349042892
1776554388709450800,7.34545068359375,0.0010522148804739118,-0.04339860752224922,0.030041521415114403
1776554388719491800,7.355491943359375,0.005585181526839733,-0.05150580033659935,0.02425607107579708
1776554388729531600,7.36553173828125,0.00589757040143013,-0.05290050059556961,0.020833110436797142
1776554388739571500,7.375571533203125,0.002287389012053609,-0.04974837973713875,0.015103851445019245
1776554388749611500,7.385611572265625,-0.00045300371129997075,-0.04628653824329376,0.009794307872653008
1776554388759651600,7.395651611328125,-0.002977414056658745,-0.04326411709189415,0.005479720421135426
1776554388769691400,7.40569140625,-0.0049585397355258465,-0.034262899309396744,-0.002228799508884549
1776554388779731500,7.4157314453125,-0.007892544381320477,-0.02213779278099537,-0.006706638727337122
1776554388789771300,7.425771240234375,-0.007660582661628723,-0.015275891870260239,-0.005742041394114494
1776554388799812400,7.435812255859375,-0.0051505533047020435,-0.012279835529625416,-0.01188142690807581
1776554388809852400,7.445852294921875,0.0004751079250127077,-0.007842476479709148,-0.012458267621695995
1776554388819892500,7.455892578125,-0.0004953479510731995,-0.0047026099637150764,-0.0116750318557024
1776554388829932500,7.4659326171875,0.0035324168857187033,-0.0015952334506437182,-0.014726481400430202
1776554388839972600,7.47597265625,-0.001442900625988841,-0.003751062322407961,-0.013828197494149208
1776554388850012400,7.486012451171875,-0.005275189410895109,-0.007224090863019228,-0.016141152009367943
1776554388860052200,7.49605224609375,-0.0027150926180183887,-0.005518335849046707,-0.014250574633479118
1776554388870092300,7.50609228515625,-0.002977414056658745,-0.004817924462258816,-0.013375460170209408
1776554388880133400,7.51613330078125,-0.004764395300298929,-0.003572896821424365,-0.01695954240858555
1776554388890173400,7.52617333984375,0.002214152133092284,-0.00001997370782191865,-0.0195462703704834
1776554388900213500,7.536213623046875,0.00708640506491065,-0.001973402453586459,-0.019209114834666252
1776554388910253600,7.546253662109375,0.0070424629375338554,-0.004275971557945013,-0.017129717394709587
1776554388920293400,7.55629345703125,0.009189503267407417,-0.006660033017396927,-0.013276390731334686
1776554388930333400,7.56633349609375,0.013892113231122494,-0.003997670952230692,-0.01261060032993555
1776554388940373500,7.57637353515625,0.014977085404098034,-0.0001525991247035563,-0.012475311756134033
1776554388950413600,7.58641357421875,0.01531743723899126,0.011589810252189636,-0.015557387843728065
1776554388960454400,7.596454345703125,0.012989302165806293,0.012201272882521152,-0.01344363670796156
1776554388970494500,7.606494384765625,0.014226339757442474,0.006113019771873951,-0.01842374913394451
1776554388980534300,7.6165341796875,0.013449762016534805,0.0024322650860995054,-0.01750282756984234
1776554388990574300,7.62657421875,0.010181264951825142,0.0043931505642831326,-0.014997058548033237
1776554389000614400,7.636614501953125,0.010203102603554726,0.00911626685410738,-0.012762666679918766
1776554389010654500,7.646654541015625,0.015124890953302383,0.013858824037015438,-0.013002350926399231
1776554389020694500,7.656694580078125,0.01458799745887518,0.014592258259654045,-0.01534912921488285
1776554389030734600,7.666734619140625,0.01612410880625248,0.019413910806179047,-0.020473316311836243
1776554389040775400,7.676775390625,0.01716034486889839,0.01799151673913002,-0.021093035116791725
1776554389050815200,7.686815185546875,0.017005082219839096,0.018751850351691246,-0.0170932337641716
1776554389060855300,7.696855224609375,0.019358783960342407,0.020721789449453354,-0.018497517332434654
1776554389070895400,7.706895263671875,0.023456856608390808,0.020326310768723488,-0.020364927127957344
1776554389080935400,7.716935302734375,0.02215403877198696,0.02214019000530243,-0.022372150793671608
1776554389090975500,7.7269755859375,0.017681526020169258,0.01569826900959015,-0.025061411783099174
1776554389101015300,7.737015380859375,0.016745690256357193,0.012990633025765419,-0.030058300122618675
1776554389111055400,7.747055419921875,0.016346216201782227,0.006188653875142336,-0.03328472003340721
1776554389121095400,7.757095458984375,0.01740029640495777,0.00344586418941617,-0.0338628925383091
1776554389131136500,7.767136474609375,0.017670074477791786,0.005621932912617922,-0.031143805012106895
1776554389141176600,7.777176513671875,0.020167851820588112,0.008203601464629173,-0.02755040116608143
1776554389151216400,7.78721630859375,0.017718276008963585,0.012408998794853687,-0.022699985653162003
1776554389161256200,7.797256103515625,0.017460748553276062,0.022187327966094017,-0.015165903605520725
1776554389171296300,7.807296142578125,0.016830645501613617,0.01769617199897766,-0.006176403257995844
1776554389181336300,7.81733642578125,0.016523849219083786,0.014532070606946945,-0.0033846113365143538
1776554389191376400,7.82737646484375,0.015169365331530571,0.0025132251903414726,0.005285841878503561
1776554389201416400,7.83741650390625,0.014532070606946945,-0.007394799496978521,0.004599279258400202
1776554389211457500,7.84745751953125,0.011522166430950165,-0.019239474087953568,0.009067797102034092
1776554389221497600,7.85749755859375,0.009513077326118946,-0.02617674320936203,0.007110107224434614
1776554389231537400,7.867537353515625,0.007582552265375853,-0.02688674069941044,0.0057196710258722305
1776554389241577500,7.877577392578125,0.005415804218500853,-0.03098161891102791,0.0014825817197561264
1776554389251617500,7.887617431640625,0.0059508332051336765,-0.034496456384658813,-0.001276453142054379
1776554389261657600,7.89765771484375,0.006491188891232014,-0.04062758758664131,-0.007967911660671234
1776554389271697400,7.907697509765625,0.007896006107330322,-0.04501061886548996,-0.012108860537409782
1776554389281737200,7.9177373046875,0.009680856950581074,-0.04633713886141777,-0.011260110884904861
1776554389291777300,7.92777734375,0.00999138131737709,-0.04495016485452652,-0.010455037467181683
1776554389301818400,7.937818359375,0.010695520788431168,-0.040950361639261246,-0.00823982059955597
1776554389311858400,7.9478583984375,0.011795672588050365,-0.03900119662284851,-0.0057042245753109455
1776554389321898500,7.9578984375,0.01507189404219389,-0.03386315703392029,-0.0021489046048372984
1776554389331938600,7.9679384765625,0.014387461356818676,-0.02347603067755699,-0.00526533555239439
1776554389341978400,7.977978271484375,0.012979447841644287,-0.016201073303818703,-0.006527407560497522
1776554389352018400,7.988018310546875,0.011242002248764038,-0.009299226105213165,-0.009739712812006474
1776554389362058500,7.99805859375,0.009820406325161457,-0.008073106408119202,-0.011843076907098293
1776554389372098600,8.0080986328125,0.004059189930558205,-0.0046791741624474525,-0.008271245285868645
1776554389382139400,8.018139404296875,0.008267517201602459,-0.005531385540962219,-0.010440124198794365
1776554389392179500,8.028179443359376,0.007260043174028397,-0.007571367081254721,-0.014961106702685356
1776554389402219500,8.038219482421875,0.013036972843110561,-0.009790312498807907,-0.00941960047930479
1776554389412259300,8.04825927734375,0.012526976875960827,-0.011265969835221767,-0.006652310024946928
1776554389422299400,8.05829931640625,0.0172671377658844,-0.008117581717669964,-0.004460262134671211
1776554389432339500,8.06833935546875,0.01775955595076084,0.001330249011516571,0.0033427998423576355
1776554389442379500,8.078379638671874,0.014710236340761185,0.01203695498406887,0.004381166305392981
1776554389452419600,8.088419677734375,0.014969095587730408,0.01414351537823677,0.006095975637435913
1776554389462459400,8.09845947265625,0.016513463109731674,0.018095379695296288,0.006068544927984476
1776554389472500200,8.108500244140625,0.01654648594558239,0.020856546238064766,0.0027574370615184307
1776554389482540300,8.118540283203124,0.016034360975027084,0.021887987852096558,-0.00035499935620464385
1776554389492580400,8.128580322265625,0.01690095290541649,0.020299412310123444,-0.002959837205708027
1776554389502620400,8.138620361328124,0.01224308367818594,0.02280997484922409,-0.0049409628845751286
1776554389512660500,8.148660400390625,0.00914715975522995,0.023806529119610786,-0.004777444526553154
1776554389522700300,8.1587001953125,0.008354336023330688,0.02195509895682335,-0.007160174660384655
1776554389532740400,8.168740234375,0.009796437807381153,0.02497485838830471,-0.009644637815654278
1776554389542780400,8.178780517578126,0.014961904846131802,0.026551183313131332,-0.006936203222721815
1776554389552820500,8.188820556640625,0.016956079751253128,0.02647634781897068,-0.0026059031952172518
1776554389562861600,8.198861572265624,0.021388113498687744,0.026141056790947914,0.00455640209838748
1776554389572901400,8.2089013671875,0.020068250596523285,0.028204739093780518,0.004058657679706812
1776554389582941400,8.21894140625,0.01637604460120201,0.029566148295998573,0.005434180144220591
1776554389592981200,8.228981201171875,0.010402839630842209,0.02773815393447876,0.009884588420391083
1776554389603021300,8.239021240234376,0.004618453793227673,0.02490960992872715,0.016929980367422104
1776554389613061400,8.249061279296875,0.007165767718106508,0.028791435062885284,0.02099636197090149
1776554389623101400,8.259101318359376,0.010204434394836426,0.03345596045255661,0.023145265877246857
1776554389633141500,8.2691416015625,0.010231065563857555,0.039144206792116165,0.02136228047311306
1776554389643181300,8.279181396484375,0.01215759664773941,0.03765789791941643,0.012293950654566288
1776554389653222400,8.289222412109375,0.014247911982238293,0.03392467647790909,0.01076662726700306
1776554389663262500,8.299262451171876,0.011465707793831825,0.024416659027338028,0.0033742249943315983
1776554389673302500,8.309302490234375,0.010366354137659073,0.02051672711968422,0.003230947069823742
1776554389683342300,8.31934228515625,0.009459814056754112,0.020787304267287254,0.004719654098153114
1776554389693382400,8.32938232421875,0.010746920481324196,0.02419721521437168,0.005358280148357153
1776554389703422200,8.339422119140625,0.012104866094887257,0.030479878187179565,0.0022306637838482857
1776554389713462300,8.349462158203124,0.014567490667104721,0.037764158099889755,0.00433163158595562
1776554389723502300,8.35950244140625,0.016894293949007988,0.048946503549814224,0.006249906495213509
1776554389733542400,8.36954248046875,0.01395656168460846,0.05228797346353531,0.0004519384237937629
1776554389743583500,8.37958349609375,0.016082562506198883,0.0454481765627861,-0.001826395862735808
1776554389753623600,8.38962353515625,0.015533952042460442,0.04026752710342407,-0.0010865697404369712
1776554389763664100,8.3996640625,0.015735287219285965,0.02971501834690571,-0.002382730133831501
1776554389773704000,8.409703857421874,0.011153052560985088,0.02491200715303421,-0.002910302486270666
1776554389783744000,8.419743896484375,0.010839598253369331,0.019404323771595955,-0.004249606281518936
1776554389793784000,8.4297841796875,0.010297911241650581,0.009592972695827484,-0.004328702110797167
1776554389803823900,8.439823974609375,0.01350462343543768,0.0073745595291256905,-0.003428287338465452
1776554389813864000,8.449864013671874,0.01133787538856268,0.0038717035204172134,0.0018434401135891676
1776554389823904000,8.459904052734375,0.010643056593835354,0.004866926930844784,0.006223807577043772
1776554389833944000,8.469944091796876,0.012867595069110394,0.009912551380693913,0.012144546955823898
1776554389843985200,8.479985107421875,0.012616192921996117,0.01782107539474964,0.013051886111497879
1776554389854025200,8.490025146484374,0.01320768054574728,0.022162560373544693,0.01176025252789259
1776554389864065300,8.500065185546875,0.012470518238842487,0.02070314809679985,0.01149659976363182
1776554389874105000,8.51010498046875,0.010327472351491451,0.010892861522734165,0.004945223685353994
1776554389884145000,8.520144775390625,0.009378587827086449,0.00130947632715106,0.006365487817674875
1776554389894185000,8.53018505859375,0.008685367181897163,-0.010642790235579014,0.0014050838071852922
1776554389904225000,8.54022509765625,0.011170629411935806,-0.018739599734544754,0.003462641965597868
1776554389914265000,8.55026513671875,0.015279353596270084,-0.025586852803826332,0.0033891387283802032
1776554389924305000,8.560304931640625,0.013682789169251919,-0.018978217616677284,0.008898686617612839
1776554389934346000,8.570345947265626,0.009822803549468517,-0.013865748420357704,0.013201821595430374
1776554389944386000,8.580385986328125,0.012212458066642284,-0.006452839355915785,0.013041500002145767
1776554389954426000,8.590426025390625,0.012833773158490658,0.002682868391275406,0.011594071984291077
1776554389964466200,8.600466064453125,0.01173308864235878,0.0017859158106148243,0.005878395400941372
1776554389974506200,8.61050634765625,0.011975969187915325,0.002683401107788086,0.004736165516078472
1776554389984546000,8.620546142578124,0.014081464149057865,-0.00401737866923213,-0.0007190534961409867
1776554389994586000,8.630586181640625,0.010500311851501465,-0.013919278047978878,-0.0037521275226026773
1776554390004626000,8.6406259765625,0.009614011272788048,-0.02490481734275818,-0.0038016624748706818
1776554390014666000,8.650666015625,0.006113818846642971,-0.030437534675002098,-0.007400924805551767
1776554390024707000,8.66070703125,0.007236607372760773,-0.03477609157562256,-0.00606534956023097
1776554390034747100,8.6707470703125,0.006074137985706329,-0.03923555463552475,-0.007907724007964134
1776554390044787200,8.680787109375,0.009051552042365074,-0.037870682775974274,-0.0036333505995571613
1776554390054827000,8.690826904296875,0.012921923771500587,-0.037940457463264465,0.0009749832679517567
1776554390064867000,8.7008671875,0.007203318178653717,-0.02875468321144581,0.000990962260402739
1776554390074907100,8.7109072265625,0.007661381736397743,-0.02605263888835907,0.0007725830073468387
1776554390084947200,8.720947265625,0.004795820452272892,-0.030061496421694756,-0.005209941882640123
1776554390094987300,8.7309873046875,0.007815046235918999,-0.029258286580443382,-0.007026217877864838
1776554390105027000,8.741027099609376,0.004861067980527878,-0.02937067113816738,-0.00794314406812191
1776554390115067000,8.75106689453125,0.0067939902655780315,-0.03521711006760597,-0.005932990461587906
1776554390125108000,8.76110791015625,0.008883506059646606,-0.037340447306632996,-0.008657404221594334
1776554390135148000,8.77114794921875,0.007860053330659866,-0.03668450936675072,-0.013248427771031857
1776554390145188000,8.78118798828125,0.0073013221845030785,-0.037390515208244324,-0.011692075990140438
1776554390155228200,8.791228271484375,0.009591108188033104,-0.03316647559404373,-0.010039584711194038
1776554390165268000,8.80126806640625,0.010218283161520958,-0.025051822885870934,-0.011802064254879951
1776554390175308000,8.81130810546875,0.010041182860732079,-0.01595020480453968,-0.014419951476156712
1776554390185348000,8.82134814453125,0.012034025974571705,-0.009979130700230598,-0.022886140272021294
1776554390195388200,8.83138818359375,0.011214837431907654,-0.003081809962168336,-0.03061729669570923
1776554390205428200,8.84142822265625,0.010491522960364819,-0.003099386813119054,-0.035896480083465576
1776554390215468300,8.85146826171875,0.010638263076543808,-0.0057676080614328384,-0.0330791249871254
1776554390225509000,8.861509033203125,0.010203901678323746,-0.01323830708861351,-0.03298777714371681
1776554390235549000,8.871548828125,0.011418303474783897,-0.015092932619154453,-0.031899344176054
1776554390245589000,8.881589111328125,0.01782000996172428,-0.011183411814272404,-0.03251213580369949
1776554390255629000,8.891629150390624,0.020775586366653442,-0.010580739006400108,-0.02954617328941822
1776554390265669000,8.901669189453125,0.02220224030315876,-0.0018998990999534726,-0.03202717378735542
1776554390275709200,8.911709228515624,0.023065904155373573,0.008471248671412468,-0.03612072020769119
1776554390285749000,8.9217490234375,0.01709562912583351,0.01509799249470234,-0.03921744227409363
1776554390295789000,8.9317890625,0.01432567648589611,0.018128670752048492,-0.04228700324892998
1776554390305829000,8.9418291015625,0.01384124718606472,0.014906778000295162,-0.045632731169462204
1776554390315869200,8.951869140625,0.013526727445423603,0.010658769868314266,-0.04538026452064514
1776554390325910000,8.961909912109375,0.015096395276486874,0.0008026767172850668,-0.039571911096572876
1776554390335950000,8.9719501953125,0.014660435728728771,-0.0031009847298264503,-0.03598516434431076
1776554390345990000,8.981989990234375,0.015431953594088554,-0.004464789759367704,-0.02918824553489685
1776554390356030000,8.992030029296876,0.015616243705153465,-0.0027688886038959026,-0.024166323244571686
1776554390366070000,9.002070068359375,0.0142356613650918,0.0012101404136046767,-0.020799821242690086
1776554390376110000,9.012110107421876,0.014190386980772018,0.0003462109307292849,-0.017239440232515335
1776554390386150100,9.022150146484375,0.01410756353288889,-0.0031965922098606825,-0.0193081833422184
1776554390396190200,9.032190185546876,0.017099890857934952,-0.0070797475054860115,-0.015800800174474716
1776554390406230000,9.04222998046875,0.01495524775236845,-0.009922139346599579,-0.017559019848704338
1776554390416270000,9.05227001953125,0.013165070675313473,-0.012284895405173302,-0.0181739442050457
1776554390426311000,9.062310791015625,0.011036938056349754,-0.017905497923493385,-0.017075389623641968
1776554390436351000,9.07235107421875,0.010772752575576305,-0.015517440624535084,-0.01423512864857912
1776554390446391000,9.08239111328125,0.00806112214922905,-0.018747854977846146,-0.01258024014532566
1776554390456431000,9.09243115234375,0.00860201008617878,-0.02056759223341942,-0.009545035660266876
1776554390466471000,9.102470947265624,0.011505921371281147,-0.01329716295003891,-0.00495134899392724
1776554390476511000,9.112510986328125,0.012200207449495792,-0.01088673621416092,-0.004233627114444971
1776554390486551000,9.122551025390624,0.01420583389699459,-0.006623547989875078,-0.002439721953123808
1776554390496591000,9.132591064453125,0.016707073897123337,-0.00004394215648062527,-0.002811232814565301
1776554390506631200,9.142631103515624,0.012049471959471703,0.001618403010070324,-0.0021371867042034864
1776554390516671000,9.1526708984375,0.009878463111817837,-0.006636597216129303,-0.005143895745277405
1776554390526712000,9.162712158203124,0.008534099906682968,-0.006853112485259771,-0.008554073050618172
1776554390536751900,9.172751953125,0.007077350746840239,-0.0037286917213350534,-0.011211109347641468
1776554390546792000,9.1827919921875,0.00672288378700614,-0.010392453521490097,-0.016414659097790718
1776554390556832000,9.19283203125,0.00965848658233881,-0.00293373828753829,-0.013538711704313755
1776554390566872000,9.2028720703125,0.00851385947316885,-0.0031153657473623753,-0.00954104121774435
1776554390576912100,9.212912109375,0.009464075788855553,-0.0005877596559002995,-0.00780625781044364
1776554390586952000,9.222951904296876,0.012320049107074738,0.004267715383321047,-0.004477306269109249
1776554390596992000,9.232991943359375,0.012025237083435059,0.006263222079724073,-0.011032144539058208
1776554390607032000,9.243031982421876,0.011414308100938797,0.006131928414106369,-0.011568238958716393
1776554390617072000,9.253072021484375,0.01025902945548296,0.007114368490874767,-0.014502243138849735
1776554390627113200,9.26311328125,0.005880259443074465,0.006384129635989666,-0.012443619780242443
1776554390637153000,9.273153076171875,0.007881092838943005,0.006254167295992374,-0.013391172513365746
1776554390647192800,9.28319287109375,0.010420150123536587,-0.0032317459117621183,-0.0098419776186347
1776554390657233000,9.29323291015625,0.004817924462258816,-0.007339139468967915,-0.016139555722475052
1776554390667273000,9.30327294921875,0.012024438939988613,-0.016453541815280914,-0.015062039718031883
1776554390677313000,9.31331298828125,0.012029498815536499,-0.016353672370314598,-0.011501393280923367
1776554390687353000,9.32335302734375,0.014080398716032505,-0.009890713728964329,-0.01251206360757351
1776554390697393000,9.333392822265624,0.01278503704816103,-0.0029936593491584063,-0.012056396342813969
1776554390707433000,9.343432861328125,0.009882990270853043,-0.003861583536490798,-0.008531436324119568
1776554390717473000,9.35347314453125,0.0092936335131526,-0.008317850530147552,-0.0065465825609862804
1776554390727514000,9.36351416015625,0.011606056243181229,-0.005826463922858238,-0.005303951445966959
1776554390737554200,9.37355419921875,0.011187140829861164,-0.008864065632224083,-0.0029851372819393873
1776554390747594200,9.38359423828125,0.01623968966305256,-0.0032405343372374773,0.0001597896625753492
1776554390757634000,9.393634033203124,0.010636664927005768,-0.0020714066922664642,0.001794171635992825
1776554390767673900,9.403673828125,0.00986434891819954,-0.005499694030731916,0.0037531929556280375
1776554390777713700,9.413713623046876,0.008088020607829094,-0.007671501953154802,0.0003281014505773783
1776554390787753700,9.423753662109375,0.006803844124078751,-0.012461729347705841,-0.0007797735743224621
1776554390797793500,9.43379345703125,0.004126567859202623,-0.014640728011727333,0.0010269149206578732
1776554390807833600,9.44383349609375,0.0049026133492589,-0.018186993896961212,0.00216568261384964
1776554390817873700,9.453873779296876,0.0062368568032979965,-0.021285047754645348,0.012233230285346508
1776554390827914800,9.463914794921875,0.006915962789207697,-0.02370799332857132,0.0202738456428051
1776554390837954800,9.473954833984376,0.005330316722393036,-0.026693396270275116,0.027903802692890167
1776554390847995000,9.483994873046875,0.004247741773724556,-0.02810673601925373,0.03232411667704582
1776554390858034700,9.49403466796875,0.0038637141697108746,-0.02299319952726364,0.03290814906358719
1776554390868074800,9.50407470703125,0.0048767803236842155,-0.024026239290833473,0.028367459774017334
1776554390878114800,9.51411474609375,0.0011965582380071282,-0.02522279880940914,0.02611602284014225
1776554390888154600,9.524154541015625,-0.00022849922243040055,-0.02364247851073742,0.027936292812228203
1776554390898194700,9.534194580078125,-0.002891660202294588,-0.02515781670808792,0.026019882410764694
1776554390908234800,9.54423486328125,-0.003861050819978118,-0.024984445422887802,0.024142088368535042
1776554390918274600,9.554274658203125,-0.0019262643763795495,-0.022967100143432617,0.021709289401769638
1776554390928314600,9.564314697265624,0.0007504787645302713,-0.0252212006598711,0.016882576048374176
1776554390938355700,9.574355712890625,0.007211041171103716,-0.019221631810069084,0.014996526762843132
1776554390948395800,9.584395751953124,0.00881799217313528,-0.01326893363147974,0.011626828461885452
1776554390958435800,9.594435791015625,0.011382084339857101,-0.0010420948965474963,0.009945841506123543
1776554390968476000,9.604475830078124,0.008902414701879025,0.01323777437210083,0.0029915287159383297
1776554390978515700,9.614515625,0.00926167517900467,0.024643294513225555,-0.007122357841581106
1776554390988555800,9.6245556640625,0.010135725140571594,0.029646575450897217,-0.018814433366060257
1776554390998595800,9.634595947265625,0.014564295299351215,0.032639700919389725,-0.02665584534406662
1776554391008635600,9.6446357421875,0.017459416761994362,0.026036927476525307,-0.031492680311203
1776554391018675700,9.65467578125,0.02015240676701069,0.01564633846282959,-0.03604934737086296
1776554391028715500,9.664715576171876,0.018609371036291122,0.015060176141560078,-0.03719077631831169
1776554391038756600,9.674756591796875,0.022275477647781372,0.013375992886722088,-0.03941424936056137
1776554391048796700,9.684796630859376,0.01708630844950676,0.013793310150504112,-0.03905206173658371
1776554391058836700,9.694836669921875,0.015956595540046692,0.02286456897854805,-0.04049123451113701
1776554391068876800,9.704876708984376,0.01624288596212864,0.02996508963406086,-0.04472352936863899
1776554391078916900,9.714916748046875,0.016529440879821777,0.031146202236413956,-0.04502260312438011
1776554391088957000,9.72495703125,0.017557954415678978,0.028720328584313393,-0.03803952783346176
1776554391098996700,9.734996826171875,0.01974520832300186,0.02509550005197525,-0.03813380375504494
1776554391109036800,9.745036865234376,0.017243701964616776,0.021690115332603455,-0.03116590902209282
1776554391119076600,9.75507666015625,0.008466721512377262,0.015327823348343372,-0.02552000805735588
1776554391129116700,9.76511669921875,0.0021965752821415663,0.01062068622559309,-0.016834374517202377
1776554391139156700,9.77515673828125,-0.005020058713853359,0.012536298483610153,-0.014987471513450146
1776554391149197800,9.78519775390625,-0.002338788006454706,0.010720022022724152,-0.008469385094940662
1776554391159237600,9.795237548828124,0.0033838124945759773,0.0028969866689294577,-0.0035862126387655735
1776554391169277700,9.805277587890625,0.00914715975522995,-0.014069479890167713,0.0009928264189511538
1776554391179317800,9.81531787109375,0.012885970994830132,-0.02792777121067047,0.008765794336795807
1776554391189357800,9.82535791015625,0.01008219551295042,-0.03160666301846504,0.008580172434449196
1776554391199398000,9.83539794921875,0.006701578386127949,-0.03449832275509834,0.004766259342432022
1776554391209437700,9.845437744140625,0.004319913685321808,-0.03918442130088806,-0.0010080065112560987
1776554391219477800,9.855477783203124,0.004263987299054861,-0.044443096965551376,-0.007275755982846022
1776554391229517800,9.865517822265625,0.0070792147889733315,-0.04651370644569397,-0.02184457890689373
1776554391239557600,9.8755576171875,0.008991897106170654,-0.03959880769252777,-0.028552548959851265
1776554391249598700,9.8855986328125,0.008463259786367416,-0.03363678976893425,-0.029591182246804237
1776554391259638800,9.895638671875,0.008560464717447758,-0.029381589964032173,-0.027893150225281715
1776554391269678800,9.905678955078125,0.012908874079585075,-0.023962857201695442,-0.028250547125935555
1776554391279718700,9.91571875,0.018036257475614548,-0.011378621682524681,-0.029808495193719864
1776554391289758700,9.9257587890625,0.01991751603782177,-0.0031790153589099646,-0.029100360348820686
1776554391299798800,9.935798828125,0.02281397022306919,0.010098440572619438,-0.031128091737627983
1776554391309838800,9.9458388671875,0.02588539384305477,0.016093216836452484,-0.03417900949716568
1776554391319879000,9.95587890625,0.024887239560484886,0.01823386549949646,-0.03515851870179176
1776554391329918700,9.965918701171875,0.02424834854900837,0.012147743254899979,-0.033782731741666794
1776554391339958800,9.975958740234375,0.025133049115538597,0.004717257339507341,-0.031136879697442055
1776554391349998600,9.98599853515625,0.024341026321053505,0.0019057580502703786,-0.024280572310090065
1776554391360039700,9.996039794921876,0.020490095019340515,0.007997472770512104,-0.020545488223433495
1776554391370079700,10.006079833984375,0.02076520025730133,0.010726680047810078,-0.018484467640519142
1776554391380119800,10.016119873046875,0.020355071872472763,0.017172595486044884,-0.015052186325192451
1776554391390159600,10.02615966796875,0.02147919312119484,0.02287415601313114,-0.01576191931962967
1776554391400199700,10.03619970703125,0.023723438382148743,0.025488048791885376,-0.016692694276571274
1776554391410239700,10.04623974609375,0.02203286439180374,0.024776719510555267,-0.01050244178622961
1776554391420279800,10.05627978515625,0.024529311805963516,0.019998742267489433,-0.007451258134096861
1776554391430319900,10.06631982421875,0.022728482261300087,0.01678617112338543,0.0027984497137367725
1776554391440360000,10.07635986328125,0.025418274104595184,0.01155945099890232,0.017913220450282097
1776554391450399700,10.086399658203124,0.020122578367590904,0.008838498964905739,0.02617088332772255
1776554391460440600,10.096440673828125,0.017103886231780052,0.01284415926784277,0.027653465047478676
1776554391470480600,10.106480712890624,0.016742760315537453,0.015369901433587074,0.028732312843203545
1776554391480520700,10.116520751953125,0.012293684296309948,0.0204504132270813,0.0300242118537426
1776554391490560800,10.126560791015624,0.009633452631533146,0.017737451940774918,0.03284982591867447
1776554391500600800,10.136600830078125,0.006114085204899311,0.010750382207334042,0.03937297314405441
1776554391510640600,10.146640625,0.00187992537394166,0.006042446009814739,0.04839310050010681
1776554391520680700,10.1566806640625,-0.0004649879119824618,0.001386441639624536,0.05753999203443527
1776554391530720800,10.166720703125,0.000639424950350076,-0.00814794097095728,0.05675222724676132
1776554391540760800,10.1767607421875,0.0032956618815660477,-0.012058527208864689,0.05572318285703659
1776554391550801000,10.18680078125,0.008286159485578537,-0.020622188225388527,0.055505070835351944
1776554391560840700,10.1968408203125,0.008709602057933807,-0.020441092550754547,0.04971349239349365
1776554391570880800,10.206880859375,0.011071027256548405,-0.01889246515929699,0.04800800606608391
1776554391580921600,10.216921630859375,0.015356851741671562,-0.015096395276486874,0.040235038846731186
1776554391590961700,10.226961669921875,0.011287542060017586,-0.008653408847749233,0.03478913754224777
1776554391601001700,10.237001708984375,0.013084908947348595,-0.007470433134585619,0.025363413617014885
1776554391611041800,10.247041748046875,0.009819607250392437,0.00046605319948866963,0.02123498171567917
1776554391621081900,10.257081787109374,0.00791544746607542,0.008431301452219486,0.013432717882096767
1776554391631121700,10.26712158203125,0.008048072457313538,0.01423539500683546,0.006530869752168655
1776554391641161700,10.27716162109375,0.008074970915913582,0.015489477664232254,0.005735383834689856
1776554391651201800,10.287201904296875,0.01233176700770855,0.021457888185977936,0.00018748654110822827
1776554391661241900,10.297241943359374,0.015224759466946125,0.022044049575924873,0.0023883229587227106
1776554391671282000,10.307281982421875,0.012957077473402023,0.02412690781056881,0.0005448827287182212
1776554391681321700,10.31732177734375,0.014627411961555481,0.02905561961233616,-0.000862864195369184
1776554391691362600,10.327362548828125,0.013258547522127628,0.030039126053452492,-0.0014767227694392204
1776554391701402600,10.337402587890624,0.011214571073651314,0.032108668237924576,-0.006083991378545761
1776554391711442700,10.347442626953125,0.013612481765449047,0.0318886898458004,-0.006000368390232325
1776554391721482800,10.357482666015626,0.007919974625110626,0.0291120782494545,-0.006406500469893217
1776554391731522800,10.367522705078125,0.010587397031486034,0.016693493351340294,-0.0057468353770673275
1776554391741562600,10.377562744140626,0.00920361839234829,0.014153103344142437,-0.0031965922098606825
1776554391751602700,10.387602783203125,0.010514426045119762,0.011408182792365551,-0.005843774415552616
1776554391761642800,10.397642822265626,0.008680573664605618,0.011636681854724884,-0.0038394792936742306
1776554391771682600,10.4076826171875,0.010601244866847992,0.008115983568131924,-0.005240302067250013
1776554391781722400,10.417722412109375,0.009368734434247017,0.010006560944020748,-0.006404902320355177
1776554391791762400,10.427762451171875,0.00971574429422617,0.008775115944445133,-0.002173938322812319
1776554391801803300,10.43780322265625,0.009583118371665478,0.004525509662926197,-0.002770752878859639
1776554391811843300,10.44784326171875,0.008783371187746525,0.003084206720814109,-0.0007997472421266139
1776554391821883400,10.45788330078125,0.008260060101747513,0.007821437902748585,0.00009960222087102011
1776554391831923500,10.46792333984375,0.008127435110509396,0.006113019771873951,0.0027454528026282787
1776554391841963500,10.477963623046875,0.010465689934790134,0.006232329644262791,0.002775812754407525
1776554391852003300,10.48800341796875,0.008953547105193138,0.004541488364338875,0.0036535905674099922
1776554391862043400,10.49804345703125,0.006836600601673126,0.0014674017438665032,0.0033449302427470684
1776554391872083500,10.50808349609375,0.0027092336677014828,-0.00019281286222394556,0.00777563126757741
1776554391882123500,10.51812353515625,0.0051923650316894054,-0.0051955608651041985,0.002103630919009447
1776554391892163600,10.52816357421875,0.006725280545651913,-0.0105314701795578,0.0002716424351092428
1776554391902203400,10.538203369140625,0.008353536948561668,-0.01182044018059969,-0.0034410704392939806
1776554391912244200,10.548244140625,0.009149822406470776,-0.008265919052064419,-0.0004953479510731995
1776554391922284300,10.5582841796875,0.01209660992026329,-0.0018543590558692813,0.002008556155487895
1776554391932324400,10.568324462890626,0.010613761842250824,0.0019917781464755535,0.003349457634612918
1776554391942364400,10.578364501953125,0.01016688346862793,0.005409678909927607,0.005775597412139177
1776554391952404500,10.588404541015626,0.009737581945955753,0.009110141545534134,0.005134574603289366
1776554391962444500,10.598444580078125,0.0092334458604455,0.003988349810242653,0.00586721021682024
1776554391972484400,10.608484375,0.011695005930960178,0.002671949565410614,0.009387643076479435
1776554391982524400,10.6185244140625,0.010806575417518616,0.0020383833907544613,0.009412942454218864
1776554391992564500,10.628564453125,0.014627145603299141,-0.0003150519623886794,0.007174289785325527
1776554392002604500,10.6386044921875,0.012704343535006046,0.0017291904659941792,0.005367068573832512
1776554392012644600,10.64864453125,0.01139859575778246,0.0007174555794335902,0.00010812433902174234
1776554392022685400,10.658685546875,0.005844040773808956,-0.0026069683954119682,0.0008088020258583128
1776554392032725200,10.668725341796875,0.005311408545821905,0.0020578245166689157,-0.0013555489713326097
1776554392042765300,10.678765380859375,0.007462976034730673,0.0023875238839536905,0.0011028150329366326
1776554392052805400,10.688805419921875,0.010252105072140694,0.0004721784498542547,-0.002232261700555682
1776554392062845400,10.698845458984374,0.008666192181408405,-0.003656253917142749,0.003703658003360033
1776554392072885500,10.708885498046875,0.011426825076341629,-0.003224022686481476,0.003870371961966157
1776554392082925300,10.71892529296875,0.011544536799192429,-0.0033534523099660873,0.00561074772849679
1776554392092965400,10.72896533203125,0.011707255616784096,-0.0054094125516712666,0.005421929527074099
1776554392103005400,10.73900537109375,0.008133027702569962,-0.003079413203522563,0.004459196701645851
1776554392113045500,10.74904541015625,0.007655256427824497,-0.005351089406758547,0.0014796522445976734
1776554392123085600,10.75908544921875,0.007903463207185268,0.0001549959706608206,0.00006844323797849938
1776554392133125600,10.769125732421875,0.008549279533326626,0.0029289445374161005,-0.00364666641689837
1776554392143166500,10.77916650390625,0.006639260333031416,0.0007137271459214389,0.0005209143273532391
1776554392153206300,10.789206298828125,0.008218248374760151,0.0025244103744626045,-0.0015507587231695652
1776554392163246300,10.799246337890626,0.009242233820259571,0.006522081326693296,-0.0013488910626620054
1776554392173286400,10.809286376953125,0.010599381290376186,0.01398931909352541,-0.003491936717182398
1776554392183326500,10.819326416015626,0.008078699000179768,0.009722135961055756,-0.0031726236920803785
1776554392193366500,10.829366455078125,0.009521067142486572,0.01164307352155447,-0.00239205127581954
1776554392203406300,10.83940625,0.010931743308901787,0.011100322008132935,-0.007937285117805004
1776554392213446400,10.8494462890625,0.010993795469403267,0.005874666851013899,-0.004443218000233173
1776554392223486500,10.859486572265626,0.008677910082042217,0.0033662356436252594,-0.008960737846791744
1776554392233526500,10.869526611328125,0.008232629857957363,0.0006410228670574725,-0.00501020485535264
1776554392243566600,10.879566650390625,0.006892260629683733,-0.003093527862802148,-0.0033372072502970695
1776554392253606400,10.8896064453125,0.006200638134032488,0.0034940673504024744,-0.0027864654548466206
1776554392263647200,10.899647216796875,0.010455037467181683,0.0016357135027647018,0.0008727178792469203
1776554392273687300,10.909687255859374,0.009435047395527363,0.007012103218585253,-0.0005382248782552779
1776554392283727400,10.919727294921875,0.011567173525691032,0.005489573813974857,0.0026075011119246483
1776554392293767400,10.929767333984374,0.009219597093760967,0.0054757255129516125,0.001745968358591199
1776554392303807500,10.939807373046875,0.010300042107701302,0.007120493799448013,0.0036250948905944824
1776554392313847600,10.94984765625,0.009170861914753914,0.007193997036665678,0.00022423815971706063
1776554392323887400,10.959887451171875,0.01203961856663227,0.004997155629098415,0.0009190568816848099
1776554392333927400,10.969927490234374,0.010701912455260754,0.0013406352372840047,-0.0009177253232337534
1776554392343967500,10.979967529296875,0.010433199815452099,-0.001329716295003891,-0.001505484920926392
1776554392354007600,10.990007568359376,0.011780759319663048,-0.0013454289874061942,0.005144162103533745
1776554392364047600,11.000047607421875,0.00947792362421751,0.0007123955874703825,0.003394198836758733
1776554392374087400,11.01008740234375,0.010221744887530804,0.0067817396484315395,0.004493285436183214
1776554392384128300,11.020128173828125,0.0072962623089551926,0.009521866217255592,0.004221110139042139
1776554392394168300,11.030168212890626,0.00794394314289093,0.00851226132363081,0.00987287051975727
1776554392404208400,11.04020849609375,0.010614827275276184,0.009354619309306145,0.006617689039558172
1776554392414248400,11.05024853515625,0.012850817292928696,0.006410228554159403,0.00993119366466999
1776554392424288500,11.06028857421875,0.007470965851098299,0.006302637048065662,0.008020109497010708
1776554392434328300,11.070328369140626,0.009929063729941845,0.006527407560497522,0.006310892757028341
1776554392444368400,11.080368408203125,0.006343116983771324,0.007808388210833073,0.006651777308434248
1776554392454408400,11.090408447265625,0.0065500447526574135,0.0030929953791201115,0.00526693370193243
1776554392464448500,11.100448486328125,0.008155930787324905,-0.00013448962999973446,0.005917011294513941
1776554392474488600,11.110488525390625,0.006821686867624521,0.0019712718203663826,0.008704009465873241
1776554392484528600,11.120528564453124,0.006960703991353512,0.0005105279851704836,0.00884728692471981
1776554392494568400,11.130568359375,0.007142331451177597,-0.001788046327419579,0.010420416481792927
1776554392504609300,11.140609375,0.009031577967107296,-0.00047883635852485895,0.009893377311527729
1776554392514649300,11.1506494140625,0.009848635643720627,-0.00007856325100874528,0.009720005095005035
1776554392524689400,11.160689453125,0.00905794370919466,-0.0027654264122247696,0.009248625487089157
1776554392534729500,11.1707294921875,0.008153000846505165,0.0009235842735506594,0.008683502674102783
1776554392544769500,11.18076953125,0.006615824531763792,0.002433330286294222,0.00953837763518095
1776554392554809300,11.190809326171875,0.004472512751817703,-0.0007073355955071747,0.00358807691372931
1776554392564849400,11.200849365234374,0.0035356127191334963,-0.00626002624630928,-0.0005491438205353916
1776554392574889500,11.210889404296875,0.005459479987621307,-0.005066397599875927,-0.0032708945218473673
1776554392584929500,11.220929443359376,0.006682670209556818,-0.0026988473255187273,-0.002867958042770624
1776554392594969600,11.230969482421875,0.009302421472966671,0.0006149238906800747,0.0017230651574209332
1776554392605009400,11.241009521484376,0.010890997014939785,0.0036099147982895374,0.0007856325246393681
1776554392615049500,11.251049560546875,0.010157030075788498,0.008537827990949154,0.0013515542959794402
1776554392625089300,11.26108935546875,0.00947712454944849,0.008133027702569962,-0.0010018812026828527
1776554392635130400,11.27113037109375,0.010437194257974625,0.006783337332308292,-0.0012458267156034708
1776554392645170400,11.28117041015625,0.011736550368368626,0.003734018187969923,-0.0015331818722188473
1776554392655210500,11.29121044921875,0.013077452778816223,0.003087136195972562,-0.00030652983696199954
1776554392665250600,11.30125048828125,0.012055064551532269,0.005864014383405447,-0.004416053649038076
1776554392675290400,11.311290283203125,0.010885404422879219,0.004253600724041462,-0.007778294384479523
1776554392685330400,11.321330322265625,0.009922938421368599,-0.0006490123341791332,-0.006100236903876066
1776554392695370500,11.33137060546875,0.007715444080531597,-0.001841575838625431,-0.009517072699964046
1776554392705410600,11.34141064453125,0.008766060695052147,-0.00006897587445564568,-0.007540207821875811
1776554392715450600,11.35145068359375,0.009926932863891125,-0.0024610271211713552,-0.007892278023064137
1776554392725490400,11.361490478515625,0.008835303597152233,-0.0005858954391442239,-0.005800630897283554
1776554392735530500,11.371530517578124,0.009801231324672699,0.007796403951942921,-0.0010295780375599861
1776554392745570300,11.3815703125,0.011325092054903507,0.003948668949306011,-0.0032229574862867594
1776554392755610400,11.3916103515625,0.011865714564919472,0.007755657657980919,-0.003343332326039672
1776554392765652000,11.40165185546875,0.010911237448453903,0.004442152567207813,-0.004505003336817026
1776554392775692000,11.411692138671874,0.009228918701410294,0.0017054883064702153,-0.0033095101825892925
1776554392785732000,11.421732177734375,0.009081912226974964,-0.002329467097297311,-0.007207312621176243
1776554392795772000,11.43177197265625,0.005513808690011501,-0.0025124261155724525,-0.004048537462949753
1776554392805812000,11.44181201171875,0.006389722228050232,-0.007496265694499016,-0.0021606225054711103
1776554392815852000,11.45185205078125,0.007417702581733465,-0.004327103961259127,-0.0007419566973112524
1776554392825892000,11.46189208984375,0.008866994641721249,-0.004299407359212637,-0.0006564692012034357
1776554392835932000,11.471931884765626,0.008224373683333397,-0.0001613875647308305,-0.001886317040771246
1776554392845971700,11.4819716796875,0.009661948308348656,-0.001939580193720758,-0.000147272803587839
1776554392856011800,11.49201171875,0.010264888405799866,-0.00014514227223116904,-0.00040320257539860904
1776554392866051800,11.5020517578125,0.011236408725380898,-0.00321816373616457,0.002543851500377059
1776554392876092000,11.512091796875,0.011376758106052876,-0.005631254054605961,0.002296443795785308
1776554392886132000,11.522132080078125,0.014738732017576694,-0.00512738386169076,0.0026043052785098553
1776554392896171800,11.532171875,0.0144697530195117,-0.0062219430692493916,0.0015582155901938677
1776554392906213000,11.542213134765625,0.01744929701089859,-0.004514590837061405,0.00023089606838766485
1776554392916253000,11.5522529296875,0.015031680464744568,-0.002880208659917116,-0.005715143866837025
1776554392926293000,11.56229296875,0.015267103910446167,0.0016231966437771916,-0.005823534447699785
1776554392936333000,11.5723330078125,0.012326174415647984,0.0022897860035300255,-0.0039867521263659
1776554392946372900,11.582372802734374,0.013533119112253189,-0.0035654399544000626,-0.00708747049793601
1776554392956413000,11.592412841796875,0.012974654324352741,-0.003251719754189253,-0.00803076196461916
1776554392966452700,11.60245263671875,0.011991415172815323,-0.00005912217602599412,-0.007984156720340252
1776554392976492800,11.612492919921875,0.01293310895562172,0.0030562435276806355,-0.011896073818206787
1776554392986532900,11.622532958984374,0.01344709936529398,0.004055728204548359,-0.008478173054754734
1776554392996573000,11.632572998046875,0.014385064132511616,0.008615592494606972,-0.008748483844101429
1776554393006613000,11.642613037109374,0.013223393820226192,0.004530569538474083,-0.005017928313463926
1776554393016652800,11.65265283203125,0.012486763298511505,0.0024051007349044085,-0.00379021093249321
1776554393026692900,11.66269287109375,0.014453507959842682,-0.0018759306985884905,-0.007210242096334696
1776554393036733000,11.67273291015625,0.014253770932555199,-0.005146825220435858,-0.0007105313707143068
1776554393046774000,11.68277392578125,0.013998107053339481,-0.0007480819476768374,-0.005883721634745598
1776554393056814000,11.69281396484375,0.013275858014822006,-0.003174487967044115,-0.0012777847005054355
1776554393066854000,11.70285400390625,0.012043346650898457,-0.003197923768311739,-0.0015491608064621687
1776554393076894000,11.71289404296875,0.012643623165786266,-0.003953462466597557,-0.004190750420093536
1776554393086933800,11.722933837890626,0.011829761788249016,-0.007434746716171503,-0.002817624481394887
1776554393096973800,11.732973876953125,0.010148507542908192,-0.004481034819036722,-0.00663420045748353
1776554393107014000,11.743013916015625,0.011653993278741837,-0.007561513222754002,-0.0027859327383339405
1776554393117054000,11.753053955078125,0.013196495361626148,-0.005072256550192833,-0.00427250936627388
1776554393127094000,11.763093994140625,0.012056929059326649,-0.006569485645741224,-0.004849882796406746
1776554393137133800,11.7731337890625,0.012999421916902065,-0.004235491156578064,-0.005883188918232918
1776554393147174000,11.783173828125,0.013566941022872925,-0.0037404096219688654,-0.004768656101077795
1776554393157214000,11.7932138671875,0.010596984066069126,-0.0037318875547498465,-0.0046365633606910706
1776554393167254000,11.80325390625,0.010790595784783363,0.0016386429779231548,-0.00439075380563736
1776554393177294000,11.813294189453124,0.011316570453345776,0.003334810258820653,-0.003608849598094821
1776554393187334000,11.823333984375,0.010980213060975075,0.004459463059902191,-0.005715143866837025
1776554393197374700,11.833374755859374,0.012898221611976624,0.002153964713215828,-0.004791293293237686
1776554393207414800,11.843414794921875,0.01056076493114233,-0.000024234765078290366,-0.005388640332967043
1776554393217454800,11.853454833984374,0.009256881661713123,0.0023121563717722893,-0.008199340663850307
1776554393227495000,11.863494873046875,0.007982824929058552,0.0009038768475875258,-0.007069094572216272
1776554393237535000,11.873534912109376,0.008058725856244564,-0.0022237394005060196,-0.010277404449880123
1776554393247575000,11.883574951171875,0.009285643696784973,-0.0017534252256155014,-0.009924535639584064
1776554393257614800,11.89361474609375,0.010371680371463299,-0.0027201527263969183,-0.006326871924102306
1776554393267655000,11.903655029296875,0.01278450433164835,-0.004566522315144539,-0.0037920749746263027
1776554393277695000,11.913695068359376,0.013968013226985931,-0.005526592023670673,0.0002884203568100929
1776554393287735000,11.923735107421875,0.014877749606966972,-0.002633600030094385,0.0009139968897216022
1776554393297775000,11.933775146484376,0.012713132426142693,-0.0003158508916385472,0.0005339637864381075
1776554393307815000,11.94381494140625,0.009895240887999535,0.0007166566210798919,0.0007861651247367263
1776554393317855000,11.95385498046875,0.011403122916817665,0.0018338527297601104,0.0008777778712101281
1776554393327895000,11.96389501953125,0.0116135124117136,0.00273133791051805,0.002347576431930065
1776554393337934800,11.973934814453125,0.011642275378108025,0.006237389519810677,0.0006024070316925645
1776554393347976000,11.983975830078125,0.010152502916753292,0.005261607468128204,-0.0020660804584622383
1776554393358016000,11.99401611328125,0.010893660597503185,0.001282312092371285,-0.0032887374982237816
1776554393368055800,12.004055908203124,0.008295480161905289,-0.005578257143497467,-0.004400607198476791
1776554393378095900,12.014095947265625,0.00977486651390791,-0.005381183233112097,-0.0009486179915256798
1776554393388136000,12.024135986328124,0.010674748569726944,-0.0027292075101286173,0.002685531508177519
1776554393398176000,12.034176025390625,0.013696370646357536,-0.0023331954143941402,0.0012508867075666785
1776554393408216000,12.044216064453124,0.013370400294661522,0.007994011044502258,0.005083441734313965
1776554393418256100,12.054256103515625,0.01122122909873724,0.009485380724072456,0.00458596320822835
1776554393428296000,12.0642958984375,0.01142815686762333,0.011154117062687874,0.002296177437528968
1776554393438336000,12.0743359375,0.011030546389520168,0.007262706756591797,0.0005182511522434652
1776554393448376000,12.0843759765625,0.009350891225039959,0.009351157583296299,-0.001657551503740251
1776554393458415900,12.094415771484375,0.011753861792385578,0.001421861699782312,-0.00224930583499372
1776554393468456000,12.1044560546875,0.0062371231615543365,-0.001502555445767939,-0.0008684568456374109
1776554393478495700,12.114495849609375,0.007983091287314892,-0.0051777176558971405,-0.002680471632629633
1776554393488535800,12.124535888671875,0.008892561309039593,-0.005563609767705202,-0.0017683389596641064
1776554393498576000,12.134575927734375,0.012538694776594639,-0.002283926820382476,-0.0021486382465809584
1776554393508616000,12.144615966796875,0.011663580313324928,0.002829076023772359,-0.003410177771002054
1776554393518657000,12.154656982421875,0.01635926589369774,0.006840329151600599,-0.001086037140339613
1776554393528697000,12.164697021484375,0.01124972477555275,0.007966313511133194,-0.006105296779423952
1776554393538737000,12.17473681640625,0.011390872299671173,0.0034498588647693396,-0.004005660768598318
1776554393548777000,12.18477685546875,0.011562380008399487,0.0030445256270468235,-0.0020908478181809187
1776554393558817000,12.194817138671874,0.009380452334880829,0.0012269183062016964,-0.0028639633674174547
1776554393568856800,12.20485693359375,0.01182443555444479,-0.0008886968716979027,-0.00276089902035892
1776554393578897000,12.21489697265625,0.011323761194944382,0.0017382452497258782,-0.005042162723839283
1776554393588937000,12.22493701171875,0.009518936276435852,-0.0024799355305731297,-0.005151352379471064
1776554393598976800,12.234976806640624,0.01275520958006382,-0.0023635553661733866,-0.007288539316505194
1776554393609016800,12.245016845703125,0.009091232903301716,-0.0012266519479453564,-0.0037681066896766424
1776554393619057000,12.255056884765626,0.012194881215691566,-0.002121207769960165,-0.0036245621740818024
