time,seconds_elapsed,z,y,x
1776554381565874700,0.201874755859375,0.003949721343815327,0.010924290865659714,-0.004816215485334396
1776554381575915500,0.21191552734375,0.01983148232102394,0.03014911711215973,-0.03372163325548172
1776554381585955600,0.22195556640625,0.02060536853969097,-0.01412875670939684,-0.023779530078172684
1776554381595995600,0.23199560546875,0.003604547120630741,0.03543347120285034,-0.013451792299747467
1776554381606035500,0.242035400390625,0.009758630767464638,0.028396543115377426,-0.05891839414834976
1776554381616075500,0.252075439453125,0.0017031002789735794,0.006367141380906105,-0.08182930201292038
1776554381626115600,0.262115478515625,0.009599429555237293,0.03950410336256027,-0.06883278489112854
1776554381636155600,0.27215576171875,0.031191274523735046,0.031697578728199005,-0.05754817649722099
1776554381646196500,0.282196533203125,0.046922825276851654,0.01570812053978443,-0.0480564720928669
1776554381656236500,0.292236572265625,0.02523403987288475,0.024940235540270805,-0.0676267147064209
1776554381666276400,0.3022763671875,0.02774887904524803,0.0363859161734581,-0.07060985267162323
1776554381676316400,0.31231640625,0.05555201321840286,0.020339304581284523,-0.045351359993219376
1776554381686356500,0.3223564453125,0.07287990301847458,0.017862187698483467,-0.012968911789357662
1776554381696396500,0.332396484375,0.10870101302862167,0.04603656753897667,0.0018297414062544703
1776554381706437600,0.342437744140625,0.18625354766845703,0.10120267421007156,-0.021374331787228584
1776554381716477700,0.352477783203125,0.23388443887233734,0.12680071592330933,-0.10692092031240463
1776554381726517500,0.362517578125,0.28114452958106995,0.1870402991771698,-0.20617836713790894
1776554381736557600,0.3725576171875,0.2946925759315491,0.35819151997566223,-0.30238771438598633
1776554381746597600,0.38259765625,0.34123700857162476,0.5440957546234131,-0.3734057545661926
1776554381756637700,0.3926376953125,0.47500625252723694,0.9464879631996155,-0.43295592069625854
1776554381766678500,0.402678466796875,0.6630105376243591,1.4597620964050293,-0.5004982352256775
1776554381776718600,0.412718505859375,0.793174684047699,1.4731206893920898,-0.7884266972541809
1776554381786758700,0.422758544921875,0.866500973701477,1.6541582345962524,-1.1401972770690918
1776554381796798700,0.432798828125,0.9266260862350464,1.9447442293167114,-1.371364712715149
1776554381806838500,0.442838623046875,0.9481046795845032,2.1732704639434814,-1.486297369003296
1776554381816878600,0.452878662109375,0.9529739618301392,2.449357032775879,-1.5608464479446411
1776554381826919700,0.462919677734375,1.0024327039718628,2.8339033126831055,-1.5136407613754272
1776554381836959500,0.47295947265625,1.102761149406433,3.1947946548461914,-1.2895303964614868
1776554381846999600,0.48299951171875,1.2637068033218384,3.545414686203003,-0.8196371793746948
1776554381857039600,0.49303955078125,1.4239877462387085,3.5780999660491943,-0.44823354482650757
1776554381867079400,0.503079345703125,1.6952834129333496,3.3695850372314453,-0.24787874519824982
1776554381877119500,0.513119384765625,1.8779373168945312,3.060276985168457,-0.14331665635108948
1776554381887159600,0.52315966796875,1.7925639152526855,2.6650807857513428,-0.24314983189105988
1776554381897200600,0.53320068359375,1.613953709602356,2.8556253910064697,-0.4054527282714844
1776554381907240700,0.54324072265625,1.4881978034973145,3.0743892192840576,-0.6145522594451904
1776554381917280800,0.55328076171875,1.1819555759429932,3.345791816711426,-1.0419394969940186
1776554381927320600,0.563320556640625,0.803650438785553,3.4194517135620117,-1.5158283710479736
1776554381937360600,0.573360595703125,0.467392235994339,3.4700121879577637,-1.8396440744400024
1776554381947400400,0.583400390625,0.2724709212779999,3.687852144241333,-1.8144840002059937
1776554381957441500,0.593441650390625,0.06219997629523277,3.7091734409332275,-1.3924281597137451
1776554381967481600,0.603481689453125,-0.258432000875473,3.0899579524993896,-0.7921919226646423
1776554381977521700,0.613521728515625,-0.5682069063186646,1.8413711786270142,-0.2719465494155884
1776554381987561700,0.623561767578125,-0.5563932061195374,0.752254843711853,0.1455501765012741
1776554381997601500,0.6336015625,-0.1915588080883026,0.4360845983028412,0.218369260430336
1776554382007641600,0.6436416015625,0.07150880992412567,-0.33719849586486816,0.12866561114788055
1776554382017682400,0.653682373046875,0.014623425900936127,-1.2131634950637817,0.2559729814529419
1776554382027722500,0.663722412109375,-0.24725374579429626,-1.2424241304397583,0.42232826352119446
1776554382037762600,0.673762451171875,-0.5214781165122986,-1.7934238910675049,0.6754686236381531
1776554382047802600,0.683802734375,-0.44000479578971863,-1.740339756011963,1.0582966804504395
1776554382057842400,0.693842529296875,-0.21470136940479279,-1.2073348760604858,1.3307164907455444
1776554382067882500,0.703882568359375,0.0891461968421936,-0.6985808610916138,1.2708828449249268
1776554382077922600,0.713922607421875,0.32885414361953735,-0.24031715095043182,1.1659470796585083
1776554382087963600,0.723963623046875,0.3891112506389618,-0.2903739809989929,0.9200544357299805
1776554382098003700,0.734003662109375,0.5506687164306641,-0.6889261603355408,0.6144436597824097
1776554382108043800,0.744043701171875,0.6694402694702148,-1.0021966695785522,0.4303037226200104
1776554382118083600,0.75408349609375,0.6302995681762695,-1.416140079498291,0.42499762773513794
1776554382128123600,0.76412353515625,0.5014214515686035,-1.6467698812484741,0.3635040521621704
1776554382138163500,0.77416357421875,0.2739768326282501,-1.5886026620864868,0.02207641303539276
1776554382148204500,0.78420458984375,-0.06458379328250885,-1.0851186513900757,-0.49716296792030334
1776554382158244600,0.79424462890625,-0.45840591192245483,-0.4609187841415405,-1.0874909162521362
1776554382168284700,0.80428466796875,-0.7998607158660889,-0.010918532498180866,-1.703595757484436
1776554382178324700,0.81432470703125,-0.9975737929344177,0.3810194134712219,-2.17199969291687
1776554382188364500,0.824364501953125,-1.065283179283142,0.5041689276695251,-2.3093011379241943
1776554382198404600,0.834404541015625,-1.0361171960830688,0.24221588671207428,-2.0100789070129395
1776554382208445400,0.844445556640625,-1.0596646070480347,-0.5403436422348022,-1.3740607500076294
1776554382218485500,0.854485595703125,-1.1503081321716309,-1.0134295225143433,-0.5470671653747559
1776554382228525600,0.864525634765625,-1.097327470779419,-0.8088563680648804,0.46317264437675476
1776554382238565600,0.874565673828125,-1.0643305778503418,-1.0710009336471558,1.3066176176071167
1776554382248605400,0.88460546875,-1.1049449443817139,-1.333871603012085,1.8034006357192993
1776554382258645500,0.8946455078125,-1.2092745304107666,-1.5077110528945923,1.9240546226501465
1776554382268686600,0.9046865234375,-1.3658069372177124,-1.4042150974273682,1.7939786911010742
1776554382278726700,0.9147265625,-1.4635295867919922,-1.0095529556274414,1.5367910861968994
1776554382288766700,0.9247666015625,-1.5842493772506714,-0.6035010814666748,1.2914268970489502
1776554382298806800,0.934806884765625,-1.7571632862091064,-0.41020408272743225,1.1174529790878296
1776554382308846600,0.9448466796875,-1.9344366788864136,-0.31849244236946106,0.9666289687156677
1776554382318886400,0.954886474609375,-2.1058602333068848,-0.2683861255645752,0.7885228991508484
1776554382328926500,0.964926513671875,-2.245173931121826,-0.25865545868873596,0.5684698820114136
1776554382338967600,0.974967529296875,-2.3816440105438232,-0.19877108931541443,0.31949684023857117
1776554382349007600,0.985007568359375,-2.50819730758667,-0.060576844960451126,0.0915725901722908
1776554382359047700,0.995047607421875,-2.662376880645752,0.14471931755542755,-0.08504825085401535
1776554382369087700,1.005087646484375,-2.889510154724121,0.37097087502479553,-0.2048938125371933
1776554382379127600,1.01512744140625,-3.1555960178375244,0.5016029477119446,-0.28895196318626404
1776554382389167600,1.025167724609375,-3.420945882797241,0.5384705662727356,-0.37466534972190857
1776554382399208400,1.03520849609375,-3.6714677810668945,0.5952861905097961,-0.49791353940963745
1776554382409248500,1.04524853515625,-3.9098963737487793,0.6239817142486572,-0.651309609413147
1776554382419288600,1.05528857421875,-4.105204105377197,0.6120843291282654,-0.7738797664642334
1776554382429328600,1.06532861328125,-4.23518705368042,0.5770655870437622,-0.8751357793807983
1776554382439368400,1.075368408203125,-4.343236446380615,0.4968322515487671,-0.9811093211174011
1776554382449408500,1.085408447265625,-4.448235034942627,0.2507394850254059,-1.1473976373672485
1776554382459449600,1.09544970703125,-4.562022686004639,-0.04472038149833679,-1.4351987838745117
1776554382469489700,1.10548974609375,-4.621068477630615,-0.3238280713558197,-1.8154478073120117
1776554382479529700,1.11552978515625,-4.595791339874268,-0.6127009391784668,-2.2656519412994385
1776554382489569800,1.12556982421875,-4.501442909240723,-0.8276332020759583,-2.726208448410034
1776554382499609600,1.135609619140625,-4.331618309020996,-0.8913027048110962,-3.150393009185791
1776554382509649400,1.1456494140625,-4.055917739868164,-0.7564595937728882,-3.545501232147217
1776554382519690500,1.1556904296875,-3.7404940128326416,-0.5309047698974609,-3.9038548469543457
1776554382529730600,1.16573046875,-3.470813512802124,-0.21362008154392242,-4.257328510284424
1776554382539770600,1.1757705078125,-3.1891515254974365,0.24380633234977722,-4.5343451499938965
1776554382549810700,1.185810791015625,-2.797283887863159,0.705552875995636,-4.680856704711914
1776554382559850800,1.195850830078125,-2.267864227294922,1.017807960510254,-4.6870436668396
1776554382569890600,1.205890625,-1.7011876106262207,1.0293787717819214,-4.674162864685059
1776554382579931400,1.215931396484375,-1.0617924928665161,1.0085995197296143,-4.700918674468994
1776554382589971500,1.225971435546875,-0.395534873008728,1.1241722106933594,-4.632852554321289
1776554382600011500,1.236011474609375,0.2711384892463684,1.2895877361297607,-4.478911876678467
1776554382610051600,1.246051513671875,0.9387407302856445,1.5303858518600464,-4.304513931274414
1776554382620091600,1.256091552734375,1.488781213760376,1.7591122388839722,-4.237728118896484
1776554382630131500,1.26613134765625,1.9310513734817505,2.0920417308807373,-4.2873616218566895
1776554382640171500,1.276171630859375,2.297091007232666,2.3378286361694336,-4.311645984649658
1776554382650212600,1.286212646484375,2.72672438621521,2.487677574157715,-4.166686534881592
1776554382660252700,1.296252685546875,3.181363582611084,2.5063083171844482,-3.724921941757202
1776554382670292700,1.306292724609375,3.5753135681152344,2.2695846557617188,-3.100522041320801
1776554382680332500,1.31633251953125,3.9079697132110596,1.902213215827942,-2.62005352973938
1776554382690372600,1.32637255859375,4.2446136474609375,1.5281509160995483,-2.40442156791687
1776554382700412400,1.336412353515625,4.3872151374816895,1.5205769538879395,-2.031304121017456
1776554382710453500,1.34645361328125,2.4073987007141113,2.778752088546753,-0.030884897336363792
1776554382720493600,1.35649365234375,0.7026839256286621,3.3872084617614746,1.3224056959152222
1776554382730533600,1.36653369140625,0.14606976509094238,3.55486798286438,1.689910650253296
1776554382740573700,1.37657373046875,0.2871754765510559,3.186711072921753,1.8392112255096436
1776554382750613800,1.38661376953125,1.0030232667922974,2.356135368347168,2.201307773590088
1776554382760654000,1.396654052734375,1.947793960571289,1.166309118270874,2.4666059017181396
1776554382770695000,1.40669482421875,2.9379489421844482,0.3103213906288147,2.3696725368499756
1776554382780735000,1.41673486328125,3.55915904045105,-0.21985432505607605,1.9927546977996826
1776554382790774800,1.42677490234375,3.601396322250366,-0.32623136043548584,1.6166255474090576
1776554382800814800,1.43681494140625,3.3836288452148438,-0.17472785711288452,1.4677798748016357
1776554382810855000,1.44685498046875,3.294236660003662,-0.25614818930625916,1.278219223022461
1776554382820895000,1.45689501953125,3.6143605709075928,-0.3926447927951813,1.1080610752105713
1776554382830936000,1.46693603515625,4.1164445877075195,-0.8008251786231995,0.8668177723884583
1776554382840976000,1.476975830078125,4.27839469909668,-0.8884879350662231,0.5647316575050354
1776554382851016000,1.487015869140625,4.168536186218262,-0.76943439245224,0.2726788818836212
1776554382861055700,1.4970556640625,3.851069688796997,-0.6773223280906677,-0.07701388746500015
1776554382871095800,1.507095703125,3.573561191558838,-0.6033719182014465,-0.22294944524765015
1776554382881135900,1.517135986328125,3.3409311771392822,-0.4278358221054077,-0.11607519537210464
1776554382891177000,1.527177001953125,3.1335275173187256,-0.4824809730052948,0.10769590735435486
1776554382901217000,1.537217041015625,2.7123489379882812,-0.5031652450561523,0.23469246923923492
1776554382911257000,1.547257080078125,2.2084288597106934,-0.9037835597991943,0.2701553404331207
1776554382921297000,1.557296875,1.7312707901000977,-1.3694218397140503,0.36791253089904785
1776554382931337000,1.5673369140625,1.2590546607971191,-1.6119593381881714,0.6403915882110596
1776554382941377000,1.577376953125,1.0182342529296875,-1.7667927742004395,0.8638571500778198
1776554382951417000,1.5874169921875,0.7600612044334412,-1.948367953300476,0.9642764329910278
1776554382961458000,1.5974580078125,0.430782675743103,-2.0049543380737305,1.1252237558364868
1776554382971498000,1.607498046875,0.08922889083623886,-2.068570137023926,1.1216479539871216
1776554382981537800,1.617537841796875,-0.12227883189916611,-1.912081241607666,1.0892043113708496
1776554382991577900,1.627577880859375,-0.10462979972362518,-1.7039403915405273,1.1934609413146973
1776554383001618000,1.637617919921875,0.12609022855758667,-1.721801996231079,1.1094334125518799
1776554383011658000,1.647657958984375,0.43937304615974426,-1.8399643898010254,0.8200355768203735
1776554383021699000,1.657698974609375,0.8499120473861694,-1.7775838375091553,0.5752215385437012
1776554383031739000,1.66773876953125,1.1514105796813965,-1.5850129127502441,0.36793625354766846
1776554383041779000,1.677779052734375,1.1568013429641724,-1.4592070579528809,0.24651050567626953
1776554383051818800,1.68781884765625,0.9869522452354431,-1.3209072351455688,0.24222904443740845
1776554383061858800,1.69785888671875,0.643263041973114,-1.343212366104126,0.34128397703170776
1776554383071899000,1.70789892578125,0.14872902631759644,-1.6074689626693726,0.6925498247146606
1776554383081940000,1.71793994140625,-0.5530980825424194,-1.2104872465133667,1.049588680267334
1776554383091980000,1.72797998046875,-1.2056211233139038,0.19348111748695374,0.9437531232833862
1776554383102020000,1.73802001953125,-1.4895626306533813,0.949411153793335,0.747929036617279
1776554383112060000,1.748059814453125,-1.5561445951461792,0.8720751404762268,0.7410505414009094
1776554383122100000,1.758099853515625,-1.583371639251709,0.4884078800678253,0.7952120304107666
1776554383132140000,1.76814013671875,-1.6458808183670044,0.03513466566801071,0.8011550903320312
1776554383142180900,1.778180908203125,-1.6484155654907227,-0.21461844444274902,0.7820841670036316
1776554383152221000,1.788220947265625,-1.4645403623580933,0.3341454565525055,0.6085813045501709
1776554383162261000,1.798260986328125,-0.9596575498580933,1.2607481479644775,0.43156424164772034
1776554383172300800,1.80830078125,-0.6503411531448364,2.197709560394287,0.25566360354423523
1776554383182340900,1.8183408203125,-0.7715961933135986,2.7032394409179688,0.13634543120861053
1776554383192381000,1.828380859375,-1.0588523149490356,2.3369414806365967,0.18258315324783325
1776554383202422000,1.838422119140625,-1.65572190284729,1.902912974357605,0.362334281206131
1776554383212461800,1.8484619140625,-2.0648839473724365,1.1604499816894531,0.46232354640960693
1776554383222502000,1.858501953125,-2.3356759548187256,0.8144521117210388,0.6048891544342041
1776554383232542000,1.8685419921875,-2.5338497161865234,0.5756102800369263,0.5938434600830078
1776554383242581800,1.878581787109375,-2.584526777267456,0.033972833305597305,0.5113775730133057
1776554383252622800,1.888622802734375,-2.6790425777435303,-0.31128257513046265,0.6201093792915344
1776554383262663000,1.898662841796875,-2.7175986766815186,-0.5506770014762878,0.6427915692329407
1776554383272703000,1.908702880859375,-2.7375242710113525,-1.0105509757995605,0.4706745147705078
1776554383282743000,1.918742919921875,-3.0101284980773926,-1.3953471183776855,0.26778027415275574
1776554383292783000,1.928783203125,-3.1081383228302,-1.770236849784851,0.0265777837485075
1776554383302823000,1.938822998046875,-3.034890651702881,-1.649554967880249,-0.20544905960559845
1776554383312863700,1.94886376953125,-3.064326047897339,-1.1748489141464233,-0.5101970434188843
1776554383322903800,1.95890380859375,-3.079349994659424,-0.676831066608429,-0.6609519720077515
1776554383332944000,1.96894384765625,-2.702254295349121,-0.054573483765125275,-0.6276570558547974
1776554383342984000,1.97898388671875,-2.370231866836548,0.5723018646240234,-0.4037906229496002
1776554383353024000,1.98902392578125,-2.48553204536438,0.6320450901985168,-0.41936397552490234
1776554383363063800,1.999063720703125,-2.6144673824310303,-0.4819762110710144,-0.18776163458824158
1776554383373105000,2.00910498046875,-2.979912757873535,-1.815569281578064,-0.11313608288764954
1776554383383145000,2.01914501953125,-3.4286811351776123,-1.5668524503707886,0.05720768868923187
1776554383393185000,2.02918505859375,-3.076629877090454,-0.834318995475769,-0.2644685208797455
1776554383403224800,2.039224853515625,-2.4090535640716553,-0.13044551014900208,-0.7277941107749939
1776554383413265000,2.049264892578125,-1.9265984296798706,0.270323246717453,-1.10400390625
1776554383423305000,2.059304931640625,-1.5863838195800781,0.43308502435684204,-1.0614452362060547
1776554383433346000,2.069345947265625,-1.243622064590454,0.29786282777786255,-0.6389347910881042
1776554383443385900,2.0793857421875,-0.8910133838653564,-0.045079637318849564,-0.17413964867591858
1776554383453426000,2.089426025390625,-0.5058456063270569,-0.2525433897972107,0.1766318529844284
1776554383463466000,2.099466064453125,0.06808879971504211,-0.3258250653743744,0.2940618395805359
1776554383473506000,2.109506103515625,0.5911608338356018,-0.2311212420463562,0.27277371287345886
1776554383483546000,2.119546142578125,0.9437990188598633,0.1620340347290039,0.148321270942688
1776554383493587000,2.1295869140625,1.0767323970794678,0.639178454875946,-0.004940913058817387
1776554383503626800,2.139626708984375,1.1113795042037964,0.9357901811599731,-0.04701513051986694
1776554383513666800,2.149666748046875,1.1549748182296753,0.9960744380950928,-0.011045455001294613
1776554383523707000,2.159706787109375,1.2166571617126465,0.8525835871696472,0.0870416909456253
1776554383533747000,2.169746826171875,1.2513357400894165,0.6740229725837708,0.24037906527519226
1776554383543787000,2.179787109375,1.2553619146347046,0.5226854085922241,0.39609649777412415
1776554383553828000,2.189828125,1.2336416244506836,0.45088431239128113,0.48696932196617126
1776554383563868000,2.199867919921875,1.1806094646453857,0.42299383878707886,0.48201000690460205
1776554383573908000,2.209907958984375,1.1506973505020142,0.4385034441947937,0.3773987293243408
1776554383583947800,2.21994775390625,1.1310168504714966,0.5447131991386414,0.23160211741924286
1776554383593987800,2.22998779296875,1.1766979694366455,0.7122538685798645,0.19397613406181335
1776554383604028000,2.24002783203125,1.2851933240890503,0.7359222173690796,0.22820201516151428
1776554383614069000,2.250069091796875,1.3050142526626587,0.710644006729126,0.21225915849208832
1776554383624109000,2.260109130859375,1.1419425010681152,0.5482559204101562,0.20728304982185364
1776554383634148900,2.27014892578125,1.0144071578979492,0.41792944073677063,0.2508589029312134
1776554383644189000,2.28018896484375,1.0088664293289185,0.5266649723052979,0.2742651402950287
1776554383654229000,2.29022900390625,1.1354800462722778,0.6732580065727234,0.18419191241264343
1776554383664269000,2.30026904296875,1.2852418422698975,0.8305115103721619,0.00503919180482626
1776554383674310000,2.310309814453125,1.4275630712509155,0.9721883535385132,-0.21009951829910278
1776554383684350000,2.320349853515625,1.5198800563812256,1.1024028062820435,-0.40971702337265015
1776554383694389800,2.3303896484375,1.6426105499267578,1.416182518005371,-0.2813098728656769
1776554383704429800,2.340429931640625,1.8468037843704224,1.5382421016693115,-0.020762456580996513
1776554383714470000,2.350469970703125,1.6529515981674194,0.712076723575592,-0.14708299934864044
1776554383724511000,2.360510986328125,1.0977314710617065,0.08963125199079514,-0.37661921977996826
1776554383734551000,2.370551025390625,0.5337238311767578,0.2176329493522644,-0.5375799536705017
1776554383744591000,2.380591064453125,0.09798113256692886,0.7397938966751099,-0.736891508102417
1776554383754631200,2.390631103515625,-0.2750270664691925,1.2627073526382446,-1.0254056453704834
1776554383764671000,2.4006708984375,-0.6419309973716736,1.764386534690857,-1.305712103843689
1776554383774710800,2.410710693359375,-1.0067191123962402,2.312730073928833,-1.501906394958496
1776554383784751900,2.420751953125,-1.2390704154968262,2.983576774597168,-1.4486068487167358
1776554383794791700,2.430791748046875,-1.2627136707305908,3.5447967052459717,-1.0436813831329346
1776554383804831700,2.440831787109375,-1.2756060361862183,3.1973178386688232,-0.5351444482803345
1776554383814871800,2.450871826171875,-1.3978577852249146,1.7747669219970703,-0.033897947520017624
1776554383824912000,2.460911865234375,-1.4648523330688477,0.10385546833276749,0.3921380639076233
1776554383834952000,2.470951904296875,-1.3500311374664307,-1.136672854423523,0.79226154088974
1776554383844992800,2.48099267578125,-1.0665240287780762,-1.6451786756515503,1.213230848312378
1776554383855032600,2.491032470703125,-0.6915412545204163,-1.6677366495132446,1.5380295515060425
1776554383865072600,2.50107275390625,-0.3616615831851959,-1.4760940074920654,1.6464974880218506
1776554383875112700,2.51111279296875,-0.1288710981607437,-1.1496601104736328,1.5207101106643677
1776554383885152800,2.52115283203125,-0.1341545432806015,-0.700312077999115,1.1306345462799072
1776554383895192800,2.53119287109375,-0.42172175645828247,-0.02755715698003769,0.5434951186180115
1776554383905234000,2.54123388671875,-0.7209324836730957,0.8022564053535461,-0.12827956676483154
1776554383915274000,2.55127392578125,-0.905144989490509,1.4341342449188232,-0.6485618352890015
1776554383925313800,2.561313720703125,-1.0889915227890015,1.7171787023544312,-0.9239715933799744
1776554383935353900,2.571353759765625,-1.231366753578186,1.697933554649353,-0.9287324547767639
1776554383945394000,2.581393798828125,-1.2720577716827393,1.4509541988372803,-0.7979224920272827
1776554383955433700,2.591433837890625,-1.0858896970748901,1.6031732559204102,-0.6085275411605835
1776554383965474800,2.601474853515625,-0.7936962246894836,1.6924909353256226,-0.43790069222450256
1776554383975515000,2.611514892578125,-0.45828503370285034,1.6438517570495605,-0.3042653203010559
1776554383985554700,2.6215546875,-0.19491171836853027,1.488912582397461,-0.15006086230278015
1776554383995594800,2.6315947265625,-0.08357212692499161,1.1402992010116577,0.028283990919589996
1776554384005634800,2.641634765625,-0.0965566337108612,0.7651680707931519,0.22662077844142914
1776554384015676000,2.651676025390625,-0.1913408637046814,0.3966255486011505,0.37369921803474426
1776554384025715700,2.6617158203125,-0.2743593454360962,0.3801592290401459,0.46648719906806946
1776554384035755800,2.671755859375,-0.3234354853630066,0.2905266284942627,0.3935369849205017
1776554384045795800,2.6817958984375,-0.2398572415113449,0.0652402713894844,0.18615102767944336
1776554384055835600,2.691835693359375,-0.0841117799282074,0.0011237554717808962,-0.0020411908626556396
1776554384065875700,2.701875732421875,-0.005337066482752562,0.09819171577692032,-0.08526337891817093
1776554384075916800,2.711916748046875,-0.022288426756858826,0.16982942819595337,-0.09309612959623337
1776554384085956900,2.721956787109375,-0.0107050072401762,0.2210737019777298,-0.06549752503633499
1776554384095997000,2.731996826171875,-0.006552517414093018,0.08675897866487503,-0.0334828644990921
1776554384106037000,2.742037109375,0.018209021538496017,-0.15129992365837097,0.0003749674651771784
1776554384116076800,2.752076904296875,0.1353849619626999,-0.3099437952041626,0.17850837111473083
1776554384126116900,2.762116943359375,0.08267514407634735,-0.724588930606842,0.5256503224372864
1776554384136157700,2.77215771484375,-0.10746254771947861,-1.0815541744232178,0.6899756193161011
1776554384146197800,2.78219775390625,-0.2368500977754593,-1.1739461421966553,0.72105872631073
1776554384156237800,2.79223779296875,-0.23379108309745789,-1.1723343133926392,0.8017011880874634
1776554384166278000,2.80227783203125,-0.17210614681243896,-0.7611339688301086,0.8219172358512878
1776554384176317700,2.812317626953125,-0.13593432307243347,-0.09230051189661026,0.636870265007019
1776554384186357800,2.822357666015625,-0.21675753593444824,0.3094514310359955,0.35147392749786377
1776554384196398800,2.83239892578125,-0.3388286828994751,0.40856727957725525,0.21455490589141846
1776554384206438700,2.842438720703125,-0.4405326843261719,0.3106444478034973,0.20096880197525024
1776554384216478700,2.852478759765625,-0.3904561698436737,0.2658012807369232,0.21950729191303253
1776554384226518800,2.862518798828125,-0.1826944351196289,0.3025209307670593,0.240675687789917
1776554384236558800,2.872558837890625,-0.03173089399933815,0.3108192980289459,0.2959286570549011
1776554384246598700,2.8825986328125,0.0458533801138401,0.18149273097515106,0.25567230582237244
1776554384256639700,2.8926396484375,0.14346982538700104,0.1178072839975357,0.0930795669555664
1776554384266679800,2.9026796875,0.1989929974079132,0.17674517631530762,-0.16722364723682404
1776554384276719900,2.912719970703125,0.19627684354782104,0.3171994984149933,-0.4470555782318115
1776554384286760000,2.922760009765625,0.12090831995010376,0.397323876619339,-0.5582382678985596
1776554384296800000,2.932800048828125,0.1187002956867218,0.6304950714111328,-0.4974060654640198
1776554384306840800,2.9428408203125,0.23891617357730865,0.747183084487915,-0.46440231800079346
1776554384316880600,2.952880615234375,0.4804003834724426,0.6071021556854248,-0.5205752849578857
1776554384326920700,2.962920654296875,0.6991545557975769,0.5280566215515137,-0.5634710788726807
1776554384336960800,2.972960693359375,0.9140219688415527,0.5799657702445984,-0.5659887790679932
1776554384347000800,2.983000732421875,1.0524576902389526,0.687150239944458,-0.39072030782699585
1776554384357041000,2.993041015625,1.0639060735702515,0.7800763249397278,-0.12737412750720978
1776554384367082000,3.00308203125,0.8850231766700745,0.6962208151817322,0.08966656774282455
1776554384377121800,3.013121826171875,0.48119989037513733,0.4692285358905792,0.3035992383956909
1776554384387161900,3.023161865234375,0.04289951175451279,0.31966835260391235,0.38850054144859314
1776554384397201700,3.03320166015625,-0.09868566691875458,0.1688106507062912,0.17051321268081665
1776554384407241700,3.04324169921875,0.11680693924427032,0.12055603414773941,-0.2847254276275635
1776554384417281800,3.05328173828125,0.5042163133621216,0.36854615807533264,-0.5716333389282227
1776554384427323000,3.063322998046875,2.0098888874053955,-0.41630953550338745,-1.794421911239624
1776554384437363000,3.073363037109375,3.599918842315674,0.5908617973327637,-1.021051287651062
1776554384447402800,3.08340283203125,4.2616424560546875,0.7592883706092834,-1.125529408454895
1776554384457442800,3.09344287109375,4.415166854858398,1.3801871538162231,-0.9161657691001892
1776554384467483000,3.10348291015625,3.674513339996338,1.518432855606079,-0.8480940461158752
1776554384477523700,3.113523681640625,2.316770076751709,1.1422845125198364,-0.5213492512702942
1776554384487563800,3.123563720703125,0.9229240417480469,0.43643611669540405,0.22331666946411133
1776554384497603800,3.133603759765625,-0.014994509518146515,-0.2471710592508316,0.7880801558494568
1776554384507643600,3.1436435546875,-0.06663267314434052,-0.3798838257789612,0.8926097750663757
1776554384517683700,3.15368359375,-0.043027814477682114,-0.20482173562049866,0.7911069393157959
1776554384527723800,3.163723876953125,-0.1169971153140068,0.05715741217136383,0.4069978892803192
1776554384537764900,3.173764892578125,-0.1976211816072464,0.28255242109298706,-0.05384242907166481
1776554384547805000,3.183804931640625,-0.23448705673217773,0.29380345344543457,-0.517425537109375
1776554384557845000,3.193844970703125,-0.24136517941951752,0.23055370151996613,-0.8371830582618713
1776554384567884800,3.203884765625,-0.20650412142276764,0.11606813222169876,-0.975502073764801
1776554384577924600,3.213924560546875,-0.15709693729877472,-0.054957564920186996,-0.9883962869644165
1776554384587964700,3.223964599609375,-0.14838333427906036,-0.2419343739748001,-0.9282959699630737
1776554384598005800,3.234005859375,-0.26469504833221436,-0.35632261633872986,-0.8852691650390625
1776554384608045800,3.2440458984375,-0.3258247375488281,-0.2922126054763794,-0.8840198516845703
1776554384618086000,3.2540859375,-0.12928059697151184,-0.15082710981369019,-0.879062831401825
1776554384628126000,3.2641259765625,0.2924916744232178,0.05340112745761871,-0.8555921316146851
1776554384638165800,3.274165771484375,0.6418218612670898,0.33750855922698975,-0.6559155583381653
1776554384648205800,3.284205810546875,0.6970036029815674,0.4965205788612366,-0.27295273542404175
1776554384658246700,3.29424658203125,0.7311917543411255,0.3759884536266327,0.10971681773662567
1776554384668286700,3.30428662109375,0.7679148316383362,0.0845283716917038,0.37583985924720764
1776554384678326800,3.314326904296875,0.9325037002563477,-0.20357021689414978,0.45362231135368347
1776554384688366800,3.324366943359375,1.2925282716751099,-0.3418886661529541,0.3027758002281189
1776554384698406700,3.33440673828125,1.140803337097168,-0.2120581865310669,0.10425956547260284
1776554384708446700,3.34444677734375,0.9093493223190308,-0.11796656996011734,0.03510606288909912
1776554384718487800,3.35448779296875,0.7815450429916382,-0.04427632316946983,-0.007400444708764553
1776554384728528000,3.36452783203125,0.719757080078125,-0.001550694927573204,0.08231266587972641
1776554384738568000,3.37456787109375,0.7344006896018982,-0.04099392145872116,0.20803335309028625
1776554384748608000,3.38460791015625,0.771467387676239,-0.10006923228502274,0.30785423517227173
1776554384758647300,3.394647216796875,0.6507148742675781,-0.0729619711637497,0.4156969487667084
1776554384768688000,3.404688232421875,0.34490013122558594,-0.025531074032187462,0.452637642621994
1776554384778728200,3.414728271484375,0.10923387110233307,0.0007471876451745629,0.38649651408195496
1776554384788768300,3.424768310546875,-0.03795424476265907,-0.02852628007531166,0.24737535417079926
1776554384798808000,3.43480810546875,-0.10894208401441574,-0.09579016268253326,0.11467310786247253
1776554384808848100,3.44484814453125,-0.11868925392627716,-0.16804838180541992,0.05311920493841171
1776554384818888200,3.45488818359375,-0.09222561866044998,-0.2589849531650543,0.07701774686574936
1776554384828929300,3.46492919921875,-0.06465018540620804,-0.33209219574928284,0.14730627834796906
1776554384838969300,3.47496923828125,-0.05747396498918533,-0.3847188353538513,0.19450870156288147
1776554384849009200,3.485009033203125,-0.039446230977773666,-0.407869428396225,0.19366341829299927
1776554384859049000,3.495049072265625,0.2145564705133438,-0.4724695384502411,0.16129489243030548
1776554384869089000,3.505089111328125,0.539630115032196,-0.25160160660743713,0.21244968473911285
1776554384879129000,3.515129150390625,0.6036222577095032,-0.0399404801428318,0.257689505815506
1776554384889170200,3.525170166015625,0.4318435788154602,0.08471357077360153,0.22830736637115479
1776554384899210200,3.535210205078125,0.16905871033668518,0.09064777940511703,0.14814616739749908
1776554384909250300,3.545250244140625,-0.08083342015743256,0.07270899415016174,0.06394101679325104
1776554384919290000,3.5552900390625,-0.20478381216526031,0.024663012474775314,0.01921524479985237
1776554384929330200,3.565330078125,-0.20449219644069672,-0.036899685859680176,-0.004305260255932808
1776554384939370200,3.575370361328125,-0.4545120894908905,-0.0856160894036293,0.0043451134115457535
1776554384949411000,3.5854111328125,-0.5595064163208008,-0.04827430844306946,0.012953782454133034
1776554384959451100,3.595451171875,-0.5075357556343079,0.020248394459486008,0.025346895679831505
1776554384969491200,3.6054912109375,-0.3846478760242462,0.0875302255153656,0.0702323466539383
1776554384979531300,3.61553125,-0.2085283100605011,0.13031092286109924,0.0787869542837143
1776554384989571000,3.625571044921875,-0.046343132853507996,0.15757131576538086,0.05664197355508804
1776554384999611100,3.635611083984375,0.05071161687374115,0.18321184813976288,0.03483375906944275
1776554385009652200,3.64565234375,0.08919376134872437,0.15912969410419464,0.01341342180967331
1776554385019692300,3.6556923828125,0.05442811921238899,0.1764698475599289,0.041903939098119736
1776554385029732400,3.665732421875,-0.03338854759931564,0.21659542620182037,0.1046149954199791
1776554385039772200,3.675772216796875,-0.06650479137897491,0.23648519814014435,0.1761319488286972
1776554385049812000,3.68581201171875,-0.01569434255361557,0.26643696427345276,0.2501760721206665
1776554385059853000,3.69585302734375,0.03349127247929573,0.28774651885032654,0.2900398373603821
1776554385069893000,3.70589306640625,0.009805385954678059,0.28627511858940125,0.28296008706092834
1776554385079933200,3.71593310546875,-0.0021914755925536156,0.2582516372203827,0.23974892497062683
1776554385089973200,3.72597314453125,-0.06580294668674469,0.017338894307613373,0.10525581240653992
1776554385100013300,3.736013427734375,-0.07677163928747177,-0.06417268514633179,0.12858833372592926
1776554385110053000,3.74605322265625,-0.0020630499348044395,-0.06229063495993614,0.1649348884820938
1776554385120094000,3.756093994140625,0.016955658793449402,-0.05157413333654404,0.19013115763664246
1776554385130134000,3.766134033203125,0.017681105062365532,-0.06264489144086838,0.18270333111286163
1776554385140174000,3.776174072265625,0.021295253187417984,-0.03043411299586296,0.17291995882987976
1776554385150214100,3.786214111328125,0.026836492121219635,0.018868453800678253,0.1600571572780609
1776554385160254200,3.796254150390625,0.03624706342816353,0.08546245098114014,0.15302236378192902
1776554385170294300,3.806294189453125,0.050910428166389465,0.12458934634923935,0.14702573418617249
1776554385180335400,3.81633544921875,0.06278345733880997,0.12377265840768814,0.13314348459243774
1776554385190375200,3.826375244140625,0.06896145641803741,0.10924351215362549,0.12211719900369644
1776554385200415200,3.836415283203125,0.06530364602804184,0.11245059967041016,0.12652167677879333
1776554385210455300,3.846455322265625,0.05910594388842583,0.1050986796617508,0.11780674755573273
1776554385220495000,3.8564951171875,0.05976201966404915,0.059762246906757355,0.09213143587112427
1776554385230535200,3.86653515625,0.06559167802333832,0.0011223695473745465,0.06762555986642838
1776554385240576300,3.876576171875,0.06334289908409119,-0.004622705280780792,0.06484118849039078
1776554385250616000,3.886615966796875,0.06492241472005844,0.03417954966425896,0.07250789552927017
1776554385260656000,3.89665625,0.07307527959346771,0.0718146562576294,0.08095918595790863
1776554385270696200,3.9066962890625,0.07934142649173737,0.0854007676243782,0.07241390645503998
1776554385280736300,3.916736328125,0.08906165510416031,0.08511783182621002,0.05984096974134445
1776554385290776300,3.9267763671875,0.09858138859272003,0.06896176934242249,0.03685149922966957
1776554385300817200,3.936817138671875,0.1149904727935791,0.0390019528567791,0.010907121002674103
1776554385310857000,3.94685693359375,0.13302300870418549,0.01168510876595974,-0.016016904264688492
1776554385320897000,3.95689697265625,0.13674959540367126,0.006218225695192814,-0.02782568521797657
1776554385330937000,3.96693701171875,0.12719789147377014,0.012381047010421753,-0.027984941378235817
1776554385340977200,3.97697705078125,0.11398471891880035,-0.007808856666088104,-0.037172213196754456
1776554385351018200,3.987018310546875,0.11996990442276001,-0.05627945065498352,-0.05646175518631935
1776554385361058300,3.997058349609375,0.1423294097185135,-0.09337148070335388,-0.06940410286188126
1776554385371098400,4.007098388671875,0.15264169871807098,-0.08152654021978378,-0.07160281389951706
1776554385381138200,4.01713818359375,0.16253119707107544,-0.06411921232938766,-0.08639103174209595
1776554385391178200,4.02717822265625,0.16920588910579681,-0.051183443516492844,-0.10116145759820938
1776554385401218000,4.037218017578125,0.19502557814121246,-0.05836961045861244,-0.11896605789661407
1776554385411259100,4.047259033203125,0.21836446225643158,-0.05458419397473335,-0.12886981666088104
1776554385421299200,4.05729931640625,0.23695231974124908,-0.07823529839515686,-0.13557745516300201
1776554385431339300,4.06733935546875,0.2391243875026703,-0.09662442654371262,-0.14439810812473297
1776554385441379000,4.077379150390625,0.22811762988567352,-0.14224809408187866,-0.15069898962974548
1776554385451419100,4.087419189453125,0.2505691349506378,-0.21385544538497925,-0.17170919477939606
1776554385461459200,4.097459228515625,0.27331414818763733,-0.26805925369262695,-0.18986882269382477
1776554385471500000,4.1075,0.2853391170501709,-0.31012919545173645,-0.20429649949073792
1776554385481540000,4.1175400390625,0.26988092064857483,-0.30753687024116516,-0.20061896741390228
1776554385491580200,4.127580078125,0.22380663454532623,-0.28907477855682373,-0.1842714101076126
1776554385501620200,4.1376201171875,0.2243441939353943,-0.3000650405883789,-0.17556191980838776
1776554385511660000,4.147659912109375,0.21256956458091736,-0.3117091953754425,-0.17192138731479645
1776554385521700000,4.1577001953125,0.1997728794813156,-0.2878817319869995,-0.16891592741012573
1776554385531741200,4.1677412109375,0.21378031373023987,-0.24911543726921082,-0.16869010031223297
1776554385541781200,4.17778125,0.22609102725982666,-0.19466757774353027,-0.16845160722732544
1776554385551821300,4.1878212890625,0.20895197987556458,-0.13030590116977692,-0.17512096464633942
1776554385561861400,4.197861328125,0.276062548160553,-0.15289728343486786,-0.17627111077308655
1776554385571901200,4.207901123046875,0.32930687069892883,-0.2028115838766098,-0.1732926368713379
1776554385581941200,4.217941162109375,0.3607580363750458,-0.27111947536468506,-0.15703409910202026
1776554385591982000,4.227982177734375,0.37884435057640076,-0.3617633581161499,-0.13080595433712006
1776554385602022100,4.238022216796875,0.33662620186805725,-0.4067935645580292,-0.08522453159093857
1776554385612062200,4.248062255859375,0.3211907744407654,-0.4556862711906433,-0.03288089856505394
1776554385622102300,4.258102294921875,0.3563828766345978,-0.4879593253135681,0.00916629284620285
1776554385632142000,4.26814208984375,0.3644333481788635,-0.43404948711395264,0.053012311458587646
1776554385642182100,4.27818212890625,0.3440632224082947,-0.27378183603286743,0.08557303249835968
1776554385652223200,4.28822314453125,0.31233006715774536,-0.0956302136182785,0.06612715870141983
1776554385662263000,4.298262939453125,0.2937397360801697,0.045813463628292084,-0.0016226472798734903
1776554385672303000,4.30830322265625,0.2027733325958252,0.22362367808818817,-0.07891982793807983
1776554385682343200,4.31834326171875,0.12428492307662964,0.3013581335544586,-0.14426368474960327
1776554385692383200,4.32838330078125,0.06756171584129333,0.1902231127023697,-0.1826065480709076
1776554385702424300,4.33842431640625,0.03679618984460831,-0.0009432274382561445,-0.15491215884685516
1776554385712464100,4.348464111328125,0.03801858052611351,-0.17236636579036713,-0.07769487798213959
1776554385722504200,4.358504150390625,0.015395484864711761,-0.2766018807888031,0.03039051778614521
1776554385732544300,4.368544189453125,0.0036352314054965973,-0.3048979640007019,0.1528479903936386
1776554385742584300,4.378584228515625,0.09186750650405884,-0.3887982666492462,0.21209606528282166
1776554385752624400,4.388624267578125,0.20706918835639954,-0.4140429198741913,0.2464686930179596
1776554385762665200,4.398665283203125,0.2965134382247925,-0.3208180069923401,0.24538655579090118
1776554385772706300,4.408706298828125,0.32354211807250977,-0.15900886058807373,0.23956196010112762
1776554385782746000,4.41874609375,0.3187616765499115,0.005726391449570656,0.203806534409523
1776554385792786200,4.4287861328125,0.2828763723373413,0.074979767203331,0.15830828249454498
1776554385802826200,4.438826171875,0.24345701932907104,0.05181734636425972,0.07607078552246094
1776554385812866300,4.4488662109375,0.20608940720558167,0.02059151604771614,-0.007812400348484516
1776554385822907100,4.4589072265625,0.18339475989341736,-0.013260775245726109,-0.06721510738134384
1776554385832947200,4.468947265625,0.20413146913051605,-0.06887024641036987,-0.1325507014989853
1776554385842987000,4.478987060546875,0.23300598561763763,-0.07335788011550903,-0.16487149894237518
1776554385853027000,4.489027099609375,0.24615640938282013,-0.07951617240905762,-0.17106680572032928
1776554385863067100,4.499067138671875,0.25089001655578613,-0.10818414390087128,-0.13647353649139404
1776554385873107200,4.509107177734375,0.2593032121658325,-0.13522695004940033,-0.11570007354021072
1776554385883148300,4.519148193359375,0.2813827395439148,-0.13417766988277435,-0.08787334710359573
1776554385893188400,4.529188232421875,0.3096042573451996,-0.08506523817777634,-0.05974264442920685
1776554385903228200,4.539228271484375,0.33930596709251404,-0.019008619710803032,-0.04370288550853729
1776554385913268000,4.54926806640625,0.37075871229171753,0.04483826830983162,-0.04485363885760307
1776554385923308000,4.55930810546875,0.41383612155914307,0.07123418897390366,-0.05928903818130493
1776554385933348000,4.56934814453125,0.4117310345172882,0.09498915821313858,-0.0757359117269516
1776554385943389200,4.57938916015625,0.37385955452919006,0.11094122380018234,-0.07406528294086456
1776554385953429200,4.58942919921875,0.31657734513282776,0.09806830435991287,-0.06696156412363052
1776554385963469300,4.59946923828125,0.2818783223628998,-0.018147461116313934,-0.03791731968522072
1776554385973509000,4.609509033203125,0.2412683218717575,-0.17455463111400604,0.013196464627981186
1776554385983549200,4.619549072265625,0.21660909056663513,-0.27938440442085266,0.06316091120243073
1776554385993589200,4.62958935546875,0.197060689330101,-0.2673322558403015,0.12330227345228195
1776554386003630000,4.639630126953125,0.17759357392787933,-0.19034922122955322,0.15770812332630157
1776554386013670100,4.649670166015625,0.15780283510684967,-0.08242248743772507,0.14084525406360626
1776554386023710200,4.659710205078125,0.10648684948682785,0.029404984787106514,0.0660553053021431
1776554386033750000,4.66975,0.012437314726412296,0.10673466324806213,-0.009759834036231041
1776554386043790000,4.6797900390625,-0.0734092965722084,0.09558144211769104,-0.08129152655601501
1776554386053830100,4.689830078125,-0.14192311465740204,-0.05124661326408386,-0.08494777977466583
1776554386063871200,4.699871337890625,-0.13588641583919525,-0.25365546345710754,-0.007130042649805546
1776554386073911300,4.709911376953125,-0.06675314903259277,-0.4262312352657318,0.10860880464315414
1776554386083951400,4.719951416015625,0.007252915762364864,-0.49222123622894287,0.2263089418411255
1776554386093991200,4.7299912109375,0.10547934472560883,-0.46863362193107605,0.27648210525512695
1776554386104031000,4.740031005859375,0.19221612811088562,-0.3737487196922302,0.2730576694011688
1776554386114072000,4.750072021484375,0.23752182722091675,-0.2279113531112671,0.23470869660377502
1776554386124112100,4.760112060546875,0.20986151695251465,-0.10530036687850952,0.1960398256778717
1776554386134152200,4.770152099609375,0.11535471677780151,-0.02634536474943161,0.163105309009552
1776554386144192300,4.780192138671875,0.031592581421136856,0.010845202021300793,0.13443440198898315
1776554386154232300,4.790232421875,0.045849546790122986,0.027199940755963326,0.10614284873008728
1776554386164272000,4.800272216796875,0.1003684550523758,-0.014091731980443,0.09361007809638977
1776554386174313000,4.81031298828125,0.13058069348335266,-0.057451456785202026,0.11947976052761078
1776554386184353000,4.82035302734375,0.10464881360530853,-0.052848346531391144,0.16951952874660492
1776554386194393000,4.83039306640625,0.05809568241238594,0.00027506041806191206,0.20676463842391968
1776554386204433200,4.84043310546875,0.01041547954082489,0.0713694766163826,0.19078053534030914
1776554386214473200,4.85047314453125,-0.02767038717865944,0.13411247730255127,0.11118664592504501
1776554386224513300,4.86051318359375,-0.03125204145908356,0.12343096733093262,0.002922229003161192
1776554386234554400,4.870554443359375,0.021218091249465942,0.027639467269182205,-0.044523052871227264
1776554386244594200,4.88059423828125,0.07268097251653671,-0.02106468938291073,0.0236175749450922
1776554386254634200,4.89063427734375,0.10259173810482025,-0.005706503987312317,0.15100134909152985
1776554386264674300,4.90067431640625,0.10964807868003845,0.038016896694898605,0.24014000594615936
1776554386274714000,4.910714111328125,0.0728282779455185,0.07723727077245712,0.22925247251987457
1776554386284754200,4.920754150390625,0.02856042981147766,0.10690057277679443,0.14705230295658112
1776554386294795300,4.930795166015625,0.03077138587832451,0.08465652167797089,0.09426552802324295
1776554386304835000,4.9408349609375,0.045492712408304214,0.08630416542291641,0.13019439578056335
1776554386314875100,4.950875244140625,0.06196330115199089,0.12026399374008179,0.21619266271591187
1776554386324915200,4.960915283203125,0.07415839284658432,0.15574614703655243,0.285986989736557
1776554386334955300,4.970955322265625,0.07682102173566818,0.17733505368232727,0.27647310495376587
1776554386344995300,4.980995361328125,0.05429074913263321,0.17569604516029358,0.2019030898809433
1776554386355036200,4.9910361328125,0.033812638372182846,0.13994602859020233,0.11113589257001877
1776554386365076000,5.001075927734375,0.041528839617967606,0.07605626434087753,0.06575661152601242
1776554386375116000,5.011115966796875,0.032440803945064545,0.04536600038409233,0.10074920952320099
1776554386385156000,5.021156005859375,0.0376904271543026,0.07121490687131882,0.19774554669857025
1776554386395196200,5.031196044921875,0.057596754282712936,0.10011047124862671,0.294918954372406
1776554386405236200,5.041236328125,0.06260378658771515,0.1248217299580574,0.3583764433860779
1776554386415277300,5.05127734375,0.023554924875497818,0.17020012438297272,0.3649355471134186
1776554386425317400,5.0613173828125,-0.04360277205705643,0.2509077489376068,0.31359463930130005
1776554386435357200,5.071357177734375,-0.11123321205377579,0.3285687267780304,0.22062957286834717
1776554386445397200,5.081397216796875,-0.15586580336093903,0.3870556950569153,0.1217036098241806
1776554386455437000,5.09143701171875,-0.1590120643377304,0.4307272732257843,0.058823179453611374
1776554386465478100,5.10147802734375,-0.11916264146566391,0.43356844782829285,0.06070796772837639
1776554386475518200,5.111518310546875,-0.07507054507732391,0.3895442485809326,0.11467771977186203
1776554386485558300,5.121558349609375,-0.04118946194648743,0.2989571988582611,0.17895813286304474
1776554386495598000,5.13159814453125,-0.018418900668621063,0.16661673784255981,0.22497516870498657
1776554386505638100,5.14163818359375,0.0010542524978518486,0.06531206518411636,0.24392840266227722
1776554386515678200,5.15167822265625,0.008580612018704414,0.017778100445866585,0.23638206720352173
1776554386525719000,5.161718994140625,0.010405580513179302,0.030210483819246292,0.2106475681066513
1776554386535759000,5.171759033203125,0.015977714210748672,0.0777662843465805,0.17243148386478424
1776554386545799200,5.181799072265625,0.01934172585606575,0.12584970891475677,0.1257379651069641
1776554386555839000,5.1918388671875,0.024857133626937866,0.1694810837507248,0.07883917540311813
1776554386565879000,5.201879150390625,0.03846833482384682,0.18432308733463287,0.0447397455573082
1776554386575919000,5.211919189453125,0.03746139630675316,0.1580968201160431,0.028235867619514465
1776554386585960200,5.221960205078125,0.02823185920715332,0.11528372764587402,0.014794930815696716
1776554386596000300,5.232000244140625,0.017981085926294327,0.06481469422578812,0.0036171111278235912
1776554386606040300,5.242040283203125,0.007035884074866772,0.03356606513261795,-0.008565741591155529
1776554386616080400,5.252080322265625,0.0018355287611484528,0.019201243296265602,-0.02207782305777073
1776554386626120200,5.2621201171875,0.0005949363112449646,0.015263545326888561,-0.04224624112248421
1776554386636160300,5.27216015625,-0.006236338056623936,0.015323732979595661,-0.06521759927272797
1776554386646201000,5.282201171875,-0.010602276772260666,0.004293825477361679,-0.08788201957941055
1776554386656241200,5.2922412109375,-0.005605121608823538,-0.0011161195579916239,-0.09828299283981323
1776554386666281200,5.30228125,0.0010392507538199425,0.008042171597480774,-0.10126684606075287
1776554386676321300,5.3123212890625,0.018834494054317474,0.02571677230298519,-0.09003869444131851
1776554386686361000,5.322361083984375,0.034457363188266754,0.03699350357055664,-0.07065754383802414
1776554386696401200,5.332401123046875,0.030363552272319794,0.0077874138951301575,-0.05256403610110283
1776554386706442200,5.342442138671875,0.010549322701990604,-0.06528078019618988,-0.04475925862789154
1776554386716482000,5.35248193359375,-0.004931898321956396,-0.12321038544178009,-0.041228704154491425
1776554386726522000,5.362522216796875,-0.02013475075364113,-0.12471970170736313,-0.05151693522930145
1776554386736562200,5.372562255859375,-0.0318894125521183,-0.05000898987054825,-0.0695398822426796
1776554386746602000,5.38260205078125,-0.044179435819387436,-0.013348071835935116,-0.09310442209243774
1776554386756642000,5.39264208984375,-0.06171821430325508,-0.016550788655877113,-0.10183479636907578
1776554386766682600,5.4026826171875,-0.06571517139673233,-0.02483295649290085,-0.09077215194702148
1776554386776722700,5.41272265625,-0.06250206381082535,-0.012226086109876633,-0.059674426913261414
1776554386786762800,5.4227626953125,-0.06696034222841263,-0.013278563506901264,-0.03660351410508156
1776554386796802800,5.432802734375,-0.0874461755156517,-0.03645658493041992,-0.030802883207798004
1776554386806842600,5.442842529296875,-0.08738566190004349,-0.05959354341030121,-0.004935576114803553
1776554386816882700,5.452882568359375,-0.07608161121606827,-0.09608444571495056,0.03523154929280281
1776554386826923500,5.462923583984375,-0.0693175345659256,-0.1396099328994751,0.06670056283473969
1776554386836963600,5.472963623046875,-0.059409238398075104,-0.17142938077449799,0.08009439706802368
1776554386847003600,5.483003662109375,-0.04920807108283043,-0.16744917631149292,0.09417736530303955
1776554386857043700,5.493043701171875,-0.0348254032433033,-0.1484517753124237,0.10838160663843155
1776554386867083800,5.503083740234375,-0.029960811138153076,-0.12711821496486664,0.1210971549153328
1776554386877123600,5.51312353515625,-0.024128753691911697,-0.12343132495880127,0.11237264424562454
1776554386887164700,5.52316455078125,-0.025744471698999405,-0.13592548668384552,0.10681722313165665
1776554386897204700,5.533204833984375,-0.03461865708231926,-0.14171066880226135,0.1016371101140976
1776554386907244800,5.543244873046875,-0.04407595470547676,-0.13511179387569427,0.09870155155658722
1776554386917284600,5.55328466796875,-0.04773407429456711,-0.10970470309257507,0.08889179676771164
1776554386927324700,5.56332470703125,-0.04733417555689812,-0.064084492623806,0.07550758123397827
1776554386937364500,5.573364501953125,-0.0471767820417881,-0.015167010948061943,0.06440246850252151
1776554386947405600,5.583405517578125,-0.03688517585396767,0.02123541757464409,0.05865539237856865
1776554386957445600,5.593445556640625,-0.025869010016322136,0.03833823651075363,0.05811050906777382
1776554386967485700,5.603485595703125,-0.01583055779337883,0.046995218843221664,0.06114296242594719
1776554386977525800,5.61352587890625,-0.009855490177869797,0.056861694902181625,0.06124788895249367
1776554386987565800,5.62356591796875,-0.0025906218215823174,0.07113347202539444,0.05400277301669121
1776554386997605600,5.633605712890625,-0.0005623586475849152,0.08733534812927246,0.03426448628306389
1776554387007646500,5.643646484375,0.010157350450754166,0.09683872759342194,0.007460687309503555
1776554387017686500,5.6536865234375,0.017974261194467545,0.09922359138727188,-0.01598578318953514
1776554387027726600,5.6637265625,0.02618836984038353,0.09946577250957489,-0.02810794487595558
1776554387037766700,5.6737666015625,0.02854686602950096,0.09397966414690018,-0.03779013454914093
1776554387047806700,5.683806640625,0.03474869951605797,0.09482330083847046,-0.04273604229092598
1776554387057846800,5.6938466796875,0.04600215330719948,0.09779857844114304,-0.04970686510205269
1776554387067887900,5.703887939453125,0.05533098429441452,0.10740844160318375,-0.0649421289563179
1776554387077927700,5.713927734375,0.059642910957336426,0.12192106992006302,-0.08029365539550781
1776554387087967700,5.7239677734375,0.058172598481178284,0.13523586094379425,-0.09235384315252304
1776554387098007600,5.734007568359375,0.053444959223270416,0.15156103670597076,-0.1120242178440094
1776554387108047600,5.744047607421875,0.041486069560050964,0.16576021909713745,-0.12707871198654175
1776554387118087700,5.754087646484375,0.03118043579161167,0.17754603922367096,-0.13261063396930695
1776554387128128800,5.764128662109375,0.023781072348356247,0.17979960143566132,-0.13548186421394348
1776554387138168600,5.77416845703125,0.026489771902561188,0.1589614301919937,-0.12193011492490768
1776554387148208600,5.784208740234375,0.03519362583756447,0.13004375994205475,-0.10607953369617462
1776554387158248700,5.794248779296875,0.04525531455874443,0.08682332187891006,-0.08772608637809753
1776554387168288800,5.804288818359375,0.04901854693889618,0.04255881533026695,-0.06726498156785965
1776554387178328800,5.814328857421875,0.04427838698029518,0.01589231751859188,-0.05138029530644417
1776554387188369700,5.82436962890625,0.032318904995918274,0.0005207650829106569,-0.042788878083229065
1776554387198409500,5.834409423828125,0.012964917346835136,-0.008007208816707134,-0.039009854197502136
1776554387208449500,5.844449462890625,-0.0004028966650366783,-0.01294177956879139,-0.03390872851014137
1776554387218489600,5.854489501953125,-0.020641323179006577,-0.024833858013153076,-0.030603215098381042
1776554387228529700,5.86452978515625,-0.025852957740426064,-0.04933276027441025,-0.020385736599564552
1776554387238569700,5.87456982421875,-0.025098484009504318,-0.07779663056135178,-0.0042839981615543365
1776554387248610800,5.88461083984375,-0.023170236498117447,-0.10140980780124664,0.016736013814806938
1776554387258651000,5.89465087890625,-0.027746878564357758,-0.11614907532930374,0.03888339176774025
1776554387268690700,5.904690673828125,-0.03801833465695381,-0.11876887828111649,0.055368922650814056
1776554387278730800,5.914730712890625,-0.051453448832035065,-0.11747884750366211,0.049479078501462936
1776554387288770600,5.9247705078125,-0.058898333460092545,-0.1003916785120964,0.0437382273375988
1776554387298810600,5.934810546875,-0.05435284972190857,-0.0748080238699913,0.031116442754864693
1776554387308850700,5.9448505859375,-0.035166312009096146,-0.0586489774286747,0.03483530506491661
1776554387318891800,5.954891845703125,-0.016871461644768715,-0.030636250972747803,0.03933364897966385
1776554387328931600,5.964931640625,-0.0016935672610998154,0.008770382031798363,0.042550284415483475
1776554387338971600,5.9749716796875,0.023163311183452606,0.043564844876527786,0.051392510533332825
1776554387349011700,5.98501171875,0.03971325606107712,0.044444650411605835,0.06266853213310242
1776554387359051800,5.9950517578125,0.055399008095264435,0.03052430786192417,0.09724435210227966
1776554387369091800,6.005091796875,0.061745092272758484,0.014655593782663345,0.13891811668872833
1776554387379132700,6.015132568359375,0.0686008632183075,0.014930964447557926,0.18079233169555664
1776554387389172700,6.0251728515625,0.07415302842855453,0.04057704657316208,0.2158776819705963
1776554387399212500,6.035212646484375,0.08123517036437988,0.0557919517159462,0.21908466517925262
1776554387409252600,6.045252685546875,0.07939022034406662,0.0574134886264801,0.18429021537303925
1776554387419292700,6.055292724609375,0.06625178456306458,0.049122802913188934,0.12609215080738068
1776554387429332700,6.065332763671875,0.034018926322460175,0.04069529101252556,0.07164326310157776
1776554387439372800,6.075372802734375,-0.018468782305717468,0.0555911511182785,0.0334002748131752
1776554387449414000,6.085413818359375,-0.061507195234298706,0.08950211852788925,0.029080074280500412
1776554387459453700,6.09545361328125,-0.09626118093729019,0.11607886850833893,0.04710807651281357
1776554387469493500,6.105493408203125,-0.11670135706663132,0.13013005256652832,0.08668139576911926
1776554387479533600,6.115533447265625,-0.12214939296245575,0.12552863359451294,0.13387660682201385
1776554387489573600,6.12557373046875,-0.11498941481113434,0.1209593415260315,0.18176992237567902
1776554387499613700,6.13561376953125,-0.09544049203395844,0.085635706782341,0.2176504135131836
1776554387509654800,6.14565478515625,-0.08063927292823792,0.0236094631254673,0.2395946979522705
1776554387519694600,6.155694580078125,-0.06902869045734406,-0.061752837151288986,0.24406081438064575
1776554387529734700,6.165734619140625,-0.07906632125377655,-0.16057294607162476,0.23340128362178802
1776554387539774700,6.175774658203125,-0.09729672223329544,-0.2292151302099228,0.23549000918865204
1776554387549814800,6.185814697265625,-0.1138889342546463,-0.2590230703353882,0.25610965490341187
1776554387559854800,6.195854736328125,-0.14318636059761047,-0.25102347135543823,0.2622503936290741
1776554387569895000,6.20589501953125,-0.16248126327991486,-0.21318060159683228,0.21819418668746948
1776554387579935700,6.215935791015625,-0.18070687353610992,-0.16580776870250702,0.12946245074272156
1776554387589975600,6.2259755859375,-0.170488640666008,-0.11422383040189743,0.03722351789474487
1776554387600015600,6.236015625,-0.13453489542007446,-0.05026082322001457,-0.0425858274102211
1776554387610055700,6.2460556640625,-0.10316523909568787,0.04243171960115433,-0.13276976346969604
1776554387620095700,6.256095703125,-0.07511735707521439,0.12332124263048172,-0.23857316374778748
1776554387630135800,6.2661357421875,-0.041067786514759064,0.16685423254966736,-0.3142959773540497
1776554387640177000,6.276177001953125,0.001072477549314499,0.1903694123029709,-0.33358925580978394
1776554387650216700,6.286216796875,0.03975062072277069,0.16962957382202148,-0.3372807800769806
1776554387660256500,6.296256591796875,0.05538443475961685,0.1022726371884346,-0.3534400165081024
1776554387670296600,6.306296630859375,0.04308581352233887,0.003541461192071438,-0.3686676323413849
1776554387680336600,6.316336669921875,0.03190985694527626,-0.12112696468830109,-0.3503863513469696
1776554387690376700,6.326376708984375,0.020114675164222717,-0.2521919012069702,-0.33032649755477905
1776554387700416500,6.33641650390625,0.014841084368526936,-0.369221568107605,-0.30653116106987
1776554387710457600,6.34645751953125,0.02041318267583847,-0.4363531768321991,-0.27730250358581543
1776554387720497700,6.35649755859375,0.03684302046895027,-0.4520208239555359,-0.24218261241912842
1776554387730537700,6.366537841796875,0.06527115404605865,-0.4321971833705902,-0.20678135752677917
1776554387740577800,6.376577880859375,0.0940716415643692,-0.39164334535598755,-0.17041003704071045
1776554387750617900,6.386617919921875,0.11221913993358612,-0.33867937326431274,-0.11565444618463516
1776554387760657700,6.39665771484375,0.12305048108100891,-0.2753176987171173,-0.06634841859340668
1776554387770697500,6.406697509765625,0.09919969737529755,-0.19121421873569489,-0.039665620774030685
1776554387780738600,6.416738525390625,0.05501332879066467,-0.07584822922945023,-0.0494985468685627
1776554387790778600,6.426778564453125,0.009053220972418785,0.049576286226511,-0.09074947237968445
1776554387800818700,6.436818603515625,-0.032156798988580704,0.15130771696567535,-0.1380046010017395
1776554387810858800,6.446858642578125,-0.07146765291690826,0.21311648190021515,-0.17614516615867615
1776554387820898800,6.45689892578125,-0.09868621826171875,0.22840461134910583,-0.17963416874408722
1776554387830938600,6.466938720703125,-0.12200116366147995,0.17533953487873077,-0.13043475151062012
1776554387840979500,6.4769794921875,-0.13732685148715973,0.07875680178403854,-0.04651135578751564
1776554387851019500,6.48701953125,-0.1431528627872467,-0.018025659024715424,0.04064416140317917
1776554387861059600,6.4970595703125,-0.12283027917146683,-0.10452034324407578,0.11041338741779327
1776554387871099600,6.507099609375,-0.08656462281942368,-0.1831253468990326,0.15797612071037292
1776554387881139700,6.5171396484375,-0.04507311061024666,-0.23593051731586456,0.18940381705760956
1776554387891179500,6.527179443359375,-0.019488850608468056,-0.25922971963882446,0.21215642988681793
1776554387901219600,6.537219482421875,-0.008638333529233932,-0.26425379514694214,0.22779904305934906
1776554387911259600,6.547259765625,-0.00873421411961317,-0.2559235095977783,0.23675066232681274
1776554387921300700,6.55730078125,-0.006604484282433987,-0.24624638259410858,0.22307851910591125
1776554387931340800,6.5673408203125,0.0002848803997039795,-0.22426944971084595,0.1835698038339615
1776554387941380900,6.577380859375,0.015779417008161545,-0.1739221215248108,0.11703898757696152
1776554387951420700,6.587420654296875,0.036789484322071075,-0.11690525710582733,0.04546588286757469
1776554387961460500,6.59746044921875,0.04935241490602493,-0.04332718253135681,-0.002759436843916774
1776554387971500500,6.60750048828125,0.06860119849443436,0.024313542991876602,-0.02607920952141285
1776554387981541600,6.617541748046875,0.07964559644460678,0.07865214347839355,-0.029432130977511406
1776554387991581700,6.627581787109375,0.08144897222518921,0.11252961307764053,-0.022054720669984818
1776554388001621800,6.637621826171875,0.07815278321504593,0.13240185379981995,-0.014544075354933739
1776554388011661800,6.647661865234375,0.07544860988855362,0.1301695853471756,-0.016135046258568764
1776554388021701600,6.65770166015625,0.07655355334281921,0.11508544534444809,-0.02676798403263092
1776554388031741700,6.66774169921875,0.08084382861852646,0.09440085291862488,-0.03931063413619995
1776554388041781800,6.67778173828125,0.09385576844215393,0.10915263742208481,-0.04293306544423103
1776554388051822600,6.687822509765625,0.11689475178718567,0.10285303741693497,-0.03715747594833374
1776554388061862700,6.697862548828125,0.1230999082326889,0.15073533356189728,-0.032023169100284576
1776554388071902700,6.70790283203125,0.1303635835647583,0.20630581676959991,-0.03880388289690018
1776554388081942500,6.717942626953125,0.12055035680532455,0.25964710116386414,-0.041368238627910614
1776554388091982600,6.727982666015625,0.10298451781272888,0.30801674723625183,-0.04786904528737068
1776554388102022700,6.738022705078125,0.0753994956612587,0.35141775012016296,-0.07029126584529877
1776554388112062700,6.748062744140625,0.04917353764176369,0.3844295144081116,-0.09522002935409546
1776554388122103800,6.758103759765625,0.028234433382749557,0.3927958309650421,-0.11932270228862762
1776554388132143600,6.7681435546875,0.02326536923646927,0.36881980299949646,-0.12882035970687866
1776554388142183700,6.77818359375,0.02754373848438263,0.31748977303504944,-0.12650234997272491
1776554388152223500,6.788223388671875,0.03535894304513931,0.24579234421253204,-0.11207364499568939
1776554388162263600,6.798263671875,0.04871097207069397,0.159294992685318,-0.08981813490390778
1776554388172303600,6.8083037109375,0.0533067062497139,0.07966361194849014,-0.06403344124555588
1776554388182343700,6.81834375,0.05500393360853195,0.021114017814397812,-0.04491060972213745
1776554388192384800,6.828384765625,0.050200920552015305,-0.003294226247817278,-0.033242836594581604
1776554388202424800,6.8384248046875,0.04555317014455795,-0.0034430972300469875,-0.028967665508389473
1776554388212464600,6.848464599609375,0.03918538615107536,0.001891467603854835,-0.02414657548069954
1776554388222504700,6.858504638671875,0.03538665547966957,0.018978575244545937,-0.020988332107663155
1776554388232544800,6.868544677734375,0.03261951357126236,0.03650277853012085,-0.011073756963014603
1776554388242584800,6.878584716796875,0.02654670551419258,0.04367147386074066,-0.00588538683950901
1776554388252624600,6.888624755859375,0.020595556125044823,0.037402037531137466,-0.0010554040782153606
1776554388262664700,6.898664794921875,0.011402858421206474,0.02153678983449936,0.0045122005976736546
1776554388272705800,6.908705810546875,0.0007397076115012169,0.006363663822412491,0.007141898386180401
1776554388282745600,6.91874560546875,-0.0073951841332018375,-0.000901972409337759,0.003406548872590065
1776554388292785700,6.92878564453125,-0.014158766716718674,-0.006995345000177622,0.0038147608283907175
1776554388302825700,6.93882568359375,-0.016229907050728798,-0.015744095668196678,0.005887232720851898
1776554388312865800,6.94886572265625,-0.012942624278366566,-0.027971504256129265,0.009666882455348969
1776554388322905900,6.95890576171875,-0.006035183556377888,-0.036214254796504974,0.023350205272436142
1776554388332945700,6.968945556640625,-0.0021475255489349365,-0.03828532621264458,0.04164060950279236
1776554388342986500,6.978986572265625,-0.003987504169344902,-0.032788295298814774,0.051965948194265366
1776554388353026600,6.989026611328125,-0.009163256734609604,-0.02253163419663906,0.05313921719789505
1776554388363066600,6.999066650390625,-0.01284188125282526,-0.015284905210137367,0.04897190257906914
1776554388373106700,7.009106689453125,-0.015541013330221176,-0.010989490896463394,0.036549005657434464
1776554388383146800,7.019146728515625,-0.01827634498476982,-0.014864657074213028,0.01848478429019451
1776554388393186600,7.0291865234375,-0.018388712778687477,-0.016409825533628464,0.008804775774478912
1776554388403226600,7.0392265625,-0.01756180077791214,-0.01566360704600811,0.0015966645441949368
1776554388413267700,7.049267822265625,-0.014071816578507423,-0.01263115182518959,0.003317326307296753
1776554388423307800,7.059307861328125,-0.01336235087364912,-0.016009371727705002,0.007748826406896114
1776554388433347600,7.06934765625,-0.003935858141630888,-0.027038315311074257,0.014250324107706547
1776554388443387600,7.0793876953125,0.00843612290918827,-0.026773596182465553,0.017448246479034424
1776554388453427700,7.089427734375,0.013331674039363861,-0.024329429492354393,0.024522822350263596
1776554388463467500,7.099467529296875,0.02107987366616726,-0.019461702555418015,0.03021399676799774
1776554388473507600,7.109507568359375,0.019622500985860825,-0.012688571587204933,0.03018895536661148
1776554388483547600,7.119547607421875,0.017116468399763107,-0.017999446019530296,0.03868177533149719
1776554388493588700,7.129588623046875,0.015622966922819614,-0.030277153477072716,0.03934916481375694
1776554388503628800,7.13962890625,0.010119584389030933,-0.04518010467290878,0.039306700229644775
1776554388513668900,7.1496689453125,0.014254877343773842,-0.058021850883960724,0.03845646232366562
1776554388523708700,7.159708740234375,0.01761551946401596,-0.06831150501966476,0.04742838814854622
1776554388533748700,7.169748779296875,0.02343602478504181,-0.06728696823120117,0.04823615774512291
1776554388543788500,7.17978857421875,0.02572581171989441,-0.06811334937810898,0.04733041673898697
1776554388553828600,7.18982861328125,0.02380894497036934,-0.06137881800532341,0.04894671589136124
1776554388563869700,7.19986962890625,0.017451182007789612,-0.05029420554637909,0.049237266182899475
1776554388573909800,7.20990966796875,0.01265494991093874,-0.03780758008360863,0.045437175780534744
1776554388583949600,7.219949462890625,0.004928055219352245,-0.028097426518797874,0.04024933651089668
1776554388593989600,7.22998974609375,-0.0036620083265006542,-0.019542917609214783,0.03823104873299599
1776554388604029700,7.24002978515625,-0.00608868058770895,-0.014065062627196312,0.035093579441308975
1776554388614069800,7.25006982421875,-0.006304142531007528,-0.012432221323251724,0.02817002311348915
1776554388624109800,7.26010986328125,-0.007195768877863884,-0.011151241138577461,0.022779518738389015
1776554388634150000,7.27014990234375,-0.008758903481066227,-0.00879326555877924,0.020383184775710106
1776554388644190700,7.280190673828125,-0.0070510185323655605,-0.020053111016750336,0.018523233011364937
1776554388654230500,7.29023046875,-0.01057395152747631,-0.02685074508190155,0.017836837098002434
1776554388664270600,7.3002705078125,-0.012623254209756851,-0.03430253639817238,0.024146396666765213
1776554388674310700,7.310310546875,-0.017565149813890457,-0.0361657589673996,0.023518579080700874
1776554388684350700,7.320350830078125,-0.0171520933508873,-0.03298887237906456,0.02872399426996708
1776554388694390800,7.330390869140625,-0.017143305391073227,-0.03318142145872116,0.03163190186023712
1776554388704430600,7.3404306640625,-0.014241792261600494,-0.03917912393808365,0.034295592457056046
1776554388714470700,7.350470703125,-0.009030661545693874,-0.04583556577563286,0.03318023681640625
1776554388724511700,7.36051171875,-0.005327536258846521,-0.051652971655130386,0.025311391800642014
1776554388734551600,7.370551513671875,-0.00571343582123518,-0.05121898278594017,0.023457232862710953
1776554388744591600,7.380591552734375,-0.008704165928065777,-0.043008990585803986,0.01922573521733284
1776554388754631700,7.390631591796875,-0.010680046863853931,-0.04276028648018837,0.012756024487316608
1776554388764671200,7.400671142578125,-0.012164226733148098,-0.035936735570430756,0.005527139641344547
1776554388774711300,7.410711181640625,-0.01676073484122753,-0.023929420858621597,-0.0008241308387368917
1776554388784751400,7.42075146484375,-0.018300574272871017,-0.01636231318116188,-0.0035932858008891344
1776554388794792400,7.43079248046875,-0.01609131693840027,-0.013448098674416542,-0.004759783856570721
1776554388804832500,7.44083251953125,-0.014075837098062038,-0.009681323543190956,-0.007035188376903534
1776554388814872600,7.45087255859375,-0.012786050327122211,-0.003092347178608179,-0.00960306916385889
1776554388824912400,7.460912353515625,-0.011359128169715405,0.00018760212697088718,-0.00896843709051609
1776554388834952400,7.470952392578125,-0.013649612665176392,-0.002010756405070424,-0.009413951076567173
1776554388844992500,7.480992431640625,-0.01198327261954546,-0.004553808830678463,-0.011630767025053501
1776554388855032300,7.4910322265625,-0.015669427812099457,-0.0057604145258665085,-0.012709371745586395
1776554388865072400,7.501072265625,-0.013870196416974068,-0.007899465039372444,-0.012161292135715485
1776554388875112400,7.511112548828125,-0.01197924092411995,-0.0021137245930731297,-0.009636446833610535
1776554388885153500,7.521153564453125,-0.010738207958638668,0.00011054729111492634,-0.013624529354274273
1776554388895193300,7.531193359375,-0.005307514686137438,0.0025541114155203104,-0.018196120858192444
1776554388905233400,7.5412333984375,-0.0022864248603582382,0.001579927047714591,-0.014246653765439987
1776554388915273500,7.5512734375,-0.0006341170519590378,-0.0035022993106395006,-0.012834238819777966
1776554388925313500,7.5613134765625,0.0009898785501718521,-0.0029771237168461084,-0.009369200095534325
1776554388935353600,7.571353515625,0.00072475615888834,0.0023065591230988503,-0.010638686828315258
1776554388945393400,7.581393310546875,0.002524786628782749,0.008335690014064312,-0.012354561127722263
1776554388955433500,7.59143359375,0.006247004494071007,0.011386306956410408,-0.012126422487199306
1776554388965474300,7.601474365234375,0.0031454870477318764,0.011683782562613487,-0.013791963458061218
1776554388975514400,7.611514404296875,0.0032461872324347496,0.004134512040764093,-0.013314913026988506
1776554388985554400,7.621554443359375,0.0015321765094995499,0.002268435200676322,-0.011154291220009327
1776554388995594500,7.631594482421875,0.0012145433574914932,0.009524516761302948,-0.009322209283709526
1776554389005634300,7.64163427734375,0.0005801776424050331,0.014779199846088886,-0.010393865406513214
1776554389015674400,7.65167431640625,0.007355290465056896,0.014694235287606716,-0.011300329118967056
1776554389025714400,7.66171435546875,0.006626916117966175,0.022902363911271095,-0.012718195095658302
1776554389035754500,7.67175439453125,0.008906647562980652,0.02219271846115589,-0.01907147839665413
1776554389045795300,7.68179541015625,0.007376395165920258,0.024400744587183,-0.017014453187584877
1776554389055835400,7.69183544921875,0.006324806250631809,0.02338021621108055,-0.012298050336539745
1776554389065875500,7.70187548828125,0.008171175606548786,0.02217726781964302,-0.016725290566682816
1776554389075915300,7.711915283203125,0.0077774133533239365,0.024154793471097946,-0.01916344091296196
1776554389085955300,7.721955322265625,0.009771056473255157,0.024044271558523178,-0.01989554427564144
1776554389095995400,7.731995361328125,0.006344287656247616,0.018365582451224327,-0.024071207270026207
1776554389106035500,7.742035400390625,0.004730411805212498,0.01176120899617672,-0.02823292836546898
1776554389116075500,7.752075439453125,0.0065933046862483025,0.004886201582849026,-0.02933613955974579
1776554389126116600,7.76211669921875,0.006441771052777767,0.00909319706261158,-0.027388568967580795
1776554389136156400,7.772156494140625,0.008222446776926517,0.008846989832818508,-0.02485520951449871
1776554389146196500,7.782196533203125,0.007864783518016338,0.01345798745751381,-0.022658102214336395
1776554389156236300,7.792236328125,0.007590701803565025,0.02175246924161911,-0.01586752012372017
1776554389166276400,7.8022763671875,0.00545884296298027,0.020507175475358963,-0.0075310273095965385
1776554389176316400,7.81231640625,0.006167476996779442,0.02189761959016323,0.002528454177081585
1776554389186356500,7.8223564453125,0.006303032860159874,0.012038065120577812,0.003293047659099102
1776554389196396300,7.832396240234375,0.002313077449798584,0.0008462914265692234,0.007364419288933277
1776554389206436400,7.842436279296875,0.00027709081768989563,-0.010056956671178341,0.010381515137851238
1776554389216477400,7.8524775390625,0.0005642957985401154,-0.019313180819153786,0.010794009082019329
1776554389226517500,7.862517578125,-0.000935862772166729,-0.024474652484059334,0.008330851793289185
1776554389236557600,7.8725576171875,-0.0034004859626293182,-0.02390917018055916,0.006979120895266533
1776554389246597600,7.88259765625,-0.005729420110583305,-0.03065735287964344,0.0029987599700689316
1776554389256637400,7.892637451171875,-0.007192196324467659,-0.03474362939596176,-0.004047932103276253
1776554389266677500,7.902677490234375,-0.005643568467348814,-0.042581845074892044,-0.007333473768085241
1776554389276717300,7.91271728515625,-0.003374894615262747,-0.045600198209285736,-0.008417405188083649
1776554389286757400,7.92275732421875,-0.0023751435801386833,-0.04310375079512596,-0.009616626426577568
1776554389296798500,7.932798583984375,0.0011673225089907646,-0.04371416196227074,-0.006593542173504829
1776554389306838500,7.942838623046875,0.003299183212220669,-0.04024406149983406,-0.002246198011562228
1776554389316878300,7.95287841796875,0.002126026898622513,-0.03277958184480667,-0.0016362117603421211
1776554389326918400,7.96291845703125,0.0037151342257857323,-0.02433655969798565,0.0024160542525351048
1776554389336958500,7.97295849609375,0.0030456334352493286,-0.018187006935477257,-0.0012344014830887318
1776554389346998500,7.98299853515625,0.0019457479938864708,-0.009918957948684692,-0.005996133666485548
1776554389357038600,7.99303857421875,-0.0033947774209082127,-0.006331115961074829,-0.007105568423867226
1776554389367078700,8.00307861328125,-0.0029894448816776276,-0.006036304868757725,-0.009096547961235046
1776554389377118500,8.013118408203125,-0.006732795853167772,-0.004056186880916357,-0.007539800368249416
1776554389387159300,8.0231591796875,-0.002985461615025997,-0.004342743195593357,-0.009200015105307102
1776554389397199400,8.033199462890625,-0.0019406434148550034,-0.007036549970507622,-0.009527431800961494
1776554389407239400,8.043239501953124,0.0018836557865142822,-0.007122837007045746,-0.007339910604059696
1776554389417279500,8.053279541015625,0.0038042794913053513,-0.007159093394875526,-0.004425362683832645
1776554389427319600,8.063319580078126,0.006836021319031715,-0.0009667109698057175,0.0049012936651706696
1776554389437359400,8.073359375,0.006072263233363628,0.00623190775513649,0.009863972663879395
1776554389447399400,8.0833994140625,0.00457716453820467,0.012898599728941917,0.011626453138887882
1776554389457439500,8.093439453125,0.005808562971651554,0.019788958132267,0.006656446028500795
1776554389467479600,8.1034794921875,0.005765152163803577,0.023007120937108994,0.006515032146126032
1776554389477520400,8.113520263671875,0.006944425404071808,0.0238533616065979,0.0033621233887970448
1776554389487560400,8.123560546875,0.006364654749631882,0.02409730665385723,0.0014656864805147052
1776554389497600300,8.133600341796875,0.004319962114095688,0.022145872935652733,0.0012690380681306124
1776554389507640300,8.143640380859376,0.0003177635371685028,0.024138448759913445,-0.0015656305477023125
1776554389517680400,8.153680419921875,-0.0006677182391285896,0.025518378242850304,-0.00037996028549969196
1776554389527720400,8.163720458984375,-0.0038427389226853848,0.026950625702738762,-0.007410172838717699
1776554389537760500,8.173760498046875,-0.0025089969858527184,0.02512209117412567,-0.004400990903377533
1776554389547800600,8.183800537109375,0.002427171915769577,0.028261957690119743,-0.002839579712599516
1776554389557840400,8.19384033203125,0.008342080749571323,0.029080867767333984,0.004520408343523741
1776554389567881500,8.203881591796875,0.00808508601039648,0.02839057706296444,0.006602467503398657
1776554389577921300,8.21392138671875,0.006802992895245552,0.033455073833465576,0.008885047398507595
1776554389587961300,8.22396142578125,0.002880156971514225,0.03150510787963867,0.012600423768162727
1776554389598001400,8.23400146484375,-0.0010337969288229942,0.026278195902705193,0.016870032995939255
1776554389608041500,8.24404150390625,-0.007343623787164688,0.02734638936817646,0.022545762360095978
1776554389618081300,8.254081298828124,-0.004858810920268297,0.029643861576914787,0.028137028217315674
1776554389628121300,8.264121337890625,0.000040073879063129425,0.03858835622668266,0.025133250281214714
1776554389638161400,8.274161376953124,0.0049725910648703575,0.044251054525375366,0.01985100843012333
1776554389648201500,8.284201416015625,0.003927566111087799,0.03789035975933075,0.01264156587421894
1776554389658242600,8.29424267578125,0.0008914079517126083,0.03416498377919197,0.01093604601919651
1776554389668282600,8.30428271484375,0.0008701030164957047,0.023593567311763763,0.007708295248448849
1776554389678322400,8.314322509765624,-0.0018054209649562836,0.02092256210744381,0.01050597708672285
1776554389688362200,8.3243623046875,0.00004521012306213379,0.025593746453523636,0.008116588927805424
1776554389698402300,8.33440234375,-0.0015251385048031807,0.02816578559577465,0.006826857104897499
1776554389708442400,8.3444423828125,0.00025624968111515045,0.03561331331729889,0.006409539841115475
1776554389718482400,8.354482421875,0.003675631247460842,0.04372774437069893,0.006970896851271391
1776554389728522500,8.3645224609375,0.0033179689198732376,0.0531177818775177,0.0038970764726400375
1776554389738562300,8.374562255859376,0.0061827972531318665,0.049923669546842575,0.001038926187902689
1776554389748603400,8.384603271484375,0.003932425752282143,0.044022370129823685,-0.00004844251088798046
1776554389758643500,8.3946435546875,0.0019801873713731766,0.036422938108444214,0.0017951701302081347
1776554389768684000,8.40468408203125,-0.0003021424636244774,0.026130618527531624,0.0004550674930214882
1776554389778723800,8.414723876953126,0.00010208692401647568,0.025961846113204956,0.0018863047007471323
1776554389788764000,8.424763916015625,-0.0009298883378505707,0.01749911904335022,0.002598966471850872
1776554389798804000,8.434803955078126,0.0008569415658712387,0.008702646940946579,-0.0013866350054740906
1776554389808844000,8.444843994140625,0.0022519053891301155,0.007105815224349499,0.0049314480274915695
1776554389818884000,8.454884033203125,0.0002519190311431885,0.006734342314302921,0.005652647465467453
1776554389828924000,8.464923828125,0.0012695128098130226,0.008898959495127201,0.01550368033349514
1776554389838965000,8.474965087890626,0.0027819694951176643,0.017483696341514587,0.01578971929848194
1776554389849005000,8.485005126953125,-0.00021275505423545837,0.021484030410647392,0.01698680967092514
1776554389859045000,8.495045166015625,0.0004999404773116112,0.023411719128489494,0.013056926429271698
1776554389869085200,8.505085205078124,-0.002413291484117508,0.015511451289057732,0.012166897766292095
1776554389879125000,8.515125,-0.0025961510837078094,0.008593100123107433,0.008590171113610268
1776554389889165000,8.5251650390625,0.0004363907501101494,-0.005228439345955849,0.00669133709743619
1776554389899204900,8.535204833984375,-0.0003778953105211258,-0.0142600042745471,0.005435873754322529
1776554389909245000,8.545244873046874,0.001547303982079029,-0.021467583253979683,0.004780469927936792
1776554389919285000,8.555284912109375,0.0038650818169116974,-0.01701612025499344,0.009541744366288185
1776554389929325000,8.565324951171876,0.0010013850405812263,-0.019117087125778198,0.01414421945810318
1776554389939366100,8.5753662109375,0.0012014396488666534,-0.009825978428125381,0.014093436300754547
1776554389949406200,8.58540625,0.0034653926268219948,-0.0005278182215988636,0.01734861731529236
1776554389959446000,8.595446044921875,-0.0013174936175346375,0.0060499669052660465,0.014783157967031002
1776554389969486000,8.605486083984376,0.0008985232561826706,0.0026317997835576534,0.010816380381584167
1776554389979526100,8.615526123046875,0.0012157177552580833,-0.0014926949515938759,0.006634821183979511
1776554389989566200,8.625566162109376,0.0002836110070347786,-0.006543379742652178,-0.00008113821968436241
1776554389999606000,8.63560595703125,-0.00015580467879772186,-0.015301080420613289,-0.0025745874736458063
1776554390009645800,8.645645751953126,-0.0023979200050234795,-0.023394428193569183,-0.0042901961132884026
1776554390019686000,8.655685791015625,-0.004775521345436573,-0.029089942574501038,-0.004026520997285843
1776554390029727000,8.66572705078125,-0.0022591007873415947,-0.03519231081008911,-0.0017615023534744978
1776554390039767000,8.67576708984375,-0.002117459662258625,-0.03578905761241913,-0.0017771613784134388
1776554390049807000,8.68580712890625,0.00016247201710939407,-0.036968305706977844,0.0018071872182190418
1776554390059847200,8.69584716796875,-0.0013919631019234657,-0.032773420214653015,0.0052994731813669205
1776554390069887200,8.70588720703125,-0.0035714940167963505,-0.028426341712474823,0.005181761458516121
1776554390079927000,8.715927001953125,-0.0049901665188372135,-0.02667408436536789,0.00216379901394248
1776554390089967000,8.725967041015625,-0.004953148774802685,-0.025305751711130142,-0.0028032625559717417
1776554390100007200,8.736007080078124,-0.0021290984004735947,-0.02855125442147255,-0.00534776970744133
1776554390110047000,8.746046875,-0.003674530889838934,-0.02836456708610058,-0.005045234225690365
1776554390120087000,8.756087158203124,-0.002053232863545418,-0.034469690173864365,-0.005165486596524715
1776554390130128100,8.766128173828125,-0.000018044374883174896,-0.035135481506586075,-0.006930629722774029
1776554390140168000,8.77616796875,-0.0028531141579151154,-0.03617135062813759,-0.009142610244452953
1776554390150208000,8.7862080078125,-0.0016661426052451134,-0.032185666263103485,-0.006638706661760807
1776554390160248000,8.796248046875,-0.0018459875136613846,-0.028273973613977432,-0.006411231122910976
1776554390170288000,8.8062880859375,-0.0005144067108631134,-0.015361904166638851,-0.009279987774789333
1776554390180328200,8.816328125,0.0010922383517026901,-0.009737237356603146,-0.014391339384019375
1776554390190368000,8.826367919921875,0.0001348322257399559,-0.0030226099770516157,-0.02522800676524639
1776554390200408000,8.836407958984376,-0.0012204162776470184,-0.0007084968965500593,-0.030420228838920593
1776554390210448100,8.8464482421875,-0.0016595721244812012,-0.0044768694788217545,-0.030593600124120712
1776554390220488200,8.85648828125,-0.0004344908520579338,-0.00731314904987812,-0.029808957129716873
1776554390230529000,8.866529052734375,0.002031862735748291,-0.013359323143959045,-0.025073058903217316
1776554390240569000,8.876569091796876,0.004353640601038933,-0.013152038678526878,-0.02908603474497795
1776554390250609200,8.886609130859375,0.010483439080417156,-0.00937274657189846,-0.02866312488913536
1776554390260649000,8.89664892578125,0.010653313249349594,-0.001636887202039361,-0.029885124415159225
1776554390270689000,8.90668896484375,0.013187844306230545,0.0060396743938326836,-0.030893132090568542
1776554390280729000,8.91672900390625,0.007641056552529335,0.01538766734302044,-0.034778933972120285
1776554390290769200,8.92676904296875,0.006584580987691879,0.016910996288061142,-0.03859018534421921
1776554390300809200,8.936809326171876,0.0013295551761984825,0.018974289298057556,-0.0409855917096138
1776554390310849000,8.94684912109375,0.0018541980534791946,0.015098591335117817,-0.04230651631951332
1776554390320889900,8.956889892578126,0.001148187555372715,0.007368129678070545,-0.041172612458467484
1776554390330930000,8.966929931640625,0.00448832381516695,0.000626071123406291,-0.03375304490327835
1776554390340970000,8.976969970703125,0.005429523065686226,-0.0026797812897711992,-0.02744833193719387
1776554390351010000,8.987010009765624,0.005413278937339783,-0.0035940443631261587,-0.024570787325501442
1776554390361050000,8.997050048828125,0.002525041811168194,0.0017179670976474881,-0.02189798466861248
1776554390371090000,9.00708984375,0.0026797717437148094,0.0019067851826548576,-0.013506096787750721
1776554390381130000,9.0171298828125,0.0029332702979445457,0.001905894256196916,-0.012822607532143593
1776554390391170000,9.027170166015624,0.0022022323682904243,-0.0002925451844930649,-0.014474300667643547
1776554390401210000,9.037210205078125,0.0033006202429533005,-0.0037128343246877193,-0.013713537715375423
1776554390411250200,9.047250244140624,0.003580518066883087,-0.010549968108534813,-0.013307937420904636
1776554390421291000,9.057291015625,0.00021179672330617905,-0.012857929803431034,-0.013866162858903408
1776554390431331000,9.0673310546875,-0.0015911627560853958,-0.016337616369128227,-0.012834454886615276
1776554390441371000,9.077370849609375,-0.003873276524245739,-0.01873806118965149,-0.009369765408337116
1776554390451411000,9.087410888671876,-0.0018516713753342628,-0.016844287514686584,-0.007846969179809093
1776554390461451000,9.097450927734375,-0.003656327724456787,-0.01507442444562912,-0.004121821373701096
1776554390471491000,9.107490966796876,0.0006686458364129066,-0.01189487800002098,-0.0004948622081428766
1776554390481531100,9.11753125,0.004374341107904911,-0.0063253119587898254,-0.0002856329083442688
1776554390491571000,9.127571044921876,0.005204980261623859,-0.0051188999786973,0.004675037227571011
1776554390501611000,9.137611083984375,0.0022153332829475403,-0.0000655059702694416,0.002006488386541605
1776554390511651000,9.147651123046876,-0.0016158903017640114,-0.003318557282909751,0.0035495241172611713
1776554390521692200,9.157692138671875,-0.004627177491784096,-0.005148286931216717,-0.0039036807138472795
1776554390531732000,9.16773193359375,-0.0020409822463989258,-0.004158123396337032,-0.006540210917592049
1776554390541772000,9.17777197265625,-0.0025767479091882706,-0.006513875909149647,-0.011370698921382427
1776554390551811800,9.187811767578125,-0.003169300965964794,-0.003926881588995457,-0.012969128787517548
1776554390561852000,9.197851806640625,-0.003052649088203907,-0.003380296751856804,-0.004796084947884083
1776554390571892000,9.20789208984375,0.00001344829797744751,-0.0006873081438243389,-0.005310608074069023
1776554390581932000,9.21793212890625,0.0005019037052989006,0.0028936690650880337,-0.0007567254360765219
1776554390591972000,9.22797216796875,0.002291814424097538,0.005695846863090992,-0.0019080101046711206
1776554390602012200,9.23801220703125,0.0004888614639639854,0.01003184448927641,-0.006506156176328659
1776554390612052000,9.248052001953125,-0.0028137248009443283,0.008616373874247074,-0.00807262770831585
1776554390622093000,9.258093017578124,-0.0032646325416862965,0.011651753447949886,-0.008663192391395569
1776554390632133000,9.268133056640625,-0.00579596683382988,0.009850125759840012,-0.010185455903410912
1776554390642173000,9.2781728515625,-0.004670025780797005,0.00473096314817667,-0.007256258744746447
1776554390652213000,9.288212890625,-0.003274529241025448,-0.0009607444517314434,-0.009920751675963402
1776554390662253000,9.298253173828124,-0.0050023337826132774,-0.013706925325095654,-0.012681233696639538
1776554390672292900,9.30829296875,0.0008339835330843925,-0.012673884630203247,-0.008549872785806656
1776554390682333000,9.3183330078125,0.003409304656088352,-0.009428257122635841,-0.009432697668671608
1776554390692373000,9.328373046875,0.001687571406364441,-0.005123258102685213,-0.007209490519016981
1776554390702413000,9.3384130859375,-0.0007915934547781944,0.0016537012998014688,-0.006581857800483704
1776554390712453000,9.348453125,0.00025875773280858994,-0.00659011397510767,-0.007284666411578655
1776554390722493000,9.358492919921876,-0.00021804124116897583,-0.0056174322962760925,-0.0031342252623289824
1776554390732534300,9.3685341796875,0.0012011565268039703,-0.005828354507684708,-0.0011040975805372
1776554390742574000,9.378573974609376,-0.0019849231466650963,-0.0062376875430345535,-0.00011662510223686695
1776554390752614100,9.3886142578125,0.003834882751107216,-0.0018495966214686632,0.004246431402862072
1776554390762654000,9.398654052734376,-0.000939931720495224,-0.005467058625072241,0.0048971655778586864
1776554390772693800,9.40869384765625,0.0007085651159286499,-0.0050356267020106316,0.003119771834462881
1776554390782733600,9.418733642578125,-0.0044779786840081215,-0.010907026007771492,0.0038471356965601444
1776554390792773600,9.428773681640624,-0.004597022198140621,-0.014918279834091663,0.0025144899263978004
1776554390802813700,9.438813720703125,-0.006791200488805771,-0.017063723877072334,0.004686564207077026
1776554390812853800,9.448853759765624,-0.004479576367884874,-0.019099444150924683,0.009347895160317421
1776554390822893600,9.4588935546875,-0.006138123106211424,-0.02221052721142769,0.01714864745736122
1776554390832934700,9.4689345703125,-0.006005231291055679,-0.022363658994436264,0.02904418855905533
1776554390842974700,9.478974609375,-0.0071184649132192135,-0.026459692046046257,0.03591606765985489
1776554390853014800,9.489014892578124,-0.004968495108187199,-0.02250809408724308,0.03893981873989105
1776554390863054800,9.499054931640625,-0.006414308678358793,-0.0239605363458395,0.036298967897892
1776554390873095000,9.509094970703124,-0.00797864980995655,-0.021633999422192574,0.03160221874713898
1776554390883134700,9.519134765625,-0.008590628392994404,-0.022490957751870155,0.029402650892734528
1776554390893174500,9.529174560546876,-0.012885508127510548,-0.022555140778422356,0.02881435863673687
1776554390903214600,9.539214599609375,-0.016271259635686874,-0.018765851855278015,0.030505308881402016
1776554390913254700,9.549254638671876,-0.014813179150223732,-0.01957279071211815,0.02433796040713787
1776554390923294700,9.559294677734375,-0.011076759546995163,-0.01927095092833042,0.023520439863204956
1776554390933335800,9.569335693359376,-0.006895063444972038,-0.021104803308844566,0.019887886941432953
1776554390943376000,9.5793759765625,-0.00044266507029533386,-0.017064087092876434,0.016750779002904892
1776554390953415700,9.589415771484376,0.0004508262500166893,-0.0060955919325351715,0.017377421259880066
1776554390963455700,9.599455810546875,-0.000006920658051967621,0.008517409674823284,0.009550271555781364
1776554390973495800,9.609495849609376,-0.0010412922129034996,0.01790132373571396,0.0011586514301598072
1776554390983535900,9.619535888671875,-0.000260218046605587,0.0295467060059309,-0.011517338454723358
1776554390993576000,9.629575927734376,0.0020852284505963326,0.034261833876371384,-0.02122269757091999
1776554391003615700,9.63961572265625,0.005982700735330582,0.032074131071567535,-0.026098430156707764
1776554391013655600,9.649655517578125,0.008840005844831467,0.019992170855402946,-0.029550950974225998
1776554391023695600,9.659695556640624,0.008907437324523926,0.014578468166291714,-0.03220197930932045
1776554391033736700,9.66973681640625,0.008564954623579979,0.012167775072157383,-0.03682469576597214
1776554391043776800,9.67977685546875,0.010541338473558426,0.014079095795750618,-0.03606181964278221
1776554391053816800,9.68981689453125,0.0035334965214133263,0.020378803834319115,-0.03834041953086853
1776554391063856600,9.699856689453124,0.002673504874110222,0.02599800005555153,-0.03959605097770691
1776554391073896700,9.709896728515625,0.005200045183300972,0.032881736755371094,-0.040166232734918594
1776554391083936800,9.719936767578124,0.008626675233244896,0.03356662765145302,-0.03737572580575943
1776554391093976800,9.729976806640625,0.008571814745664597,0.025370215997099876,-0.03750781714916229
1776554391104017000,9.740016845703124,0.008366522379219532,0.023178627714514732,-0.033385299146175385
1776554391114056700,9.750056640625,0.0003924863412976265,0.020654750987887383,-0.027962036430835724
1776554391124096500,9.760096435546876,-0.00638738926500082,0.017136981710791588,-0.018536577001214027
1776554391134136600,9.770136474609375,-0.013082575984299183,0.015688488259911537,-0.013902410864830017
1776554391144177700,9.780177734375,-0.014551299624145031,0.014435411430895329,-0.009652135893702507
1776554391154217700,9.7902177734375,-0.012538482435047626,0.011202600784599781,-0.0005563749000430107
1776554391164257800,9.8002578125,-0.004629133269190788,-0.0028695568908005953,0.002825648058205843
1776554391174297900,9.8102978515625,0.0006596380844712257,-0.01768631860613823,0.007088303565979004
1776554391184337700,9.820337646484376,0.003180079162120819,-0.031299613416194916,0.008868434466421604
1776554391194377700,9.830377685546875,-0.0032695638947188854,-0.029963240027427673,0.01107220072299242
1776554391204417800,9.840417724609376,-0.004128219559788704,-0.03442640230059624,0.005938808433711529
1776554391214457900,9.850457763671875,-0.003970826976001263,-0.039647262543439865,-0.00038939458318054676
1776554391224498000,9.860497802734375,-0.0049903374165296555,-0.04327898845076561,-0.01251118816435337
1776554391234537700,9.870537841796875,-0.00495624914765358,-0.0433381125330925,-0.022708164528012276
1776554391244577500,9.88057763671875,-0.003125559538602829,-0.03570966422557831,-0.025423381477594376
1776554391254618600,9.89061865234375,-0.0009247232228517532,-0.033399373292922974,-0.025606339797377586
1776554391264658700,9.90065869140625,-0.00015267357230186462,-0.02416379377245903,-0.02628278359770775
1776554391274698800,9.91069873046875,0.0036828117445111275,-0.01567257195711136,-0.02520952932536602
1776554391284738800,9.92073876953125,0.007500264793634415,-0.006514003500342369,-0.02490171045064926
1776554391294779000,9.93077880859375,0.008538896217942238,0.0044331857934594154,-0.027031173929572105
1776554391304818700,9.940818603515625,0.01434591505676508,0.016888687387108803,-0.0304225143045187
1776554391314858800,9.950858642578124,0.014903048984706402,0.02241101861000061,-0.03247873857617378
1776554391324898800,9.96089892578125,0.015116416849195957,0.02040695771574974,-0.03343093395233154
1776554391334939000,9.97093896484375,0.014436778612434864,0.007107131648808718,-0.02656264416873455
1776554391344978700,9.980978759765625,0.014162926003336906,0.004617018159478903,-0.02241159975528717
1776554391355018500,9.9910185546875,0.01400260254740715,0.007507612928748131,-0.015299094840884209
1776554391365059600,10.0010595703125,0.011700833216309547,0.012249371036887169,-0.016942264512181282
1776554391375099600,10.011099609375,0.009679228067398071,0.017777826637029648,-0.015050888061523438
1776554391385139700,10.0211396484375,0.00785758811980486,0.02092629112303257,-0.010692570358514786
1776554391395179800,10.0311796875,0.012019042856991291,0.02754903957247734,-0.014390635304152966
1776554391405219800,10.0412197265625,0.011502405628561974,0.026225758716464043,-0.011723808944225311
1776554391415259600,10.051259765625,0.01371043175458908,0.028887588530778885,-0.007655829656869173
1776554391425299700,10.0612998046875,0.012179278768599033,0.020976558327674866,0.00031664432026445866
1776554391435339800,10.07133984375,0.012793404050171375,0.015738919377326965,0.011251050978899002
1776554391445379800,10.0813798828125,0.009177997708320618,0.010309110395610332,0.023937249556183815
1776554391455420000,10.091419921875,0.006941741332411766,0.013138186186552048,0.030802080407738686
1776554391465460700,10.101460693359375,0.006518554873764515,0.01631246693432331,0.03231435269117355
1776554391475500800,10.111500732421876,0.0036407439038157463,0.022333340719342232,0.02993614971637726
1776554391485540600,10.12154052734375,0.0004965672269463539,0.020740902051329613,0.03295795992016792
1776554391495580700,10.13158056640625,-0.005031355656683445,0.017462817952036858,0.04322950541973114
1776554391505620700,10.141620849609374,-0.006502964999526739,0.013033154420554638,0.048012956976890564
1776554391515660800,10.151660888671875,-0.007675554603338242,0.003941654693335295,0.05392597243189812
1776554391525700900,10.161700927734374,-0.00976311694830656,-0.002663917141035199,0.05777125805616379
1776554391535740700,10.17174072265625,-0.008063754066824913,-0.009956717491149902,0.057214658707380295
1776554391545780700,10.18178076171875,-0.005511199124157429,-0.013784241862595081,0.06015064939856529
1776554391555820800,10.19182080078125,-0.0000530509278178215,-0.016766715794801712,0.05544830486178398
1776554391565860900,10.20186083984375,-0.0010059075430035591,-0.01741637848317623,0.05383763089776039
1776554391575901700,10.211901611328125,0.000034322962164878845,-0.012516694143414497,0.049287352710962296
1776554391585941800,10.221941650390624,0.001754959113895893,-0.007651721592992544,0.04174726828932762
1776554391595981800,10.23198193359375,-0.0009492142125964165,-0.003709977027028799,0.032149236649274826
1776554391606021600,10.242021728515626,-0.0012897960841655731,-0.0010689934715628624,0.02577357366681099
1776554391616061700,10.252061767578125,-0.0012106997892260551,0.010068613104522228,0.01735825091600418
1776554391626101800,10.262101806640626,-0.00363547308370471,0.013544496148824692,0.014368264935910702
1776554391636141800,10.272141845703125,-0.002078855410218239,0.020648477599024773,0.008597461506724358
1776554391646182000,10.282181884765626,0.0012591620907187462,0.021190371364355087,0.006362938787788153
1776554391656221700,10.2922216796875,0.0025356151163578033,0.025209881365299225,0.004892074968665838
1776554391666261800,10.30226171875,0.0023076580837368965,0.02569957636296749,0.004710317123681307
1776554391676301800,10.3123017578125,0.003381711430847645,0.026487605646252632,0.003351572435349226
1776554391686342700,10.3223427734375,0.001097758300602436,0.029120687395334244,0.001785825821571052
1776554391696382700,10.3323828125,0.0029292143881320953,0.03149542957544327,0.000020682578906416893
1776554391706422800,10.3424228515625,-0.0001395251601934433,0.03446047380566597,-0.0031729743350297213
1776554391716462600,10.352462646484375,-0.003074861131608486,0.027255825698375702,-0.0023071805480867624
1776554391726502700,10.362502685546875,-0.0011763498187065125,0.02345755137503147,-0.00390449445694685
1776554391736542700,10.372542724609374,-0.0013497211039066315,0.018713928759098053,-0.002801679540425539
1776554391746582800,10.382582763671875,-0.0029548201709985733,0.013860110193490982,-0.0007581058889627457
1776554391756622800,10.392622802734374,-0.0018030023202300072,0.014718180522322655,-0.0013511921279132366
1776554391766662400,10.402662353515625,-0.001658828929066658,0.014058351516723633,-0.002816501073539257
1776554391776702500,10.412702392578124,-0.0008332487195730209,0.012790421023964882,-0.0035699093714356422
1776554391786742500,10.422742431640625,-0.0024197548627853394,0.010964381508529186,-0.00240532704629004
1776554391796783400,10.432783447265624,-0.0032163062132894993,0.010209109634160995,-0.0005847902502864599
1776554391806823400,10.442823486328125,-0.002833140082657337,0.00639022421091795,0.002125489991158247
1776554391816863500,10.452863525390624,-0.0011476259678602219,0.007819809019565582,0.0010378551669418812
1776554391826903300,10.4629033203125,-0.0022334614768624306,0.009011714719235897,0.004221190232783556
1776554391836943400,10.472943359375,-0.004250006750226021,0.009280427359044552,0.004546894691884518
1776554391846983400,10.4829833984375,-0.004020095337182283,0.008696033619344234,0.005111098289489746
1776554391857023500,10.4930234375,-0.003095712512731552,0.006449657492339611,0.006626702845096588
1776554391867063600,10.5030634765625,-0.0069095781072974205,0.004447626415640116,0.007577265612781048
1776554391877103400,10.513103271484376,-0.007917851209640503,-0.002388708060607314,0.00756181962788105
1776554391887143400,10.523143310546875,-0.007766661699861288,-0.008772796019911766,0.004349291790276766
1776554391897183500,10.53318359375,-0.002992679364979267,-0.006661974359303713,0.004691507667303085
1776554391907223600,10.5432236328125,-0.004074120428413153,-0.006881668232381344,0.0016609174199402332
1776554391917264400,10.553264404296876,0.001829574815928936,-0.0030038391705602407,0.007519072853028774
1776554391927304400,10.563304443359375,0.003202434629201889,0.005758759565651417,0.006630642339587212
1776554391937344300,10.57334423828125,-0.0001733889803290367,0.009113810025155544,0.010248812846839428
1776554391947384300,10.58338427734375,0.00006544962525367737,0.009723007678985596,0.004784991033375263
1776554391957424400,10.59342431640625,-0.002891191281378269,0.007975973188877106,0.012004554271697998
1776554391967464400,10.60346435546875,-0.0018993420526385307,0.006828846409916878,0.010982525534927845
1776554391977504500,10.61350439453125,0.0010972470045089722,0.003940914757549763,0.016077419742941856
1776554391987544600,10.623544677734374,0.0024005044251680374,0.005811785347759724,0.010181286372244358
1776554391997584400,10.63358447265625,0.0038761617615818977,0.0034514255821704865,0.006210246589034796
1776554392007624400,10.64362451171875,-0.0006799632683396339,0.0032052905298769474,0.00519039249047637
1776554392017664500,10.65366455078125,-0.0012067370116710663,0.002236698754131794,0.0055712247267365456
1776554392027705300,10.663705322265624,-0.005978317465633154,0.00770453829318285,0.0009456479456275702
1776554392037745400,10.673745361328125,-0.0031942492350935936,0.004385973792523146,0.0033078717533499002
1776554392047785500,10.683785400390626,-0.004813027568161488,0.004692247603088617,-0.0006735746283084154
1776554392057825300,10.6938251953125,-0.005379748530685902,0.002329757437109947,0.0021664202213287354
1776554392067865300,10.703865234375,-0.002479373477399349,-0.0016899690963327885,0.005804343614727259
1776554392077905400,10.713905517578125,0.001733480952680111,-0.0032620332203805447,0.006734852213412523
1776554392087945500,10.723945556640626,-0.00030859652906656265,-0.001936387037858367,0.008712725713849068
1776554392097985500,10.733985595703125,0.0006536031141877174,-0.0006516783032566309,0.00794653408229351
1776554392108025300,10.744025390625,-0.0023769456893205643,0.00022143987007439137,0.00406526867300272
1776554392118065400,10.7540654296875,-0.003685622476041317,0.0015642056241631508,0.002517705550417304
1776554392128105500,10.76410546875,-0.004530264530330896,0.0022639664821326733,0.00577358715236187
1776554392138145500,10.7741455078125,-0.00381547212600708,0.0030621159821748734,0.0016374316764995456
1776554392148186400,10.784186279296875,-0.002917724661529064,0.006763273850083351,0.004757789429277182
1776554392158226400,10.794226318359375,-0.002624776214361191,0.00910552404820919,0.0023939674720168114
1776554392168266500,10.8042666015625,-0.0010285042226314545,0.009183836169540882,0.001831434085033834
1776554392178306300,10.814306396484374,-0.00015552062541246414,0.0131985517218709,0.002028774470090866
1776554392188346400,10.824346435546875,-0.0000303611159324646,0.013176240026950836,0.0004800099413841963
1776554392198386400,10.834386474609374,0.00037230923771858215,0.012974373064935207,-0.0017615726683288813
1776554392208426500,10.844426513671875,-0.000042838044464588165,0.008146623149514198,-0.004148552194237709
1776554392218466600,10.854466552734374,-0.0019240956753492355,0.005712493788450956,-0.0011847203131765127
1776554392228506400,10.86450634765625,-0.0030543599277734756,0.003366900607943535,-0.003532036440446973
1776554392238546400,10.87454638671875,-0.001119573600590229,0.0026142913848161697,-0.0011365229729562998
1776554392248586500,10.88458642578125,0.000012019649147987366,0.002256672829389572,0.001685300376266241
1776554392258626600,10.89462646484375,-0.002133157104253769,0.007742784917354584,0.002518337219953537
1776554392268667400,10.90466748046875,-0.0016397619619965553,0.006852326914668083,0.00453425757586956
1776554392278707500,10.91470751953125,-0.001493021845817566,0.008399623446166515,0.004144903272390366
1776554392288747300,10.924747314453125,-0.0013951761648058891,0.007782612927258015,0.004315444268286228
1776554392298787300,10.934787353515626,-0.0027328813448548317,0.010815687477588654,0.005428912118077278
1776554392308827400,10.944827392578125,-0.0019917143508791924,0.011018825694918633,0.006278329528868198
1776554392318867500,10.954867431640626,-0.0015368470922112465,0.008009986951947212,0.0035336760338395834
1776554392328907500,10.964907470703125,0.002823823131620884,0.003895343514159322,0.004185221157968044
1776554392338947600,10.974947509765625,-0.0012031421065330505,0.0018622863572090864,0.0025260718539357185
1776554392348987400,10.9849873046875,-0.0015275860205292702,-0.0007637063972651958,0.00702985655516386
1776554392359027500,10.99502734375,-0.0009238468483090401,0.0014262108597904444,0.006388301029801369
1776554392369067500,11.005067626953124,-0.0027459608390927315,0.005039468873292208,0.007553705945611
1776554392379107600,11.015107666015625,-0.002855682745575905,0.007168400101363659,0.00658831000328064
1776554392389148400,11.0251484375,-0.00007825810462236404,0.0109860859811306,0.008410116657614708
1776554392399188500,11.0351884765625,-0.0009371275082230568,0.010663043707609177,0.008579227142035961
1776554392409228300,11.045228271484374,-0.0029038619250059128,0.008861621841788292,0.011216691695153713
1776554392419268400,11.055268310546875,-0.0008465703576803207,0.010393206030130386,0.010913623496890068
1776554392429308400,11.065308349609374,-0.004391789436340332,0.009074527770280838,0.011702978983521461
1776554392439348500,11.075348388671875,-0.0015323534607887268,0.007515513338148594,0.011000171303749084
1776554392449388500,11.085388427734374,-0.0019879955798387527,0.004100526217371225,0.00820206105709076
1776554392459428400,11.095428466796875,-0.005711627192795277,0.003182800952345133,0.008492345921695232
1776554392469468400,11.105468505859376,-0.004191170446574688,0.0023547313176095486,0.010320356115698814
1776554392479508500,11.115508544921875,-0.0019261520355939865,0.002165114041417837,0.00785773154348135
1776554392489548500,11.125548583984376,-0.0039019742980599403,0.0005179657600820065,0.012677979655563831
1776554392499588600,11.135588623046875,-0.0035445778630673885,0.0011014642659574747,0.01296932902187109
1776554392509629400,11.14562939453125,-0.0003237864002585411,0.0017596075776964426,0.015240529552102089
1776554392519669500,11.15566943359375,-0.002621827647089958,-0.001154156867414713,0.011138197034597397
1776554392529709300,11.165709228515626,-0.0018252860754728317,-0.001299239695072174,0.009255205281078815
1776554392539749400,11.175749267578125,-0.0020660357549786568,0.0010802948381751776,0.011709308251738548
1776554392549789400,11.18578955078125,-0.0034639746882021427,0.005299408920109272,0.010545693337917328
1776554392559829500,11.19582958984375,-0.005373993888497353,0.0022239903919398785,0.003409753553569317
1776554392569869600,11.20586962890625,-0.004373359028249979,-0.005514463409781456,0.0036463334690779448
1776554392579909400,11.215909423828125,-0.0035238107666373253,-0.003262494457885623,-0.0016568193677812815
1776554392589949400,11.225949462890625,-0.002741360105574131,-0.0005420325323939323,0.002927217399701476
1776554392599989500,11.235989501953124,-0.0019000675529241562,0.006444238126277924,0.0021282690577208996
1776554392610029600,11.246029541015625,-0.000994877889752388,0.010341893881559372,0.005460943095386028
1776554392620069400,11.2560693359375,0.0011138133704662323,0.013545410707592964,0.00581860588863492
1776554392630109200,11.266109130859375,-0.0017711557447910309,0.00914712343364954,0.0031513930298388004
1776554392640150300,11.276150390625,-0.0005551567301154137,0.007422460243105888,0.005157552193850279
1776554392650190300,11.2861904296875,-0.0023345230147242546,0.009053237736225128,0.0019035375444218516
1776554392660230400,11.29623046875,-0.00040133483707904816,0.010047928430140018,0.0012041914742439985
1776554392670270500,11.3062705078125,0.001089322380721569,0.006029377691447735,-0.003184074303135276
1776554392680310500,11.316310546875,-0.0025901012122631073,0.002461806870996952,-0.004771851003170013
1776554392690350600,11.3263505859375,-0.00003881845623254776,0.0007187845185399055,-0.00694772694259882
1776554392700390400,11.336390380859376,0.00024400930851697922,-0.00009454484097659588,-0.005468873307108879
1776554392710430500,11.346430419921875,-0.003655641805380583,0.0024725196417421103,-0.005170661956071854
1776554392720470500,11.356470458984376,-0.0025323210284113884,0.003717547282576561,-0.003967445343732834
1776554392730510600,11.366510498046875,0.00013779755681753159,0.009502123109996319,0.0013327205087989569
1776554392740550400,11.37655029296875,0.0016581965610384941,0.007871469482779503,-0.0014090037439018488
1776554392750590200,11.386590087890625,0.000003069639205932617,0.006633451208472252,0.0005879756063222885
1776554392760630300,11.39663037109375,-0.001721593551337719,0.005703741684556007,-0.0003318802919238806
1776554392770671900,11.406671875,-0.0005762148648500443,0.007438559550791979,-0.0011911625042557716
1776554392780712000,11.4167119140625,-0.002170116640627384,0.006451858207583427,-0.0023051630705595016
1776554392790752000,11.426751953125,-0.0034305034205317497,0.0005288145039230585,-0.0022796380799263716
1776554392800792000,11.4367919921875,-0.002883490175008774,-0.00407126359641552,0.0022418764419853687
1776554392810832100,11.44683203125,-0.0022347932681441307,-0.0032609303016215563,0.00456100981682539
1776554392820872000,11.456871826171875,-0.00505667831748724,0.0009721639798954129,0.001969487639144063
1776554392830912000,11.466912109375,-0.0016382085159420967,-0.00030399812385439873,0.0012160898186266422
1776554392840951800,11.476951904296875,-0.0028155921027064323,0.0005285060033202171,0.001626216690056026
1776554392850991900,11.486991943359374,-0.0025839675217866898,0.001479573082178831,0.003727763658389449
1776554392861032000,11.497031982421875,-0.0017836876213550568,0.00004652608186006546,0.0018337235087528825
1776554392871071700,11.50707177734375,0.0005723675712943077,-0.0031475331634283066,0.005704815499484539
1776554392881111800,11.51711181640625,0.001386762596666813,-0.0031645772978663445,0.003999326843768358
1776554392891152000,11.52715185546875,0.003964546136558056,-0.004359829239547253,0.004287445452064276
1776554392901192000,11.53719189453125,0.004080126993358135,-0.0028391643427312374,0.00342511385679245
1776554392911233000,11.54723291015625,0.005247939378023148,-0.0018134356942027807,0.00234707142226398
1776554392921273000,11.557273193359375,0.004142194986343384,0.002363199833780527,-0.0030602107290178537
1776554392931313200,11.567313232421874,0.0030643222853541374,0.0030940414872020483,-0.0019052240531891584
1776554392941353000,11.57735302734375,0.0028105229139328003,0.0039297412149608135,-0.002328932983800769
1776554392951392800,11.587392822265626,0.003308474086225033,0.002163358498364687,-0.0052978419698774815
1776554392961432800,11.597432861328125,0.0013204244896769524,0.001274395501241088,-0.005522080231457949
1776554392971473000,11.607472900390626,0.0024957656860351562,0.0028128977864980698,-0.004867849871516228
1776554392981513000,11.617512939453125,0.0052276356145739555,0.004113852046430111,-0.0046372199431061745
1776554392991552800,11.627552734375,0.004249699413776398,0.005546916276216507,-0.004297473467886448
1776554393001592800,11.6375927734375,0.003938908688724041,0.00905136950314045,-0.005630119238048792
1776554393011633000,11.6476328125,0.003714345395565033,0.007514552213251591,-0.00127000967040658
1776554393021673000,11.6576728515625,0.002330833114683628,0.004038860090076923,-0.00046067475341260433
1776554393031713000,11.667713134765625,0.00347231887280941,0.000003443099558353424,0.0006290399469435215
1776554393041752800,11.6777529296875,0.0026374179869890213,-0.0038043446838855743,0.0009888329077512026
1776554393051794000,11.6877939453125,0.0006150836125016212,-0.004250209778547287,-0.00046769645996391773
1776554393061834000,11.697833984375,-0.00015563517808914185,-0.0029987902380526066,0.0035885642282664776
1776554393071873800,11.707873779296875,0.002168804407119751,-0.003828710410743952,-0.0013705659657716751
1776554393081913900,11.717913818359374,-0.00014681462198495865,-0.0025346805341541767,0.0009173559956252575
1776554393091954000,11.727953857421875,0.0018774261698126793,-0.003416537307202816,-0.0012913444079458714
1776554393101994000,11.737993896484374,0.0010819397866725922,-0.0036239977926015854,-0.0029105464927852154
1776554393112033800,11.74803369140625,0.0010763294994831085,-0.0030851191841065884,0.0013877905439585447
1776554393122073900,11.758073974609376,0.0015849927440285683,-0.0057243118062615395,0.0004972296301275492
1776554393132114000,11.768114013671875,0.0027640070766210556,-0.003628216218203306,0.00008970825001597404
1776554393142154000,11.778154052734376,0.0018769074231386185,0.0006546792574226856,-0.0018727753777056932
1776554393152194000,11.788194091796875,0.0024742577224969864,-0.001969496952369809,-0.0018130524549633265
1776554393162233900,11.79823388671875,0.0009682402014732361,0.0003407952608540654,-0.002153137931600213
1776554393172274000,11.80827392578125,-0.0026008998975157738,0.007291995920240879,0.0016936721513047814
1776554393182314000,11.81831396484375,-0.0015052752569317818,0.0053122020326554775,-0.0025988107081502676
1776554393192354000,11.82835400390625,-0.00039965659379959106,0.004485439974814653,-0.0017907761503010988
1776554393202395000,11.838394775390626,0.00012898072600364685,0.0022305415477603674,-0.00020699435845017433
1776554393212435000,11.84843505859375,-0.0008264100179076195,0.0012658784398809075,-0.003343557007610798
1776554393222474800,11.858474853515625,-0.0017952676862478256,0.005519479513168335,-0.0030388911254704
1776554393232514800,11.868514892578125,-0.0029086312279105186,0.0009165977826341987,-0.003441539593040943
1776554393242555000,11.878554931640625,-0.0015901001170277596,0.001116601168178022,-0.0059891194105148315
1776554393252595000,11.888594970703124,-0.0007140105590224266,-0.0034452122636139393,-0.005060560069978237
1776554393262635000,11.898635009765625,0.003964364528656006,-0.0018539736047387123,-0.005641128867864609
1776554393272675000,11.908675048828124,0.004344387911260128,-0.0010850573889911175,0.0010248941835016012
1776554393282715000,11.91871484375,0.004513765685260296,-0.0016733496449887753,0.0032220021821558475
1776554393292755000,11.9287548828125,0.0032191434875130653,-0.0006911796517670155,0.001799791818484664
1776554393302795000,11.938794921875,0.003891059197485447,0.002141891047358513,0.00599373783916235
1776554393312835000,11.9488349609375,0.0006377780809998512,0.0021509691141545773,0.004007562063634396
1776554393322875100,11.958875244140625,-0.0015204474329948425,0.003352587344124913,0.0074667418375611305
1776554393332915000,11.9689150390625,-0.0009961482137441635,0.005678707733750343,0.004560080356895924
1776554393342954800,11.978954833984375,0.0004723183810710907,0.0086089838296175,0.0030958743300288916
1776554393352995800,11.988995849609376,0.00017759762704372406,0.006333238445222378,-0.000664484454318881
1776554393363036000,11.999035888671875,0.001723029650747776,0.0011091819033026695,0.001183216692879796
1776554393373076000,12.009075927734376,-0.0011891238391399384,-0.002959820441901684,0.0024249854031950235
1776554393383116000,12.019115966796875,0.0007832124829292297,-0.004463973920792341,0.005758730694651604
1776554393393155800,12.02915576171875,-0.0009133042767643929,-0.0011391050647944212,0.0062658400274813175
1776554393403196000,12.03919580078125,0.005157903768122196,0.005160336382687092,0.004423731472343206
1776554393413236000,12.049236083984376,0.00040545500814914703,0.010252808220684528,0.0073257675394415855
1776554393423276000,12.059276123046875,0.0009114556014537811,0.013124228455126286,0.007946550846099854
1776554393433316000,12.069316162109375,-0.00021434389054775238,0.010943682864308357,0.0075872065499424934
1776554393443356200,12.079356201171874,0.0011830171570181847,0.009575883857905865,0.0007303657475858927
1776554393453396000,12.08939599609375,-0.0027174605056643486,0.004345661029219627,0.002148562576621771
1776554393463435800,12.099435791015624,-0.005018698051571846,0.001213517040014267,-0.00008369912393391132
1776554393473475800,12.109475830078125,-0.00212679710239172,-0.0015213645529001951,0.004597199149429798
1776554393483516000,12.119515869140624,-0.00327115785330534,-0.003011669497936964,0.0018022117437794805
1776554393493556000,12.129555908203125,0.00045591965317726135,-0.0013611859176307917,0.0046232943423092365
1776554393503595800,12.139595703125,0.001060723327100277,0.0012950508389621973,0.002122586127370596
1776554393513636900,12.149636962890625,0.00014590192586183548,0.0070886751636862755,0.001385815441608429
1776554393523677000,12.159677001953124,-0.00028899218887090683,0.008161395788192749,-0.0004445752128958702
1776554393533717000,12.169717041015625,0.003397861495614052,0.008342407643795013,-0.0026921574026346207
1776554393543757000,12.179757080078126,0.003993343561887741,0.006051023490726948,-0.0011163647286593914
1776554393553797000,12.189797119140625,-0.0008791843429207802,0.004808187484741211,-0.001973505597561598
1776554393563837000,12.1998369140625,0.0003413427621126175,0.0001031805295497179,0.001891273888759315
1776554393573876700,12.209876708984375,-0.000021628104150295258,-0.0006713883485645056,-0.0010184913408011198
1776554393583916800,12.219916748046876,-0.00014839507639408112,0.0025241386611014605,-0.0018909426871687174
1776554393593956900,12.229956787109375,-0.00006422679871320724,0.0033793216571211815,-0.0016712951473891735
1776554393603997000,12.239996826171875,-0.00037768110632896423,-0.0013927966356277466,-0.003418328706175089
1776554393614037000,12.250037109375,0.000706980936229229,-0.0005615863483399153,0.00023351889103651047
1776554393624076800,12.260076904296875,-0.001625947654247284,0.0008703953353688121,-0.00042694504372775555
1776554393634116900,12.270116943359374,0.0013051535934209824,0.0014313412830233574,0.0011955932714045048
1776554393644157000,12.280156982421875,0.002195182256400585,-0.0020025388803333044,0.002419049385935068
1776554393654197000,12.290197021484374,0.002654298208653927,-0.001154896803200245,0.00030030147172510624
