time,seconds_elapsed,roll,rotationRateZ,quaternionY,rotationRateY,quaternionZ,quaternionW,yaw,devicelocation,accelerationZ,pitch,gravityX,gravityZ,quaternionX,rotationRateX,accelerationX,gravityY,accelerationY
1776554381782283000,0.418282958984375,1.0461657245226017,-0.023096833378076553,0.4690110751316803,0.02243565395474434,5.934946011158242e-17,0.8557273135161833,0.22287734527374953,left,-0.21295586228370667,-0.3833387542876491,7.871713033789396,-4.555569254688918,-0.21853864741921664,0.11369539797306061,-0.7779760360717773,3.667873981000483,0.38565587997436523
1776554381822283000,0.458282958984375,0.5321880919260232,-0.07252366840839386,0.2530687149001752,0.056113503873348236,-0.10892549130330911,0.9027911279290611,-0.03892555143034329,left,-0.024991273880004883,-0.7094404567319932,3.775492059676349,-6.4115241618603465,-0.3302414290890279,0.239783376455307,-0.3613300025463104,6.388144455316662,0.09841501712799072
1776554381862283000,0.498282958984375,0.20350713461232964,-0.2145867645740509,0.14440125560579511,0.12166289985179901,-0.16089652201625085,0.9016060475873049,-0.26609321040765316,left,-0.012936949729919434,-0.8067623654480968,1.3712104656629263,-6.644619801029562,-0.3746557160071408,0.41268646717071533,-0.11557026207447052,7.080902847838401,0.04468965530395508
1776554381902283000,0.538282958984375,0.11194139837756108,-0.3761497437953949,0.11771343059591215,0.159828782081604,-0.17755609353271135,0.8999146923679479,-0.3413478340046624,left,-0.014631211757659912,-0.8133807662828654,0.7526447790119797,-6.69544631742537,-0.3804875039047684,0.6470513343811035,-0.04978109896183014,7.125650921103358,0.04402816295623779
1776554381942283000,0.578282958984375,0.04755248010685574,-0.5931808948516846,0.09944666814321344,0.15994931757450104,-0.19541011641045647,0.9014167210885651,-0.4070656605041235,left,-0.0027669668197631836,-0.7922173982327064,0.3273663431571796,-6.879114785602688,-0.373327033104412,0.9845922589302063,-0.006285339593887329,6.981475674402714,0.060984015464782715
1776554381982282800,0.61828271484375,-0.0007134721099645087,-0.8358268737792969,0.08426418128978758,0.14846713840961456,-0.21705461766568906,0.9061859213955,-0.47047036469621656,left,-0.00015610456466674805,-0.7428090096390437,-0.00515312557152356,-7.223296471819281,-0.35300689380856354,1.3818259239196777,0.023282241076231003,6.632823564773798,0.08044672012329102
1776554382022283000,0.658282958984375,-0.025097612148418866,-0.8835816979408264,0.07462594755005181,0.12920990586280823,-0.2330021254035773,0.910639115549694,-0.5100912609872572,left,0.010513007640838623,-0.6960996334587028,-0.1888423454175703,-7.522752881124616,-0.3329824134501411,1.5597059726715088,0.028951890766620636,6.28831571534276,0.10408371686935425
1776554382062283000,0.698282958984375,-0.04918186722931585,-0.7952918410301208,0.061891898879935785,0.08680759370326996,-0.2525264726843176,0.9166925860002731,-0.5535926807492203,left,0.010836243629455566,-0.6280607898393156,-0.3901117723403498,-7.925635762634873,-0.30343761839723565,1.6573359966278076,0.03354581072926521,5.762160674428939,0.1161264181137085
1776554382102283000,0.738282958984375,-0.06563371107830589,-0.6354146003723145,0.049063818918211245,0.06650877743959427,-0.269301466949235,0.9226751869939595,-0.5866899217906135,left,0.008069872856140137,-0.5556931109823869,-0.5464076284129172,-8.313153901752829,-0.27155077927676446,1.6594908237457275,0.04393965005874634,5.173325597718358,0.10341709852218628
1776554382142283000,0.778282958984375,-0.07313809930730455,-0.536040723323822,0.03970241198422603,0.06937623023986816,-0.27973039696415297,0.9271106076044888,-0.6047291735431091,left,0.00429302453994751,-0.4993090016431672,-0.6291129457589238,-8.58637463056147,-0.24625274989394427,1.6010884046554565,0.055187031626701355,4.695611639368534,0.058376818895339966
1776554382182283000,0.818282958984375,-0.07859447512385338,-0.442379355430603,0.028954214331595413,0.04609306901693344,-0.29065933236674446,0.9317951290380484,-0.6219813476308378,left,0.01985454559326172,-0.4317039130971432,-0.6993146822974086,-8.879434616827965,-0.21549123699108497,1.506689429283142,0.060517817735672,4.103289889585971,0.009715855121612549
1776554382222283000,0.858282958984375,-0.08209839264290819,-0.3832988142967224,0.018714126568144772,0.03599473834037781,-0.30000236621576193,0.9354590996521872,-0.6359326047761247,left,0.03139042854309082,-0.3672617349392529,-0.7505765213705599,-9.12185571822524,-0.18591542680601084,1.377772569656372,0.0663926750421524,3.5211879205226895,-0.023046821355819702
1776554382262283000,0.898282958984375,-0.08438667519352344,-0.36347687244415283,0.011264638893850007,0.00904284231364727,-0.30638703975775705,0.9374372754032435,-0.6454806027702827,left,0.03445577621459961,-0.32169964381631716,-0.7841649757828563,-9.270456380152702,-0.16495865748858046,1.2400747537612915,0.053498558700084686,3.100662414816022,-0.03242385387420654
1776554382302283000,0.938282958984375,-0.08827264980554413,-0.35027775168418884,0.002371116858624922,-0.03264347463846207,-0.3136570894481995,0.9387870509027374,-0.6569976903633177,left,0.03689330816268921,-0.2723030642873869,-0.8326802926268428,-9.408539155197143,-0.14245132492580853,1.046785831451416,0.034243565052747726,2.637503051519394,-0.036454737186431885
1776554382342283000,0.978282958984375,-0.0941074315755089,-0.3244697153568268,-0.0068857864240188926,-0.09798399358987808,-0.32043478271658216,0.9392716493310653,-0.6683231228970931,left,0.0254402756690979,-0.22795874422748635,-0.8976769348029047,-9.510679094722866,-0.12264952259751079,0.9043565988540649,0.0023779794573783875,2.2162014468736944,-0.04133407771587372
1776554382382283000,1.018282958984375,-0.09819956764438974,-0.3153989613056183,-0.013111835932459693,-0.09835422039031982,-0.3252113148807295,0.9391430860452854,-0.6765437374722258,left,0.016078948974609375,-0.19919266046003906,-0.9424502155743539,-9.566428454473614,-0.10989073843489004,0.8050309419631958,-0.021072037518024445,1.9405214883446693,-0.048317402601242065
1776554382422283000,1.058282958984375,-0.10357649935733167,-0.28141090273857117,-0.0203069032420488,-0.11198407411575317,-0.3306125573998786,0.9386006181041301,-0.6860932427710797,left,0.017175912857055664,-0.16851463237882694,-0.9995608537409454,-9.615926352614164,-0.09649772129016285,0.7565299272537231,-0.04473705589771271,1.6447547273375094,-0.06410541385412216
1776554382462283000,1.098282958984375,-0.11230869077585814,-0.2529986798763275,-0.02938202969670963,-0.11245103180408478,-0.33561265573855587,0.9378498402182772,-0.69501803949443,left,0.002829134464263916,-0.13694733413192697,-1.088767881131172,-9.653630352586507,-0.08329778708470834,0.6943256855010986,-0.05147421360015869,1.3388016494892536,-0.07168055325746536
1776554382502282800,1.13828271484375,-0.12111280283088716,-0.2342853844165802,-0.037375622569842,-0.07894401252269745,-0.3389774660298906,0.9371552298445612,-0.7010005656751249,left,-0.006810545921325684,-0.11311085477033554,-1.1772380456142126,-9.672606855735182,-0.07373848055940016,0.6447753310203552,-0.039338015019893646,1.1068757116865366,-0.0749942883849144
1776554382542283000,1.178282958984375,-0.12975230077451452,-0.21557210385799408,-0.04536297200047805,-0.04543699324131012,-0.3422856092390465,0.9363040684035445,-0.7067576598634329,left,-0.017067134380340576,-0.08922351935075593,-1.2638206427849827,-9.68553414184749,-0.06416685200200238,0.595224916934967,-0.02739429473876953,0.873824276985228,-0.07819323241710663
1776554382582283000,1.218282958984375,-0.13659494808727912,-0.20054727792739868,-0.05277087071995634,0.03929270803928375,-0.3456000745643827,0.9353521588402773,-0.7122475929659708,left,0.006945610046386719,-0.06417217238228796,-1.3326283676818012,-9.69530793236494,-0.05377833898471762,0.5266879796981812,-0.017784059047698975,0.6288830825258046,-0.07047775387763977
1776554382622283000,1.258282958984375,-0.14138300557089215,-0.24349810183048248,-0.06218603977919042,0.008589818142354488,-0.35073096564422857,0.9337430661795038,-0.7202015723968332,left,0.02487236261367798,-0.02226134138537414,-1.3815366293661295,-9.706393974524735,-0.03527771434899745,0.5974241495132446,-0.01653413474559784,0.21829198299208655,-0.0798632800579071
1776554382662283000,1.298282958984375,-0.14365932385835253,-0.39463871717453003,-0.06835057330091082,0.005155464168637991,-0.35615111542744193,0.9316610755779865,-0.7297388781432953,left,0.0036452412605285645,0.007347833707636608,-1.4039378462664782,-9.705366969564556,-0.02218537370365813,0.6094671487808228,-0.010717108845710754,-0.072056177899288,-0.08162970095872879
1776554382702283000,1.338282958984375,-0.14543697290526922,-0.6024237275123596,-0.0749206683197764,-0.008592668920755386,-0.3651646036442895,0.927889646895643,-0.7469368484391637,left,-0.004103541374206543,0.04005993517109436,-1.4200864325128495,-9.695333066806196,-0.007903704394408047,0.6164918541908264,0.0026309043169021606,-0.3927479295302182,-0.07093465328216553
1776554382742282800,1.37828271484375,-0.14596573310614017,-0.6801642179489136,-0.0798286684011599,-0.0312039814889431,-0.3745865963269926,0.9237437122097144,-0.7656923367388566,left,-0.008325576782226562,0.06564225957202804,-1.4232852285541593,-9.68146937662661,0.00313378603955237,0.5936127305030823,0.01676735281944275,-0.6432677278395742,-0.04196283221244812
1776554382782283000,1.418282958984375,-0.1453654559735068,-0.6850262880325317,-0.08529300044191591,-0.01962888240814209,-0.38717294144483,0.9179139301597977,-0.7913446497779336,left,-0.005496323108673096,0.09556649861152405,-1.4140509517408906,-9.658943656563759,0.01600085416259786,0.5256218910217285,0.04280412197113037,-0.9357605817425996,-0.009318128228187561
1776554382822283000,1.458282958984375,-0.14277821528128606,-0.6125911474227905,-0.08935371922800026,-0.0023098476231098175,-0.39939275269599,0.9120092441129435,-0.8168511172889331,left,-0.0005553364753723145,0.12130298328471986,-1.3851697251714765,-9.63553472392559,0.02720984623066671,0.4561963379383087,0.06296610832214355,-1.1866600270193068,0.008260577917098999
1776554382862283000,1.498282958984375,-0.1396334763194834,-0.5617837905883789,-0.0910463805164099,-0.0024560941383242607,-0.4069439425230441,0.9082764288901485,-0.832928237614567,left,-0.007417201995849609,0.1358829453306226,-1.3523098042294381,-9.621685646793246,0.033780257916497795,0.3991634249687195,0.06590726971626282,-1.3284588269121944,0.014051072299480438
1776554382902283000,1.538282958984375,-0.13624549767544564,-0.5109764337539673,-0.09272839605954254,-0.002602340653538704,-0.41444744812547857,0.904437354201281,-0.8490852217319576,left,-0.014458656311035156,0.15041074366176108,-1.3169434534244238,-9.606076574251055,0.04034671762460182,0.34213051199913025,0.0685928538441658,-1.4694694721020758,0.019761189818382263
1776554382942283000,1.578282958984375,-0.12617346333089136,-0.4775678813457489,-0.09147208298411469,0.05559678003191948,-0.4255644681075783,0.8990458590587155,-0.8738361121290835,left,0.0009323358535766602,0.16376525526867497,-1.2175474057793616,-9.598528058567643,0.04737227455185657,0.1958521604537964,0.08058038353919983,-1.5988190517231822,0.0008683353662490845
1776554382982282800,1.61828271484375,-0.11595659001309544,-0.36219263076782227,-0.08904988966802137,0.010531831532716751,-0.4340427361605508,0.8949537420908547,-0.8931403049352683,left,0.015006065368652344,0.17174890276191743,-1.117906151201576,-9.597481764385103,0.05229480666917613,0.19723248481750488,0.075584277510643,-1.676012619910389,-0.014738291501998901
1776554383022283000,1.658282958984375,-0.11030943527123603,-0.20884355902671814,-0.08817277094177048,-0.011713868007063866,-0.4385147331245164,0.892636552407399,-0.90339678907262,left,0.028532981872558594,0.17815551171245253,-1.0624862426009027,-9.592772271519898,0.055949122427846006,0.15881146490573883,0.07291820645332336,-1.737880754802376,-0.0029290765523910522
1776554383062283000,1.698282958984375,-0.10544818996352673,0.02702300250530243,-0.08740207567083491,-0.01605593040585518,-0.44044348740382366,0.8915357979825982,-0.9079775508555108,left,0.03654658794403076,0.18403169917375298,-1.0147487051963806,-9.587502806684375,0.05944983906910553,0.08389146625995636,0.05263890326023102,-1.7945640344023703,-0.006618291139602661
1776554383102283000,1.738282958984375,-0.10435464809322959,0.16495980322360992,-0.08721755734742533,-0.03785090520977974,-0.4388973245309239,0.8922330780105148,-0.9045701792516126,left,0.022398948669433594,0.18591339403593057,-1.0039102080568671,-9.585231354621053,0.06068210331184829,0.0531446747481823,0.04293649271130562,-1.8127023331612349,-0.025018200278282166
1776554383142283000,1.778282958984375,-0.10326724964814601,0.30289655923843384,-0.0870326410240752,-0.0596458800137043,-0.43734916297478627,0.8929264406112218,-0.9011635717781765,left,0.008245289325714111,0.1877987056957419,-0.9931325742591172,-9.582900865846872,0.06191408854132637,0.022397881373763084,0.033240288496017456,-1.8308691273622213,-0.04341520369052887
1776554383182283000,1.818282958984375,-0.10425086553920343,0.29482007026672363,-0.08684824960104211,-0.02231207862496376,-0.43075303493865674,0.8961393444120603,-0.8863532111807839,left,-0.012118756771087646,0.18702016966421608,-1.0027060198988764,-9.583333996567129,0.061994577810627394,-0.037724897265434265,0.02466808259487152,-1.8233679579518733,-0.055837228894233704
1776554383222283000,1.858282958984375,-0.10331452263849056,0.24077290296554565,-0.086148755094594,0.0028000865131616592,-0.4269927076582091,0.89796871385254,-0.8780352195165961,left,0.0031336545944213867,0.1869220485682665,-0.9937507061574608,-9.584446926245093,0.06251089914028722,-0.05725962296128273,0.01748073101043701,-1.8224224937953053,-0.046179160475730896
1776554383262283000,1.898282958984375,-0.10204207444279999,0.18907934427261353,-0.08530956263861662,0.016933247447013855,-0.42312231803384687,0.8998343926561116,-0.8695127708606599,left,0.010912179946899414,0.18692416622908523,-0.9815538532115519,-9.58569955665469,0.06314760011169408,-0.058221351355314255,0.006290435791015625,-1.8224429520614445,-0.0405583530664444
1776554383302283000,1.938282958984375,-0.10102967898424335,0.15820178389549255,-0.08479739381351391,0.0463227778673172,-0.42053615947057266,0.9010430717181572,-0.863835521331412,left,0.011070609092712402,0.18752390971784735,-0.9717384155094623,-9.585599018889665,0.06387377603065489,-0.036603718996047974,0.0032469406723976135,-1.8282216815933585,-0.03407977521419525
1776554383342283000,1.978282958984375,-0.09948745126264895,0.13397815823554993,-0.08430140708670707,0.04051408916711807,-0.4173079920924203,0.9024770308912078,-0.8567722502906219,left,0.001389920711517334,0.18960859495046778,-0.9565734334729611,-9.583273206290603,0.06543945896504105,0.010622285306453705,-0.0047278255224227905,-1.8483030772440134,-0.026507899165153503
1776554383382283000,2.018282958984375,-0.09873262586520555,0.12154681980609894,-0.08411821031667724,0.04675697535276413,-0.41496802698252755,0.9034921037639824,-0.8516348698062759,left,-0.01359713077545166,0.19121383905676473,-0.9490457413818687,-9.581028057712317,0.06654071164967024,-0.014199046418070793,-0.004343412816524506,-1.8637606124863026,-0.01604236662387848
1776554383422283000,2.058282958984375,-0.09799474853047681,0.08542194962501526,-0.08358145041205611,0.05914847552776337,-0.4129171564164546,0.9044647477180345,-0.8471533834130824,left,-0.014631032943725586,0.19094789759019756,-0.942024318312481,-9.582218144279718,0.0667606007185069,-0.06756608933210373,0.007627837359905243,-1.8612001143485306,-0.014528438448905945
1776554383462283000,2.098282958984375,-0.09687761186076489,0.06900852173566818,-0.08258382902769476,0.05501183122396469,-0.4119270360895558,0.9050541792740926,-0.8450590491225879,left,-0.00846487283706665,0.18885546129095657,-0.9316937706951052,-9.587119944846629,0.06612742560789316,-0.09509319067001343,0.008518390357494354,-1.8410491605930028,-0.010846927762031555
1776554383502282800,2.13828271484375,-0.09575647099879415,0.052595097571611404,-0.08158598524731742,0.050875186920166016,-0.4109357867197629,0.9056411632679707,-0.842963161785265,left,-0.0023041963577270508,0.18676533010999868,-0.9213105430424213,-9.59196796939969,0.06549406967534545,-0.12262028455734253,0.009403586387634277,-1.8209123814933001,-0.0071639567613601685
1776554383542283000,2.178282958984375,-0.09256490728119644,0.05685482919216156,-0.07905836309170576,0.07224255800247192,-0.4097632040923458,0.9065053161347284,-0.8406317479289575,left,0.008944034576416016,0.18176457208345634,-0.8915230883482843,-9.603806291231512,0.06396815248102518,-0.09610363095998764,0.016192562878131866,-1.7727020389452575,-0.0047658830881118774
1776554383582283000,2.218282958984375,-0.09030733744246602,0.07236768305301666,-0.07748320605547382,0.0525786355137825,-0.4088345143524844,0.9071011235881369,-0.8387551387808605,left,0.012210071086883545,0.17931634903152818,-0.8702283713851123,-9.610088147979974,0.06338946404139245,-0.07571864873170853,0.008143037557601929,-1.7490834090791643,-0.0013592690229415894
1776554383622283000,2.258282958984375,-0.08804610387878203,0.08788052946329117,-0.07590773932756956,0.03291471302509308,-0.4079041568211921,0.907693274662745,-0.8368737008031563,left,0.015464961528778076,0.17687230789208988,-0.8488688455574214,-9.616260699135065,0.06281052255494476,-0.055333659052848816,0.00008690357208251953,-1.7254945898294447,0.0020503848791122437
1776554383662283000,2.298282958984375,-0.08758087528734224,0.06719350814819336,-0.07499489771227487,-0.015219476073980331,-0.4062388086114008,0.9085916699652693,-0.8332525220618795,left,0.010373532772064209,0.17392823247759845,-0.8448357175838201,-9.621673371833563,0.06170041382957294,-0.06280026584863663,-0.014650270342826843,-1.697066075463593,0.0066406577825546265
1776554383702283000,2.338282958984375,-0.09017005085178856,0.04193951189517975,-0.07550451393734858,-0.023011596873402596,-0.4055022064621993,0.9090027759520902,-0.8314776298395244,left,-0.01566159725189209,0.17085471135059485,-0.8702106165327131,-9.62460358006656,0.05984040232568042,-0.08425883948802948,-0.008046180009841919,-1.6673719250760972,0.0028360188007354736
1776554383742282800,2.37828271484375,-0.0914847999976796,0.025300612673163414,-0.07525184320600803,0.040495097637176514,-0.40504216155748196,0.9093647938471068,-0.8304141196896789,left,-0.013776242733001709,0.16674153049653537,-0.8834828436251729,-9.630199208116531,0.05773789623888434,-0.08934400975704193,0.0016675293445587158,-1.627608654486388,0.006805241107940674
1776554383782283000,2.418282958984375,-0.08999511260939229,0.05547299236059189,-0.07382896792068534,0.07577327638864517,-0.40436937867121764,0.9098603055537365,-0.8290603017298811,left,0.009394288063049316,0.16318901650011727,-0.8696500600405037,-9.637202364876865,0.05646873858339694,-0.0597318634390831,0.001329369843006134,-1.5932434435479341,0.011958196759223938
1776554383822283000,2.458282958984375,-0.08840893982897384,0.08229026943445206,-0.07264255464524343,0.06196688860654831,-0.4032898155877242,0.9104667964829875,-0.8268040598357008,left,0.009160220623016357,0.1611691267398962,-0.8546450908713042,-9.641755790397525,0.05594947929138613,-0.04838487505912781,-0.0008501037955284119,-1.573694985730201,0.01005929708480835
1776554383862283000,2.498282958984375,-0.08689841312347106,0.09981024265289307,-0.07137332930280828,0.05406593531370163,-0.4014104100528242,0.9114360262943509,-0.8227909343516111,left,0.0019832849502563477,0.15879708902034245,-0.8404016075938939,-9.646727149069308,0.055314112796897824,-0.036411382257938385,0.0009013712406158447,-1.5507302897281945,0.00332506000995636
1776554383902283000,2.538282958984375,-0.08532589178782901,0.07848580926656723,-0.07005940908536577,0.0394720733165741,-0.3993767897187002,0.9124694138745367,-0.8184470814695263,left,-0.0019878745079040527,0.15637467251344703,-0.825548614116013,-9.651751114711164,0.05467467730557109,-0.044658418744802475,-0.004298694431781769,-1.5272688962504266,0.002643898129463196
1776554383942283000,2.578282958984375,-0.08483490182649785,0.07305566966533661,-0.06932690853613765,0.019595878198742867,-0.3982697610471221,0.9130598196465217,-0.8160707326287319,left,-0.004890263080596924,0.1541139973887715,-0.821100037209317,-9.655570965260267,0.05382069898752727,-0.07045166939496994,-0.006896622478961945,-1.5053658381305635,0.0073965489864349365
1776554383982282800,2.61828271484375,-0.08472769217805143,0.056841108947992325,-0.06842431581067429,0.01140060368925333,-0.39713073861610665,0.9137245576989655,-0.8136213079077262,left,-0.0058481693267822266,0.1500874114573704,-0.8205711910296231,-9.661620766818523,0.052082305803842724,-0.11094701290130615,-0.004053950309753418,-1.4663343889467417,0.010306701064109802
1776554384022283000,2.658282958984375,-0.08388535274246274,0.038592319935560226,-0.06693234795941438,0.049364011734724045,-0.3963482165904884,0.9143016423279159,-0.8120128428055423,left,-0.004717707633972168,0.1446350968997761,-0.8130903337549418,-9.67013140553236,0.049805397156546374,-0.12671434879302979,-0.0022772103548049927,-1.4134449486717582,0.008243441581726074
1776554384062283000,2.698282958984375,-0.0827438186488489,0.04448506236076355,-0.06554116950624196,0.041827552020549774,-0.39583064931535406,0.9147186899105417,-0.8109897527905334,left,0.0013948678970336914,0.14031314288597377,-0.802548408409208,-9.67705097566247,0.048084061524852256,-0.11711542308330536,-0.002301514148712158,-1.3714905977785588,0.010342225432395935
1776554384102283000,2.738282958984375,-0.08137938236837056,0.06015654653310776,-0.06391336646329587,0.039054471999406815,-0.3948764500172772,0.915344899553161,-0.8090307204065755,left,0.0020717978477478027,0.13540547024875643,-0.7898815998639911,-9.684728670683503,0.04616637644878939,-0.09582652151584625,0.0026868507266044617,-1.3238194766737519,0.01033051311969757
1776554384142283000,2.778282958984375,-0.07954564388699534,0.050167515873909,-0.062172813586543925,0.0677139088511467,-0.39385886325562947,0.915981517201213,-0.8069504717418483,left,-0.009600341320037842,0.13102068020443916,-0.772574856558442,-9.691853992518782,0.04458142091941975,-0.09684107452630997,0.013199545443058014,-1.2812003782615065,0.012388646602630615
1776554384182283000,2.818282958984375,-0.07710925997863326,0.0685410350561142,-0.06003002392763856,0.061707086861133575,-0.39279096711865197,0.9166671519012296,-0.8047951608621494,left,-0.011798977851867676,0.1259811127984903,-0.7494473712101578,-9.700022101405262,0.042812502107218105,-0.12424498796463013,0.0100850909948349,-1.2321866103760897,0.018028371036052704
1776554384222283000,2.858282958984375,-0.0749454478195908,0.08323783427476883,-0.057965890802553904,0.0513826459646225,-0.39154285572803516,0.917421008479426,-0.8022338942947754,left,-0.00565415620803833,0.12072979827880888,-0.7289310182083397,-9.707939450401067,0.04089968719139345,-0.12421843409538269,0.00867539644241333,-1.1810801079951225,0.013178162276744843
1776554384262283000,2.898282958984375,-0.07301385857554886,0.08935277909040451,-0.05598413439010595,0.041281118988990784,-0.3899639722793816,0.9183021316791906,-0.7989414688793174,left,-0.0027277469635009766,0.11540527521761676,-0.7106265691023319,-9.715464000687003,0.03892274879787317,-0.09909360855817795,0.0021112635731697083,-1.129227974878624,0.012643866240978241
1776554384302283000,2.938282958984375,-0.07117484652850051,0.08539672195911407,-0.05431146983074436,0.057838816195726395,-0.3884180986252611,0.9191148885543478,-0.7957010042266277,left,-0.006308615207672119,0.11143064655024049,-0.6930722807765006,-9.721154321283102,0.03754104793609825,-0.06245259568095207,0.009096812456846237,-1.0905006232079117,0.015521541237831116
1776554384342283000,2.978282958984375,-0.06897575631179978,0.05136130750179291,-0.05283276442946697,0.06431618332862854,-0.38742904661488053,0.919640634897692,-0.7936651821597354,left,-0.007050991058349609,0.10919383723844428,-0.6718593238126486,-9.725064188203214,0.036992210419508086,-0.053152211010456085,0.004456035792827606,-1.0686983951140194,0.030231386423110962
1776554384382283000,3.018282958984375,-0.06673554485796934,0.013626467436552048,-0.05119296694451087,0.03991672769188881,-0.3868366814079719,0.9200203179877895,-0.7925010461868452,left,-0.007850706577301025,0.10612825159556388,-0.6502868858866393,-9.729767835849524,0.03604404354942851,-0.08074526488780975,-0.012823745608329773,-1.0388093066763133,0.06051879748702049
1776554384422283000,3.058282958984375,-0.06748488779539467,0.05189678445458412,-0.050886675187893644,-0.04479343816637993,-0.38634353835683494,0.9203072213021777,-0.7914391723255698,left,-0.004521608352661133,0.1028292656440062,-0.6578051525622606,-9.73264426806867,0.034406264919410824,-0.07616913318634033,-0.016699708998203278,-1.0066337147366256,0.08016505837440491
1776554384462283000,3.098282958984375,-0.06823046614398125,0.0901670977473259,-0.05058023135256174,-0.12950359284877777,-0.3858492396531683,0.920591248063688,-0.7903802288633424,left,-0.0012036561965942383,0.09952949406680031,-0.6652842562712729,-9.735411979216337,0.03276837725732882,-0.07159300148487091,-0.020579658448696136,-0.9744395642269402,0.0998094230890274
1776554384502282800,3.13828271484375,-0.07085583794293247,0.13379031419754028,-0.051149412586868566,-0.00015994440764188766,-0.38342581960298866,0.9216309923533079,-0.7850691784205703,left,-0.026271283626556396,0.09661873570757112,-0.6910388752527534,-9.736419694954156,0.031056067936313762,0.05688691884279251,-0.02576620876789093,-0.9460319465186446,0.05648310109972954
1776554384542283000,3.178282958984375,-0.07295692447721715,0.1934940069913864,-0.052313603319516545,0.03279578685760498,-0.37950629130443575,0.9231653592749712,-0.7764714494106113,left,-0.030400753021240234,0.09836384769563723,-0.7113730035554617,-9.733284904059767,0.03168371822000012,0.10516223311424255,-0.007738344371318817,-0.963064329862222,0.019841298460960388
1776554384582283000,3.218282958984375,-0.07507338605408068,0.25319769978523254,-0.0534767786323523,0.06575152277946472,-0.37557933856867687,0.9246817685282025,-0.7678684868818907,left,-0.03453695774078369,0.10009090833629981,-0.7318456635460258,-9.730084646713733,0.03231075065290698,0.153437539935112,0.010303661227226257,-0.9799177033770828,-0.01681876927614212
1776554384622283000,3.258282958984375,-0.07384670875863726,0.2030673772096634,-0.05334620004381847,0.10787834972143173,-0.3712274640907206,0.9263742325656097,-0.7584544664112407,left,-0.01621711254119873,0.10330158664890964,-0.7196735797151923,-9.727787475687265,0.03427924033079903,0.11161758005619049,0.020473774522542953,-1.0112410624016075,-0.03711610287427902
1776554384662283000,3.298282958984375,-0.06762305831427219,0.13058631122112274,-0.05093748163423697,0.1307583451271057,-0.3669696203202963,0.9280886238819134,-0.7494597656003126,left,0.029944658279418945,0.10678901899600815,-0.6588753390770405,-9.728500007870792,0.03728154180117651,0.045130692422389984,0.02074921876192093,-1.0452525645315647,-0.01844676584005356
1776554384702283000,3.338282958984375,-0.06520420739622303,0.08225338160991669,-0.04986597927019133,0.0538364052772522,-0.3652633889125734,0.928785596746737,-0.7458745008972729,left,0.028157174587249756,0.10744478142535167,-0.6352968220256269,-9.729379128792882,0.03811952792273348,-0.004722248762845993,0.003966189920902252,-1.0516465033523739,0.006066828966140747
1776554384742282800,3.37828271484375,-0.06405442002123327,0.05334145575761795,-0.04913911617451857,0.045035529881715775,-0.36367998154656145,0.9294471912347864,-0.7425214450025996,left,-0.0071097612380981445,0.10673150674304367,-0.6241575883738696,-9.730849201345443,0.038080246180318626,-0.016086028888821602,0.005837645381689072,-1.0446917888436467,0.019623778760433197
1776554384782283000,3.418282958984375,-0.06210014978276575,0.04212011769413948,-0.048134188577315745,0.06650502979755402,-0.3627416553656283,0.9298561349331156,-0.7405866534768,left,-0.031651318073272705,0.10640060148145584,-0.605161101883091,-9.732395261743664,0.03832818871898624,0.013486437499523163,0.003780413419008255,-1.0414650818821043,0.028451621532440186
1776554384822283000,3.458282958984375,-0.05866068977429654,0.08476105332374573,-0.04653835391651147,0.1081043928861618,-0.3613658769142269,0.9304377864378155,-0.7377686118376463,left,-0.03324556350708008,0.10672568906369173,-0.5716635040920227,-9.734080438351631,0.03916890079843193,0.04086456447839737,0.0056777223944664,-1.0446350171551109,0.0363781601190567
1776554384862283000,3.498282958984375,-0.05422548829387429,0.09849082678556442,-0.044631732513845966,0.1299065500497818,-0.3594746513917006,0.9311991037145071,-0.7338853633002826,left,-0.017166614532470703,0.10804043148689187,-0.5284105282230303,-9.735140176537632,0.040669290255156886,0.07115109264850616,0.007810845971107483,-1.0574540205873548,0.026942946016788483
1776554384902283000,3.538282958984375,-0.049505121865928196,0.16050921380519867,-0.042828767298201995,0.11985726654529572,-0.3570362780948028,0.9321195438041657,-0.7288487293202861,left,0.007193803787231445,0.11085929628942057,-0.48230194372721014,-9.73451006194055,0.04293951144909341,0.13061846792697906,0.00017461925745010376,-1.0849321754258126,0.046004779636859894
1776554384942283000,3.578282958984375,-0.04651784216824874,0.33890190720558167,-0.041991524414396734,0.08831571042537689,-0.3522480352948372,0.9338438452856628,-0.7187149010217988,left,0.012996912002563477,0.11529549942615148,-0.45299186075385656,-9.73100409964621,0.045755705009818265,0.1537528932094574,-0.002241082489490509,-1.1281585920814423,0.07926787436008453
1776554384982282800,3.61828271484375,-0.045263198872044254,0.5527002811431885,-0.041752391386661196,0.08367029577493668,-0.34358624894179735,0.9369389162361876,-0.7002528676614529,left,0.01353764533996582,0.1198272562735178,-0.44054669560268517,-9.726357735145092,0.048482140822675684,0.17876243591308594,0.003934524953365326,-1.1722932096231728,0.0904056578874588
1776554385022283000,3.658282958984375,-0.04418003113089622,0.6609773635864258,-0.04138515415197014,0.1336144059896469,-0.3316625663669219,0.9410892025954484,-0.6749124239955951,left,-0.004477798938751221,0.1244464517870443,-0.4297673813045025,-9.721315649324655,0.05136265081400136,0.1989806592464447,0.007396537810564041,-1.2172545603126286,0.07821103185415268
1776554385062283000,3.698282958984375,-0.042325497541824963,0.7150346040725708,-0.04042532085940606,0.13670873641967773,-0.31829691459506876,0.94557807463963,-0.646679966022044,left,-0.0004000663757324219,0.12853959578040375,-0.41152386860549445,-9.717036364570259,0.05417395806116732,0.18637394905090332,-0.004848316311836243,-1.2570737988732754,0.08499439060688019
1776554385102283000,3.738282958984375,-0.041599389506161134,0.7602999806404114,-0.039879280555382014,0.08799707889556885,-0.30399190311289975,0.9501406671078574,-0.6165408184869883,left,0.005203425884246826,0.1326529861924917,-0.40424963981881734,-9.712084295120835,0.056843333992865355,0.19278112053871155,-0.011332925409078598,-1.2970689785227179,0.08895749598741531
1776554385142283000,3.778282958984375,-0.042632098327177695,0.7832629680633545,-0.040093240156789695,0.10091295093297958,-0.2890470721870029,0.9546297872987826,-0.5850938288645662,left,-0.0113145112991333,0.13698149272130858,-0.414035997556895,-9.705961428326368,0.05938209943836206,0.16553254425525665,0.003842238336801529,-1.3391319043569265,0.10018132627010345
1776554385182283000,3.818282958984375,-0.044475172603122344,0.817467212677002,-0.04041444515242956,0.045581378042697906,-0.27342756437244853,0.9590890880312569,-0.552326292538464,left,0.0003605484962463379,0.14005387909923614,-0.43173911976888774,-9.701025725489854,0.061253756948581456,0.14255794882774353,-0.005134589970111847,-1.3689730619996785,0.1103225126862526
1776554385222283000,3.858282958984375,-0.04744679520240988,0.8222578167915344,-0.04104565367703526,0.05288299173116684,-0.2575778407183809,0.9633683335597995,-0.519151636777059,left,-0.0000054836273193359375,0.14179349983741676,-0.46045127338171005,-9.697306412705778,0.062371751081043224,0.09945878386497498,0.0012826956808567047,-1.3858638449154794,0.12225474417209625
1776554385262283000,3.898282958984375,-0.05058136732755423,0.903783917427063,-0.04149452021599724,0.037753067910671234,-0.24087706020018407,0.9676327250599233,-0.4843530226494626,left,0.013059675693511963,0.1419925917437336,-0.49083190819602457,-9.695539403033257,0.0627954043405719,0.07255050539970398,-0.006509590893983841,-1.3877967126742004,0.1350632756948471
1776554385302283000,3.938282958984375,-0.055162678167266326,1.1983954906463623,-0.04213244760280917,0.01926623284816742,-0.22095584728307355,0.9724071686447832,-0.443011840646743,left,0.03103691339492798,0.13938997082675933,-0.5354421804254874,-9.69676280734837,0.061867194440284594,-0.01902616024017334,-0.013790454715490341,-1.3625259316869078,0.18908751010894775
1776554385342283000,3.978282958984375,-0.061678066175342855,1.9394030570983887,-0.042659943746944505,0.05946937948465347,-0.19108140103050458,0.9788915660446276,-0.38149298263496717,left,0.04847061634063721,0.13149667055699826,-0.599252754622139,-9.703500591170787,0.05864541013033518,-0.12057586759328842,-0.02375442162156105,-1.2858281841926276,0.25404736399650574
1776554385382283000,4.018282958984375,-0.06935474706124198,3.005300521850586,-0.04264348666385052,0.19036120176315308,-0.1428238099423704,0.9873583938412324,-0.2831817645102725,left,0.03483158349990845,0.11891664125761346,-0.6747926007855684,-9.713983406740427,0.053909279309306675,-0.15014733374118805,-0.03778558224439621,-1.163426889339462,0.25572454929351807
1776554385422283000,4.058282958984375,-0.07570739366729586,3.943002939224243,-0.041411250317205474,0.24042296409606934,-0.07310109275752065,0.9952450540002067,-0.14268239582910128,left,0.06077980995178223,0.10433568455886671,-0.737692782139033,-9.725383337154984,0.04928036230369243,-0.06924214214086533,-0.08665698766708374,-1.021327791325748,0.1655024290084839
1776554385462283000,4.098282958984375,-0.08408319087880699,4.50388765335083,-0.041349877228925844,0.16889798641204834,0.01237162700602187,0.9980540619581978,0.028533356707811222,left,0.07382017374038696,0.08892297614965977,-0.8203484151244163,-9.733394209653138,0.04500205267881417,-0.03577767312526703,-0.11767958849668503,-0.870887419815734,0.06183472275733948
1776554385502282800,4.13828271484375,-0.09248667155016377,4.4736175537109375,-0.04224198653196207,0.2095438539981842,0.10286836986701978,0.9929919057837835,0.20973126754622937,left,0.030545294284820557,0.070826709645107,-0.9034205199562012,-9.740255912116169,0.040009508890241144,-0.07295490801334381,-0.0951114222407341,-0.6939920259699225,-0.048232778906822205
1776554385542283000,4.178282958984375,-0.0886455446906458,3.8682374954223633,-0.038743898024603755,0.4898501932621002,0.18591700690201468,0.9812365088865034,0.37676550322117464,left,0.03994488716125488,0.05095894838663709,-0.8670500336099416,-9.755464587163925,0.03329635343564199,-0.12868881225585938,-0.08895296603441238,-0.49952027809694405,-0.12978512048721313
1776554385582283000,4.218282958984375,-0.07560574501717549,2.8953819274902344,-0.032197793790520415,0.5000013113021851,0.2519716595345795,0.9668425562529933,0.5111905935504596,left,0.06665325164794922,0.03453938924404193,-0.740290324351564,-9.772802675455807,0.02624956100095381,-0.14761894941329956,-0.06680087745189667,-0.33864841934572903,-0.14840859174728394
1776554385622283000,4.258282958984375,-0.05815154719740204,1.8858089447021484,-0.02440028552063307,0.513240396976471,0.29786950312426097,0.954097939489121,0.6058759831253836,left,0.08909875154495239,0.022440748848507677,-0.5698062223201618,-9.787608614921568,0.019376976793891647,-0.12469296157360077,-0.038539279252290726,-0.2200502248362638,-0.14226645231246948
1776554385662283000,4.298282958984375,-0.03890754280013907,0.9989578723907471,-0.01582702097444044,0.495591938495636,0.3252459540663298,0.9453964953815354,0.6630020362587714,left,0.06072920560836792,0.015770580322825984,-0.3814081683376804,-9.798009597426653,0.013785367204134239,-0.04538687318563461,-0.024592183530330658,-0.15465031735524534,-0.1398008167743683
1776554385702283000,4.338282958984375,-0.01479318104032853,0.21584880352020264,-0.004937220813984783,0.6735749244689941,0.33657904374173747,0.9416068963522867,0.6866848367066962,left,0.08434271812438965,0.012045900559806628,-0.14505489734569563,-9.804865454670786,0.00816112298273678,-0.10002849251031876,0.00002315174788236618,-0.11812726166262291,-0.08542820811271667
1776554385742282800,4.37828271484375,0.015129882020983495,-0.2479405403137207,0.008153807817992062,0.7603501081466675,0.33616972683954055,0.9417660540668294,0.6856713755435236,left,0.12990659475326538,0.006123524765473195,0.1483658850572072,-9.80534359357655,0.0003405090890074797,-0.1204201728105545,-0.008892800658941269,-0.06005106639950536,-0.07302539795637131
1776554385782283000,4.418282958984375,0.043791659472589686,-0.6921554803848267,0.021150283392498317,0.7041806578636169,0.3275396744840019,0.9445826585204364,0.6675016919323723,left,0.11088734865188599,0.0028355340852146025,0.4293114176979288,-9.797208802437781,-0.005833043561813143,-0.029723525047302246,0.0016523152589797974,-0.02780721097959904,-0.10240847617387772
1776554385822283000,4.458282958984375,0.0714286583067973,-0.9673237800598145,0.03385635630293638,0.6623599529266357,0.31099708752866884,0.9497398439652041,0.6329193221986309,left,0.13856881856918335,-0.0004970686846575949,0.6998812301389873,-9.781642399993538,-0.011348120861859134,0.0022969916462898254,-0.01219092309474945,0.004874455331437638,-0.05243462696671486
1776554385862283000,4.498282958984375,0.09144569731022116,-0.986953616142273,0.0437914178901361,0.3307137191295624,0.29207282613724567,0.9553032513222415,0.5934003998054257,left,0.13853394985198975,0.0005587812853369691,0.8955274286188185,-9.765673846489191,-0.013096252460445022,0.2291950285434723,-0.07821992039680481,-0.005479862462237361,-0.06289944052696228
1776554385902283000,4.538282958984375,0.09813887706163087,-1.0348601341247559,0.048710262022019564,0.061061352491378784,0.27260711514460445,0.9608581330517444,0.5523470578126712,left,0.06099730730056763,0.011161825920426818,0.9608106326512992,-9.758854814124106,-0.00801155411636672,0.48255205154418945,-0.10253028571605682,-0.10945791612258181,-0.07544288784265518
1776554385942283000,4.578282958984375,0.1039665168977691,-1.1539336442947388,0.05400860664854744,0.24387553334236145,0.25114503473466593,0.9664405782103068,0.5069413211890198,left,-0.0313185453414917,0.029666572919046962,1.0172806348267942,-9.749405433255433,0.001311117705006577,0.6233091950416565,-0.14663681387901306,-0.2908870809405111,-0.04773068428039551
1776554385982282800,4.61828271484375,0.11960787930668731,-1.065100908279419,0.06400638688763939,0.46606385707855225,0.22850099736744398,0.971371084066171,0.45899783408319383,left,-0.07263761758804321,0.051302537555530464,1.1686193434160201,-9.723775901958346,0.011339121632342972,0.7425315380096436,-0.2081242799758911,-0.5028854071484878,-0.017665360122919083
1776554386022283000,4.658282958984375,0.14478229556287503,-0.8531749248504639,0.07919147965275301,0.6100802421569824,0.20879551162798826,0.9744205954009376,0.41619254733193844,left,-0.12049597501754761,0.08236912194671611,1.4100781025871634,-9.671145551010966,0.025249035939832125,1.060883641242981,-0.17018067836761475,-0.8068520969524979,-0.05348274111747742
1776554386062283000,4.698282958984375,0.1767947855573401,-0.6141411662101746,0.09800185411932368,0.7265077829360962,0.19251764509495675,0.9754321027573977,0.37887327304663554,left,-0.05791217088699341,0.12227944843367715,1.711869530711323,-9.581704934060573,0.04318126184060867,1.1806938648223877,-0.08274319767951965,-1.1961656681198627,0.01053088903427124
1776554386102283000,4.738282958984375,0.20218063654925855,-0.35378068685531616,0.1137615940698053,0.23886290192604065,0.18138399034053113,0.9745973504395145,0.35070979861077256,left,0.004533231258392334,0.1701738239388865,1.9407905145443975,-9.468129992806912,0.06571154791206725,1.444728970527649,-0.041528716683387756,-1.6607922544248401,-0.06253600120544434
1776554386142283000,4.778282958984375,0.21034239115718179,-0.26647642254829407,0.12097179738852218,0.08041870594024658,0.17164529107536375,0.9732727278890154,0.32534314699868516,left,-0.003341197967529297,0.22438066966185943,1.9962496591769157,-9.350092226925492,0.0929719470621205,1.4029213190078735,0.0857628583908081,-2.1820053088918328,0.037561386823654175
1776554386182283000,4.818282958984375,0.20508579475634836,0.031035929918289185,0.12176547819504048,-0.6043780446052551,0.16586027278153348,0.9708028880110803,0.3090512995643479,left,-0.0021021366119384766,0.28359586493457195,1.917362146553397,-9.21762378463149,0.12330905279300679,1.690661072731018,0.005166187882423401,-2.743995925557613,-0.08177018165588379
1776554386222283000,4.858282958984375,0.18309193990805717,0.17882679402828217,0.11462388455263209,-0.6906280517578125,0.16011419135721466,0.967489700061861,0.29546447367094514,left,0.11003684997558594,0.35096355863819834,1.6766636311650276,-9.054932638031243,0.1587081328287333,1.748510479927063,0.06609570980072021,-3.371553823894262,0.06778550148010254
1776554386262283000,4.898282958984375,0.14046475670925268,-0.01801694929599762,0.09887867227440955,-1.2381258010864258,0.1559882844994551,0.9617310574767584,0.29060195379330894,left,-0.13671481609344482,0.433607597964709,1.2459047546051443,-8.811455305579305,0.20239516734979554,2.1353490352630615,0.009861350059509277,-4.1202375172555445,-0.25018057227134705
1776554386302283000,4.938282958984375,0.09898510175535552,0.3618619441986084,0.08261363415992792,-1.0394036769866943,0.14719709389135632,0.9551571553313262,0.2799340025715663,left,-0.004752099514007568,0.5110035140381117,0.8453267890363931,-8.51201935454011,0.2432750652453791,2.0486340522766113,-0.09859596937894821,-4.795970248435437,-0.05876845121383667
1776554386342283000,4.978282958984375,0.05016270617318359,0.025215208530426025,0.06568044471228571,-1.3515455722808838,0.14194969235538402,0.9437335434507326,0.28293459562003065,left,-0.02313375473022461,0.604827669250329,0.4044913396202028,-8.056803643724322,0.29138186905950453,2.420529365539551,0.0038313642144203186,-5.576261086198687,-0.07264286279678345
1776554386382283000,5.018282958984375,-0.0020635670977788515,0.2439640909433365,0.04728856054410108,-1.403791069984436,0.13277087847024516,0.9307285666246715,0.2841411427793314,left,0.17632853984832764,0.695443700101437,-0.015536247051286044,-7.529229968184232,0.3374609403131924,2.3764188289642334,0.0023481969255954027,-6.283377674418688,0.07242566347122192
1776554386422283000,5.058282958984375,-0.0836668215498438,0.3583418130874634,0.020478828856884353,-1.8049565553665161,0.12398761421008092,0.9133477662020073,0.3049048506370684,left,0.05415397882461548,0.793143711358822,-0.5749915890688077,-6.856362271046638,0.3873027498524705,2.3656017780303955,0.0954519510269165,-6.987851054653525,0.06880444288253784
1776554386462283000,5.098282958984375,-0.18812811056786735,0.3519531786441803,-0.010863483926140609,-1.88731849193573,0.11395096647234229,0.893352826079152,0.34308301907205896,left,0.11355966329574585,0.884983184201022,-1.1615033739309757,-6.100995738920569,0.434531645321175,2.2660419940948486,0.08739292621612549,-7.589410003858804,0.07534557580947876
1776554386502282800,5.13828271484375,-0.32348375687673986,0.294882208108902,-0.04751840053029983,-2.2505927085876465,0.10244246571792096,0.8711917098415157,0.40486987690140813,left,0.07984858751296997,0.9662106203789186,-1.771913080524653,-5.285188474357128,0.4777785740775192,2.097785472869873,0.04842431843280792,-8.068301189294457,-0.016967356204986572
1776554386542283000,5.178282958984375,-0.47662911259296364,0.2628665566444397,-0.08434312339324695,-2.170592784881592,0.08725341267119682,0.8474396960872241,0.4808955302958043,left,0.14599254727363586,1.0377344987882142,-2.2863486036807297,-4.4280441140159965,0.5168353731973193,1.9756991863250732,0.00664713978767395,-8.446029171282053,0.02743208408355713
1776554386582283000,5.218282958984375,-0.6517940432272796,0.22595185041427612,-0.11927675306190959,-2.0288338661193848,0.07202671111908261,0.8218426829940338,0.5830565707789875,left,0.13978785276412964,1.0991248753439502,-2.7030101274356246,-3.5424268156453964,0.5524124683230042,1.9476631879806519,0.0003387331962585449,-8.735863765761255,-0.01959693431854248
1776554386622283000,5.258282958984375,-0.855680757262317,0.15260396897792816,-0.14971295057408995,-1.795306921005249,0.05875683924141583,0.7935172807757369,0.7240913910692528,left,0.10966968536376953,1.1526760858367056,-3.006420827324688,-2.6109648809447883,0.5869104304134672,1.9952051639556885,-0.05925661325454712,-8.961845773532986,-0.09812957048416138
1776554386662283000,5.298282958984375,-1.0740027169322806,0.1567097008228302,-0.17373439298235904,-1.246667742729187,0.047845757826719036,0.7653943731540569,0.8924792028553558,left,0.10781758278608322,1.1920343818604138,-3.187852914752066,-1.7282826131127773,0.6178174835505039,1.8838634490966797,-0.10802826285362244,-9.111586837667227,-0.11325329542160034
1776554386702283000,5.338282958984375,-1.3054815429143902,-0.11071434617042542,-0.19240765251234027,-1.1696457862854004,0.03931686727946495,0.7375056558222799,1.0850945538483596,left,0.09511321038007736,1.2166962343555596,-3.2814342847689986,-0.8916326131373643,0.6461568349046352,1.7825931310653687,-0.12469989061355591,-9.198235778072476,-0.2637196183204651
1776554386742282800,5.37828271484375,-1.529378369370251,-0.29944339394569397,-0.204151101085805,-1.0033347606658936,0.027786786304092263,0.7113507604551125,1.2757579447173786,left,0.10977338999509811,1.2365356847156255,-3.21451471170634,-0.13321418262738735,0.6719600151948474,1.4769093990325928,-0.10434544086456299,-9.263884016025067,-0.15342116355895996
1776554386782283000,5.418282958984375,-1.7378535574717555,-0.5172114372253418,-0.21019792844116708,-0.7829598188400269,0.015319456165975975,0.6881709177635223,1.4577640607146587,left,0.08608248829841614,1.2503810121331067,-3.0457071280524133,0.513594871080853,0.6942642469720366,1.3712323904037476,-0.08991172909736633,-9.307539033356308,-0.12293738126754761
1776554386822283000,5.458282958984375,-1.9235074474054885,-0.4518318176269531,-0.21361701979110606,-0.7379218935966492,0.0033391997741067728,0.6682556850479879,1.6212665759216949,left,0.07908760756254196,1.2563375256774247,-2.8464836556077002,1.0478026143405585,0.7125944104251225,1.0165753364562988,-0.09086975455284119,-9.325771440139413,-0.05845695734024048
1776554386862283000,5.498282958984375,-2.0882855912259526,-0.35338521003723145,-0.21524654435384238,-0.5007516145706177,-0.006210449232340007,0.6502778173344138,1.7697781632516414,left,0.07587383687496185,1.2538094662505384,-2.656533038420975,1.5121866240613162,0.7285389104304152,1.0514614582061768,-0.10450243949890137,-9.31807387137413,-0.00703275203704834
1776554386902283000,5.538282958984375,-2.215391817242042,-0.19902963936328888,-0.2171479069211306,-0.38892075419425964,-0.011331984256681017,0.6345196596754029,1.8863505486756122,left,0.0662769079208374,1.2411421593779628,-2.5375647136911748,1.9075173366263507,0.7416893266526764,0.9143187403678894,-0.12272733449935913,-9.278605784338712,-0.030218899250030518
1776554386942283000,5.578282958984375,-2.3096982895921387,-0.18119105696678162,-0.21923128292825508,-0.24614828824996948,-0.01479204987115766,0.621167298600164,1.9721486381975135,left,0.016536667943000793,1.225642833146012,-2.452683952002227,2.234587582913786,0.7522432140615938,0.6678116917610168,-0.11589682102203369,-9.22829014007449,-0.07972347736358643
1776554386982282800,5.61828271484375,-2.3737352691706057,-0.12115862965583801,-0.21856563752761546,-0.06029999256134033,-0.01744091310473787,0.6122310134992982,2.03301237193112,left,0.012657031416893005,1.2162686242756802,-2.3646445801518854,2.449091042076796,0.7596696028096126,0.34251320362091064,-0.13100238144397736,-9.196781487610936,-0.1421719789505005
1776554387022283000,5.658282958984375,-2.39369192061208,-0.2657662034034729,-0.2164922063372037,-0.04945092648267746,-0.019140769080911023,0.6106128307512603,2.0535551639021596,left,0.02151516079902649,1.217619355147622,-2.306853193179518,2.4866838367596267,0.7615226015268641,-0.03153201937675476,-0.08466479182243347,-9.201371153488754,-0.14461040496826172
1776554387062283000,5.698282958984375,-2.4205574654622417,-0.390508234500885,-0.21112209391337028,0.03794550150632858,-0.023208201596769975,0.6106685256357643,2.082604699983657,left,0.011293858289718628,1.2271208495911594,-2.181405589433014,2.4819708367630837,0.762871352332483,0.03196478635072708,0.001021072268486023,-9.233183757334947,0.08616632223129272
1776554387102283000,5.738282958984375,-2.4503130884389015,-0.4448637068271637,-0.20366745595297692,0.14408692717552185,-0.02546681720509136,0.6104483943890041,2.1201670802898014,left,0.00695374608039856,1.2356389556368559,-2.0563832253612575,2.4850877997398375,0.7649991743736544,0.01276729628443718,-0.01973305642604828,-9.260995308846235,-0.09896647930145264
1776554387142283000,5.778282958984375,-2.49508655457086,-0.646920382976532,-0.1935566107767665,0.09763440489768982,-0.031087201245913267,0.6113997112353344,2.1718990231402784,left,0.020667850971221924,1.2516369752838827,-1.8535997223474083,2.4560569355666635,0.7666549711236452,-0.08572879433631897,0.017135336995124817,-9.311410906353592,-0.0346561074256897
1776554387182283000,5.818282958984375,-2.5561064211489892,-0.6443548202514648,-0.18293654474487728,0.02514718472957611,-0.03853391342656812,0.6118550858888807,2.2379422539185394,left,0.02269737422466278,1.2682862563914121,-1.6144699175804853,2.4349599331326783,0.768558767909383,-0.012525975704193115,0.04841692000627518,-9.361348364955186,0.018047749996185303
1776554387222283000,5.858282958984375,-2.617169250269474,-0.489001601934433,-0.1745181161812853,-0.08915720134973526,-0.04566182248991244,0.6116939628878416,2.30117318766796,left,0.029295414686203003,1.2808357557602015,-1.4039303936123848,2.4270561742708088,0.7702524270754377,-0.0482952855527401,0.0027547329664230347,-9.397274249339103,0.030799508094787598
1776554387262283000,5.898282958984375,-2.666176716452758,-0.2449713796377182,-0.1702130998811242,-0.10956805944442749,-0.052156732567564854,0.6110531644343686,2.347185422508008,left,0.017429158091545105,1.2883621452372171,-1.2509393877714872,2.4299625632368027,0.771311261045485,-0.041110809892416,0.009279385209083557,-9.41811070114076,0.05657774209976196
1776554387302283000,5.938282958984375,-2.690909458807613,-0.07985499501228333,-0.16923678637627723,-0.07620874047279358,-0.055660352384187164,0.6101656631357514,2.3683057397726897,left,0.012057453393936157,1.2902899112437634,-1.182555952701345,2.443814416848123,0.7719836290938443,0.0023877546191215515,0.008268289268016815,-9.423362045797704,0.0236055850982666
1776554387342283000,5.978282958984375,-2.703427364725391,-0.07526241987943649,-0.16934899704842618,-0.06017115339636803,-0.05720371961699741,0.6090457413020971,2.3784038951923256,left,0.0023894011974334717,1.2892638796014726,-1.1559730662021785,2.467177172257006,0.772730158549849,0.030706152319908142,0.0013092681765556335,-9.420571538296342,0.007373213768005371
1776554387382283000,6.018282958984375,-2.717042216395979,-0.07215465605258942,-0.16965705616211518,-0.12069912254810333,-0.059319929685455346,0.6080637193851867,2.3885009042575587,left,0.028659671545028687,1.2889032531946287,-1.1236770627532153,2.485784257571399,0.7732762502482389,0.022869430482387543,0.002392202615737915,-9.419588372477888,0.0004571080207824707
1776554387422283000,6.058282958984375,-2.738065138315213,-0.1366744190454483,-0.16916578106646946,-0.0535707026720047,-0.0620546200741626,0.6068226304664006,2.406275071714123,left,0.012749582529067993,1.2889039835777996,-1.0711688768807799,2.5088439383804797,0.7741436083761769,0.051278628408908844,0.03412608057260513,-9.419590126043557,0.007931351661682129
1776554387462283000,6.098282958984375,-2.7495605612958816,-0.04351317882537842,-0.16841598894649873,-0.019268527626991272,-0.06299368160430964,0.6060005734262136,2.417482319451146,left,0.025974273681640625,1.2883173851350476,-1.0443679637167602,2.5260934716060754,0.7748747867421109,-0.017647743225097656,0.04000674933195114,-9.417988536065817,0.0240897536277771
1776554387502282800,6.13828271484375,-2.7492986424177603,0.1022476851940155,-0.1683556334974676,0.05942758917808533,-0.06327748251199972,0.6063905633611254,2.416923456264089,left,0.033438801765441895,1.2894324711582263,-1.0410162421360611,2.5161197746023536,0.7745597069258644,-0.06611639261245728,-0.0012946650385856628,-9.421030972501635,0.0422176718711853
1776554387542283000,6.178282958984375,-2.735285900533452,0.18149034678936005,-0.17070494787976825,-0.03227044641971588,-0.06199832912481272,0.6060475723555935,2.4012882405420957,left,-0.03041394054889679,1.2864114121670975,-1.0874145668260753,2.5274194595128296,0.7744173945087205,0.07123251259326935,-0.029063217341899872,-9.41276174132824,0.004813015460968018
1776554387582283000,6.218282958984375,-2.7203595366813764,0.07507774978876114,-0.17183934603754097,0.10467344522476196,-0.05956922728312914,0.6058564574044005,2.388161993198438,left,-0.026421114802360535,1.2832845542304345,-1.137045589827001,2.5377532220005987,0.7745066813975828,-0.06718030571937561,0.0009296983480453491,-9.404111986404656,-0.024731338024139404
1776554387622283000,6.258282958984375,-2.718810283127321,-0.10881688445806503,-0.17109425491109284,-0.07184775173664093,-0.05922490898688472,0.6064533255948028,2.388223719665226,left,0.0427146852016449,1.2846397997090835,-1.135745540079102,2.5243635790735484,0.774230861419121,-0.032112859189510345,0.014898106455802917,-9.40787221572101,-0.012322187423706055
1776554387662283000,6.298282958984375,-2.727346823011049,-0.014371179044246674,-0.17060802312229373,-0.040959473699331284,-0.06113960937501314,0.6069285464833903,2.394761988822489,left,0.018102198839187622,1.2875919072147746,-1.102973443550989,2.5085358953446146,0.773816898081846,-0.00016519799828529358,0.02534712851047516,-9.416002915206551,0.041935741901397705
1776554387702283000,6.338282958984375,-2.7231332304487825,0.09577479213476181,-0.1714582992608214,0.04380730167031288,-0.061146370573782395,0.6070885492183775,2.389304361506974,left,-0.0069262683391571045,1.2874934135840153,-1.1139072177585214,2.5047064001843333,0.7735027409613819,-0.05832445248961449,0.018125317990779877,-9.415732866093515,0.02689516544342041
1776554387742282800,6.37828271484375,-2.709794809020036,0.0884808823466301,-0.17196057913550417,0.04837630316615105,-0.059500502687629936,0.6078168833429048,2.3776178955420937,left,-0.004858136177062988,1.2873038574798716,-1.1479618283778428,2.491244861064851,0.7729473789255805,-0.03778420388698578,-0.03603016585111618,-9.415213226133584,0.005048513412475586
1776554387782283000,6.418282958984375,-2.6970172445971965,0.025545746088027954,-0.17081895819437778,0.18964189291000366,-0.05718452742288203,0.609119511331272,2.3698776974315314,left,-0.011196359992027283,1.2885882842591199,-1.1744971494082361,2.4654537094652653,0.7723496544511701,-0.0564141720533371,-0.04058922827243805,-9.41872854077816,-0.02269446849822998
1776554387822283000,6.458282958984375,-2.6923093892319923,-0.1367926150560379,-0.16809796455002093,0.08164528012275696,-0.05505072708823555,0.6102377132737518,2.3722407120736824,left,0.03034546971321106,1.2905313271449232,-1.1781410588685421,2.443409050917625,0.77221902184589,0.0071766674518585205,-0.05991941690444946,-9.424017294836045,-0.03424197435379028
1776554387862283000,6.498282958984375,-2.710225285593391,-0.23141860961914062,-0.16393791779655942,0.15976351499557495,-0.05562829070552479,0.6105949806769932,2.3954175371902617,left,-0.012772023677825928,1.294094805847473,-1.1201292340785265,2.4335998968258497,0.7727893443474312,-0.026851948350667953,-0.0007564947009086609,-9.433623912093044,0.010503768920898438
1776554387902283000,6.538282958984375,-2.7201024907589897,-0.13430623710155487,-0.15979383410254064,0.08432314544916153,-0.05516062618592105,0.6116110687737787,2.4120460049604553,left,0.019872009754180908,1.2980761033736874,-1.0806672114577143,2.4102630065105854,0.7728875054457532,-0.0739215612411499,-0.010522060096263885,-9.444214864212274,0.025914907455444336
1776554387942283000,6.578282958984375,-2.7189468916438178,-0.002513378858566284,-0.15842600350367506,0.02815183624625206,-0.055542820426111514,0.6133335128123003,2.4124138984811245,left,-0.007717311382293701,1.3028283748803033,-1.0650285474948584,2.3680491278983653,0.7717759126028005,-0.1254677176475525,-0.003523819148540497,-9.456661088809371,0.04561567306518555
1776554387982282800,6.61828271484375,-2.705591122742134,-0.005233992822468281,-0.1575675100223248,0.0858367532491684,-0.054605383962700385,0.6156793760063052,2.4017467155802197,left,-0.000659942626953125,1.3075019730331752,-1.077883425958082,2.313527994768321,0.7701490333875695,-0.1628272980451584,-0.009045839309692383,-9.468692887386679,-0.004993855953216553
1776554388022283000,6.658282958984375,-2.6910534974418545,0.07369653135538101,-0.15718668791961518,0.042880501598119736,-0.053470318467249325,0.6175993700212826,2.3894624973879783,left,0.005032077431678772,1.3107996449609687,-1.0977977944787591,2.269491138512641,0.7687679365740671,-0.08820715546607971,0.007047250866889954,-9.477057980149985,0.02169513702392578
1776554388062283000,6.698282958984375,-2.6712278536355076,0.10800488293170929,-0.15807362280228857,0.03960980847477913,-0.05139108409790582,0.618591247406169,2.3713510784987246,left,0.016767024993896484,1.310511207238335,-1.143812015222013,2.249718516550213,0.7679299492675309,-0.00021044909954071045,0.03801228106021881,-9.476330250397323,-0.02223438024520874
1776554388102283000,6.738282958984375,-2.657340099669353,0.1373119354248047,-0.15995212756460922,-0.03683457896113396,-0.04983970967136568,0.6182785994080972,2.356927696157688,left,0.017173096537590027,1.3073180844832242,-1.1890228836931287,2.260381072600931,0.767894935572863,0.02991941012442112,0.03452150523662567,-9.46822351630926,0.007451534271240234
1776554388142283000,6.778282958984375,-2.643460406601328,0.1659252792596817,-0.16262040476210518,-0.06125771999359131,-0.049165146473693175,0.6181648971306554,2.3401202657929816,left,0.00311066210269928,1.304818053522695,-1.2315868909172714,2.2644487604312595,0.7674694184711197,-0.03616663068532944,0.007575176656246185,-9.46180838856995,0.005748331546783447
1776554388182283000,6.818282958984375,-2.628159071707971,0.14456796646118164,-0.16536649166946868,-0.07537317276000977,-0.049181054336538646,0.6188224270338539,2.3208238529466567,left,0.010350197553634644,1.3044387790203862,-1.2678532593019305,2.24846559387967,0.7663509102817102,-0.06926675140857697,-0.011527016758918762,-9.460830483448504,-0.004329323768615723
1776554388222283000,6.858282958984375,-2.614144498683743,0.1436735838651657,-0.16788317005091447,-0.045531339943408966,-0.048717889368149685,0.6190629821721993,2.3038103852695357,left,0.020116984844207764,1.3028435580718598,-1.3068328321680427,2.24351381669119,0.7656386645273054,0.03155069053173065,-0.012334674596786499,-9.45670025177598,0.0026381611824035645
1776554388262283000,6.898282958984375,-2.5982302275053524,0.20421425998210907,-0.17099861321111548,-0.024786431342363358,-0.04696936694668953,0.6182971059763109,2.2858079645861196,left,0.0036533772945404053,1.2975341938488665,-1.3683128445252775,2.265384872237593,0.7656774179778576,0.023610584437847137,-0.02931608259677887,-9.442782201060652,0.029646873474121094
1776554388302283000,6.938282958984375,-2.5759811753201056,0.17492857575416565,-0.17471826798225507,-0.08959804475307465,-0.04532056068827235,0.6183537639292495,2.2604757680506955,left,0.028757542371749878,1.2934411018787748,-1.4390747722297905,2.2669952300436793,0.7648908846582066,-0.04529401659965515,-0.04023893177509308,-9.431870346423983,0.003188014030456543
1776554388342283000,6.978282958984375,-2.561383867910537,0.07759135961532593,-0.17812488550586594,-0.08265382051467896,-0.0452296303075997,0.6185326875071976,2.241034504851039,left,0.016066372394561768,1.2912767594048447,-1.4832004758127033,2.2628166291847824,0.7639653257669682,-0.011732887476682663,-0.013304278254508972,-9.426036817964912,-0.022503674030303955
1776554388382283000,7.018282958984375,-2.563564382535884,-0.06835998594760895,-0.17916235109800488,-0.017274118959903717,-0.04563164889111437,0.6178191720723424,2.2410936431348443,left,-0.0067504942417144775,1.2895846435518536,-1.4869770717419684,2.279403752978891,0.7642761612735363,0.021956320852041245,0.0032578706741333008,-9.421444813999534,-0.014828503131866455
1776554388422283000,7.058282958984375,-2.576011687918755,-0.1420813500881195,-0.17766873079135126,0.013623978942632675,-0.046566193345718564,0.6173690220833918,2.2543760706062277,left,-0.006274744868278503,1.2907302505818563,-1.4527018771745264,2.2886165486127137,0.7649318551420968,-0.0099274180829525,0.0005485117435455322,-9.424556808540224,0.0007139444351196289
1776554388462283000,7.098282958984375,-2.589941921806453,-0.12770289182662964,-0.1750168602666254,0.048784345388412476,-0.04778519725652811,0.617640042313446,2.270460215116801,left,0.00549548864364624,1.2943205743438806,-1.402935829617083,2.2797940674707293,0.7652491083533608,0.00013681408017873764,0.005122393369674683,-9.434228307726979,0.003625154495239258
1776554388502282800,7.13828271484375,-2.601332577467104,-0.06460516899824142,-0.17319922821264352,0.012555927038192749,-0.04853056051167772,0.6174879371375904,2.283438848653915,left,0.01065795123577118,1.2959957824039992,-1.3687474365502594,2.282071949274838,0.7657383828231079,0.02830183506011963,0.007048770785331726,-9.438699315661191,0.013437509536743164
1776554388542283000,7.178282958984375,-2.608229368002165,-0.0015099942684173584,-0.17297912413870453,-0.04351479187607765,-0.04905486772437795,0.6168732710104098,2.289883634249953,left,-0.0017883479595184326,1.2954433669330212,-1.3556297424323855,2.2959520060673353,0.7662500555869635,0.023073431104421616,0.007045537233352661,-9.43722807406485,0.02271062135696411
1776554388582283000,7.218282958984375,-2.6074149615682307,0.05149567499756813,-0.17383731962866325,-0.013978347182273865,-0.0492194965046581,0.6165612460438795,2.2875671556214128,left,-0.006154164671897888,1.2944169559484362,-1.3624302162274717,2.3031831263646483,0.766296417107352,-0.009276770055294037,0.0082465261220932,-9.43448608188033,0.01148134469985962
1776554388622283000,7.258282958984375,-2.6021516296516456,0.05533235892653465,-0.17490500758911298,-0.009413251653313637,-0.04893818689869301,0.616528243932666,2.2811425465657003,left,-0.0051893144845962524,1.2933612803947763,-1.3796468700967728,2.3045210969701406,0.7660979500613393,0.0002987449988722801,0.004090309143066406,-9.431655826890468,0.0065271854400634766
1776554388662283000,7.298282958984375,-2.59790879892528,0.030734291300177574,-0.17573219409416613,-0.006141197867691517,-0.04860169645267297,0.6164478323806899,2.276166026867625,left,-0.0019963830709457397,1.2923125487384806,-1.394526605451107,2.3071081908538935,0.7659947321041546,0.006786827929317951,0.00366036593914032,-9.428834339728951,-0.0018392205238342285
1776554388702283000,7.338282958984375,-2.5946266095414,0.02633143588900566,-0.17599909387965557,0.022045452147722244,-0.04814301991646382,0.6164870494047247,2.2731486678451707,left,0.004019096493721008,1.2917525792071707,-1.4048402019336819,2.3070326413996516,0.7659309386714755,-0.00005366560071706772,0.0015789419412612915,-9.427322766122222,0.005339920520782471
1776554388742282800,7.37828271484375,-2.592756850961426,0.016204334795475006,-0.17599337433464757,0.00866292417049408,-0.04771427002334486,0.6164905716690059,2.2718979402627317,left,0.007610589265823364,1.291335737938335,-1.4112003846153616,2.3077527723677456,0.7659562209330026,0.009363355115056038,-0.0073523372411727905,-9.426196392440795,0.005251109600067139
1776554388782283000,7.418282958984375,-2.5922833714182874,0.007767108269035816,-0.1762123481411058,-0.008296990767121315,-0.04745687882311053,0.6162406328301948,2.2714596774132385,left,-0.0007463693618774414,1.2904411176129746,-1.4166957671612501,2.3142769134394823,0.7661229941758338,0.01753857731819153,0.0027032792568206787,-9.423772380164266,0.010559916496276855
1776554388822283000,7.458282958984375,-2.5878841819652094,0.040083013474941254,-0.1762122798551775,0.05281175673007965,-0.04655523549632155,0.6163223988567653,2.2683481237513,left,0.007344871759414673,1.2896998891384954,-1.4305353458128869,2.3139624406628307,0.7661125470475496,-0.021581947803497314,0.003303810954093933,-9.421758702254294,0.014514148235321045
1776554388862283000,7.498282958984375,-2.5823771929247035,0.025643108412623405,-0.1767147731812865,-0.02320021390914917,-0.04621122828373158,0.6166708753664102,2.2626115465679133,left,-0.00794193148612976,1.2896859469465332,-1.4433267305858433,2.3061614115230737,0.7657371301643958,-0.03361976519227028,-0.0016664564609527588,-9.421720708331465,0.006376981735229492
1776554388902283000,7.538282958984375,-2.578039103058542,0.03098798543214798,-0.17752448135458054,-0.03977980464696884,-0.046360451374002846,0.6169815194620046,2.2568903629023565,left,-0.010553538799285889,1.2898747952968581,-1.4523666538707911,2.298373972517252,0.7652904502638221,-0.009281756356358528,0.004871070384979248,-9.4222345030725,-0.003351747989654541
1776554388942283000,7.578282958984375,-2.5722319301956382,0.04234406724572182,-0.17829531369841653,-0.008611096069216728,-0.04625745545749118,0.6173787481820503,2.250119681685994,left,-0.0093613862991333,1.289995478623108,-1.4650773746229708,2.28894519604519,0.7647970058458344,-0.05919890105724335,-0.004492223262786865,-9.422562419852614,0.006014406681060791
1776554388982282800,7.61828271484375,-2.5626016648887275,0.05090061575174332,-0.17934227170065115,-0.020207198336720467,-0.04649865220452784,0.6184575993124344,2.238661510884034,left,-0.01081646978855133,1.2915641935146207,-1.478963861156255,2.262357633370906,0.7636651344265455,-0.0925939753651619,-0.004302173852920532,-9.426814232078193,0.006365001201629639
1776554389022283000,7.658282958984375,-2.550344468576138,0.07335197925567627,-0.1804765002013709,-0.027983328327536583,-0.04657153610503606,0.6197642485201822,2.2246972913357923,left,0.002929478883743286,1.293297315667102,-1.4974724545322358,2.23049110738039,0.7623329845862927,-0.0571511872112751,-0.008263751864433289,-9.4314839774549,0.01031416654586792
1776554389062283000,7.698282958984375,-2.5372484053031332,0.08430790156126022,-0.18192219257255476,0.009254617616534233,-0.04577509959987904,0.62042809246453,2.2106465202790027,left,0.006923317909240723,1.2926404986516158,-1.5300729938857256,2.215785705679655,0.7614971417148931,-0.03225061297416687,-0.004575401544570923,-9.429717552304266,0.0023415088653564453
1776554389102283000,7.738282958984375,-2.526603902429367,0.03715299442410469,-0.18288251235860517,0.012187860906124115,-0.04473838589547175,0.6208502113877628,2.200088709718493,left,0.018155455589294434,1.291604916154781,-1.5592064416505396,2.2073504702895876,0.7609845564933774,-0.028920963406562805,-0.00508098304271698,-9.426924122193455,-0.002098977565765381
1776554389142283000,7.778282958984375,-2.525593889155741,-0.022992383688688278,-0.18318556881403583,-0.028692204505205154,-0.04496647856738381,0.6209753424599921,2.198315489691045,left,0.011583656072616577,1.291848203027961,-1.5601082127958534,2.203900037574768,0.7607960526001102,-0.011021295562386513,-0.0008441060781478882,-9.427581124797463,-0.001904904842376709
1776554389182283000,7.818282958984375,-2.528731090402532,-0.03714984282851219,-0.18265703356317128,0.028019901365041733,-0.04543667757790677,0.6210966527471513,2.2015632114092343,left,0.006698340177536011,1.2929727694772342,-1.5470893028773367,2.200112774121016,0.7607962240579182,-0.023439256474375725,0.006063446402549744,-9.430611870795488,0.004839837551116943
1776554389222283000,7.858282958984375,-2.530667483076364,-0.0199093297123909,-0.1820015729335885,0.037390731275081635,-0.04544537241977878,0.6211848917918753,2.204450962211362,left,0.003118768334388733,1.2936403023100074,-1.5392144778490067,2.1979472666502,0.760880740431763,-0.014959036372601986,0.013655617833137512,-9.432405183953046,0.0071173906326293945
1776554389262283000,7.898282958984375,-2.5303992173960768,-0.0030623935163021088,-0.18125319954017927,0.06103517860174179,-0.04489013734749673,0.6213058910875837,2.206073383296874,left,-0.00016388297080993652,1.2938407364034117,-1.5387136887200177,2.1959780124038457,0.7609933968029845,0.01278445590287447,0.008937880396842957,-9.432942944091558,0.0006362795829772949
1776554389302283000,7.938282958984375,-2.531713167670969,-0.0006736184004694223,-0.18057320808557337,0.021851524710655212,-0.04433325080636881,0.6211425873955486,2.2091681187779213,left,0.001377880573272705,1.2934611061937,-1.5378760688520967,2.20093066637516,0.7613208919943589,0.019283337518572807,-0.005260631442070007,-9.431924122437835,0.004883766174316406
1776554389342283000,7.978282958984375,-2.5320651530674945,-0.0036894131917506456,-0.17993063024968603,0.037988387048244476,-0.04381279052438947,0.6211280799396642,2.2112006620235922,left,0.0006191134452819824,1.293369446486045,-1.5376011974334716,2.2021878268294035,0.7615151018523726,-0.0002655014395713806,-0.005588918924331665,-9.431678038722277,0.004843354225158691
1776554389382283000,8.018282958984376,-2.5298424961524724,0.006187552586197853,-0.17941686618576844,0.03427166864275932,-0.043001880940648086,0.6212477789275374,2.2108885387703188,left,0.012919336557388306,1.2931250965438803,-1.5438162725560367,2.200652287825197,0.7615849159399743,0.004732572007924318,-0.006579339504241943,-9.431021620640157,0.002099275588989258
1776554389422283000,8.058282958984375,-2.5297197933187845,-0.008218535222113132,-0.17910604688642268,0.009527409449219704,-0.04267067390045363,0.6212341203481457,2.211691162219526,left,0.005893632769584656,1.292985186901752,-1.544842254602909,2.2015401765756306,0.7616877896626968,0.02294136956334114,-0.002936631441116333,-9.4306451885432,-0.0010590553283691406
1776554389462283000,8.098282958984376,-2.53490720279394,-0.04234712943434715,-0.17865645222498508,0.019617967307567596,-0.04277649138293566,0.6207618181478258,2.2173660746640507,left,-0.005457788705825806,1.2925536017306123,-1.535721813427657,2.2128680646672843,0.7621723558030785,0.02952682413160801,0.0030042827129364014,-9.429483743548392,0.003387629985809326
1776554389502282800,8.13828271484375,-2.53778024024051,-0.0301632322371006,-0.1775619210475069,0.04981044679880142,-0.042124512607275184,0.6205311707547656,2.2227580389355728,left,0.01997263729572296,1.2922574694279436,-1.5309424701966345,2.2195684390887616,0.7626520899633157,0.01949414238333702,-0.007259547710418701,-9.428685286647081,0.004762113094329834
1776554389542283000,8.178282958984376,-2.5428927792767433,-0.037925951182842255,-0.1768851938129973,-0.010105814784765244,-0.04213743127544005,0.6201385024712703,2.2288253143597534,left,0.008804038166999817,1.2920343760601496,-1.5207574685297907,2.229099945282936,0.7631278048588389,0.04400060698390007,-0.00946199893951416,-9.428083813622594,0.004885077476501465
1776554389582283000,8.218282958984375,-2.549316151134207,-0.02363341487944126,-0.17647503313067187,-0.012004542164504528,-0.04230879886411585,0.6194818446789783,2.2355770158003945,left,0.007927373051643372,1.2912724769239399,-1.5104175685621797,2.2447814985394476,0.7637463719914338,0.034307245165109634,-0.010635897517204285,-9.426025127527117,0.009088993072509766
1776554389622283000,8.258282958984376,-2.551849467509521,0.00790228508412838,-0.1766665484281605,-0.013407151214778423,-0.042411240418706066,0.6190310851669338,2.237665606662334,left,-0.000713348388671875,1.2903842067882572,-1.509385595165938,2.2555637354470788,0.764061929001755,0.0005846321582794189,-0.005137130618095398,-9.423618066385387,0.012960612773895264
1776554389662283000,8.298282958984375,-2.551203057534901,0.025115473195910454,-0.1775895107900999,-0.05817996338009834,-0.042477894209168365,0.618622197613148,2.2355570220412084,left,0.00027541816234588623,1.2890054610635011,-1.5180739285342395,2.2653777118444443,0.7641753951850215,0.0299239344894886,-0.006967753171920776,-9.41986718941927,-0.003168165683746338
1776554389702283000,8.338282958984376,-2.5529490256025147,0.00839458592236042,-0.17852787602425485,-0.02137697860598564,-0.04275176068505156,0.6179592316180641,2.2355119686616067,left,-0.016133904457092285,1.287349264552626,-1.5227796220071612,2.2810015435643494,0.7644779015598101,0.03687432408332825,0.004781395196914673,-9.415337729296088,-0.0012894272804260254
1776554389742282800,8.37828271484375,-2.555308522712484,-0.023073634132742882,-0.17862090644056924,0.0009834133088588715,-0.04276189956015196,0.6175264210891775,2.237702013678646,left,-0.014569893479347229,1.2864711764618422,-1.521964360101521,2.2914701844781638,0.764805198895536,0.015617689117789268,0.0035405606031417847,-9.412925991979241,-0.005572199821472168
1776554389782283000,8.418282958984374,-2.559636772134811,-0.038773179054260254,-0.1781068704629888,-0.006271036341786385,-0.0432607888629459,0.6174758153385972,2.242070241607365,left,-0.013197705149650574,1.287257397812496,-1.5079656453654169,2.291855822794884,0.764937920080367,0.0037699751555919647,0.0029479563236236572,-9.415085800361632,0.0036504268646240234
1776554389822283000,8.458282958984375,-2.5627957588070993,-0.01986672915518284,-0.17774328885203047,-0.00551786832511425,-0.04379113246237602,0.617548856700174,2.245009419257669,left,-0.003819510340690613,1.288199463144382,-1.4958641425527632,2.289179881583899,0.7649333089863675,-0.00012306449934840202,0.0028076767921447754,-9.41766587998271,0.0005168914794921875
1776554389862283000,8.498282958984374,-2.566887097992419,-0.04127877950668335,-0.17732257878132965,-0.007114022504538298,-0.04442629899160792,0.6175809613208246,2.2488135515170553,left,-0.008419036865234375,1.2892086774099651,-1.4813202150240539,2.28730444310084,0.7649684484771377,0.0012666445691138506,0.002952679991722107,-9.420421316170692,0.006972610950469971
1776554389902283000,8.538282958984375,-2.570106723979956,-0.03528742492198944,-0.17666857881641568,0.012933827936649323,-0.044800089172276264,0.6177222475446502,2.252463727501629,left,0.00004902482032775879,1.2903233808658123,-1.468266233792156,2.283226087746024,0.7649838557216014,-0.015055413357913494,-0.0010289251804351807,-9.423453231212497,-0.00015437602996826172
1776554389942283000,8.578282958984374,-2.5727793321711703,-0.019047612324357033,-0.17598788865653148,0.02885490469634533,-0.04499607900190977,0.6178486577242659,2.2558582144264023,left,0.0013248324394226074,1.2912458586829292,-1.4574768364913762,2.2798183251291513,0.7650271876269781,0.0077515942975878716,0.002279534935951233,-9.425953231334686,0.010558605194091797
1776554389982282800,8.61828271484375,-2.5743383169114664,-0.003361860290169716,-0.17567719159236317,0.001294933259487152,-0.04491660440780662,0.6177326931702187,2.2579795897918333,left,-0.0019809305667877197,1.291160272574052,-1.4543551973395048,2.2827694300197066,0.7651969191101228,0.010825046338140965,-0.0012302398681640625,-9.42572117614448,0.006969630718231201
1776554390022283000,8.658282958984374,-2.5750988180243306,-0.023373816162347794,-0.17531165197716433,0.05421840026974678,-0.04462978853990775,0.6176352211414154,2.2596785909455006,left,-0.00530417263507843,1.290939077888548,-1.4537388190068303,2.2856359253667295,0.7653762304307246,0.006600270979106426,0.009734392166137695,-9.425122625729442,0.002315819263458252
1776554390062283000,8.698282958984375,-2.575769428826189,-0.025795690715312958,-0.17442312259742362,0.022221673280000687,-0.04406915859272307,0.6176874040297455,2.2624481615388925,left,0.010443136096000671,1.291097743929247,-1.4514026311442254,2.2853457102485,0.7655695472386599,-0.010208039544522762,-0.00277554988861084,-9.425552249318361,0.0086442232131958
1776554390102283000,8.738282958984374,-2.5739928488654473,0.023952331393957138,-0.1741999607108191,-0.0070215314626693726,-0.04422230373951877,0.6182276348055401,2.260802801897513,left,0.0113258957862854,1.292453501768301,-1.44858728146255,2.2719835398502646,0.7651753073740962,-0.04191684350371361,-0.002906903624534607,-9.429213694435358,0.017842233180999756
1776554390142283000,8.778282958984375,-2.5679778310341774,0.04576834291219711,-0.17509457993777144,-0.028093311935663223,-0.0441828906909798,0.6186177394537888,2.2535532472109225,left,0.006378918886184692,1.292534641996904,-1.4618144273042677,2.2625907114744184,0.7646580024749495,-0.02838239073753357,-0.0007503628730773926,-9.4294323056221,0.007569849491119385
1776554390182283000,8.818282958984375,-2.5616423873481065,0.05171497166156769,-0.17642298573469692,-0.042856842279434204,-0.04403491503888305,0.6187162596108484,2.245490631683845,left,0.003923475742340088,1.2916252711748535,-1.4808175261989236,2.2604557452723384,0.7642813927111258,-0.026654299348592758,-0.0029468387365341187,-9.426979067251086,0.003793954849243164
1776554390222283000,8.858282958984375,-2.556177817036125,0.041457466781139374,-0.17760242213170122,-0.023684093728661537,-0.04417893132083321,0.6189704648346155,2.2381071729143316,left,-0.008477777242660522,1.291408268443299,-1.4942790653184055,2.2540365258798003,0.7637939572124767,-0.028914423659443855,0.003467455506324768,-9.42639220727384,-0.0012482404708862305
1776554390262283000,8.898282958984375,-2.5525792862674583,0.009849518537521362,-0.17811231191316032,0.004008233547210693,-0.04396738047660376,0.619092655171959,2.2340688983842996,left,-0.010330766439437866,1.2910518391266355,-1.5042426793195307,2.2514314579479393,0.7635882510838706,-0.0019082147628068924,0.0052662193775177,-9.425427746155858,-0.006748378276824951
1776554390302283000,8.938282958984376,-2.552351949530432,-0.003521726466715336,-0.17817322370904812,0.006655960809439421,-0.043937300953321254,0.6190718129119263,2.233794368020885,left,-0.006996408104896545,1.2909369836730862,-1.5053560473889112,2.251989530222118,0.7635926715639022,-0.0047986069694161415,0.003136947751045227,-9.425116780510544,0.0003587007522583008
1776554390342283000,8.978282958984375,-2.5511874094641342,0.008563821204006672,-0.17802307260022832,0.005586623214185238,-0.043957244465041526,0.6193612918256923,2.2328334784371933,left,-0.0003153979778289795,1.291615243189419,-1.5044181820169091,2.2449236834891138,0.7633917660324899,-0.011977450922131538,-0.0011129975318908691,-9.42695217924416,0.0032993555068969727
1776554390382283000,9.018282958984376,-2.5488723166711353,0.020822826772928238,-0.17824329534362174,0.002716533839702606,-0.043895260260207104,0.6195544034358332,2.2302926740726887,left,-0.004282459616661072,1.2917555113655346,-1.508872677207738,2.24033796313405,0.7631872159410631,-0.0037243086844682693,0.0013330727815628052,-9.427330949428677,0.003968179225921631
1776554390422283000,9.058282958984375,-2.544786571912647,0.03638151288032532,-0.17866554684316466,0.004134533926844597,-0.04346352040390255,0.619660057185064,2.226208032215805,left,-0.0006376504898071289,1.2911969050706975,-1.5209727187156676,2.2385095786631104,0.7630273930229464,-0.0051571279764175415,0.0005238950252532959,-9.425820544865728,0.00619274377822876
1776554390462283000,9.098282958984376,-2.54078843250782,0.01792488619685173,-0.17904933615948762,-0.01588364876806736,-0.04315838151830289,0.6198605163219815,2.222091150352608,left,0.009741678833961487,1.2909728104440623,-1.5311068669781087,2.2341566441506147,0.7627919601066734,-0.015573305077850819,-0.006584182381629944,-9.425213811144232,0.0017275214195251465
1776554390502282800,9.13828271484375,-2.5390894647643765,0.005069604143500328,-0.17939596479876377,-0.005595816299319267,-0.04329857463718541,0.6200147683730458,2.219692052425954,left,-0.000038504600524902344,1.291151138738084,-1.533948812405765,2.230168451297283,0.7625772007314338,-0.009294736199080944,0.0003661215305328369,-9.425696626225113,0.004197955131530762
1776554390542283000,9.178282958984376,-2.5377044977468843,0.009453637525439262,-0.1796127073661508,-0.01474013738334179,-0.04322013628569001,0.620052760027067,2.2181030925569534,left,0.01354062557220459,1.2909789364952935,-1.5379571712642908,2.2293771547891197,0.7624997234796312,-0.005779866594821215,-0.0060356855392456055,-9.425230762279034,0.006843447685241699
1776554390582283000,9.218282958984375,-2.5374691015946658,0.009581677615642548,-0.18006439371487404,0.003384888172149658,-0.04330749444295266,0.6198809978532622,2.2170750423078522,left,-0.010801374912261963,1.2904129269700535,-1.5415132563106715,2.2334069948270914,0.7625279213141481,0.012521373108029366,0.01027911901473999,-9.423695807796717,-0.0008758902549743652
1776554390622283000,9.258282958984376,-2.537602845959785,-0.008484059944748878,-0.1799224588492292,0.01562676578760147,-0.04288710707125513,0.6196682004487882,2.2180054792970942,left,0.0009461343288421631,1.2896804915529332,-1.545130277764052,2.239288161820173,0.7627580086442963,0.007977398112416267,0.005223795771598816,-9.421706095284224,0.003526628017425537
1776554390662283000,9.298282958984375,-2.5388335723882354,-0.01250141765922308,-0.1796532414332976,-0.0025877971202135086,-0.042903459951153515,0.6196437161649614,2.219606054875573,left,-0.004292353987693787,1.289852404813493,-1.5414580189920961,2.2398580706626174,0.7628405130827378,0.004523179028183222,0.0008617490530014038,-9.422173128274082,0.004869818687438965
1776554390702283000,9.338282958984376,-2.5390138075324233,-0.007099126931279898,-0.17954577593824797,0.0026537529192864895,-0.04310546701527398,0.6198114590355638,2.2196632933596363,left,-0.008794575929641724,1.2904573705402476,-1.5378237541429698,2.2354398158289492,0.7627181522707019,-0.02382022887468338,0.0008201897144317627,-9.423816803827881,-0.0005949735641479492
1776554390742282800,9.37828271484375,-2.538420742362047,-0.01533479429781437,-0.1790772083115327,0.061572588980197906,-0.04317839838456482,0.6202287483404919,2.21966968308988,left,-0.014690622687339783,1.2916628638106167,-1.5326996891275046,2.2251642132692036,0.7624848237885108,-0.0234209094196558,0.006955176591873169,-9.427080774059892,0.0010582804679870605
1776554390782283000,9.418282958984374,-2.537140261593136,-0.014166771434247494,-0.1782075957171251,0.028165515512228012,-0.04270190008401362,0.620629252579651,2.2203562770402985,left,0.004220888018608093,1.292562658655526,-1.5307267816193402,2.21621985931322,0.7623895141953188,-0.0031089838594198227,-0.006201297044754028,-9.429508293467759,0.005118131637573242
1776554390822283000,9.458282958984375,-2.5371490736754128,-0.0033737923949956894,-0.17773594048535257,0.030913181602954865,-0.04244737678480785,0.6207390360201649,2.2214216488521354,left,-0.007940813899040222,1.292854048595662,-1.5291450653858483,2.21397149586454,0.7624244348269709,0.007526598870754242,0.004217401146888733,-9.430292721843719,0.007001996040344238
1776554390862283000,9.498282958984374,-2.5342067503326624,0.009927229955792427,-0.17741639093398057,0.018121447414159775,-0.041828937771783196,0.6209803448266823,2.21983667688106,left,0.00669039785861969,1.292899016837874,-1.5354142087832092,2.2091196719191966,0.7623366287915404,-0.02221684157848358,-0.004612550139427185,-9.430413717874885,0.008179247379302979
1776554390902283000,9.538282958984375,-2.5315737423259748,-0.007177004590630531,-0.17749413924086294,-0.031700342893600464,-0.042021534457128314,0.6214679422049394,2.2168361361581437,left,0.01817074418067932,1.293953026462211,-1.535530236378312,2.1969207000814377,0.7619104734299272,-0.024975614622235298,-0.008654147386550903,-9.433243972864746,0.0020331740379333496
1776554390942283000,9.578282958984374,-2.5327458047305167,-0.01169310137629509,-0.17773635395452753,-0.01120036281645298,-0.0426743495583262,0.62156894785761,2.216729356184406,left,0.0020032674074172974,1.294643467297253,-1.5292258755370973,2.193371483167261,0.7617352341425551,-0.013844603672623634,0.0019430071115493774,-9.435092231079935,0.006492018699645996
1776554390982282800,9.61828271484375,-2.5323934918475146,0.0024707410484552383,-0.1777716368865715,0.01605968177318573,-0.042712837297830424,0.6216274796957405,2.216273112338726,left,-0.004227742552757263,1.2947665978170562,-1.529333865956217,2.191879929435253,0.7616770788001022,-0.013098065741360188,0.003387764096260071,-9.43542131690383,0.0036423802375793457
1776554391022283000,9.658282958984374,-2.532187377940046,-0.013982674106955528,-0.17732875796926628,0.05444104224443436,-0.0423365828215391,0.6216743709616777,2.2172519073107346,left,-0.004688262939453125,1.2947926956170004,-1.5296467312976718,2.1913656963028014,0.7617631005330048,0.002017669379711151,0.015851959586143494,-9.435490875008702,-0.0007854700088500977
1776554391062283000,9.698282958984375,-2.5320826870936095,-0.011895641684532166,-0.17630379625087517,0.0600595660507679,-0.041539728220842405,0.6217725936293383,2.2197832756051876,left,0.0035816729068756104,1.2949121105318544,-1.5292302594512701,2.190280531414598,0.7619646647009981,0.003378125838935375,0.00684589147567749,-9.435810023960471,0.007547438144683838
1776554391102283000,9.738282958984374,-2.5295704699066577,0.0323474295437336,-0.17576641396077633,0.025456231087446213,-0.040933631853195734,0.6220792402804716,2.218931176158543,left,0.010942697525024414,1.2952555236445782,-1.532866862387955,2.1837805018708107,0.7618713394673845,-0.014341319911181927,-0.002158224582672119,-9.43672713880539,0.011275053024291992
1776554391142283000,9.778282958984375,-2.5227687949075825,0.07135318219661713,-0.1765105027815757,-0.05467681214213371,-0.04059775859116962,0.6224719326841681,2.2115355456298467,left,0.01571562886238098,1.2950698007862191,-1.548701998770982,2.1747326875403523,0.7613964151613671,-0.02327428013086319,-0.01996268332004547,-9.436231464242935,0.013500750064849854
1776554391182283000,9.818282958984375,-2.5142055009276345,0.06699523329734802,-0.17831568986426247,-0.024453189224004745,-0.040453512709189246,0.6226496747858593,2.2005449578172036,left,-0.014255061745643616,1.2938611840385141,-1.5739599202767014,2.1706199915245175,0.760837883765139,-0.025737866759300232,-0.0031146109104156494,-9.432997889149188,-0.006087541580200195
1776554391222283000,9.858282958984375,-2.5075919559068627,0.004055723547935486,-0.17880723405780202,0.04895060881972313,-0.039851129815171984,0.6229956272426731,2.1940830337482153,left,-0.010547265410423279,1.2934724290124582,-1.5904519131332635,2.1631157533742487,0.7604709969512815,-0.04280846565961838,0.00130501389503479,-9.431954517576099,-0.00864177942276001
1776554391262283000,9.898282958984375,-2.503598638022267,-0.021945104002952576,-0.1782246132582944,0.008197560906410217,-0.039586518687932316,0.6237566691053446,2.1913486855937636,left,0.012173518538475037,1.2950334230676583,-1.5903073900960385,2.144919148556888,0.759997621183539,-0.032193779945373535,-0.011893197894096375,-9.436134433609247,-0.002154707908630371
1776554391302283000,9.938282958984376,-2.5053347115913414,-0.023923270404338837,-0.17809181653386644,-0.03099466860294342,-0.04024355622680654,0.6239768826811973,2.192353469737613,left,0.003335818648338318,1.2962422334365231,-1.5798035317383705,2.1385021211214363,0.7598134776942885,0.010827209800481796,-0.0015580356121063232,-9.43935514922142,-0.00047653913497924805
1776554391342283000,9.978282958984375,-2.5086004595352502,-0.010849504731595516,-0.17806605808739165,0.01429201290011406,-0.040350682331413146,0.6235704039706753,2.1954883656916517,left,-0.010048061609268188,1.2956340428513489,-1.5762078453339636,2.1482792726397513,0.7601474808000916,0.0220283642411232,0.008939102292060852,-9.437736023586988,0.005568027496337891
1776554391382283000,10.018282958984376,-2.510087729391576,0.00038428977131843567,-0.1779070825952387,0.009717389941215515,-0.040069695857346786,0.6232621027142674,2.1975953984270356,left,0.003305181860923767,1.2948935714478471,-1.5771373812690377,2.1562626726090905,0.7604523807325175,0.00958542712032795,0.004889041185379028,-9.435760924121738,0.009002983570098877
1776554391422283000,10.058282958984375,-2.510902770011503,0.014895075000822544,-0.17805933424043863,-0.010533472523093224,-0.040116687181797506,0.6230828237519762,2.1981136729478425,left,0.0018897801637649536,1.2944965530338202,-1.5775860018193721,2.1605694298923015,0.7605611146907071,0.00870728213340044,0.0011228770017623901,-9.434699432370065,0.004059135913848877
1776554391462283000,10.098282958984376,-2.5107884258387756,0.021783068776130676,-0.17845290006497563,-0.020415417850017548,-0.04004808449703959,0.6228351870496923,2.197511260011878,left,0.0021517127752304077,1.2936642870240924,-1.582462521814555,2.1667278063915667,0.7606752860647691,0.01539506483823061,0.0011805593967437744,-9.432469481360911,0.010874152183532715
1776554391502282800,10.13828271484375,-2.509350320254286,0.027948472648859024,-0.17908755671204613,-0.012168899178504944,-0.039849685220862484,0.622571667706956,2.195416299780715,left,-0.0069806575775146484,1.2924780478009408,-1.5921896967113016,2.1734766961298884,0.7607523083525346,0.0038298238068819046,-0.0012221336364746094,-9.429280329930782,0.0011339187622070312
1776554391542283000,10.178282958984376,-2.5082396955348294,-0.008783195167779922,-0.1793550944013106,-0.005585311912000179,-0.03990550712064877,0.6226242050780475,2.193836858840466,left,-0.014647409319877625,1.2924252301710826,-1.594893694972992,2.1721036542110146,0.7606432580403151,-0.01736116036772728,-0.0007345527410507202,-9.429137706589698,0.0014804601669311523
1776554391582283000,10.218282958984375,-2.506445920879605,0.004512348212301731,-0.17916090034339688,0.010916790924966335,-0.03977318635363277,0.6229218367889674,2.192527367852639,left,-0.00356292724609375,1.2929783718350654,-1.5956912750914691,2.1650383919999,0.7604522065635897,-0.002656618133187294,-0.004811018705368042,-9.43062706836462,0.00004208087921142578
1776554391622283000,10.258282958984376,-2.504884230665858,-0.0031295809894800186,-0.17913613684272311,0.0006777271628379822,-0.039660899442182505,0.6231014557921073,2.1911689157178658,left,-0.0027488917112350464,1.2932053964320571,-1.597799791678041,2.160825450479984,0.7603167986884986,-0.0010437716264277697,-0.002441510558128357,-9.431237309217453,0.0007982850074768066
1776554391662283000,10.298282958984375,-2.503884014050709,0.003680157009512186,-0.17895612302036487,0.021566161885857582,-0.03944424966937453,0.6232184800360454,2.1907447906800543,left,-0.0003278404474258423,1.29332740124083,-1.599274102014303,2.158300023655593,0.7602745154599361,0.0003625232493504882,0.0007805526256561279,-9.431565225997566,0.0031676888465881348
1776554391702283000,10.338282958984376,-2.5012724131320194,0.014436282217502594,-0.1787899078184018,0.01594490557909012,-0.03896016229519726,0.623404912829821,2.1890722581507194,left,0.006330743432044983,1.293278668286895,-1.605182449275255,2.154488064152002,0.7601857945958346,-0.008996447548270226,0.0013284385204315186,-9.431434293094277,0.0075324177742004395
1776554391742282800,10.37828271484375,-2.49795439195877,0.02807646058499813,-0.1789321293188067,-0.002410363405942917,-0.038608583486450555,0.6236074244154999,2.1860541477620177,left,0.008398070931434631,1.2931566737497564,-1.6130115354657173,2.1500690786659717,0.7600041200341137,-0.006647979840636253,0.0008914023637771606,-9.431106376314162,0.009161770343780518
1776554391782283000,10.418282958984374,-2.493266269929067,0.049858469516038895,-0.17968910599896515,-0.030387891456484795,-0.03827632103350127,0.6236893011212813,2.180734310817899,left,0.0030023157596588135,1.2923474552809802,-1.6276833271577953,2.148568464844674,0.7597751537421552,-0.010553651489317417,0.0009020864963531494,-9.42892844775319,0.009161293506622314
1776554391822283000,10.458282958984375,-2.487788326043005,0.041178975254297256,-0.18078969212189397,0.007087303325533867,-0.03799513967104365,0.6237367381539184,2.1740473570001777,left,-0.011813312768936157,1.2912504784640797,-1.6457178732812403,2.147828021740913,0.7594891637877131,-0.007614039815962315,0.013036727905273438,-9.42596550629437,-0.003194272518157959
1776554391862283000,10.498282958984374,-2.482862084731488,0.024379272013902664,-0.18092111789845516,0.021710406988859177,-0.03718911108263014,0.6239172357295496,2.1700818317912782,left,0.0027321279048919678,1.2905922924484283,-1.6600746076747774,2.14459883056134,0.7593494672840974,-0.0048889778554439545,-0.0020456463098526,-9.424182714530826,-0.0018857717514038086
1776554391902283000,10.538282958984375,-2.479582923101497,0.02276425249874592,-0.18110787591610786,-0.00922737643122673,-0.036910644727058746,0.6241383509465677,2.1669339239203813,left,0.0016820132732391357,1.2905321047848202,-1.667446743877977,2.13959093927145,0.7591367900657582,-0.002559997607022524,-0.007100135087966919,-9.424019632923603,0.0015261173248291016
1776554391942283000,10.578282958984374,-2.4775288202251655,0.020310234278440475,-0.1814086324915253,0.00994034856557846,-0.03670926701968883,0.6241631319258849,2.16472675287924,left,-0.00314900279045105,1.2901124341190335,-1.6742742518104612,2.1392739822767672,0.7590543334328128,0.0013028471730649471,0.0017911940813064575,-9.422880399760603,0.0025560855865478516
1776554391982282800,10.61828271484375,-2.475132776453146,0.009666546247899532,-0.1815215492228347,0.019019871950149536,-0.036353993715135056,0.6242486720021813,2.1626737696302625,left,-0.006072938442230225,1.2897839046422939,-1.681307511448115,2.137687589868158,0.7589740541051821,-0.011637350544333458,0.0009210407733917236,-9.421987250313162,-0.0007323622703552246
1776554392022283000,10.658282958984374,-2.4740600228396623,0.0066712223924696445,-0.18155158447047137,-0.00222037173807621,-0.03623331597698357,0.6243206542657909,2.1617315805561055,left,0.0017471015453338623,1.2897553174239063,-1.683770978952199,2.1360998822852966,0.7589135410366046,0.003961372189223766,-0.005313307046890259,-9.421909508901834,0.0016277432441711426
1776554392062283000,10.698282958984375,-2.4746367770796143,-0.0029707918874919415,-0.18178338296744867,-0.011423318646848202,-0.036400708358893114,0.6242105942780812,2.1617265161161856,left,-0.004000529646873474,1.2895542896369248,-1.6837062431529164,2.1385535590477285,0.7589404713690224,0.007011942565441132,-0.0007506608963012695,-9.421362396413087,0.0011864304542541504
1776554392102283000,10.738282958984374,-2.4758559473385335,-0.002880524145439267,-0.18179165883231344,-0.0011382624506950378,-0.03639177773126673,0.6240205563486745,2.1629388498606286,left,-0.0015190690755844116,1.2892016860063515,-1.6831524086624383,2.143220966336876,0.759095253884464,0.009103517979383469,-0.00000782310962677002,-9.420402026948333,0.005195498466491699
1776554392142283000,10.778282958984375,-2.4766424396441566,-0.007982275448739529,-0.1817404998682415,-0.0038590768817812204,-0.036449053962159465,0.6239647634965996,2.1637165937002774,left,0.0001665353775024414,1.2892069416374194,-1.6814350833505392,2.144504284145683,0.7591506010408788,-0.0011656619608402252,0.0013006627559661865,-9.420416639995574,0.0017632842063903809
1776554392182283000,10.818282958984375,-2.477110078421639,-0.0010817358270287514,-0.18167304872134632,0.0036945755127817392,-0.03650024934132226,0.6239614057336098,2.164210097500416,left,-0.000999152660369873,1.2893117665489509,-1.6798235565006732,2.144513636495918,0.7591670582094052,0.005205480381846428,0.003504142165184021,-9.420701886677742,0.0029729604721069336
1776554392222283000,10.858282958984375,-2.4774413020462562,0.0007548272842541337,-0.18164265243626498,-0.007047317922115326,-0.03648366196544788,0.6239186914102629,2.1646077615079484,left,0.0015406310558319092,1.2892427281556817,-1.6795155134648083,2.145583896075934,0.7592102686394002,0.0001661558635532856,-0.0009142756462097168,-9.420513670629262,0.004107832908630371
1776554392262283000,10.898282958984375,-2.477464867947052,0.007470994722098112,-0.1817843122753075,-0.008031772449612617,-0.036587588146229436,0.6239010814778236,2.1642755591696625,left,-0.0002568364143371582,1.2892102269097578,-1.679656090979278,2.1458678275838494,0.7591858957999987,0.0025102777872234583,-0.0010447800159454346,-9.42042540782392,0.0050185322761535645
1776554392302283000,10.938282958984376,-2.477344505916571,-0.00027231592684984207,-0.18194421782740142,-0.0036670882254838943,-0.03662278310474364,0.6238545920233837,2.16386919309461,left,-0.0028252601623535156,1.289036431251519,-1.680924211218953,2.1469553305596114,0.7591841095986679,0.0009571448899805546,-0.00021719932556152344,-9.419951360571384,0.0006439089775085449
1776554392342283000,10.978282958984375,-2.4778863230444848,-0.008501587435603142,-0.18180682646838833,0.006679530255496502,-0.03662270818145524,0.623847242647568,2.164612036278282,left,-0.00250852108001709,1.2891349484898562,-1.679189934772253,2.1471360939539967,0.7592230913603358,0.002986280247569084,-0.0003545135259628296,-9.42022024064064,0.0027456283569335938
1776554392382283000,11.018282958984376,-2.477978753882027,-0.005889533087611198,-0.1816277170919349,0.002816986758261919,-0.03666923100494699,0.6239562739513252,2.164904783199149,left,-0.003316134214401245,1.2895241673580222,-1.6767293898776172,2.1443981934227048,0.7591740274114034,-0.006659581325948238,-0.0002598762512207031,-9.421280563348532,0.003394901752471924
1776554392422283000,11.058282958984375,-2.4777508462804936,0.0037440424785017967,-0.18150940500963428,0.011312628164887428,-0.03662364495892882,0.62402629818673,2.1649177622842153,left,0.004731878638267517,1.2896949897042378,-1.6762288930095732,2.142751595259458,0.7591470307701622,0.0016858475282788277,-1.043081283569336e-7,-9.421745258250832,0.006443381309509277
1776554392462283000,11.098282958984376,-2.477953693584496,0.004617435857653618,-0.18168616955550193,-0.024754410609602928,-0.03669380221698015,0.6239434537834567,2.1647588635263793,left,-0.00010985136032104492,1.2894813329628503,-1.6770364100001751,2.144680079104006,0.7591695072867028,0.007203355897217989,-0.001185983419418335,-9.421163658970594,0.00399327278137207
1776554392502282800,11.13828271484375,-2.4801781017863807,-0.014983447268605232,-0.18163454728696965,0.02088918350636959,-0.03674957254142179,0.6236732618684693,2.1669687681733447,left,-0.008667483925819397,1.2891037328394683,-1.6744447860717773,2.1512099192641676,0.7594010982623234,0.026065459474921227,0.006722435355186462,-9.420134900444745,-0.0005508661270141602
1776554392542283000,11.178282958984376,-2.4820089532139686,-0.013621333986520767,-0.18102965517488462,0.02248065173625946,-0.03642928401677563,0.6235340235123067,2.1701349553264433,left,0.00035643577575683594,1.2889956675887884,-1.6711258707821368,2.1550746318683025,0.759675223015822,-0.00001411139965057373,0.0006878376007080078,-9.419840301412343,0.005190908908843994
1776554392582283000,11.218282958984375,-2.4818298517465527,0.006323542445898056,-0.18071814873367031,0.007211002521216869,-0.0363804227304407,0.6236987766678701,2.1704877521196835,left,0.0059394389390945435,1.2894873263124746,-1.668670148193091,2.151112157978117,0.7596164170238372,0.0036349522415548563,0.00031426548957824707,-9.421180025583505,0.007035374641418457
1776554392622283000,11.258282958984376,-2.4804929441815617,0.014276069588959217,-0.18075553084335175,0.0022436855360865593,-0.03608574584602826,0.6237027444812481,2.169515142310129,left,0.0037941336631774902,1.2891436465507513,-1.673530447705835,2.1514324759736656,0.7596182721654166,0.0074418531730771065,-0.00017517805099487305,-9.420244206038117,0.002427995204925537
1776554392662283000,11.298282958984375,-2.480058013393138,0.008139061741530895,-0.18091033989800875,-0.011970112100243568,-0.0358291072376217,0.6235322288373747,2.169211661819623,left,0.007816523313522339,1.288435687261079,-1.6785618660017847,2.155965004836768,0.7597335224195191,0.014359399676322937,-0.005157575011253357,-9.418311776670812,0.00347137451171875
1776554392702283000,11.338282958984376,-2.4805321707114087,0.0058444710448384285,-0.18109003339598156,-0.010780845768749714,-0.03584172050752093,0.623372688894294,2.1693986030224597,left,-0.0011386275291442871,1.2880204681719771,-1.6799432373575864,2.1598511986203492,0.7598211090921959,0.004758257418870926,-0.00089263916015625,-9.417176635161042,0.0037998557090759277
1776554392742282800,11.37828271484375,-2.4808154272695115,-0.0050318920984864235,-0.18103275381437137,0.005179082043468952,-0.03578413118841795,0.6233266379499512,2.16984574975935,left,-0.0038717985153198242,1.2879221116454536,-1.6798995443463325,2.161057944061607,0.7598752458370194,0.0015256539918482304,-0.0012011826038360596,-9.416907170569896,0.0030282139778137207
1776554392782283000,11.418282958984374,-2.480510832531883,-0.0031320080161094666,-0.18091565872326573,0.0028284850995987654,-0.035741840894046376,0.6234097413813562,2.1697759205943976,left,-0.0019492805004119873,1.2881184997299504,-1.679420090266317,2.1590835752487183,0.7598368942200303,-0.008610468357801437,-0.0008214712142944336,-9.417444930708408,0.0035773515701293945
1776554392822283000,11.458282958984375,-2.4799071021158445,-0.005304083228111267,-0.1807730557997222,0.00023657060228288174,-0.03578909893444601,0.6236044578158563,2.1693214620822516,left,-0.0004389435052871704,1.2886318191880155,-1.6777524493150413,2.1542546937875446,0.7597088123129374,-0.006553084589540958,0.001818820834159851,-9.418847783243656,0.0034056901931762695
1776554392862283000,11.498282958984374,-2.479459276688758,0.00004863319918513298,-0.18074697970426376,0.0019151514861732721,-0.03578670226709599,0.62368384446949,2.1689183751175607,left,-0.003218904137611389,1.2887916708844989,-1.6777920506730675,2.1523165653318164,0.7596499743688513,-0.0018839221447706223,0.0024323761463165283,-9.419283836573362,0.002956986427307129
1776554392902283000,11.538282958984375,-2.478838448835483,-0.0003935681306757033,-0.18065434188358,0.004942780360579491,-0.03571157189772521,0.6237813078847365,2.168543770019041,left,-0.0015285909175872803,1.2889582284965255,-1.6781616146378218,2.150036637701094,0.7595954970278251,-0.0019011289114132524,0.0010277330875396729,-9.419738594603539,0.0014014244079589844
1776554392942283000,11.578282958984374,-2.4784130986225086,0.005323699209839106,-0.180593365157617,0.008900918066501617,-0.03561191925109862,0.6238181475322395,2.1683507903773367,left,-0.003683432936668396,1.2889647031939808,-1.6790385436028241,2.149274567287415,0.7595844221945592,0.0008557619294151664,0.001849547028541565,-9.419756130260229,0.003362596035003662
1776554392982282800,11.61828271484375,-2.477944535895198,-0.00023340852931141853,-0.18052829329755912,0.008524439297616482,-0.03546688393784556,0.6238367007754531,2.1681843821968227,left,-0.0007780492305755615,1.2888925861647027,-1.6804639002308248,2.1490227844834324,0.759591439859592,0.0010927771218121052,0.0006945282220840454,-9.419559146383405,0.0015835165977478027
1776554393022283000,11.658282958984374,-2.477628780304971,0.005368041340261698,-0.18037846933222523,0.006611265242099762,-0.03529192822230012,0.6238600747374407,2.1683377052747703,left,0.0026071667671203613,1.2888657668549632,-1.6813028352729975,2.148697059660405,0.7596161037840441,0.0006932074902579188,-0.0010621994733810425,-9.419486081147193,0.004347681999206543
1776554393062283000,11.698282958984375,-2.4768852612709935,0.007727127522230148,-0.1803280524211703,0.0007303962484002113,-0.035173949079111574,0.6239277653957552,2.167838333905943,left,0.0015777945518493652,1.2888984972151358,-1.6827094872005284,2.147203313971311,0.7595779391942997,-0.004045998211950064,-0.0005487948656082153,-9.419575512996316,0.00539243221282959
1776554393102283000,11.738282958984374,-2.4747023020558307,0.019114337861537933,-0.18042789149137237,0.004135374911129475,-0.03487286343389318,0.6240214722303279,2.1659408870065344,left,0.006667837500572205,1.2886554170127729,-1.688807657945156,2.1453224686607717,0.7594911004655504,-0.0014838557690382004,-0.0017926394939422607,-9.418912080651522,0.004271984100341797
1776554393142283000,11.778282958984375,-2.4729401724780478,0.020927071571350098,-0.18092774476074946,-0.024261474609375,-0.034813707924104764,0.6239838165421975,2.163529724707667,left,-0.000684097409248352,1.2881166081487534,-1.6957313197284936,2.146324923701584,0.7594058345341949,0.0009416427928954363,-0.000818789005279541,-9.417439670011401,0.003444850444793701
1776554393182283000,11.818282958984375,-2.4726334692090988,-0.0035876259207725525,-0.1810891447653647,0.02222670614719391,-0.03461596348812976,0.6238277844051576,2.1632616062192698,left,-0.00866672396659851,1.2874925666743966,-1.7000306243576109,2.150410585580021,0.7595045103544118,0.013648207299411297,0.004178762435913086,-9.415730528005957,-0.0022509098052978516
1776554393222283000,11.858282958984375,-2.472677146527806,-0.009113953448832035,-0.18068564866439205,0.013803648762404919,-0.03424872125465271,0.6238184976796933,2.1644176534210913,left,0.000028833746910095215,1.2874047953162044,-1.7004506033353506,2.1511348082013426,0.7596249090574393,-0.008568416349589825,-0.004593163728713989,-9.415490289509297,0.005589485168457031
1776554393262283000,11.898282958984375,-2.4715202618209715,0.007511536590754986,-0.1805022045268254,0.0030506253242492676,-0.03424406399283448,0.624084939428054,2.163546361382072,left,0.002068817615509033,1.2880208924155112,-1.6993363584831356,2.1446206040017306,0.7594498864136837,-0.0010564997792243958,-0.0023801326751708984,-9.41717780420482,0.004571378231048584
1776554393302283000,11.938282958984376,-2.470195633349986,0.00482446001842618,-0.18055103040642975,-0.0006363291759043932,-0.03409584452163073,0.6241689820157733,2.1623642419387696,left,0.003306970000267029,1.2879674782683528,-1.7024888311646877,2.1427619705229994,0.7593758848253408,-0.004069644957780838,-0.0018242299556732178,-9.4170316737324,0.001875758171081543
1776554393342283000,11.978282958984375,-2.469099319816795,0.00786720309406519,-0.18069371227663314,-0.00851632934063673,-0.0340246775035027,0.6242149863995757,2.161162109180581,left,0.006477728486061096,1.287854086646085,-1.7055042334631085,2.1417321890838443,0.7593073741103356,0.00033055897802114487,-0.0041150301694869995,-9.416721292608976,0.003240644931793213
1776554393382283000,12.018282958984376,-2.4685907935529348,0.0037478008307516575,-0.18098408374953814,-0.012784997932612896,-0.034099984962832564,0.6241817934824394,2.160120079121068,left,-0.00007852911949157715,1.2876392878665461,-1.7078502120673655,2.1424416525274514,0.7592620336595557,-0.002002506051212549,-0.0011841356754302979,-9.416132679066061,0.0005447268486022949
1776554393422283000,12.058282958984375,-2.4689875652912217,-0.005746049340814352,-0.18109583991242717,0.005345561541616917,-0.034133531463316054,0.624083894961332,2.160301871162597,left,-0.003328651189804077,1.287412207923211,-1.708335949757695,2.144796398960054,0.7593144472719632,0.005123703740537167,0.002843514084815979,-9.415510163253545,0.002001643180847168
1776554393462283000,12.098282958984376,-2.469744771248661,-0.011310435831546783,-0.18085246950026806,0.001221205573529005,-0.03414216225550027,0.6241043450940713,2.161403750989035,left,0.00048129260540008545,1.2876569033133678,-1.7052737857080995,2.1442815813057123,0.7593551663201002,-0.005162985995411873,0.0003387928009033203,-9.416181194382906,0.003774285316467285
1776554393502282800,12.13828271484375,-2.47012470565926,0.00034422334283590317,-0.1806589214813896,0.005526408087462187,-0.03414426042176518,0.6241511217249793,2.162065952027099,left,0.0007223188877105713,1.2879007288736128,-1.7030340439572929,2.143136064532399,0.7593627825796494,0.00892605260014534,0.001953423023223877,-9.416848718380928,0.0049994587898254395
1776554393542283000,12.178282958984376,-2.4698765099165976,0.003113746177405119,-0.18063835895751862,0.006729814223945141,-0.033964717782174865,0.6240936043258167,2.1621008271050406,left,-0.0006541162729263306,1.287619814547487,-1.7052124109096825,2.1447842701308426,0.7594230061949704,-0.000014006160199642181,0.001956045627593994,-9.4160794875741,0.00511401891708374
1776554393582283000,12.218282958984375,-2.468635740906688,0.01099231094121933,-0.18064172713326418,0.012308694422245026,-0.03376250587263934,0.6241578076077223,2.1611451266602177,left,-0.0006719827651977539,1.2875093852700559,-1.7085225583709776,2.143482539882511,0.759378507469986,0.0016529842978343368,0.0008753389120101929,-9.415776705235242,0.0021402835845947266
1776554393622283000,12.258282958984376,-2.4675464238754943,0.006425668951123953,-0.18060579476494273,0.005164719186723232,-0.033528198347918085,0.6242013765035493,2.1604430727764465,left,-0.00008463859558105469,1.2873590493581075,-1.7117378671556711,2.142723538208753,0.7593615727562543,0.0004326279740780592,-0.0014442503452301025,-9.415364617303013,0.0017858147621154785
1776554393662283000,12.298282958984375,-2.466561077621112,0.0066928802989423275,-0.18066872143110618,0.008039716631174088,-0.033371731635638426,0.6242233551673251,2.1595889109675137,left,-0.0014829784631729126,1.2871748086444552,-1.71493359445706,2.1423915297754106,0.7593354583558218,0.0014778139302507043,-0.00045236945152282715,-9.414859005868434,0.002039015293121338
1776554393702283000,12.338282958984376,-2.4659760614025887,-0.001054383348673582,-0.18062812705966622,0.004665794316679239,-0.033198411863642516,0.6242303792248689,2.1593099765426804,left,-0.001851990818977356,1.287030891035683,-1.7170352429114282,2.142446767093986,0.7593469701328278,-0.0024236119352281094,0.0007769763469696045,-9.414464453592895,0.002789139747619629
1776554393742282800,12.37828271484375,-2.4652020352040567,0.004646019544452429,-0.1805172026014681,0.007854576222598553,-0.03302915340780085,0.6243044804716192,2.158941628537317,left,0.00007016956806182861,1.2870667242846363,-1.718477989065647,2.1408492687694727,0.7593197140015319,-0.002336443867534399,-0.000506281852722168,-9.414562653270364,0.0031260251998901367
1776554393782283000,12.418282958984374,-2.464373620439916,0.002057194011285901,-0.18046582412143872,-0.0025441069155931473,-0.032963666375080046,0.6244160206531468,2.158285848430784,left,0.0028726309537887573,1.2872334518064237,-1.7192685549214481,2.1382031381748616,0.7592430832308364,-0.005369600839912891,-0.0014579743146896362,-9.415020333909988,0.004852712154388428
1776554393822283000,12.458282958984375,-2.4629222766382197,0.01180221512913704,-0.18079371137566236,-0.02961687371134758,-0.03297802080370952,0.6244683972702191,2.156336220797077,left,0.00295962393283844,1.2870702925377362,-1.7233347814470528,2.1369019924484194,0.7591213785649633,-0.005044299177825451,-0.0045608580112457275,-9.414572590142487,0.004924297332763672
1776554393862283000,12.498282958984374,-2.462071586085217,0.005557773634791374,-0.1812428509918585,0.0121319480240345,-0.033045572716959674,0.6243998924989207,2.15472934877613,left,-0.01230950653553009,1.2866527245943684,-1.727621226594597,2.1384917458578943,0.75906766408699,0.009562968276441097,0.009356364607810974,-9.413425173673033,-0.00338900089263916
1776554393902283000,12.538282958984375,-2.46170468643837,-0.0019487417303025723,-0.18103355632634208,0.020170893520116806,-0.03267330923900717,0.6243474390235232,2.155195860792727,left,-0.001092284917831421,1.2863249604399971,-1.7303442218177019,2.140255394529551,0.7591768283650288,-0.004506709985435009,0.0010519921779632568,-9.412523840919137,0.004358768463134766
1776554393942283000,12.578282958984374,-2.4590914237085166,0.004265421070158482,-0.18079988807716715,0.004736349917948246,-0.0323987653043002,0.6246964101630664,2.1533282683042767,left,0.0027157217264175415,1.2868272110281171,-1.7329478284448385,2.1320555753305555,0.7589571364221136,-0.018219679594039917,-0.0026347488164901733,-9.413904481622577,0.004398345947265625
1776554393982282800,12.61828271484375,-2.4564235935406007,0.011226282455027103,-0.1808193839697717,0.011076732538640499,-0.03226817726896521,0.6250043525942504,2.1508294020880396,left,0.004972830414772034,1.2872048388917134,-1.7363824790686369,2.1246752558209,0.7587045485769188,-0.011584949679672718,-0.0010858923196792603,-9.41494142345488,0.0029953718185424805
1776554394022283000,12.658282958984374,-2.4545953354439054,0.003003607504069805,-0.18094082830415711,0.005383739713579416,-0.032138447432896386,0.6251361426417025,2.149012676476306,left,0.0016954243183135986,1.287189411179881,-1.7403526978738606,2.1216052007257935,0.7585724277436978,-0.00877018179744482,-0.00008185207843780518,-9.414899337878822,0.0018843412399291992
1776554394062283000,12.698282958984375,-2.4536561399840866,0.014489995315670967,-0.1811473317419337,-0.006990525405853987,-0.0321234954094928,0.6251595793733328,2.1477934144241635,left,-0.0010723620653152466,1.287041133499883,-1.7432330756157635,2.1210509278438985,0.7585045131357838,-0.008227985352277756,-0.0003329813480377197,-9.414492510643601,0.00506436824798584
1776554394102283000,12.738282958984374,-2.452623120467334,0.013923783786594868,-0.18148708504208813,-0.003663326147943735,-0.03214451917237502,0.6251492483873942,2.1462328282899006,left,-0.005651921033859253,1.286762132653467,-1.7470958885237573,2.1212797681637108,0.758430983344024,-0.004762173164635897,0.001604318618774414,-9.413726202446222,0.0021210908889770508
1776554394142283000,12.778282958984375,-2.451514987986317,0.001448463648557663,-0.18163551683666948,0.0024097380228340626,-0.032051905773130454,0.6251832828675495,2.1450403139293086,left,-0.006419315934181213,1.2865942108681878,-1.7504522132143376,2.1205619752831755,0.7583713250664128,-0.003962340764701366,0.0012370795011520386,-9.413264430153369,0.0005003809928894043
1776554394182283000,12.818282958984375,-2.4505889370297953,0.000085045350715518,-0.18162652841299598,0.0016271981876343489,-0.032016675191950734,0.625303430744758,2.14418197122189,left,-0.00284518301486969,1.2867705029347156,-1.7513539843596517,2.1176569014914333,0.7582758164813764,-0.003761911764740944,-0.0002808868885040283,-9.41374899879992,0.0018442273139953613
1776554394222283000,12.858282958984375,-2.4494478027326165,0.006115601398050785,-0.18155292177898544,0.009030760265886784,-0.03193691152161501,0.6254626473137609,2.143268090382951,left,-0.0014209002256393433,1.2870197986305363,-1.752273583422601,2.1138525407724083,0.7581655334802817,-0.0008657313883304596,0.00011667609214782715,-9.414433473932743,0.0010393261909484863
1776554394262283000,12.898282958984375,-2.4481983245522905,0.0021715243346989155,-0.1815459140460709,0.005603044759482145,-0.03177332581315253,0.6255562393094115,2.1422649200406743,left,0.0007596462965011597,1.2870061666460566,-1.7549961402542889,2.1117611214511096,0.7580968833610965,-0.004959086887538433,-0.00004951655864715576,-9.414396064531802,0.002778172492980957
1776554394302283000,12.938282958984376,-2.447188326147923,0.006613810081034899,-0.18157265049884008,0.005618928000330925,-0.031645075748880674,0.62561775961025,2.1414004441139065,left,0.0006100088357925415,1.286947802856902,-1.7574822579815983,2.110412775582075,0.7580451380467629,-0.004204883240163326,0.00031876564025878906,-9.414235905534028,0.004189610481262207
1776554394342283000,12.978282958984375,-2.4461354605340278,0.003031255444511771,-0.18160477692893118,0.0005770400166511536,-0.03161215887378193,0.625736356104854,2.1403517970051595,left,0.000005587935447692871,1.287088635197886,-1.7588529618129134,2.1075423347122966,0.7579409011249144,-0.008876081556081772,-0.0008055716753005981,-9.414622859025002,0.002698183059692383
1776554394382283000,13.018282958984376,-2.445421225190884,-0.0005546084139496088,-0.181627228107425,-0.005457347724586725,-0.031606392761078364,0.6258256411867325,2.1396162095984894,left,0.001347377896308899,1.2872169342240232,-1.7595812760874627,2.1053563689753414,0.7578619930899407,-0.0032901857048273087,-0.00005190074443817139,-9.414974741202592,0.0022835135459899902
1776554394422283000,13.058282958984375,-2.445306796150294,0.002494947751984,-0.18172379591944107,-0.002599503379315138,-0.03162298926715418,0.6258028146549968,2.139335946839185,left,-0.001874297857284546,1.2871143207677138,-1.760441546178609,2.1058960288099944,0.7578569969243969,-0.0018287313869222999,0.000729873776435852,-9.414693001651763,0.0038843154907226562
1776554394462283000,13.098282958984376,-2.444333261770821,0.006301975809037685,-0.18179758975201651,-0.0015574159333482385,-0.031562065136190455,0.6258729621258401,2.1383436113084167,left,-0.0010885298252105713,1.2871048828115186,-1.762548309199512,2.1042495767772196,0.7577839145208464,-0.007254155818372965,0.0010367482900619507,-9.414667282688617,0.003462076187133789
1776554394502282800,13.13828271484375,-2.4429967592058586,0.007537210360169411,-0.1818815708648766,0.0014520633267238736,-0.031483944443685415,0.6259810954788603,2.1369993144423103,left,0.0030029863119125366,1.2871328810063014,-1.7651915171846746,2.101692731901258,0.7576777364913004,-0.0027438905090093613,-0.000819966197013855,-9.414743855056166,0.003488779067993164
1776554394542283000,13.178282958984376,-2.442309742907711,0.016361115500330925,-0.18226083484341332,-0.025601712986826897,-0.031556174750162966,0.625930470264669,2.135652429426313,left,-0.0025033950805664062,1.2868043780467033,-1.7686260216780005,2.1028467242419717,0.7576254246193419,0.008525365963578224,-0.0014843493700027466,-9.41384193778038,0.003993630409240723
1776554394582283000,13.218282958984375,-2.442590301888442,-0.002785567194223404,-0.1824181008630677,0.019940489903092384,-0.03153850629401495,0.6258007672067142,2.1357227670061176,left,-0.010670498013496399,1.2864280623567552,-1.7703119289383291,2.1060503425888717,0.7576953714030706,0.011229238472878933,0.007107272744178772,-9.412807334035634,0.0007562041282653809
1776554394622283000,13.258282958984376,-2.442135966523214,-0.005061591509729624,-0.18203558330677408,0.015547169372439384,-0.03112676254874748,0.6258291890353401,2.136414737236332,left,0.003215104341506958,1.2863430530979214,-1.7717850702308118,2.1058596423223612,0.7577809450735057,-0.0021111955866217613,-0.0019144266843795776,-9.41257352527976,0.0050470829010009766
1776554394662283000,13.298282958984375,-2.4410349375310685,0.013841614127159119,-0.181993297130221,-0.005850065499544144,-0.031203782640922866,0.6260532477370855,2.1352746545668517,left,0.004382222890853882,1.286849345212548,-1.771030014079809,2.1002638681419192,0.7576028312089483,-0.004386468790471554,-0.0015744268894195557,-9.413965856420994,0.0068111419677734375
1776554394702283000,13.338282958984376,-2.439068899332149,0.008832152932882309,-0.18223359695930605,-0.00013566669076681137,-0.031074669187055554,0.6261461093293975,2.133143723499965,left,0.004192039370536804,1.2866596409758204,-1.7763098541788755,2.09814103076905,0.7574736236515522,-0.0043085673823952675,-0.0006679445505142212,-9.413444462895393,0.0033403635025024414
1776554394742282800,13.37828271484375,-2.4379984964049903,0.0010596192441880703,-0.1823377265925031,0.001980237662792206,-0.03092562167218429,0.6261664683716729,2.1321333367413335,left,0.0014856159687042236,1.2864388949457106,-1.7798975034072995,2.097821151164919,0.7574377982245969,-0.0018377064261585474,-0.0025517791509628296,-9.41283714465201,0.002403557300567627
1776554394782283000,13.418282958984374,-2.4388100237728385,-0.013034924864768982,-0.18230979511637677,-0.007703839801251888,-0.031187800582343654,0.6262081436293228,2.1326147333400574,left,-0.0019242167472839355,1.2868266946929021,-1.7758321536645292,2.0964760201662775,0.7573992492622028,-0.0011537979589775205,-0.002165079116821289,-9.413903312578796,-0.00016826391220092773
1776554394822283000,13.458282958984375,-2.4399571016284787,-0.013822865672409534,-0.18215289139916235,0.006267012096941471,-0.031316782013751515,0.6261921928140265,2.133807729353519,left,-0.007251456379890442,1.2870773657330337,-1.7719040204353629,2.0967105595745146,0.7574448906182694,0.0014377761399373412,0.001879170536994934,-9.414591879364847,0.0024094581604003906
