time,seconds_elapsed,z,y,x
1776554381565874700,0.201874755859375,-3.920562744140625,-9.791885375976562,25.949756622314453
1776554381575915500,0.21191552734375,-3.9230804443359375,-9.8848876953125,25.938461303710938
1776554381585955600,0.22195556640625,-4.2248687744140625,-9.88909912109375,26.167343139648438
1776554381595995600,0.23199560546875,-3.923492431640625,-9.76922607421875,25.969375610351562
1776554381606035500,0.242035400390625,-4.0725555419921875,-9.675399780273438,25.831031799316406
1776554381616075500,0.252075439453125,-3.8979034423828125,-9.779129028320312,25.808391571044922
1776554381626115600,0.262115478515625,-4.0706329345703125,-9.821426391601562,25.772563934326172
1776554381636155600,0.27215576171875,-3.9772491455078125,-9.661285400390625,25.924304962158203
1776554381646196500,0.282196533203125,-4.0028228759765625,-9.590278625488281,25.76892852783203
1776554381656236500,0.292236572265625,-3.909637451171875,-9.667770385742188,25.694305419921875
1776554381666276400,0.3022763671875,-4.0657501220703125,-9.702392578125,25.871116638183594
1776554381676316400,0.31231640625,-4.0432586669921875,-9.707962036132812,25.797290802001953
1776554381686356500,0.3223564453125,-4.054229736328125,-9.905838012695312,25.864032745361328
1776554381696396500,0.332396484375,-4.343505859375,-9.873367309570312,25.895954132080078
1776554381706437600,0.342437744140625,-4.1899566650390625,-9.882957458496094,25.735370635986328
1776554381716477700,0.352477783203125,-4.0606231689453125,-9.956184387207031,25.862991333007812
1776554381726517500,0.362517578125,-3.985809326171875,-9.928535461425781,25.943904876708984
1776554381736557600,0.3725576171875,-4.038330078125,-10.021125793457031,25.86941146850586
1776554381746597600,0.38259765625,-4.1062774658203125,-10.105133056640625,25.77349090576172
1776554381756637700,0.3926376953125,-3.940704345703125,-10.1920166015625,25.838943481445312
1776554381766678500,0.402678466796875,-3.725494384765625,-10.389862060546875,25.932498931884766
1776554381776718600,0.412718505859375,-3.231597900390625,-10.573646545410156,25.985729217529297
1776554381786758700,0.422758544921875,-3.2085113525390625,-10.706550598144531,25.961830139160156
1776554381796798700,0.432798828125,-3.0017547607421875,-10.859786987304688,25.887645721435547
1776554381806838500,0.442838623046875,-2.3097076416015625,-11.063262939453125,25.869468688964844
1776554381816878600,0.452878662109375,-1.6978607177734375,-11.331245422363281,25.86620330810547
1776554381826919700,0.462919677734375,-0.6168975830078125,-11.602668762207031,25.9913330078125
1776554381836959500,0.47295947265625,-0.564910888671875,-11.882957458496094,25.797821044921875
1776554381846999600,0.48299951171875,0.55816650390625,-12.200645446777344,25.790077209472656
1776554381857039600,0.49303955078125,1.2025146484375,-12.501869201660156,25.632888793945312
1776554381867079400,0.503079345703125,2.264312744140625,-12.715431213378906,25.571514129638672
1776554381877119500,0.513119384765625,3.1214141845703125,-13.380538940429688,25.309112548828125
1776554381887159600,0.52315966796875,4.09393310546875,-13.831504821777344,25.03522491455078
1776554381897200600,0.53320068359375,4.9813079833984375,-14.244316101074219,24.81356430053711
1776554381907240700,0.54324072265625,5.9140472412109375,-14.641189575195312,24.42205810546875
1776554381917280800,0.55328076171875,6.7082977294921875,-15.167739868164062,24.426876068115234
1776554381927320600,0.563320556640625,7.261383056640625,-15.530231475830078,24.066505432128906
1776554381937360600,0.573360595703125,8.192520141601562,-15.980552673339844,23.94113540649414
1776554381947400400,0.583400390625,8.802871704101562,-16.257610321044922,23.905223846435547
1776554381957441500,0.593441650390625,9.548965454101562,-16.589813232421875,23.675952911376953
1776554381967481600,0.603481689453125,10.41253662109375,-16.828716278076172,23.51793670654297
1776554381977521700,0.613521728515625,10.845870971679688,-16.899776458740234,23.442615509033203
1776554381987561700,0.623561767578125,11.124404907226562,-16.886871337890625,23.54232406616211
1776554381997601500,0.6336015625,11.460891723632812,-16.779003143310547,23.51525115966797
1776554382007641600,0.6436416015625,11.62744140625,-16.739013671875,23.641735076904297
1776554382017682400,0.653682373046875,11.32568359375,-16.776809692382812,23.912166595458984
1776554382027722500,0.663722412109375,11.220718383789062,-16.557415008544922,24.156421661376953
1776554382037762600,0.673762451171875,11.116989135742188,-16.555011749267578,24.398345947265625
1776554382047802600,0.683802734375,10.569549560546875,-16.390052795410156,24.821903228759766
1776554382057842400,0.693842529296875,10.49017333984375,-16.15271759033203,25.114627838134766
1776554382067882500,0.703882568359375,10.21527099609375,-16.102428436279297,25.343975067138672
1776554382077922600,0.713922607421875,10.270660400390625,-16.024681091308594,25.549137115478516
1776554382087963600,0.723963623046875,10.309539794921875,-16.19632339477539,25.793594360351562
1776554382098003700,0.734003662109375,10.145126342773438,-16.094764709472656,25.912181854248047
1776554382108043800,0.744043701171875,9.902740478515625,-16.189285278320312,26.129974365234375
1776554382118083600,0.75408349609375,9.824554443359375,-16.519367218017578,26.385467529296875
1776554382128123600,0.76412353515625,9.096420288085938,-16.70331573486328,26.57415771484375
1776554382138163500,0.77416357421875,8.580612182617188,-17.00168228149414,26.901958465576172
1776554382148204500,0.78420458984375,7.7368927001953125,-16.909324645996094,27.298641204833984
1776554382158244600,0.79424462890625,7.43560791015625,-16.753158569335938,27.54180145263672
1776554382168284700,0.80428466796875,6.8506622314453125,-16.824283599853516,27.841552734375
1776554382178324700,0.81432470703125,6.52362060546875,-16.653209686279297,28.294330596923828
1776554382188364500,0.824364501953125,5.9264678955078125,-16.59441375732422,28.616531372070312
1776554382198404600,0.834404541015625,5.6693878173828125,-16.493038177490234,29.215618133544922
1776554382208445400,0.844445556640625,5.151580810546875,-16.33258056640625,29.41924285888672
1776554382218485500,0.854485595703125,4.3886260986328125,-16.20490264892578,29.815166473388672
1776554382228525600,0.864525634765625,3.6945648193359375,-15.906929016113281,30.285938262939453
1776554382238565600,0.874565673828125,3.3026275634765625,-15.535316467285156,30.62451171875
1776554382248605400,0.88460546875,2.9876708984375,-15.14261245727539,31.24915313720703
1776554382258645500,0.8946455078125,2.6756439208984375,-14.723953247070312,31.59925079345703
1776554382268686600,0.9046865234375,2.14312744140625,-14.31219482421875,32.0133056640625
1776554382278726700,0.9147265625,1.781402587890625,-13.684036254882812,32.46705627441406
1776554382288766700,0.9247666015625,1.755035400390625,-13.095932006835938,32.92745590209961
1776554382298806800,0.934806884765625,1.2913665771484375,-12.575714111328125,33.448734283447266
1776554382308846600,0.9448466796875,1.40911865234375,-11.87188720703125,33.94781494140625
1776554382318886400,0.954886474609375,1.0862274169921875,-11.000259399414062,34.36366653442383
1776554382328926500,0.964926513671875,0.89727783203125,-10.021942138671875,34.76080322265625
1776554382338967600,0.974967529296875,1.0613250732421875,-9.253524780273438,35.396915435791016
1776554382349007600,0.985007568359375,0.7017059326171875,-8.2508544921875,35.789981842041016
1776554382359047700,0.995047607421875,0.59503173828125,-7.226043701171875,36.25215530395508
1776554382369087700,1.005087646484375,0.564697265625,-6.148170471191406,36.6679801940918
1776554382379127600,1.01512744140625,0.6956787109375,-4.7803497314453125,37.073638916015625
1776554382389167600,1.025167724609375,1.0501708984375,-3.3029098510742188,37.420719146728516
1776554382399208400,1.03520849609375,1.02484130859375,-1.7161865234375,37.61806106567383
1776554382409248500,1.04524853515625,1.1830902099609375,0.02785491943359375,37.824527740478516
1776554382419288600,1.05528857421875,1.3477783203125,1.740234375,38.032806396484375
1776554382429328600,1.06532861328125,1.8545074462890625,3.6709213256835938,38.26347732543945
1776554382439368400,1.075368408203125,2.072357177734375,5.535430908203125,38.14149475097656
1776554382449408500,1.085408447265625,2.1934814453125,7.6805572509765625,38.003849029541016
1776554382459449600,1.09544970703125,2.25482177734375,9.726066589355469,37.8722038269043
1776554382469489700,1.10548974609375,2.370758056640625,11.884635925292969,37.706298828125
1776554382479529700,1.11552978515625,2.7824554443359375,14.016456604003906,37.49885559082031
1776554382489569800,1.12556982421875,2.8758392333984375,16.30394744873047,37.19893264770508
1776554382499609600,1.135609619140625,3.6974029541015625,18.421653747558594,36.74574661254883
1776554382509649400,1.1456494140625,4.4239654541015625,20.363731384277344,36.10468673706055
1776554382519690500,1.1556904296875,5.5216064453125,22.298080444335938,35.55765151977539
1776554382529730600,1.16573046875,5.5216064453125,22.298080444335938,35.55765151977539
1776554382539770600,1.1757705078125,6.7913818359375,23.840087890625,35.02748489379883
1776554382549810700,1.185810791015625,8.437026977539062,25.224990844726562,34.1516227722168
1776554382559850800,1.195850830078125,10.63311767578125,26.28282928466797,33.336490631103516
1776554382569890600,1.205890625,12.546417236328125,27.00139617919922,32.471107482910156
1776554382579931400,1.215931396484375,14.850875854492188,27.293319702148438,31.58861541748047
1776554382589971500,1.225971435546875,17.3099365234375,27.162986755371094,30.790077209472656
1776554382600011500,1.236011474609375,19.392120361328125,26.48126983642578,29.832897186279297
1776554382610051600,1.246051513671875,21.299346923828125,25.372108459472656,29.095378875732422
1776554382620091600,1.256091552734375,23.6065673828125,23.94225311279297,28.399513244628906
1776554382630131500,1.26613134765625,25.566986083984375,22.153358459472656,27.85784149169922
1776554382640171500,1.276171630859375,27.162979125976562,20.22248077392578,27.132701873779297
1776554382650212600,1.286212646484375,28.68719482421875,18.06237030029297,26.379112243652344
1776554382660252700,1.296252685546875,29.937301635742188,15.628913879394531,25.67238998413086
1776554382670292700,1.306292724609375,31.004547119140625,13.162391662597656,24.855587005615234
1776554382680332500,1.31633251953125,31.82110595703125,10.841117858886719,24.308135986328125
1776554382690372600,1.32637255859375,32.50370788574219,8.607040405273438,23.634384155273438
1776554382700412400,1.336412353515625,32.90480041503906,6.720161437988281,23.31344985961914
1776554382710453500,1.34645361328125,32.738433837890625,4.9564971923828125,22.829776763916016
1776554382720493600,1.35649365234375,33.074005126953125,4.116416931152344,21.914897918701172
1776554382730533600,1.36653369140625,33.37474060058594,4.123832702636719,20.759239196777344
1776554382740573700,1.37657373046875,33.74615478515625,4.35205078125,19.570934295654297
1776554382750613800,1.38661376953125,33.80970764160156,4.9823150634765625,18.588787078857422
1776554382760654000,1.396654052734375,34.315032958984375,5.677093505859375,17.87885284423828
1776554382770695000,1.40669482421875,34.36152648925781,6.255409240722656,17.781482696533203
1776554382780735000,1.41673486328125,33.8184814453125,6.556983947753906,17.863082885742188
1776554382790774800,1.42677490234375,33.50736999511719,6.577781677246094,18.35613250732422
1776554382800814800,1.43681494140625,32.84648132324219,6.425239562988281,18.902488708496094
1776554382810855000,1.44685498046875,32.62713623046875,6.242942810058594,19.46556854248047
1776554382820895000,1.45689501953125,32.14179992675781,6.096229553222656,20.06757354736328
1776554382830936000,1.46693603515625,31.2974853515625,5.636177062988281,20.497039794921875
1776554382840976000,1.476975830078125,30.952041625976562,4.951255798339844,21.210941314697266
1776554382851016000,1.487015869140625,30.653976440429688,4.371635437011719,21.903518676757812
1776554382861055700,1.4970556640625,30.402938842773438,3.2390594482421875,22.556705474853516
1776554382871095800,1.507095703125,30.172149658203125,2.1754226684570312,23.117156982421875
1776554382881135900,1.517135986328125,30.109573364257812,1.2609329223632812,23.48757553100586
1776554382891177000,1.527177001953125,29.436447143554688,0.3460845947265625,23.845104217529297
1776554382901217000,1.537217041015625,29.160049438476562,-0.34906005859375,24.191390991210938
1776554382911257000,1.547257080078125,28.978652954101562,-1.12628173828125,24.50775146484375
1776554382921297000,1.557296875,28.510833740234375,-1.6640090942382812,24.79019546508789
1776554382931337000,1.5673369140625,27.795654296875,-2.0977554321289062,25.087322235107422
1776554382941377000,1.577376953125,27.225326538085938,-2.422393798828125,25.603919982910156
1776554382951417000,1.5874169921875,26.533645629882812,-2.5410919189453125,26.024730682373047
1776554382961458000,1.5974580078125,26.036895751953125,-2.4901504516601562,26.589828491210938
1776554382971498000,1.607498046875,25.331695556640625,-2.4864959716796875,27.00982666015625
1776554382981537800,1.617537841796875,24.887481689453125,-2.17596435546875,27.417720794677734
1776554382991577900,1.627577880859375,24.188262939453125,-1.8196487426757812,27.91910171508789
1776554383001618000,1.637617919921875,23.76837158203125,-1.6024932861328125,28.41928482055664
1776554383011658000,1.647657958984375,23.221511840820312,-1.3992538452148438,28.74817657470703
1776554383021699000,1.657698974609375,23.0191650390625,-1.2470932006835938,29.129440307617188
1776554383031739000,1.66773876953125,22.152786254882812,-1.3594818115234375,29.507137298583984
1776554383041779000,1.677779052734375,21.643585205078125,-1.8171539306640625,29.935489654541016
1776554383051818800,1.68781884765625,21.139678955078125,-2.2111358642578125,30.516223907470703
1776554383061858800,1.69785888671875,20.75762939453125,-2.3990631103515625,30.752044677734375
1776554383071899000,1.70789892578125,20.3251953125,-2.4141464233398438,30.912742614746094
1776554383081940000,1.71793994140625,19.765426635742188,-2.290313720703125,31.254291534423828
1776554383091980000,1.72797998046875,19.7188720703125,-1.764373779296875,31.226512908935547
1776554383102020000,1.73802001953125,19.796630859375,-1.2333908081054688,31.50900650024414
1776554383112060000,1.748059814453125,19.841598510742188,-0.6594924926757812,31.178985595703125
1776554383122100000,1.758099853515625,19.955718994140625,0.03021240234375,30.937911987304688
1776554383132140000,1.76814013671875,20.278762817382812,0.6693038940429688,30.849246978759766
1776554383142180900,1.778180908203125,19.984512329101562,1.2636795043945312,30.849925994873047
1776554383152221000,1.788220947265625,20.1014404296875,1.86993408203125,30.77127456665039
1776554383162261000,1.798260986328125,20.31549072265625,2.4391632080078125,30.602439880371094
1776554383172300800,1.80830078125,20.813552856445312,2.7997589111328125,30.35097885131836
1776554383182340900,1.8183408203125,21.6561279296875,3.1842727661132812,29.789554595947266
1776554383192381000,1.828380859375,22.252288818359375,3.4624481201171875,29.24899673461914
1776554383202422000,1.838422119140625,22.986495971679688,3.7656097412109375,28.69576644897461
1776554383212461800,1.8484619140625,23.46966552734375,4.339317321777344,28.187896728515625
1776554383222502000,1.858501953125,23.517364501953125,5.2551727294921875,27.723655700683594
1776554383232542000,1.8685419921875,23.906143188476562,6.170158386230469,27.451934814453125
1776554383242581800,1.878581787109375,24.150772094726562,6.957267761230469,27.406192779541016
1776554383252622800,1.888622802734375,23.927947998046875,7.8283843994140625,27.110294342041016
1776554383262663000,1.898662841796875,24.067733764648438,8.73046875,26.827407836914062
1776554383272703000,1.908702880859375,23.767181396484375,9.612373352050781,26.613079071044922
1776554383282743000,1.918742919921875,23.2459716796875,10.690345764160156,26.47735595703125
1776554383292783000,1.928783203125,22.747955322265625,11.548896789550781,26.451183319091797
1776554383302823000,1.938822998046875,22.413681030273438,12.530319213867188,26.381633758544922
1776554383312863700,1.94886376953125,22.102035522460938,13.361907958984375,26.194835662841797
1776554383322903800,1.95890380859375,22.018753051757812,14.072654724121094,25.980236053466797
1776554383332944000,1.96894384765625,21.827285766601562,14.832122802734375,25.596275329589844
1776554383342984000,1.97898388671875,21.897689819335938,15.635734558105469,25.176742553710938
1776554383353024000,1.98902392578125,22.015228271484375,16.107498168945312,24.688682556152344
1776554383363063800,1.999063720703125,22.315200805664062,16.554161071777344,24.320453643798828
1776554383373105000,2.00910498046875,21.95159912109375,17.284149169921875,23.94997787475586
1776554383383145000,2.01914501953125,21.708572387695312,17.942062377929688,23.89318084716797
1776554383393185000,2.02918505859375,21.282440185546875,18.812454223632812,23.471614837646484
1776554383403224800,2.039224853515625,21.096466064453125,19.38079833984375,23.103832244873047
1776554383413265000,2.049264892578125,20.9688720703125,19.7528076171875,22.685592651367188
1776554383423305000,2.059304931640625,21.392532348632812,19.90412139892578,22.325305938720703
1776554383433346000,2.069345947265625,21.842269897460938,20.175430297851562,22.033065795898438
1776554383443385900,2.0793857421875,21.9281005859375,20.361785888671875,21.752399444580078
1776554383453426000,2.089426025390625,21.957229614257812,20.63361358642578,21.558490753173828
1776554383463466000,2.099466064453125,21.792816162109375,20.661590576171875,21.628311157226562
1776554383473506000,2.109506103515625,21.871917724609375,20.762718200683594,21.698562622070312
1776554383483546000,2.119546142578125,21.39764404296875,20.625885009765625,21.9581298828125
1776554383493587000,2.1295869140625,21.623733520507812,20.565101623535156,22.132625579833984
1776554383503626800,2.139626708984375,22.113449096679688,20.38922119140625,22.090171813964844
1776554383513666800,2.149666748046875,22.435470581054688,20.03876495361328,22.18828582763672
1776554383523707000,2.159706787109375,22.659439086914062,19.679664611816406,22.309749603271484
1776554383533747000,2.169746826171875,22.830337524414062,19.31273651123047,22.331600189208984
1776554383543787000,2.179787109375,22.947799682617188,19.003616333007812,22.360458374023438
1776554383553828000,2.189828125,22.84259033203125,18.968833923339844,22.55725860595703
1776554383563868000,2.199867919921875,22.977325439453125,18.815902709960938,22.646190643310547
1776554383573908000,2.209907958984375,23.114227294921875,18.619117736816406,22.86807632446289
1776554383583947800,2.21994775390625,23.112747192382812,18.32050323486328,22.881591796875
1776554383593987800,2.22998779296875,23.21954345703125,18.126220703125,22.967987060546875
1776554383604028000,2.24002783203125,23.342453002929688,17.778602600097656,23.00082778930664
1776554383614069000,2.250069091796875,23.714981079101562,17.595802307128906,23.004947662353516
1776554383624109000,2.260109130859375,23.947463989257812,17.15972137451172,23.183712005615234
1776554383634148900,2.27014892578125,24.107421875,17.017555236816406,23.235275268554688
1776554383644189000,2.28018896484375,24.29736328125,16.96259307861328,23.148399353027344
1776554383654229000,2.29022900390625,24.409896850585938,16.802474975585938,23.218490600585938
1776554383664269000,2.30026904296875,24.746597290039062,16.508880615234375,23.386898040771484
1776554383674310000,2.310309814453125,25.09820556640625,16.23914337158203,23.313800811767578
1776554383684350000,2.320349853515625,25.4503173828125,15.715904235839844,23.162212371826172
1776554383694389800,2.3303896484375,25.767959594726562,15.217041015625,23.24664306640625
1776554383704429800,2.340429931640625,26.157089233398438,14.657646179199219,23.048885345458984
1776554383714470000,2.350469970703125,26.677093505859375,14.156829833984375,23.333866119384766
1776554383724511000,2.360510986328125,27.015518188476562,13.864448547363281,23.292072296142578
1776554383734551000,2.370551025390625,26.75653076171875,13.502037048339844,23.372066497802734
1776554383744591000,2.380591064453125,26.827423095703125,13.224365234375,23.234172821044922
1776554383754631200,2.390631103515625,27.66888427734375,12.823684692382812,22.947418212890625
1776554383764671000,2.4006708984375,28.010238647460938,12.869049072265625,22.488811492919922
1776554383774710800,2.410710693359375,28.7896728515625,12.780448913574219,21.78946304321289
1776554383784751900,2.420751953125,29.586883544921875,12.449363708496094,20.910335540771484
1776554383794791700,2.430791748046875,30.602325439453125,12.487174987792969,19.828689575195312
1776554383804831700,2.440831787109375,31.446304321289062,12.358657836914062,18.833267211914062
1776554383814871800,2.450871826171875,31.979965209960938,12.653045654296875,17.94852066040039
1776554383824912000,2.460911865234375,32.25828552246094,13.090042114257812,17.437252044677734
1776554383834952000,2.470951904296875,31.706573486328125,13.491539001464844,17.396892547607422
1776554383844992800,2.48099267578125,31.706573486328125,13.491539001464844,17.396892547607422
1776554383855032600,2.491032470703125,31.407241821289062,14.103202819824219,17.587100982666016
1776554383865072600,2.50107275390625,31.055862426757812,14.659042358398438,17.845375061035156
1776554383875112700,2.51111279296875,30.529953002929688,15.313156127929688,18.068958282470703
1776554383885152800,2.52115283203125,29.876937866210938,15.8201904296875,18.320411682128906
1776554383895192800,2.53119287109375,29.527587890625,16.17693328857422,18.387523651123047
1776554383905234000,2.54123388671875,29.432647705078125,16.468170166015625,18.359432220458984
1776554383915274000,2.55127392578125,29.301177978515625,16.58318328857422,18.0888671875
1776554383925313800,2.561313720703125,29.7353515625,16.42351531982422,17.717544555664062
1776554383935353900,2.571353759765625,29.935470581054688,16.536476135253906,16.875938415527344
1776554383945394000,2.581393798828125,30.496261596679688,16.56139373779297,16.273178100585938
1776554383955433700,2.591433837890625,31.083023071289062,16.2801513671875,15.694801330566406
1776554383965474800,2.601474853515625,31.522201538085938,16.376083374023438,14.976387023925781
1776554383975515000,2.611514892578125,31.959442138671875,16.573699951171875,14.385265350341797
1776554383985554700,2.6215546875,32.29866027832031,16.62139892578125,13.664119720458984
1776554383995594800,2.6315947265625,32.49421691894531,16.57288360595703,13.099662780761719
1776554384005634800,2.641634765625,33.14741516113281,16.546958923339844,12.757926940917969
1776554384015676000,2.651676025390625,33.11628723144531,16.65447235107422,12.362167358398438
1776554384025715700,2.6617158203125,33.24250793457031,16.750152587890625,12.172779083251953
1776554384035755800,2.671755859375,33.17301940917969,17.002151489257812,11.921112060546875
1776554384045795800,2.6817958984375,32.97105407714844,17.07848358154297,11.744224548339844
1776554384055835600,2.691835693359375,33.02488708496094,17.31647491455078,11.72564697265625
1776554384065875700,2.701875732421875,33.05601501464844,17.326148986816406,11.709102630615234
1776554384075916800,2.711916748046875,33.02561950683594,17.361595153808594,11.491706848144531
1776554384085956900,2.721956787109375,33.05464172363281,17.340538024902344,11.513572692871094
1776554384095997000,2.731996826171875,33.215606689453125,17.435630798339844,11.38858413696289
1776554384106037000,2.742037109375,33.44306945800781,17.233367919921875,11.45547103881836
1776554384116076800,2.752076904296875,32.99932861328125,17.1982421875,11.45993423461914
1776554384126116900,2.762116943359375,33.13270568847656,17.311248779296875,11.594902038574219
1776554384136157700,2.77215771484375,32.77931213378906,17.274818420410156,11.949409484863281
1776554384146197800,2.78219775390625,32.63227844238281,17.514938354492188,12.258079528808594
1776554384156237800,2.79223779296875,32.21626281738281,17.85234832763672,12.461315155029297
1776554384166278000,2.80227783203125,31.95428466796875,18.143829345703125,12.604923248291016
1776554384176317700,2.812317626953125,31.7305908203125,18.418838500976562,12.866592407226562
1776554384186357800,2.822357666015625,31.677139282226562,18.544105529785156,12.889225006103516
1776554384196398800,2.83239892578125,31.731170654296875,18.725234985351562,12.832584381103516
1776554384206438700,2.842438720703125,31.661453247070312,18.89312744140625,12.575309753417969
1776554384216478700,2.852478759765625,31.723297119140625,19.227195739746094,12.347557067871094
1776554384226518800,2.862518798828125,31.848922729492188,19.19574737548828,12.222808837890625
1776554384236558800,2.872558837890625,31.991287231445312,19.354759216308594,12.059192657470703
1776554384246598700,2.8825986328125,32.09352111816406,19.41712188720703,11.938899993896484
1776554384256639700,2.8926396484375,32.10298156738281,19.63567352294922,11.832454681396484
1776554384266679800,2.9026796875,31.908645629882812,19.75959014892578,11.760852813720703
1776554384276719900,2.912719970703125,32.06129455566406,19.641075134277344,11.722888946533203
1776554384286760000,2.922760009765625,32.375823974609375,19.541725158691406,11.831439971923828
1776554384296800000,2.932800048828125,32.561614990234375,19.247459411621094,11.60659408569336
1776554384306840800,2.9428408203125,32.82513427734375,19.037643432617188,11.394264221191406
1776554384316880600,2.952880615234375,33.04496765136719,18.920150756835938,11.373249053955078
1776554384326920700,2.962920654296875,33.40205383300781,18.609420776367188,11.289012908935547
1776554384336960800,2.972960693359375,33.558563232421875,18.13848114013672,11.39404296875
1776554384347000800,2.983000732421875,33.742401123046875,17.789825439453125,11.492259979248047
1776554384357041000,2.993041015625,33.917633056640625,17.726722717285156,11.355819702148438
1776554384367082000,3.00308203125,33.977813720703125,17.512718200683594,11.24759292602539
1776554384377121800,3.013121826171875,34.10621643066406,17.40428924560547,11.192523956298828
1776554384387161900,3.023161865234375,34.396392822265625,17.410568237304688,11.029911041259766
1776554384397201700,3.03320166015625,34.543670654296875,17.596832275390625,10.87723159790039
1776554384407241700,3.04324169921875,34.242950439453125,17.46051025390625,10.89529037475586
1776554384417281800,3.05328173828125,34.246002197265625,17.433265686035156,11.001258850097656
1776554384427323000,3.063322998046875,34.676544189453125,17.04698944091797,11.365371704101562
1776554384437363000,3.073363037109375,34.75242614746094,16.30554962158203,11.577159881591797
1776554384447402800,3.08340283203125,35.312774658203125,15.34307861328125,12.008056640625
1776554384457442800,3.09344287109375,35.758087158203125,14.383918762207031,12.337703704833984
1776554384467483000,3.10348291015625,36.18824768066406,13.559638977050781,12.519245147705078
1776554384477523700,3.113523681640625,36.72434997558594,12.854354858398438,12.676155090332031
1776554384487563800,3.123563720703125,37.03309631347656,12.202972412109375,12.408287048339844
1776554384497603800,3.133603759765625,36.95744323730469,12.389617919921875,12.363475799560547
1776554384507643600,3.1436435546875,36.81620788574219,12.705169677734375,12.459609985351562
1776554384517683700,3.15368359375,36.3033447265625,12.891311645507812,12.508419036865234
1776554384527723800,3.163723876953125,36.41209411621094,13.042022705078125,12.664688110351562
1776554384537764900,3.173764892578125,36.03839111328125,13.353660583496094,12.503921508789062
1776554384547805000,3.183804931640625,36.0478515625,13.297859191894531,12.440765380859375
1776554384557845000,3.193844970703125,36.25651550292969,12.959815979003906,12.30025863647461
1776554384567884800,3.203884765625,36.43760681152344,12.62359619140625,12.373653411865234
1776554384577924600,3.213924560546875,37.125885009765625,12.181327819824219,12.300884246826172
1776554384587964700,3.223964599609375,36.87422180175781,11.802665710449219,12.217987060546875
1776554384598005800,3.234005859375,37.050933837890625,11.681686401367188,12.278160095214844
1776554384608045800,3.2440458984375,37.174407958984375,11.259567260742188,12.462028503417969
1776554384618086000,3.2540859375,37.58229064941406,11.103408813476562,12.746902465820312
1776554384628126000,3.2641259765625,37.38545227050781,10.753143310546875,12.602882385253906
1776554384638165800,3.274165771484375,37.54096984863281,10.396514892578125,12.660083770751953
1776554384648205800,3.284205810546875,37.42852783203125,9.957794189453125,12.66055679321289
1776554384658246700,3.29424658203125,37.602996826171875,9.829658508300781,12.653167724609375
1776554384668286700,3.30428662109375,37.76654052734375,9.573997497558594,12.662788391113281
1776554384678326800,3.314326904296875,37.63841247558594,9.518104553222656,12.721538543701172
1776554384688366800,3.324366943359375,37.666412353515625,9.562454223632812,12.910514831542969
1776554384698406700,3.33440673828125,37.80964660644531,9.391960144042969,13.02048110961914
1776554384708446700,3.34444677734375,37.54400634765625,9.448944091796875,13.230300903320312
1776554384718487800,3.35448779296875,37.5712890625,9.206733703613281,13.346298217773438
1776554384728528000,3.36452783203125,37.34693908691406,8.9869384765625,13.370296478271484
1776554384738568000,3.37456787109375,37.40840148925781,8.759239196777344,13.435562133789062
1776554384748608000,3.38460791015625,37.353790283203125,8.855049133300781,13.635364532470703
1776554384758647300,3.394647216796875,37.43617248535156,8.935317993164062,13.867713928222656
1776554384768688000,3.404688232421875,37.23078918457031,8.912605285644531,13.901641845703125
1776554384778728200,3.414728271484375,37.088165283203125,8.883506774902344,13.877761840820312
1776554384788768300,3.424768310546875,37.06571960449219,9.102386474609375,13.885833740234375
1776554384798808000,3.43480810546875,37.11534118652344,9.051651000976562,13.954948425292969
1776554384808848100,3.44484814453125,37.071380615234375,9.203849792480469,13.926513671875
1776554384818888200,3.45488818359375,37.01716613769531,9.276710510253906,13.971076965332031
1776554384828929300,3.46492919921875,36.9146728515625,9.328514099121094,14.033340454101562
1776554384838969300,3.47496923828125,36.89830017089844,9.4697265625,14.241504669189453
1776554384849009200,3.485009033203125,36.784576416015625,9.650993347167969,14.31784439086914
1776554384859049000,3.495049072265625,36.74961853027344,9.702957153320312,14.437519073486328
1776554384869089000,3.505089111328125,36.5205078125,9.666984558105469,14.543853759765625
1776554384879129000,3.515129150390625,36.52015686035156,9.800697326660156,14.758140563964844
1776554384889170200,3.525170166015625,36.20732116699219,9.665641784667969,14.856430053710938
1776554384899210200,3.535210205078125,36.74891662597656,9.787933349609375,15.043338775634766
1776554384909250300,3.545250244140625,36.662261962890625,9.817573547363281,14.766357421875
1776554384919290000,3.5552900390625,36.686859130859375,9.814743041992188,14.817546844482422
1776554384929330200,3.565330078125,36.49391174316406,9.952690124511719,14.78078842163086
1776554384939370200,3.575370361328125,36.48799133300781,10.109588623046875,14.783199310302734
1776554384949411000,3.5854111328125,36.78204345703125,10.112785339355469,14.788742065429688
1776554384959451100,3.595451171875,36.54017639160156,10.409622192382812,14.701889038085938
1776554384969491200,3.6054912109375,36.22358703613281,10.332801818847656,14.695171356201172
1776554384979531300,3.61553125,36.28532409667969,10.452247619628906,14.570255279541016
1776554384989571000,3.625571044921875,36.439910888671875,10.514274597167969,14.454723358154297
1776554384999611100,3.635611083984375,36.45855712890625,10.679939270019531,14.34722900390625
1776554385009652200,3.64565234375,36.50355529785156,10.780029296875,14.291191101074219
1776554385019692300,3.6556923828125,36.40765380859375,10.551223754882812,14.239505767822266
1776554385029732400,3.665732421875,36.72151184082031,10.781951904296875,14.042724609375
1776554385039772200,3.675772216796875,36.806488037109375,11.098739624023438,14.251758575439453
1776554385049812000,3.68581201171875,36.72300720214844,10.913970947265625,14.024608612060547
1776554385059853000,3.69585302734375,36.847900390625,11.044403076171875,13.88018798828125
1776554385069893000,3.70589306640625,36.68943786621094,11.172897338867188,13.795581817626953
1776554385079933200,3.71593310546875,36.6041259765625,11.265380859375,13.718494415283203
1776554385089973200,3.72597314453125,36.817169189453125,11.323249816894531,13.652999877929688
1776554385100013300,3.736013427734375,36.85691833496094,11.526603698730469,13.542972564697266
1776554385110053000,3.74605322265625,36.800628662109375,11.606254577636719,13.57248306274414
1776554385120094000,3.756093994140625,36.84379577636719,11.550247192382812,13.626693725585938
1776554385130134000,3.766134033203125,36.76124572753906,11.629219055175781,13.67047119140625
1776554385140174000,3.776174072265625,36.766632080078125,11.792007446289062,13.646743774414062
1776554385150214100,3.786214111328125,36.690185546875,11.844039916992188,13.627296447753906
1776554385160254200,3.796254150390625,36.690185546875,11.844039916992188,13.627296447753906
1776554385170294300,3.806294189453125,36.592315673828125,11.869544982910156,13.626422882080078
1776554385180335400,3.81633544921875,36.54106140136719,11.973899841308594,13.648300170898438
1776554385190375200,3.826375244140625,37.066070556640625,11.713966369628906,13.835636138916016
1776554385200415200,3.836415283203125,36.75364685058594,11.823593139648438,13.694976806640625
1776554385210455300,3.846455322265625,36.66583251953125,11.941719055175781,13.544025421142578
1776554385220495000,3.8564951171875,36.76637268066406,12.002632141113281,13.609371185302734
1776554385230535200,3.86653515625,36.785980224609375,12.010162353515625,13.583049774169922
1776554385240576300,3.876576171875,36.90010070800781,12.025634765625,13.624855041503906
1776554385250616000,3.886615966796875,36.68145751953125,12.21856689453125,13.38718032836914
1776554385260656000,3.89665625,36.82810974121094,11.999557495117188,13.457122802734375
1776554385270696200,3.9066962890625,36.854705810546875,12.110084533691406,13.517646789550781
1776554385280736300,3.916736328125,36.98722839355469,12.068984985351562,13.369132995605469
1776554385290776300,3.9267763671875,36.95111083984375,12.179412841796875,13.38602066040039
1776554385300817200,3.936817138671875,37.023651123046875,12.162223815917969,13.411251068115234
1776554385310857000,3.94685693359375,36.797760009765625,12.195289611816406,13.426292419433594
1776554385320897000,3.95689697265625,36.7830810546875,12.286972045898438,13.286033630371094
1776554385330937000,3.96693701171875,36.939910888671875,12.097976684570312,13.334774017333984
1776554385340977200,3.97697705078125,36.89251708984375,12.118087768554688,13.379547119140625
1776554385351018200,3.987018310546875,36.934539794921875,12.233619689941406,13.25875473022461
1776554385361058300,3.997058349609375,36.94688415527344,12.170623779296875,13.266830444335938
1776554385371098400,4.007098388671875,36.75505065917969,12.173011779785156,13.454776763916016
1776554385381138200,4.01713818359375,36.96110534667969,12.013931274414062,13.538459777832031
1776554385391178200,4.02717822265625,36.629547119140625,11.840576171875,13.42935562133789
1776554385401218000,4.037218017578125,36.595428466796875,11.792549133300781,13.718971252441406
1776554385411259100,4.047259033203125,36.63330078125,11.660713195800781,13.881118774414062
1776554385421299200,4.05729931640625,36.53643798828125,11.753829956054688,13.693958282470703
1776554385431339300,4.06733935546875,36.48448181152344,11.538581848144531,13.629993438720703
1776554385441379000,4.077379150390625,36.23036193847656,11.513954162597656,13.673290252685547
1776554385451419100,4.087419189453125,36.31211853027344,11.645462036132812,13.676898956298828
1776554385461459200,4.097459228515625,36.28752136230469,11.405029296875,13.780471801757812
1776554385471500000,4.1075,36.32453918457031,11.21734619140625,14.04220962524414
1776554385481540000,4.1175400390625,36.22662353515625,11.172439575195312,13.945518493652344
1776554385491580200,4.127580078125,36.004150390625,11.137763977050781,13.993385314941406
1776554385501620200,4.1376201171875,36.07611083984375,11.159431457519531,14.106880187988281
1776554385511660000,4.147659912109375,36.1175537109375,10.921943664550781,14.36581802368164
1776554385521700000,4.1577001953125,36.18852233886719,10.799217224121094,14.58890151977539
1776554385531741200,4.1677412109375,35.85450744628906,10.725860595703125,14.595378875732422
1776554385541781200,4.17778125,35.814056396484375,10.5108642578125,14.68392562866211
1776554385551821300,4.1878212890625,35.93719482421875,10.641952514648438,14.707412719726562
1776554385561861400,4.197861328125,35.61564636230469,10.520637512207031,14.637447357177734
1776554385571901200,4.207901123046875,35.489959716796875,10.470901489257812,14.666351318359375
1776554385581941200,4.217941162109375,35.702850341796875,10.49737548828125,14.774162292480469
1776554385591982000,4.227982177734375,35.75572204589844,10.467453002929688,14.817901611328125
1776554385602022100,4.238022216796875,35.700286865234375,10.265586853027344,14.9517822265625
1776554385612062200,4.248062255859375,35.73817443847656,10.413192749023438,15.157356262207031
1776554385622102300,4.258102294921875,35.8505859375,10.341804504394531,15.355995178222656
1776554385632142000,4.26814208984375,35.410186767578125,10.275962829589844,15.560527801513672
1776554385642182100,4.27818212890625,35.29327392578125,10.407760620117188,15.564281463623047
1776554385652223200,4.28822314453125,35.576690673828125,10.336845397949219,15.664531707763672
1776554385662263000,4.298262939453125,35.783905029296875,10.374549865722656,15.773273468017578
1776554385672303000,4.30830322265625,35.568206787109375,10.374275207519531,15.74106216430664
1776554385682343200,4.31834326171875,35.622528076171875,10.344139099121094,15.543376922607422
1776554385692383200,4.32838330078125,35.77116394042969,10.366233825683594,15.43612289428711
1776554385702424300,4.33842431640625,35.73979187011719,10.260826110839844,15.34280014038086
1776554385712464100,4.348464111328125,35.97978210449219,10.206802368164062,15.376091003417969
1776554385722504200,4.358504150390625,35.63726806640625,10.333816528320312,15.372596740722656
1776554385732544300,4.368544189453125,35.63963317871094,10.293861389160156,15.397266387939453
1776554385742584300,4.378584228515625,35.48675537109375,10.6356201171875,15.382553100585938
1776554385752624400,4.388624267578125,35.51324462890625,10.597366333007812,15.57061767578125
1776554385762665200,4.398665283203125,35.45777893066406,10.550086975097656,15.700969696044922
1776554385772706300,4.408706298828125,35.18778991699219,10.35162353515625,15.834503173828125
1776554385782746000,4.41874609375,35.511505126953125,10.510238647460938,15.879657745361328
1776554385792786200,4.4287861328125,35.39707946777344,10.691162109375,15.877685546875
1776554385802826200,4.438826171875,35.65211486816406,10.784759521484375,15.955619812011719
1776554385812866300,4.4488662109375,35.63993835449219,10.695854187011719,15.800895690917969
1776554385822907100,4.4589072265625,35.42512512207031,10.735000610351562,15.804618835449219
1776554385832947200,4.468947265625,35.307861328125,10.676193237304688,15.820194244384766
1776554385842987000,4.478987060546875,35.41363525390625,10.679901123046875,15.755226135253906
1776554385853027000,4.489027099609375,35.36824035644531,10.583999633789062,15.912895202636719
1776554385863067100,4.499067138671875,35.42195129394531,10.424018859863281,15.935043334960938
1776554385873107200,4.509107177734375,35.29811096191406,10.042755126953125,16.089641571044922
1776554385883148300,4.519148193359375,35.48130798339844,10.079483032226562,16.098621368408203
1776554385893188400,4.529188232421875,35.64878845214844,10.245376586914062,16.13748550415039
1776554385903228200,4.539228271484375,35.88700866699219,10.135520935058594,16.099403381347656
1776554385913268000,4.54926806640625,35.490936279296875,10.052375793457031,16.221389770507812
1776554385923308000,4.55930810546875,35.51618957519531,9.993339538574219,16.29235076904297
1776554385933348000,4.56934814453125,35.79423522949219,9.9583740234375,16.196224212646484
1776554385943389200,4.57938916015625,35.972991943359375,9.968650817871094,16.39531707763672
1776554385953429200,4.58942919921875,35.46000671386719,9.733978271484375,16.24829864501953
1776554385963469300,4.59946923828125,35.793426513671875,9.646003723144531,16.20709228515625
1776554385973509000,4.609509033203125,35.600433349609375,9.558967590332031,16.35352325439453
1776554385983549200,4.619549072265625,35.44197082519531,9.684013366699219,16.348228454589844
1776554385993589200,4.62958935546875,35.4974365234375,9.543632507324219,16.448348999023438
1776554386003630000,4.639630126953125,35.29472351074219,9.470321655273438,16.559906005859375
1776554386013670100,4.649670166015625,35.29310607910156,9.508110046386719,16.568981170654297
1776554386023710200,4.659710205078125,35.04658508300781,9.524688720703125,16.536537170410156
1776554386033750000,4.66975,34.95649719238281,9.572601318359375,16.502849578857422
1776554386043790000,4.6797900390625,35.17161560058594,9.684242248535156,16.257137298583984
1776554386053830100,4.689830078125,34.86537170410156,9.520729064941406,16.3719482421875
1776554386063871200,4.699871337890625,35.0494384765625,9.632942199707031,16.31854248046875
1776554386073911300,4.709911376953125,34.69398498535156,9.689315795898438,16.42312240600586
1776554386083951400,4.719951416015625,34.80780029296875,9.701942443847656,16.72734832763672
1776554386093991200,4.7299912109375,34.358489990234375,9.598297119140625,16.865882873535156
1776554386104031000,4.740031005859375,34.22920227050781,9.623199462890625,16.987411499023438
1776554386114072000,4.750072021484375,34.2861328125,9.807380676269531,16.971012115478516
1776554386124112100,4.760112060546875,34.20643615722656,9.865097045898438,17.063365936279297
1776554386134152200,4.770152099609375,34.29075622558594,9.857002258300781,17.282730102539062
1776554386144192300,4.780192138671875,34.20710754394531,9.82086181640625,17.208988189697266
1776554386154232300,4.790232421875,34.05885314941406,9.910507202148438,17.12490463256836
1776554386164272000,4.800272216796875,33.95362854003906,9.729751586914062,17.171436309814453
1776554386174313000,4.81031298828125,33.93804931640625,9.918647766113281,17.136661529541016
1776554386184353000,4.82035302734375,33.94358825683594,9.929206848144531,17.132186889648438
1776554386194393000,4.83039306640625,34.00079345703125,10.078933715820312,17.19696807861328
1776554386204433200,4.84043310546875,34.0750732421875,10.263198852539062,17.154525756835938
1776554386214473200,4.85047314453125,34.009429931640625,10.349998474121094,17.11579132080078
1776554386224513300,4.86051318359375,34.155731201171875,10.303276062011719,17.359664916992188
1776554386234554400,4.870554443359375,34.136444091796875,10.280158996582031,17.24039077758789
1776554386244594200,4.88059423828125,34.02076721191406,10.079391479492188,17.221267700195312
1776554386254634200,4.89063427734375,34.072479248046875,10.114524841308594,17.217876434326172
1776554386264674300,4.90067431640625,34.141845703125,10.11688232421875,17.271045684814453
1776554386274714000,4.910714111328125,34.218292236328125,10.224647521972656,17.34180450439453
1776554386284754200,4.920754150390625,33.819610595703125,10.295753479003906,17.160598754882812
1776554386294795300,4.930795166015625,33.881072998046875,10.434661865234375,17.181400299072266
1776554386304835000,4.9408349609375,33.86927795410156,10.499588012695312,17.049942016601562
1776554386314875100,4.950875244140625,34.21356201171875,10.463722229003906,17.054706573486328
1776554386324915200,4.960915283203125,34.09111022949219,10.665626525878906,17.029525756835938
1776554386334955300,4.970955322265625,33.93708801269531,10.648529052734375,17.019771575927734
1776554386344995300,4.980995361328125,34.007537841796875,10.760360717773438,16.909595489501953
1776554386355036200,4.9910361328125,34.032379150390625,10.815185546875,16.884841918945312
1776554386365076000,5.001075927734375,34.20143127441406,10.616600036621094,16.976398468017578
1776554386375116000,5.011115966796875,34.16497802734375,10.757392883300781,17.00646209716797
1776554386385156000,5.021156005859375,34.036773681640625,10.88726806640625,16.882862091064453
1776554386395196200,5.031196044921875,34.190277099609375,11.026901245117188,16.8438720703125
1776554386405236200,5.041236328125,34.15956115722656,11.262603759765625,16.728431701660156
1776554386415277300,5.05127734375,34.59083557128906,11.294593811035156,16.822154998779297
1776554386425317400,5.0613173828125,34.58099365234375,11.544059753417969,16.633480072021484
1776554386435357200,5.071357177734375,34.62226867675781,11.660934448242188,16.476863861083984
1776554386445397200,5.081397216796875,34.905059814453125,11.541191101074219,16.224048614501953
1776554386455437000,5.09143701171875,34.64793395996094,11.919166564941406,16.020816802978516
1776554386465478100,5.10147802734375,34.62709045410156,11.870429992675781,15.835773468017578
1776554386475518200,5.111518310546875,34.62709045410156,11.870429992675781,15.835773468017578
1776554386485558300,5.121558349609375,34.62269592285156,11.803199768066406,15.775367736816406
1776554386495598000,5.13159814453125,34.71490478515625,11.906158447265625,15.621898651123047
1776554386505638100,5.14163818359375,34.76106262207031,12.17144775390625,15.50283432006836
1776554386515678200,5.15167822265625,35.075927734375,12.172569274902344,15.647480010986328
1776554386525719000,5.161718994140625,34.96751403808594,12.207794189453125,15.565753936767578
1776554386535759000,5.171759033203125,34.746185302734375,12.394187927246094,15.424797058105469
1776554386545799200,5.181799072265625,35.04791259765625,12.759635925292969,15.368064880371094
1776554386555839000,5.1918388671875,34.7652587890625,12.746627807617188,15.462104797363281
1776554386565879000,5.201879150390625,35.07212829589844,12.698165893554688,15.594863891601562
1776554386575919000,5.211919189453125,34.96147155761719,12.671791076660156,15.400825500488281
1776554386585960200,5.221960205078125,35.06321716308594,12.828338623046875,15.224903106689453
1776554386596000300,5.232000244140625,35.18133544921875,12.6610107421875,15.246475219726562
1776554386606040300,5.242040283203125,34.97459411621094,12.774169921875,15.196693420410156
1776554386616080400,5.252080322265625,35.40437316894531,12.851577758789062,15.208854675292969
1776554386626120200,5.2621201171875,35.26214599609375,12.780868530273438,15.251373291015625
1776554386636160300,5.27216015625,35.229766845703125,13.015556335449219,15.188766479492188
1776554386646201000,5.282201171875,35.26017761230469,12.843658447265625,15.267322540283203
1776554386656241200,5.2922412109375,35.65045166015625,12.774497985839844,15.278209686279297
1776554386666281200,5.30228125,35.01904296875,12.671600341796875,15.21303939819336
1776554386676321300,5.3123212890625,35.078399658203125,12.599502563476562,15.097042083740234
1776554386686361000,5.322361083984375,35.18632507324219,12.626625061035156,15.170658111572266
1776554386696401200,5.332401123046875,35.37261962890625,12.805221557617188,15.068958282470703
1776554386706442200,5.342442138671875,35.57928466796875,12.544807434082031,15.268234252929688
1776554386716482000,5.35248193359375,35.4808349609375,12.744430541992188,15.113712310791016
1776554386726522000,5.362522216796875,35.421295166015625,12.725990295410156,15.202648162841797
1776554386736562200,5.372562255859375,35.38984680175781,12.603973388671875,15.227611541748047
1776554386746602000,5.38260205078125,35.49346923828125,12.72503662109375,15.101497650146484
1776554386756642000,5.39264208984375,35.23420715332031,12.517845153808594,15.180484771728516
1776554386766682600,5.4026826171875,35.33354187011719,12.526100158691406,15.108673095703125
1776554386776722700,5.41272265625,35.16253662109375,12.352706909179688,15.09151840209961
1776554386786762800,5.4227626953125,35.06315612792969,12.289337158203125,15.157470703125
1776554386796802800,5.432802734375,34.97099304199219,12.369171142578125,15.140850067138672
1776554386806842600,5.442842529296875,34.99505615234375,12.431343078613281,15.062198638916016
1776554386816882700,5.452882568359375,35.193603515625,12.447921752929688,15.135765075683594
1776554386826923500,5.462923583984375,35.31597900390625,12.563026428222656,15.075202941894531
1776554386836963600,5.472963623046875,35.09611511230469,12.417778015136719,15.135841369628906
1776554386847003600,5.483003662109375,35.4276123046875,12.722618103027344,15.345100402832031
1776554386857043700,5.493043701171875,35.095123291015625,12.686866760253906,15.203563690185547
1776554386867083800,5.503083740234375,34.806182861328125,12.7374267578125,15.183441162109375
1776554386877123600,5.51312353515625,34.930511474609375,12.673324584960938,15.237274169921875
1776554386887164700,5.52316455078125,34.93853759765625,12.5279541015625,15.421409606933594
1776554386897204700,5.533204833984375,34.87760925292969,12.562576293945312,15.517993927001953
1776554386907244800,5.543244873046875,34.51411437988281,12.565780639648438,15.401851654052734
1776554386917284600,5.55328466796875,34.36143493652344,12.682098388671875,15.407428741455078
1776554386927324700,5.56332470703125,34.57452392578125,12.843467712402344,15.461292266845703
1776554386937364500,5.573364501953125,34.688873291015625,12.742950439453125,15.402153015136719
1776554386947405600,5.583405517578125,34.65655517578125,12.884773254394531,15.353946685791016
1776554386957445600,5.593445556640625,34.80335998535156,12.962127685546875,15.452804565429688
1776554386967485700,5.603485595703125,34.834808349609375,12.881759643554688,15.38851547241211
1776554386977525800,5.61352587890625,34.780517578125,12.806495666503906,15.421676635742188
1776554386987565800,5.62356591796875,34.98484802246094,12.919189453125,15.548526763916016
1776554386997605600,5.633605712890625,34.75639343261719,12.999382019042969,15.405017852783203
1776554387007646500,5.643646484375,34.94017028808594,13.068260192871094,15.386028289794922
1776554387017686500,5.6536865234375,34.95329284667969,12.979843139648438,15.3856201171875
1776554387027726600,5.6637265625,34.90693664550781,12.985549926757812,15.449111938476562
1776554387037766700,5.6737666015625,35.03828430175781,13.125236511230469,15.448005676269531
1776554387047806700,5.683806640625,34.97175598144531,12.907257080078125,15.375885009765625
1776554387057846800,5.6938466796875,35.19520568847656,12.971527099609375,15.279273986816406
1776554387067887900,5.703887939453125,35.110260009765625,13.036643981933594,15.229976654052734
1776554387077927700,5.713927734375,35.198516845703125,12.850692749023438,15.201438903808594
1776554387087967700,5.7239677734375,35.05619812011719,12.788414001464844,15.296070098876953
1776554387098007600,5.734007568359375,35.1759033203125,13.008537292480469,15.219528198242188
1776554387108047600,5.744047607421875,35.123077392578125,12.850128173828125,15.111576080322266
1776554387118087700,5.754087646484375,35.500457763671875,12.6839599609375,15.162918090820312
1776554387128128800,5.764128662109375,35.554351806640625,12.667228698730469,15.164016723632812
1776554387138168600,5.77416845703125,35.55572509765625,12.717369079589844,15.095077514648438
1776554387148208600,5.784208740234375,35.353515625,12.632858276367188,15.017471313476562
1776554387158248700,5.794248779296875,35.443634033203125,12.441864013671875,14.956119537353516
1776554387168288800,5.804288818359375,35.62016296386719,12.41778564453125,14.980670928955078
1776554387178328800,5.814328857421875,35.75080871582031,12.42327880859375,14.980216979980469
1776554387188369700,5.82436962890625,35.77262878417969,12.454719543457031,14.92825698852539
1776554387198409500,5.834409423828125,35.83839416503906,12.482650756835938,14.926326751708984
1776554387208449500,5.844449462890625,35.716094970703125,12.493629455566406,14.939640045166016
1776554387218489600,5.854489501953125,35.49995422363281,12.400177001953125,14.886383056640625
1776554387228529700,5.86452978515625,35.757415771484375,12.479080200195312,14.920207977294922
1776554387238569700,5.87456982421875,35.42091369628906,12.36395263671875,15.050445556640625
1776554387248610800,5.88461083984375,35.500396728515625,12.255378723144531,15.049053192138672
1776554387258651000,5.89465087890625,35.22802734375,12.250541687011719,15.004383087158203
1776554387268690700,5.904690673828125,35.31300354003906,12.26348876953125,15.112030029296875
1776554387278730800,5.914730712890625,35.15562438964844,12.154609680175781,15.124881744384766
1776554387288770600,5.9247705078125,35.1395263671875,12.277618408203125,15.132427215576172
1776554387298810600,5.934810546875,35.21238708496094,12.384788513183594,15.084625244140625
1776554387308850700,5.9448505859375,35.09306335449219,12.308685302734375,15.084247589111328
1776554387318891800,5.954891845703125,35.24713134765625,12.581428527832031,15.1470947265625
1776554387328931600,5.964931640625,35.05230712890625,12.566291809082031,15.141849517822266
1776554387338971600,5.9749716796875,35.07612609863281,12.612846374511719,15.1134033203125
1776554387349011700,5.98501171875,35.39697265625,12.747596740722656,14.950084686279297
1776554387359051800,5.9950517578125,35.17515563964844,12.791366577148438,15.080005645751953
1776554387369091800,6.005091796875,35.03611755371094,12.701644897460938,15.031551361083984
1776554387379132700,6.015132568359375,34.93730163574219,12.666213989257812,14.949897766113281
1776554387389172700,6.0251728515625,34.814453125,12.7120361328125,14.981292724609375
1776554387399212500,6.035212646484375,35.205078125,12.930076599121094,14.923419952392578
1776554387409252600,6.045252685546875,35.48199462890625,13.020484924316406,15.044120788574219
1776554387419292700,6.055292724609375,35.22235107421875,13.283462524414062,14.964454650878906
1776554387429332700,6.065332763671875,35.042755126953125,13.201301574707031,14.880729675292969
1776554387439372800,6.075372802734375,35.03141784667969,13.023002624511719,14.82894515991211
1776554387449414000,6.085413818359375,34.93052673339844,12.894989013671875,14.832469940185547
1776554387459453700,6.09545361328125,35.08824157714844,13.116981506347656,14.950393676757812
1776554387469493500,6.105493408203125,35.0797119140625,13.082283020019531,14.886451721191406
1776554387479533600,6.115533447265625,34.99293518066406,13.094985961914062,14.821884155273438
1776554387489573600,6.12557373046875,34.86439514160156,13.247550964355469,14.582939147949219
1776554387499613700,6.13561376953125,34.94294738769531,13.515525817871094,14.38601303100586
1776554387509654800,6.14565478515625,35.05296325683594,13.759773254394531,14.3974609375
1776554387519694600,6.155694580078125,34.72966003417969,13.4915771484375,14.37942123413086
1776554387529734700,6.165734619140625,34.84461975097656,13.715232849121094,14.347488403320312
1776554387539774700,6.175774658203125,35.042694091796875,13.755271911621094,14.294517517089844
1776554387549814800,6.185814697265625,34.739105224609375,13.792549133300781,14.546611785888672
1776554387559854800,6.195854736328125,34.37701416015625,13.921737670898438,14.406818389892578
1776554387569895000,6.20589501953125,34.255828857421875,14.031402587890625,14.370655059814453
1776554387579935700,6.215935791015625,34.1688232421875,14.208358764648438,14.346324920654297
1776554387589975600,6.2259755859375,33.867828369140625,14.205818176269531,14.409481048583984
1776554387600015600,6.236015625,33.920318603515625,14.174957275390625,14.490978240966797
1776554387610055700,6.2460556640625,34.09211730957031,14.127410888671875,14.440086364746094
1776554387620095700,6.256095703125,33.96771240234375,14.145103454589844,14.442325592041016
1776554387630135800,6.2661357421875,33.985260009765625,14.044273376464844,14.310005187988281
1776554387640177000,6.276177001953125,34.0736083984375,13.814926147460938,14.277420043945312
1776554387650216700,6.286216796875,34.21266174316406,13.705673217773438,14.25748062133789
1776554387660256500,6.296256591796875,34.36943054199219,13.258056640625,14.202030181884766
1776554387670296600,6.306296630859375,34.23988342285156,13.247978210449219,14.127609252929688
1776554387680336600,6.316336669921875,34.26927185058594,13.234489440917969,14.133956909179688
1776554387690376700,6.326376708984375,34.3255615234375,12.901313781738281,14.47146224975586
1776554387700416500,6.33641650390625,34.37098693847656,12.953994750976562,14.445568084716797
1776554387710457600,6.34645751953125,34.20744323730469,12.980216979980469,14.487262725830078
1776554387720497700,6.35649755859375,34.28129577636719,12.745651245117188,14.739883422851562
1776554387730537700,6.366537841796875,33.95768737792969,12.511474609375,14.812904357910156
1776554387740577800,6.376577880859375,34.03131103515625,12.648910522460938,15.12493896484375
1776554387750617900,6.386617919921875,33.802886962890625,12.5355224609375,15.151622772216797
1776554387760657700,6.39665771484375,33.9862060546875,12.515289306640625,15.337932586669922
1776554387770697500,6.406697509765625,34.02207946777344,12.469741821289062,15.43166732788086
1776554387780738600,6.416738525390625,33.85768127441406,12.330078125,15.35342788696289
1776554387790778600,6.426778564453125,34.09489440917969,12.379661560058594,15.526187896728516
1776554387800818700,6.436818603515625,34.09489440917969,12.379661560058594,15.526187896728516
1776554387810858800,6.446858642578125,33.896697998046875,12.405509948730469,15.382919311523438
1776554387820898800,6.45689892578125,33.73895263671875,12.403579711914062,15.222602844238281
1776554387830938600,6.466938720703125,33.79872131347656,12.341705322265625,15.196784973144531
1776554387840979500,6.4769794921875,33.9649658203125,12.431007385253906,15.063304901123047
1776554387851019500,6.48701953125,33.89012145996094,12.347686767578125,15.043609619140625
1776554387861059600,6.4970595703125,33.99455261230469,12.339431762695312,14.976264953613281
1776554387871099600,6.507099609375,33.974090576171875,12.512466430664062,14.996318817138672
1776554387881139700,6.5171396484375,33.8641357421875,12.53594970703125,15.054508209228516
1776554387891179500,6.527179443359375,33.89164733886719,12.690460205078125,15.240989685058594
1776554387901219600,6.537219482421875,33.600921630859375,12.802146911621094,15.117366790771484
1776554387911259600,6.547259765625,33.51142883300781,12.780677795410156,15.294452667236328
1776554387921300700,6.55730078125,33.58592224121094,12.822540283203125,15.415699005126953
1776554387931340800,6.5673408203125,33.671722412109375,12.884613037109375,15.488883972167969
1776554387941380900,6.577380859375,33.76594543457031,13.072975158691406,15.632572174072266
1776554387951420700,6.587420654296875,33.71051025390625,13.176307678222656,15.668292999267578
1776554387961460500,6.59746044921875,33.65374755859375,13.0909423828125,15.758209228515625
1776554387971500500,6.60750048828125,33.52525329589844,13.105422973632812,15.684585571289062
1776554387981541600,6.617541748046875,33.44270324707031,13.033905029296875,15.654354095458984
1776554387991581700,6.627581787109375,33.566864013671875,12.978569030761719,15.799827575683594
1776554388001621800,6.637621826171875,33.55622863769531,13.00970458984375,15.779754638671875
1776554388011661800,6.647661865234375,33.45050048828125,12.98333740234375,15.775348663330078
1776554388021701600,6.65770166015625,33.72772216796875,13.044998168945312,15.77468490600586
1776554388031741700,6.66774169921875,33.87678527832031,12.945144653320312,15.902584075927734
1776554388041781800,6.67778173828125,34.04682922363281,12.777023315429688,15.912372589111328
1776554388051822600,6.687822509765625,33.811767578125,13.014472961425781,15.78497314453125
1776554388061862700,6.697862548828125,33.85371398925781,12.817352294921875,15.839099884033203
1776554388071902700,6.70790283203125,34.217315673828125,12.657791137695312,15.83572769165039
1776554388081942500,6.717942626953125,34.48277282714844,12.765693664550781,15.946266174316406
1776554388091982600,6.727982666015625,34.24995422363281,12.691680908203125,15.678977966308594
1776554388102022700,6.738022705078125,34.49421691894531,12.591224670410156,15.711421966552734
1776554388112062700,6.748062744140625,34.88563537597656,12.598312377929688,15.758686065673828
1776554388122103800,6.758103759765625,34.559814453125,12.497657775878906,15.476356506347656
1776554388132143600,6.7681435546875,34.65826416015625,12.549140930175781,15.372184753417969
1776554388142183700,6.77818359375,34.79371643066406,12.321022033691406,15.171070098876953
1776554388152223500,6.788223388671875,34.77079772949219,12.421516418457031,15.119373321533203
1776554388162263600,6.798263671875,35.15824890136719,12.549530029296875,15.06704330444336
1776554388172303600,6.8083037109375,35.32830810546875,12.404441833496094,15.105159759521484
1776554388182343700,6.81834375,35.595611572265625,12.354148864746094,14.900592803955078
1776554388192384800,6.828384765625,35.43397521972656,12.448638916015625,14.866950988769531
1776554388202424800,6.8384248046875,35.48841857910156,12.537338256835938,14.932392120361328
1776554388212464600,6.848464599609375,35.36280822753906,12.542465209960938,14.968536376953125
1776554388222504700,6.858504638671875,35.65364074707031,12.315322875976562,15.095199584960938
1776554388232544800,6.868544677734375,35.37371826171875,12.201103210449219,15.098339080810547
1776554388242584800,6.878584716796875,35.68180847167969,12.283348083496094,15.007396697998047
1776554388252624600,6.888624755859375,35.4952392578125,12.266220092773438,14.976295471191406
1776554388262664700,6.898664794921875,35.668426513671875,12.303558349609375,14.939651489257812
1776554388272705800,6.908705810546875,35.60914611816406,12.25,14.958431243896484
1776554388282745600,6.91874560546875,35.5841064453125,12.1937255859375,14.967445373535156
1776554388292785700,6.92878564453125,35.191192626953125,12.180252075195312,14.924263000488281
1776554388302825700,6.93882568359375,35.25877380371094,12.217872619628906,14.889530181884766
1776554388312865800,6.94886572265625,35.69490051269531,12.355133056640625,15.098114013671875
1776554388322905900,6.95890576171875,35.2955322265625,12.309982299804688,14.966178894042969
1776554388332945700,6.968945556640625,35.28511047363281,12.283897399902344,15.017505645751953
1776554388342986500,6.978986572265625,35.479400634765625,12.444908142089844,14.934307098388672
1776554388353026600,6.989026611328125,35.29170227050781,12.406349182128906,15.03554916381836
1776554388363066600,6.999066650390625,35.31700134277344,12.333847045898438,15.179309844970703
1776554388373106700,7.009106689453125,35.11187744140625,12.592857360839844,14.989112854003906
1776554388383146800,7.019146728515625,35.22944641113281,12.324607849121094,14.934162139892578
1776554388393186600,7.0291865234375,35.284912109375,12.45660400390625,14.865558624267578
1776554388403226600,7.0392265625,35.42289733886719,12.325439453125,15.05294418334961
1776554388413267700,7.049267822265625,35.61341857910156,12.34405517578125,15.075374603271484
1776554388423307800,7.059307861328125,35.394805908203125,12.198333740234375,15.03415298461914
1776554388433347600,7.06934765625,35.431060791015625,12.393516540527344,15.035083770751953
1776554388443387600,7.0793876953125,35.37882995605469,12.299705505371094,15.089458465576172
1776554388453427700,7.089427734375,35.407989501953125,12.46160888671875,14.95766830444336
1776554388463467500,7.099467529296875,35.34736633300781,12.616348266601562,14.956169128417969
1776554388473507600,7.109507568359375,35.522247314453125,12.491539001464844,14.922264099121094
1776554388483547600,7.119547607421875,35.495269775390625,12.535598754882812,15.022254943847656
1776554388493588700,7.129588623046875,35.36578369140625,12.7196044921875,15.065296173095703
1776554388503628800,7.13962890625,35.537017822265625,12.524833679199219,15.264877319335938
1776554388513668900,7.1496689453125,35.27714538574219,12.430549621582031,15.189834594726562
1776554388523708700,7.159708740234375,35.191925048828125,12.429946899414062,15.17068099975586
1776554388533748700,7.169748779296875,35.11259460449219,12.639884948730469,15.058124542236328
1776554388543788500,7.17978857421875,35.2620849609375,12.717094421386719,15.102218627929688
1776554388553828600,7.18982861328125,35.40055847167969,12.659919738769531,15.1888427734375
1776554388563869700,7.19986962890625,35.197906494140625,12.592864990234375,15.157684326171875
1776554388573909800,7.20990966796875,35.14955139160156,12.583168029785156,15.067317962646484
1776554388583949600,7.219949462890625,35.035491943359375,12.515251159667969,15.169609069824219
1776554388593989600,7.22998974609375,34.8858642578125,12.711921691894531,15.270767211914062
1776554388604029700,7.24002978515625,34.994354248046875,12.574348449707031,15.248218536376953
1776554388614069800,7.25006982421875,34.923004150390625,12.729583740234375,15.0343017578125
1776554388624109800,7.26010986328125,34.909271240234375,12.54388427734375,15.11136245727539
1776554388634150000,7.27014990234375,34.87388610839844,12.733184814453125,15.164974212646484
1776554388644190700,7.280190673828125,34.770751953125,12.735649108886719,15.381980895996094
1776554388654230500,7.29023046875,34.82444763183594,12.625267028808594,15.334747314453125
1776554388664270600,7.3002705078125,34.819305419921875,12.728912353515625,15.198314666748047
1776554388674310700,7.310310546875,35.02618408203125,12.810699462890625,15.25467300415039
1776554388684350700,7.320350830078125,34.71124267578125,12.7340087890625,15.313129425048828
1776554388694390800,7.330390869140625,34.976287841796875,12.727081298828125,15.412567138671875
1776554388704430600,7.3404306640625,34.94056701660156,12.618621826171875,15.42044448852539
1776554388714470700,7.350470703125,34.73878479003906,12.767501831054688,15.351970672607422
1776554388724511700,7.36051171875,34.805999755859375,12.818923950195312,15.263843536376953
1776554388734551600,7.370551513671875,34.56947326660156,12.877853393554688,15.218097686767578
1776554388744591600,7.380591552734375,34.740203857421875,12.807426452636719,15.24472427368164
1776554388754631700,7.390631591796875,34.85417175292969,12.83380126953125,15.129291534423828
1776554388764671200,7.400671142578125,34.732421875,12.974021911621094,15.140743255615234
1776554388774711300,7.410711181640625,34.65684509277344,12.90301513671875,15.15060806274414
1776554388784751400,7.42075146484375,34.83930969238281,12.780441284179688,15.378231048583984
1776554388794792400,7.43079248046875,34.81370544433594,12.755653381347656,15.42428207397461
1776554388804832500,7.44083251953125,34.88713073730469,12.581863403320312,15.44968032836914
1776554388814872600,7.45087255859375,34.99427795410156,12.683547973632812,15.260292053222656
1776554388824912400,7.460912353515625,34.66014099121094,12.691787719726562,15.29159927368164
1776554388834952400,7.470952392578125,34.70542907714844,12.592247009277344,15.426502227783203
1776554388844992500,7.480992431640625,34.80302429199219,12.498588562011719,15.370670318603516
1776554388855032300,7.4910322265625,34.615081787109375,12.582511901855469,15.332782745361328
1776554388865072400,7.501072265625,34.82957458496094,12.566032409667969,15.306663513183594
1776554388875112400,7.511112548828125,34.68963623046875,12.449501037597656,15.285026550292969
1776554388885153500,7.521153564453125,35.02809143066406,12.454902648925781,15.394142150878906
1776554388895193300,7.531193359375,35.23876953125,12.648162841796875,15.306083679199219
1776554388905233400,7.5412333984375,34.82341003417969,12.522918701171875,15.346385955810547
1776554388915273500,7.5512734375,34.98480224609375,12.459678649902344,15.302444458007812
1776554388925313500,7.5613134765625,34.807891845703125,12.611900329589844,15.524993896484375
1776554388935353600,7.571353515625,34.698516845703125,12.3883056640625,15.422237396240234
1776554388945393400,7.581393310546875,34.75465393066406,12.590347290039062,15.32095718383789
1776554388955433500,7.59143359375,34.6807861328125,12.68194580078125,15.272830963134766
1776554388965474300,7.601474365234375,34.774505615234375,12.619537353515625,15.3580322265625
1776554388975514400,7.611514404296875,35.25872802734375,12.689437866210938,15.427093505859375
1776554388985554400,7.621554443359375,34.81385803222656,12.508087158203125,15.37929916381836
1776554388995594500,7.631594482421875,34.80711364746094,12.599372863769531,15.247814178466797
1776554389005634300,7.64163427734375,35.11151123046875,12.522163391113281,15.276115417480469
1776554389015674400,7.65167431640625,34.91300964355469,12.542213439941406,15.303886413574219
1776554389025714400,7.66171435546875,35.06268310546875,12.647331237792969,15.326263427734375
1776554389035754500,7.67175439453125,34.840972900390625,12.636863708496094,15.280071258544922
1776554389045795300,7.68179541015625,34.85813903808594,12.491226196289062,15.33359146118164
1776554389055835400,7.69183544921875,35.123077392578125,12.686782836914062,15.221965789794922
1776554389065875500,7.70187548828125,35.00946044921875,12.590782165527344,15.387603759765625
1776554389075915300,7.711915283203125,35.2459716796875,12.682746887207031,15.276103973388672
1776554389085955300,7.721955322265625,35.31068420410156,12.644630432128906,15.242317199707031
1776554389095995400,7.731995361328125,35.172515869140625,12.651298522949219,15.166603088378906
1776554389106035500,7.742035400390625,34.985321044921875,12.75030517578125,15.34930419921875
1776554389116075500,7.752075439453125,34.985321044921875,12.75030517578125,15.34930419921875
1776554389126116600,7.76211669921875,35.11393737792969,12.638435363769531,15.499950408935547
1776554389136156400,7.772156494140625,35.08079528808594,12.640190124511719,15.32979965209961
1776554389146196500,7.782196533203125,34.925384521484375,12.590751647949219,15.285118103027344
1776554389156236300,7.792236328125,35.07176208496094,12.516410827636719,15.242645263671875
1776554389166276400,7.8022763671875,34.76385498046875,12.367691040039062,15.296707153320312
1776554389176316400,7.81231640625,34.92204284667969,12.356597900390625,15.327617645263672
1776554389186356500,7.8223564453125,34.927642822265625,12.17144775390625,15.256877899169922
1776554389196396300,7.832396240234375,34.7576904296875,12.180206298828125,15.234683990478516
1776554389206436400,7.842436279296875,34.777313232421875,12.372398376464844,15.313587188720703
1776554389216477400,7.8524775390625,34.79290771484375,12.498161315917969,15.279216766357422
1776554389226517500,7.862517578125,34.679901123046875,12.456825256347656,15.102005004882812
1776554389236557600,7.8725576171875,34.84844970703125,12.637580871582031,15.132835388183594
1776554389246597600,7.88259765625,34.93438720703125,12.485610961914062,15.192951202392578
1776554389256637400,7.892637451171875,35.011474609375,12.492851257324219,15.078205108642578
1776554389266677500,7.902677490234375,35.28346252441406,12.613441467285156,15.306438446044922
1776554389276717300,7.91271728515625,34.95509338378906,12.500350952148438,15.205081939697266
1776554389286757400,7.92275732421875,34.85935974121094,12.422592163085938,15.135047912597656
1776554389296798500,7.932798583984375,34.67816162109375,12.325607299804688,15.223480224609375
1776554389306838500,7.942838623046875,34.87217712402344,12.199012756347656,15.322776794433594
1776554389316878300,7.95287841796875,34.81208801269531,12.329788208007812,15.427177429199219
1776554389326918400,7.96291845703125,34.566558837890625,12.381828308105469,15.333255767822266
1776554389336958500,7.97295849609375,34.75590515136719,12.549018859863281,15.188404083251953
1776554389346998500,7.98299853515625,34.70863342285156,12.4827880859375,15.249263763427734
1776554389357038600,7.99303857421875,34.9691162109375,12.540924072265625,15.269279479980469
1776554389367078700,8.00307861328125,34.6915283203125,12.559661865234375,15.369071960449219
1776554389377118500,8.013118408203125,34.70155334472656,12.567512512207031,15.232303619384766
1776554389387159300,8.0231591796875,34.449615478515625,12.515380859375,15.175697326660156
1776554389397199400,8.033199462890625,34.59294128417969,12.444412231445312,15.222232818603516
1776554389407239400,8.043239501953124,34.80451965332031,12.558235168457031,15.384918212890625
1776554389417279500,8.053279541015625,34.8145751953125,12.572418212890625,15.33127212524414
1776554389427319600,8.063319580078126,34.82196044921875,12.578948974609375,15.281791687011719
1776554389437359400,8.073359375,34.78538513183594,12.478507995605469,15.170177459716797
1776554389447399400,8.0833994140625,34.783050537109375,12.519332885742188,15.263473510742188
1776554389457439500,8.093439453125,35.031341552734375,12.619537353515625,15.285900115966797
1776554389467479600,8.1034794921875,35.167755126953125,12.459121704101562,15.269546508789062
1776554389477520400,8.113520263671875,35.39973449707031,12.449638366699219,15.26827621459961
1776554389487560400,8.123560546875,35.172698974609375,12.388313293457031,15.269943237304688
1776554389497600300,8.133600341796875,35.11656188964844,12.375900268554688,15.406669616699219
1776554389507640300,8.143640380859376,34.780853271484375,12.475593566894531,15.228126525878906
1776554389517680400,8.153680419921875,35.02606201171875,12.630775451660156,15.290958404541016
1776554389527720400,8.163720458984375,35.04881286621094,12.62469482421875,15.121055603027344
1776554389537760500,8.173760498046875,34.812591552734375,12.448898315429688,15.144001007080078
1776554389547800600,8.183800537109375,34.89125061035156,12.518119812011719,15.270671844482422
1776554389557840400,8.19384033203125,34.72676086425781,12.516342163085938,15.23428726196289
1776554389567881500,8.203881591796875,34.94941711425781,12.514022827148438,15.266197204589844
1776554389577921300,8.21392138671875,35.01300048828125,12.579696655273438,15.167823791503906
1776554389587961300,8.22396142578125,34.85784912109375,12.492698669433594,15.15494155883789
1776554389598001400,8.23400146484375,34.83087158203125,12.585716247558594,15.27703857421875
1776554389608041500,8.24404150390625,34.66914367675781,12.670181274414062,15.159805297851562
1776554389618081300,8.254081298828124,34.65379333496094,12.514984130859375,15.083812713623047
1776554389628121300,8.264121337890625,34.91014099121094,12.321685791015625,15.194957733154297
1776554389638161400,8.274161376953124,34.966278076171875,12.475990295410156,15.153865814208984
1776554389648201500,8.284201416015625,34.92549133300781,12.5479736328125,15.174190521240234
1776554389658242600,8.29424267578125,34.821746826171875,12.530281066894531,15.023666381835938
1776554389668282600,8.30428271484375,35.059600830078125,12.60931396484375,15.099418640136719
1776554389678322400,8.314322509765624,34.987213134765625,12.638313293457031,15.083057403564453
1776554389688362200,8.3243623046875,35.05671691894531,12.478057861328125,15.245109558105469
1776554389698402300,8.33440234375,34.85115051269531,12.685806274414062,15.129867553710938
1776554389708442400,8.3444423828125,35.105560302734375,12.508140563964844,15.040809631347656
1776554389718482400,8.354482421875,34.92738342285156,12.486732482910156,14.964977264404297
1776554389728522500,8.3645224609375,34.96754455566406,12.645545959472656,14.988018035888672
1776554389738562300,8.374562255859376,34.99183654785156,12.682868957519531,15.028621673583984
1776554389748603400,8.384603271484375,34.95109558105469,12.615547180175781,15.044185638427734
1776554389758643500,8.3946435546875,35.14067077636719,12.570716857910156,15.022003173828125
1776554389768684000,8.40468408203125,35.11967468261719,12.822944641113281,14.992992401123047
1776554389778723800,8.414723876953126,35.1170654296875,12.665763854980469,14.979049682617188
1776554389788764000,8.424763916015625,34.99049377441406,12.789344787597656,14.958641052246094
1776554389798804000,8.434803955078126,34.85044860839844,12.678428649902344,14.983802795410156
1776554389808844000,8.444843994140625,34.79241943359375,12.815208435058594,14.946907043457031
1776554389818884000,8.454884033203125,34.64143371582031,12.891311645507812,14.865398406982422
1776554389828924000,8.464923828125,34.83717346191406,12.938179016113281,14.976890563964844
1776554389838965000,8.474965087890626,34.63055419921875,12.795539855957031,14.880786895751953
1776554389849005000,8.485005126953125,34.6131591796875,13.113151550292969,14.834548950195312
1776554389859045000,8.495045166015625,34.85064697265625,13.016952514648438,14.803485870361328
1776554389869085200,8.505085205078124,34.79673767089844,12.8798828125,14.918052673339844
1776554389879125000,8.515125,35.19575500488281,12.972663879394531,14.952625274658203
1776554389889165000,8.5251650390625,34.91960144042969,12.789970397949219,14.816482543945312
1776554389899204900,8.535204833984375,34.851959228515625,12.777557373046875,14.882049560546875
1776554389909245000,8.545244873046874,34.92640686035156,12.697853088378906,14.96710205078125
1776554389919285000,8.555284912109375,35.02894592285156,12.6866455078125,14.89328384399414
1776554389929325000,8.565324951171876,35.183258056640625,12.733840942382812,14.869651794433594
1776554389939366100,8.5753662109375,35.211700439453125,12.639656066894531,14.87582015991211
1776554389949406200,8.58540625,34.77424621582031,12.893569946289062,14.871734619140625
1776554389959446000,8.595446044921875,35.03315734863281,12.924827575683594,14.814170837402344
1776554389969486000,8.605486083984376,34.982818603515625,12.658500671386719,14.961395263671875
1776554389979526100,8.615526123046875,35.268310546875,12.674949645996094,14.921241760253906
1776554389989566200,8.625566162109376,35.0511474609375,12.84783935546875,14.852535247802734
1776554389999606000,8.63560595703125,34.685455322265625,12.659378051757812,14.865936279296875
1776554390009645800,8.645645751953126,34.84111022949219,12.721824645996094,14.803131103515625
1776554390019686000,8.655685791015625,35.15705871582031,12.77032470703125,14.974319458007812
1776554390029727000,8.66572705078125,35.07623291015625,12.620941162109375,14.975166320800781
1776554390039767000,8.67576708984375,35.118408203125,12.509384155273438,15.039703369140625
1776554390049807000,8.68580712890625,34.98616027832031,12.457191467285156,15.11739730834961
1776554390059847200,8.69584716796875,34.90411376953125,12.551681518554688,15.013690948486328
1776554390069887200,8.70588720703125,34.94190979003906,12.621810913085938,15.051746368408203
1776554390079927000,8.715927001953125,35.06378173828125,12.633583068847656,15.05850601196289
1776554390089967000,8.725967041015625,34.93443298339844,12.745582580566406,14.973888397216797
1776554390100007200,8.736007080078124,35.314666748046875,12.666259765625,14.949501037597656
1776554390110047000,8.746046875,35.147613525390625,12.715919494628906,14.983928680419922
1776554390120087000,8.756087158203124,35.09117126464844,12.635894775390625,15.016334533691406
1776554390130128100,8.766128173828125,35.191925048828125,12.600738525390625,15.07086181640625
1776554390140168000,8.77616796875,35.22203063964844,12.686180114746094,15.019222259521484
1776554390150208000,8.7862080078125,35.01704406738281,12.496932983398438,15.057609558105469
1776554390160248000,8.796248046875,34.91560363769531,12.754104614257812,15.221424102783203
1776554390170288000,8.8062880859375,35.03643798828125,12.605880737304688,15.16275405883789
1776554390180328200,8.816328125,34.94049072265625,12.659416198730469,15.135814666748047
1776554390190368000,8.826367919921875,34.67539978027344,12.534927368164062,15.1099853515625
1776554390200408000,8.836407958984376,34.74961853027344,12.537223815917969,15.165477752685547
1776554390210448100,8.8464482421875,35.040740966796875,12.503120422363281,15.147987365722656
1776554390220488200,8.85648828125,34.93214416503906,12.493438720703125,15.155071258544922
1776554390230529000,8.866529052734375,35.06120300292969,12.727035522460938,15.164543151855469
1776554390240569000,8.876569091796876,34.859375,12.674110412597656,15.199539184570312
1776554390250609200,8.886609130859375,34.74497985839844,12.569557189941406,15.205974578857422
1776554390260649000,8.89664892578125,34.70622253417969,12.476554870605469,15.206832885742188
1776554390270689000,8.90668896484375,34.76820373535156,12.452529907226562,15.298587799072266
1776554390280729000,8.91672900390625,34.87992858886719,12.404594421386719,15.219600677490234
1776554390290769200,8.92676904296875,34.7811279296875,12.440422058105469,15.140609741210938
1776554390300809200,8.936809326171876,34.82862854003906,12.433891296386719,15.33828353881836
1776554390310849000,8.94684912109375,34.88249206542969,12.387290954589844,15.223663330078125
1776554390320889900,8.956889892578126,34.894195556640625,12.423179626464844,15.099868774414062
1776554390330930000,8.966929931640625,34.7615966796875,12.466178894042969,14.97342300415039
1776554390340970000,8.976969970703125,34.765655517578125,12.54486083984375,14.997257232666016
1776554390351010000,8.987010009765624,35.0950927734375,12.334091186523438,15.160343170166016
1776554390361050000,8.997050048828125,34.952606201171875,12.529228210449219,15.060562133789062
1776554390371090000,9.00708984375,34.88014221191406,12.660133361816406,15.062992095947266
1776554390381130000,9.0171298828125,34.88810729980469,12.539619445800781,15.072372436523438
1776554390391170000,9.027170166015624,34.99293518066406,12.44873046875,15.115058898925781
1776554390401210000,9.037210205078125,34.84211730957031,12.513236999511719,15.107013702392578
1776554390411250200,9.047250244140624,34.97944641113281,12.587409973144531,15.09762954711914
1776554390421291000,9.057291015625,34.787078857421875,12.535209655761719,15.203079223632812
1776554390431331000,9.0673310546875,35.04107666015625,12.317535400390625,15.099231719970703
1776554390441371000,9.077370849609375,35.03692626953125,12.505996704101562,15.187183380126953
1776554390451411000,9.087410888671876,35.03692626953125,12.505996704101562,15.187183380126953
1776554390461451000,9.097450927734375,34.84739685058594,12.401870727539062,15.042930603027344
1776554390471491000,9.107490966796876,34.93171691894531,12.3963623046875,15.232933044433594
1776554390481531100,9.11753125,34.8463134765625,12.439926147460938,15.099811553955078
1776554390491571000,9.127571044921876,34.62257385253906,12.222259521484375,15.236984252929688
1776554390501611000,9.137611083984375,34.67848205566406,12.330726623535156,15.288394927978516
1776554390511651000,9.147651123046876,34.66026306152344,12.214927673339844,15.134384155273438
1776554390521692200,9.157692138671875,35.12617492675781,12.427803039550781,14.986522674560547
1776554390531732000,9.16773193359375,35.12217712402344,12.437637329101562,15.041885375976562
1776554390541772000,9.17777197265625,35.11537170410156,12.369049072265625,15.146400451660156
1776554390551811800,9.187811767578125,35.226348876953125,12.281898498535156,15.19266128540039
1776554390561852000,9.197851806640625,35.16595458984375,12.321731567382812,15.12350082397461
1776554390571892000,9.20789208984375,35.12451171875,12.383094787597656,15.073501586914062
1776554390581932000,9.21793212890625,34.873687744140625,12.64947509765625,15.00528335571289
1776554390591972000,9.22797216796875,35.058135986328125,12.551742553710938,15.142772674560547
1776554390602012200,9.23801220703125,34.913543701171875,12.321571350097656,15.21799087524414
1776554390612052000,9.248052001953125,35.26971435546875,12.433692932128906,15.226509094238281
1776554390622093000,9.258093017578124,35.21600341796875,12.372428894042969,15.187309265136719
1776554390632133000,9.268133056640625,34.91862487792969,12.474601745605469,15.077384948730469
1776554390642173000,9.2781728515625,34.93937683105469,12.400535583496094,15.243274688720703
1776554390652213000,9.288212890625,34.834442138671875,12.430259704589844,15.190345764160156
1776554390662253000,9.298253173828124,34.80224609375,12.383148193359375,15.108222961425781
1776554390672292900,9.30829296875,34.8619384765625,12.381546020507812,15.155216217041016
1776554390682333000,9.3183330078125,34.97154235839844,12.468757629394531,15.236042022705078
1776554390692373000,9.328373046875,35.13334655761719,12.208938598632812,15.143257141113281
1776554390702413000,9.3384130859375,35.0428466796875,12.492042541503906,15.023551940917969
1776554390712453000,9.348453125,35.061370849609375,12.349456787109375,15.022525787353516
1776554390722493000,9.358492919921876,35.041168212890625,12.344650268554688,15.139068603515625
1776554390732534300,9.3685341796875,35.0924072265625,12.392677307128906,15.26645278930664
1776554390742574000,9.378573974609376,35.13458251953125,12.255340576171875,15.324111938476562
1776554390752614100,9.3886142578125,35.32649230957031,12.18536376953125,15.286739349365234
1776554390762654000,9.398654052734376,35.03736877441406,12.075828552246094,15.16415023803711
1776554390772693800,9.40869384765625,35.290069580078125,12.242591857910156,15.180763244628906
1776554390782733600,9.418733642578125,35.34089660644531,12.459831237792969,15.350528717041016
1776554390792773600,9.428773681640624,35.26226806640625,12.366889953613281,15.233272552490234
1776554390802813700,9.438813720703125,35.44935607910156,12.282539367675781,15.324275970458984
1776554390812853800,9.448853759765624,35.27052307128906,12.424766540527344,15.400882720947266
1776554390822893600,9.4588935546875,35.274627685546875,12.488494873046875,15.1207275390625
1776554390832934700,9.4689345703125,35.16996765136719,12.488372802734375,15.192874908447266
1776554390842974700,9.478974609375,35.21734619140625,12.489784240722656,15.210071563720703
1776554390853014800,9.489014892578124,35.202178955078125,12.34735107421875,15.322147369384766
1776554390863054800,9.499054931640625,35.218536376953125,12.59832763671875,15.325065612792969
1776554390873095000,9.509094970703124,35.15281677246094,12.511093139648438,15.31283950805664
1776554390883134700,9.519134765625,35.085479736328125,12.416587829589844,15.358875274658203
1776554390893174500,9.529174560546876,35.04057312011719,12.404144287109375,15.208454132080078
1776554390903214600,9.539214599609375,35.25065612792969,12.529876708984375,15.312976837158203
1776554390913254700,9.549254638671876,35.05509948730469,12.4383544921875,15.386497497558594
1776554390923294700,9.559294677734375,35.471527099609375,12.493179321289062,15.54007339477539
1776554390933335800,9.569335693359376,35.183868408203125,12.5721435546875,15.34054183959961
1776554390943376000,9.5793759765625,35.18084716796875,12.546417236328125,15.424812316894531
1776554390953415700,9.589415771484376,34.912872314453125,12.663406372070312,15.398330688476562
1776554390963455700,9.599455810546875,34.86192321777344,12.673698425292969,15.418201446533203
1776554390973495800,9.609495849609376,34.854095458984375,12.620513916015625,15.472412109375
1776554390983535900,9.619535888671875,34.91563415527344,12.535552978515625,15.427867889404297
1776554390993576000,9.629575927734376,34.86131286621094,12.676841735839844,15.34311294555664
1776554391003615700,9.63961572265625,34.89253234863281,12.564033508300781,15.273101806640625
1776554391013655600,9.649655517578125,34.88822937011719,12.588226318359375,15.40390396118164
1776554391023695600,9.659695556640624,34.93782043457031,12.523689270019531,15.457557678222656
1776554391033736700,9.66973681640625,34.665863037109375,12.62664794921875,15.407463073730469
1776554391043776800,9.67977685546875,34.69464111328125,12.666007995605469,15.489616394042969
1776554391053816800,9.68981689453125,34.78892517089844,12.568939208984375,15.337894439697266
1776554391063856600,9.699856689453124,34.90638732910156,12.313674926757812,15.595909118652344
1776554391073896700,9.709896728515625,34.85881042480469,12.355781555175781,15.54886245727539
1776554391083936800,9.719936767578124,34.718536376953125,12.41485595703125,15.399131774902344
1776554391093976800,9.729976806640625,35.0380859375,12.39385986328125,15.371131896972656
1776554391104017000,9.740016845703124,35.013824462890625,12.352371215820312,15.354496002197266
1776554391114056700,9.750056640625,35.000762939453125,12.353355407714844,15.420345306396484
1776554391124096500,9.760096435546876,35.16644287109375,12.402366638183594,15.248394012451172
1776554391134136600,9.770136474609375,35.24980163574219,12.516242980957031,15.280799865722656
1776554391144177700,9.780177734375,35.332427978515625,12.250450134277344,15.366283416748047
1776554391154217700,9.7902177734375,35.065155029296875,12.299339294433594,15.233783721923828
1776554391164257800,9.8002578125,35.004241943359375,12.333091735839844,15.272319793701172
1776554391174297900,9.8102978515625,34.873504638671875,12.336662292480469,15.169673919677734
1776554391184337700,9.820337646484376,35.06260681152344,12.387947082519531,15.171253204345703
1776554391194377700,9.830377685546875,34.84165954589844,12.578598022460938,15.106315612792969
1776554391204417800,9.840417724609376,35.05059814453125,12.327674865722656,15.394760131835938
1776554391214457900,9.850457763671875,35.06745910644531,12.399085998535156,15.222705841064453
1776554391224498000,9.860497802734375,35.0902099609375,12.32696533203125,15.25815200805664
1776554391234537700,9.870537841796875,35.00799560546875,12.361778259277344,15.193805694580078
1776554391244577500,9.88057763671875,34.86640930175781,12.209808349609375,15.30072021484375
1776554391254618600,9.89061865234375,34.96086120605469,12.444496154785156,15.346366882324219
1776554391264658700,9.90065869140625,34.71539306640625,12.348587036132812,15.352153778076172
1776554391274698800,9.91069873046875,34.768707275390625,12.17413330078125,15.446159362792969
1776554391284738800,9.92073876953125,34.68243408203125,12.332923889160156,15.386283874511719
1776554391294779000,9.93077880859375,34.82945251464844,12.328086853027344,15.308944702148438
1776554391304818700,9.940818603515625,34.57550048828125,12.348739624023438,15.277992248535156
1776554391314858800,9.950858642578124,34.864837646484375,12.382125854492188,15.368072509765625
1776554391324898800,9.96089892578125,34.709075927734375,12.406135559082031,15.25094985961914
1776554391334939000,9.97093896484375,34.64360046386719,12.381149291992188,15.28555679321289
1776554391344978700,9.980978759765625,34.684722900390625,12.396957397460938,15.44174575805664
1776554391355018500,9.9910185546875,34.82623291015625,12.410072326660156,15.378337860107422
1776554391365059600,10.0010595703125,34.963165283203125,12.38677978515625,15.246700286865234
1776554391375099600,10.011099609375,35.09761047363281,12.284744262695312,15.19546890258789
1776554391385139700,10.0211396484375,34.88615417480469,12.175331115722656,15.264755249023438
1776554391395179800,10.0311796875,35.02685546875,12.273544311523438,15.422977447509766
1776554391405219800,10.0412197265625,34.78965759277344,12.235397338867188,15.318939208984375
1776554391415259600,10.051259765625,34.945709228515625,12.205780029296875,15.28414535522461
1776554391425299700,10.0612998046875,34.829925537109375,12.13055419921875,15.207294464111328
1776554391435339800,10.07133984375,34.737457275390625,12.019027709960938,15.291580200195312
1776554391445379800,10.0813798828125,34.974395751953125,12.169136047363281,15.188461303710938
1776554391455420000,10.091419921875,34.86369323730469,12.146591186523438,15.288654327392578
1776554391465460700,10.101460693359375,34.86180114746094,12.138595581054688,15.336437225341797
1776554391475500800,10.111500732421876,34.989501953125,12.282913208007812,15.347614288330078
1776554391485540600,10.12154052734375,35.0274658203125,12.213958740234375,15.476318359375
1776554391495580700,10.13158056640625,34.95738220214844,12.275238037109375,15.310813903808594
1776554391505620700,10.141620849609374,35.11824035644531,12.507217407226562,15.137840270996094
1776554391515660800,10.151660888671875,35.08488464355469,12.409622192382812,15.144454956054688
1776554391525700900,10.161700927734374,35.309112548828125,12.265174865722656,15.241840362548828
1776554391535740700,10.17174072265625,35.438262939453125,12.263442993164062,15.405082702636719
1776554391545780700,10.18178076171875,34.90718078613281,12.290977478027344,15.31637954711914
1776554391555820800,10.19182080078125,35.25614929199219,12.223907470703125,15.32339096069336
1776554391565860900,10.20186083984375,34.9298095703125,12.194328308105469,15.285106658935547
1776554391575901700,10.211901611328125,35.010101318359375,12.343505859375,15.123165130615234
1776554391585941800,10.221941650390624,34.98747253417969,12.273056030273438,15.161445617675781
1776554391595981800,10.23198193359375,34.85783386230469,12.40191650390625,15.186935424804688
1776554391606021600,10.242021728515626,34.878173828125,12.288246154785156,15.257915496826172
1776554391616061700,10.252061767578125,34.95671081542969,12.343765258789062,15.298019409179688
1776554391626101800,10.262101806640626,34.84590148925781,12.39093017578125,15.326526641845703
1776554391636141800,10.272141845703125,34.741119384765625,12.524002075195312,15.147647857666016
1776554391646182000,10.282181884765626,34.93536376953125,12.403976440429688,15.244758605957031
1776554391656221700,10.2922216796875,34.75575256347656,12.466354370117188,15.087013244628906
1776554391666261800,10.30226171875,34.47862243652344,12.587104797363281,15.163360595703125
1776554391676301800,10.3123017578125,34.96080017089844,12.507057189941406,15.412567138671875
1776554391686342700,10.3223427734375,35.03675842285156,12.418701171875,15.327274322509766
1776554391696382700,10.3323828125,35.00260925292969,12.412750244140625,15.208030700683594
1776554391706422800,10.3424228515625,34.94721984863281,12.593055725097656,15.231903076171875
1776554391716462600,10.352462646484375,34.793212890625,12.524253845214844,15.262504577636719
1776554391726502700,10.362502685546875,34.98921203613281,12.443954467773438,15.192401885986328
1776554391736542700,10.372542724609374,34.67860412597656,12.521003723144531,15.107749938964844
1776554391746582800,10.382582763671875,34.64686584472656,12.447669982910156,15.17159652709961
1776554391756622800,10.392622802734374,34.88035583496094,12.442268371582031,15.238529205322266
1776554391766662400,10.402662353515625,34.658050537109375,12.259521484375,15.325641632080078
1776554391776702500,10.412702392578124,34.658050537109375,12.259521484375,15.325641632080078
1776554391786742500,10.422742431640625,34.60395812988281,12.400527954101562,15.126197814941406
1776554391796783400,10.432783447265624,34.72308349609375,12.406272888183594,15.234485626220703
1776554391806823400,10.442823486328125,34.80096435546875,12.448768615722656,15.24264144897461
1776554391816863500,10.452863525390624,34.78729248046875,12.543861389160156,15.187820434570312
1776554391826903300,10.4629033203125,34.886077880859375,12.624595642089844,15.389617919921875
1776554391836943400,10.472943359375,34.67254638671875,12.550704956054688,15.260215759277344
1776554391846983400,10.4829833984375,34.91534423828125,12.613426208496094,15.313934326171875
1776554391857023500,10.4930234375,34.77149963378906,12.610847473144531,15.15643310546875
1776554391867063600,10.5030634765625,34.681396484375,12.559730529785156,15.253570556640625
1776554391877103400,10.513103271484376,34.95353698730469,12.4083251953125,15.281105041503906
1776554391887143400,10.523143310546875,34.68827819824219,12.525161743164062,15.306583404541016
1776554391897183500,10.53318359375,34.785186767578125,12.608879089355469,15.16162109375
1776554391907223600,10.5432236328125,34.854095458984375,12.572006225585938,15.064388275146484
1776554391917264400,10.553264404296876,34.652801513671875,12.619430541992188,15.1578369140625
1776554391927304400,10.563304443359375,34.65895080566406,12.586341857910156,15.133880615234375
1776554391937344300,10.57334423828125,34.972015380859375,12.459266662597656,15.030784606933594
1776554391947384300,10.58338427734375,34.6912841796875,12.531883239746094,15.031288146972656
1776554391957424400,10.59342431640625,34.46250915527344,12.53570556640625,15.071884155273438
1776554391967464400,10.60346435546875,34.90989685058594,12.654075622558594,15.329669952392578
1776554391977504500,10.61350439453125,34.86189270019531,12.384605407714844,15.196727752685547
1776554391987544600,10.623544677734374,34.941497802734375,12.299049377441406,15.19122314453125
1776554391997584400,10.63358447265625,34.8033447265625,12.473869323730469,15.020545959472656
1776554392007624400,10.64362451171875,34.77644348144531,12.448776245117188,15.09145736694336
1776554392017664500,10.65366455078125,34.83778381347656,12.3958740234375,15.132816314697266
1776554392027705300,10.663705322265624,35.08210754394531,12.482986450195312,14.90994644165039
1776554392037745400,10.673745361328125,35.21714782714844,12.586036682128906,14.932140350341797
1776554392047785500,10.683785400390626,35.28694152832031,12.565231323242188,15.024967193603516
1776554392057825300,10.6938251953125,34.9210205078125,12.671295166015625,15.023746490478516
1776554392067865300,10.703865234375,34.979766845703125,12.606361389160156,14.948909759521484
1776554392077905400,10.713905517578125,34.83894348144531,12.627975463867188,15.03286361694336
1776554392087945500,10.723945556640626,34.999359130859375,12.469863891601562,15.029857635498047
1776554392097985500,10.733985595703125,34.96885681152344,12.60284423828125,14.938434600830078
1776554392108025300,10.744025390625,35.43464660644531,12.607994079589844,15.156475067138672
1776554392118065400,10.7540654296875,35.27104187011719,12.589653015136719,15.12057876586914
1776554392128105500,10.76410546875,35.0877685546875,12.509757995605469,15.066177368164062
1776554392138145500,10.7741455078125,35.16368103027344,12.697975158691406,15.022716522216797
1776554392148186400,10.784186279296875,35.09373474121094,12.552505493164062,15.035484313964844
1776554392158226400,10.794226318359375,35.1590576171875,12.485069274902344,15.211776733398438
1776554392168266500,10.8042666015625,34.94676208496094,12.730842590332031,15.123199462890625
1776554392178306300,10.814306396484374,34.95057678222656,12.539703369140625,15.111339569091797
1776554392188346400,10.824346435546875,35.102752685546875,12.437690734863281,15.106327056884766
1776554392198386400,10.834386474609374,34.93907165527344,12.582176208496094,15.057525634765625
1776554392208426500,10.844426513671875,34.909454345703125,12.578910827636719,14.912128448486328
1776554392218466600,10.854466552734374,34.8382568359375,12.517288208007812,15.06778335571289
1776554392228506400,10.86450634765625,34.88038635253906,12.528480529785156,14.987041473388672
1776554392238546400,10.87454638671875,34.873565673828125,12.60107421875,14.981613159179688
1776554392248586500,10.88458642578125,34.99427795410156,12.671524047851562,15.212753295898438
1776554392258626600,10.89462646484375,34.836578369140625,12.613227844238281,15.082706451416016
1776554392268667400,10.90466748046875,35.11759948730469,12.561424255371094,15.029178619384766
1776554392278707500,10.91470751953125,34.99784851074219,12.630523681640625,14.820938110351562
1776554392288747300,10.924747314453125,35.123779296875,12.529533386230469,14.894046783447266
1776554392298787300,10.934787353515626,35.43458557128906,12.505485534667969,15.069808959960938
1776554392308827400,10.944827392578125,35.06022644042969,12.596450805664062,14.931835174560547
1776554392318867500,10.954867431640626,35.0069580078125,12.658393859863281,14.974971771240234
1776554392328907500,10.964907470703125,35.09263610839844,12.637519836425781,15.028633117675781
1776554392338947600,10.974947509765625,35.170440673828125,12.694503784179688,15.059066772460938
1776554392348987400,10.9849873046875,34.96083068847656,12.593338012695312,15.025222778320312
1776554392359027500,10.99502734375,34.910430908203125,12.638992309570312,14.849075317382812
1776554392369067500,11.005067626953124,34.80610656738281,12.543922424316406,14.937305450439453
1776554392379107600,11.015107666015625,34.87773132324219,12.668716430664062,14.96954345703125
1776554392389148400,11.0251484375,34.86566162109375,12.783882141113281,15.054725646972656
1776554392399188500,11.0351884765625,34.701263427734375,12.835197448730469,15.03646469116211
1776554392409228300,11.045228271484374,34.57734680175781,12.720130920410156,14.96224594116211
1776554392419268400,11.055268310546875,34.81611633300781,12.927886962890625,14.908294677734375
1776554392429308400,11.065308349609374,34.70997619628906,12.842475891113281,14.986591339111328
1776554392439348500,11.075348388671875,34.86351013183594,12.781272888183594,15.147911071777344
1776554392449388500,11.085388427734374,34.70208740234375,12.700241088867188,14.970680236816406
1776554392459428400,11.095428466796875,34.83453369140625,12.714141845703125,15.061653137207031
1776554392469468400,11.105468505859376,34.70494079589844,12.612747192382812,14.935298919677734
1776554392479508500,11.115508544921875,34.34912109375,12.561904907226562,15.052085876464844
1776554392489548500,11.125548583984376,34.775787353515625,12.522735595703125,15.022624969482422
1776554392499588600,11.135588623046875,34.83770751953125,12.571762084960938,15.042228698730469
1776554392509629400,11.14562939453125,34.6392822265625,12.751556396484375,14.974853515625
1776554392519669500,11.15566943359375,34.642120361328125,12.695518493652344,14.93570327758789
1776554392529709300,11.165709228515626,34.94482421875,12.705848693847656,15.018436431884766
1776554392539749400,11.175749267578125,35.04042053222656,12.820411682128906,14.879425048828125
1776554392549789400,11.18578955078125,34.9307861328125,12.701103210449219,14.9371337890625
1776554392559829500,11.19582958984375,34.87860107421875,12.643989562988281,14.892044067382812
1776554392569869600,11.20586962890625,35.14851379394531,12.509590148925781,15.047470092773438
1776554392579909400,11.215909423828125,35.13899230957031,12.70867919921875,15.045356750488281
1776554392589949400,11.225949462890625,35.1307373046875,12.837799072265625,14.926254272460938
1776554392599989500,11.235989501953124,35.036407470703125,12.729408264160156,14.952709197998047
1776554392610029600,11.246029541015625,35.11250305175781,13.032325744628906,14.82232666015625
1776554392620069400,11.2560693359375,35.20263671875,12.942337036132812,14.911243438720703
1776554392630109200,11.266109130859375,35.19305419921875,13.037078857421875,14.94217300415039
1776554392640150300,11.276150390625,35.33155822753906,12.787788391113281,14.886821746826172
1776554392650190300,11.2861904296875,35.12910461425781,12.849723815917969,14.868087768554688
1776554392660230400,11.29623046875,35.35548400878906,12.837532043457031,14.869621276855469
1776554392670270500,11.3062705078125,35.12982177734375,12.859901428222656,14.965595245361328
1776554392680310500,11.316310546875,35.04595947265625,12.809478759765625,14.917427062988281
1776554392690350600,11.3263505859375,34.991851806640625,12.797904968261719,14.81374740600586
1776554392700390400,11.336390380859376,34.84251403808594,12.781883239746094,14.834266662597656
1776554392710430500,11.346430419921875,34.77587890625,12.783103942871094,14.938404083251953
1776554392720470500,11.356470458984376,35.16691589355469,12.772514343261719,15.123214721679688
1776554392730510600,11.366510498046875,34.887481689453125,12.778602600097656,14.933074951171875
1776554392740550400,11.37655029296875,34.81036376953125,12.57281494140625,14.931781768798828
1776554392750590200,11.386590087890625,34.90699768066406,12.762672424316406,15.00528335571289
1776554392760630300,11.39663037109375,34.93894958496094,12.853118896484375,14.9031982421875
1776554392770671900,11.406671875,34.9996337890625,12.758766174316406,14.893718719482422
1776554392780712000,11.4167119140625,35.05223083496094,12.589645385742188,15.00387954711914
1776554392790752000,11.426751953125,34.90483093261719,12.717857360839844,15.012603759765625
1776554392800792000,11.4367919921875,35.04252624511719,12.70208740234375,14.870811462402344
1776554392810832100,11.44683203125,35.38397216796875,12.706840515136719,14.879150390625
1776554392820872000,11.456871826171875,35.09739685058594,12.71441650390625,14.908203125
1776554392830912000,11.466912109375,35.189117431640625,12.663681030273438,14.908153533935547
1776554392840951800,11.476951904296875,34.62669372558594,12.592353820800781,15.063243865966797
1776554392850991900,11.486991943359374,34.82783508300781,12.610580444335938,15.017753601074219
1776554392861032000,11.497031982421875,35.17872619628906,12.782829284667969,15.042152404785156
1776554392871071700,11.50707177734375,35.01020812988281,12.672126770019531,14.93185806274414
1776554392881111800,11.51711181640625,35.15968322753906,12.898635864257812,14.801414489746094
1776554392891152000,11.52715185546875,35.11042785644531,12.899307250976562,14.855995178222656
1776554392901192000,11.53719189453125,35.20304870605469,12.888633728027344,15.031917572021484
1776554392911233000,11.54723291015625,35.146942138671875,12.84991455078125,15.158344268798828
1776554392921273000,11.557273193359375,35.2564697265625,12.80023193359375,15.005130767822266
1776554392931313200,11.567313232421874,35.067901611328125,12.85540771484375,14.86233139038086
1776554392941353000,11.57735302734375,35.15214538574219,12.850074768066406,14.889202117919922
1776554392951392800,11.587392822265626,35.33598327636719,12.693527221679688,14.949859619140625
1776554392961432800,11.597432861328125,35.08091735839844,12.881813049316406,14.846031188964844
1776554392971473000,11.607472900390626,35.10072326660156,12.830009460449219,14.86819076538086
1776554392981513000,11.617512939453125,35.18104553222656,12.874244689941406,14.880359649658203
1776554392991552800,11.627552734375,35.229461669921875,13.01971435546875,14.91754150390625
1776554393001592800,11.6375927734375,35.35877990722656,12.883049011230469,14.8726806640625
1776554393011633000,11.6476328125,35.14250183105469,12.674827575683594,14.917572021484375
1776554393021673000,11.6576728515625,35.45149230957031,12.682075500488281,15.006511688232422
1776554393031713000,11.667713134765625,35.31278991699219,12.679588317871094,15.037357330322266
1776554393041752800,11.6777529296875,35.19935607910156,12.718132019042969,14.928592681884766
1776554393051794000,11.6877939453125,35.27642822265625,12.92901611328125,14.999408721923828
1776554393061834000,11.697833984375,35.29017639160156,12.856575012207031,14.95870590209961
1776554393071873800,11.707873779296875,35.117462158203125,12.817955017089844,15.003612518310547
1776554393081913900,11.717913818359374,35.067535400390625,12.64178466796875,14.99234390258789
1776554393091954000,11.727953857421875,35.067535400390625,12.64178466796875,14.99234390258789
1776554393101994000,11.737993896484374,35.30290222167969,12.76251220703125,14.902156829833984
1776554393112033800,11.74803369140625,35.17530822753906,12.831321716308594,14.98416519165039
1776554393122073900,11.758073974609376,35.315643310546875,12.971900939941406,14.928966522216797
1776554393132114000,11.768114013671875,35.241180419921875,12.781791687011719,14.890625
1776554393142154000,11.778154052734376,35.110809326171875,12.693412780761719,14.877498626708984
1776554393152194000,11.788194091796875,35.36517333984375,12.728034973144531,15.019054412841797
1776554393162233900,11.79823388671875,35.29975891113281,12.697380065917969,15.019760131835938
1776554393172274000,11.80827392578125,35.19805908203125,12.51007080078125,15.119678497314453
1776554393182314000,11.81831396484375,35.229522705078125,12.564437866210938,15.060592651367188
1776554393192354000,11.82835400390625,35.326568603515625,12.677337646484375,14.93997573852539
1776554393202395000,11.838394775390626,35.4210205078125,12.742294311523438,14.982025146484375
1776554393212435000,11.84843505859375,35.24537658691406,12.595458984375,14.990653991699219
1776554393222474800,11.858474853515625,35.30982971191406,12.711647033691406,14.849956512451172
1776554393232514800,11.868514892578125,35.2762451171875,12.6793212890625,14.975116729736328
1776554393242555000,11.878554931640625,35.330078125,12.560188293457031,14.920429229736328
1776554393252595000,11.888594970703124,35.43751525878906,12.663177490234375,14.924121856689453
1776554393262635000,11.898635009765625,35.34654235839844,12.650840759277344,14.907577514648438
1776554393272675000,11.908675048828124,35.171783447265625,12.559341430664062,14.86456298828125
1776554393282715000,11.91871484375,35.04533386230469,12.599220275878906,15.038570404052734
1776554393292755000,11.9287548828125,35.11122131347656,12.628585815429688,15.058456420898438
1776554393302795000,11.938794921875,34.9857177734375,12.806632995605469,14.847225189208984
1776554393312835000,11.9488349609375,35.210296630859375,12.792320251464844,14.866119384765625
1776554393322875100,11.958875244140625,34.977813720703125,12.699623107910156,14.903827667236328
1776554393332915000,11.9689150390625,35.114166259765625,12.780464172363281,15.038524627685547
1776554393342954800,11.978954833984375,35.11021423339844,12.803092956542969,15.001331329345703
1776554393352995800,11.988995849609376,35.01707458496094,12.671455383300781,15.00921630859375
1776554393363036000,11.999035888671875,34.935089111328125,12.833786010742188,14.868152618408203
1776554393373076000,12.009075927734376,34.907318115234375,12.782791137695312,14.970821380615234
1776554393383116000,12.019115966796875,34.8402099609375,12.862770080566406,14.828922271728516
1776554393393155800,12.02915576171875,34.842071533203125,12.709159851074219,14.941055297851562
1776554393403196000,12.03919580078125,35.06639099121094,12.695732116699219,14.91756820678711
1776554393413236000,12.049236083984376,35.03019714355469,12.706245422363281,14.996246337890625
1776554393423276000,12.059276123046875,35.007232666015625,12.761947631835938,14.939826965332031
1776554393433316000,12.069316162109375,35.1268310546875,12.850936889648438,15.117843627929688
1776554393443356200,12.079356201171874,35.070068359375,12.838043212890625,15.061729431152344
1776554393453396000,12.08939599609375,35.013214111328125,12.858154296875,15.015064239501953
1776554393463435800,12.099435791015624,35.25724792480469,12.860580444335938,14.975288391113281
1776554393473475800,12.109475830078125,35.044403076171875,12.948348999023438,14.89495849609375
1776554393483516000,12.119515869140624,35.24664306640625,12.822067260742188,15.121307373046875
1776554393493556000,12.129555908203125,35.242828369140625,12.807487487792969,15.000362396240234
1776554393503595800,12.139595703125,35.1107177734375,12.814224243164062,15.06509017944336
1776554393513636900,12.149636962890625,35.211883544921875,12.988075256347656,15.182182312011719
1776554393523677000,12.159677001953124,35.29296875,12.932884216308594,15.116523742675781
1776554393533717000,12.169717041015625,35.33888244628906,12.771553039550781,15.022560119628906
1776554393543757000,12.179757080078126,35.02593994140625,12.768745422363281,15.005607604980469
1776554393553797000,12.189797119140625,35.10704040527344,12.680137634277344,14.902198791503906
1776554393563837000,12.1998369140625,34.99066162109375,12.678749084472656,15.056137084960938
1776554393573876700,12.209876708984375,35.09693908691406,12.760124206542969,15.064895629882812
1776554393583916800,12.219916748046876,35.31480407714844,12.669639587402344,15.020408630371094
1776554393593956900,12.229956787109375,35.0277099609375,12.791290283203125,14.968406677246094
1776554393603997000,12.239996826171875,34.885955810546875,12.733200073242188,15.00118637084961
1776554393614037000,12.250037109375,35.05570983886719,12.617034912109375,15.122447967529297
1776554393624076800,12.260076904296875,35.151031494140625,12.750686645507812,15.203201293945312
1776554393634116900,12.270116943359374,35.14729309082031,12.777381896972656,15.134918212890625
1776554393644157000,12.280156982421875,35.300384521484375,12.845748901367188,15.007915496826172
1776554393654197000,12.290197021484374,35.16340637207031,12.563217163085938,15.064556121826172
1776554393664237000,12.300237060546875,35.08392333984375,12.508018493652344,15.056900024414062
1776554393674278100,12.310278076171874,35.417388916015625,12.5106201171875,15.12826156616211
1776554393684318000,12.32031787109375,35.30487060546875,12.4747314453125,15.065589904785156
1776554393694357800,12.330357666015624,35.05830383300781,12.5306396484375,15.114078521728516
1776554393704397800,12.340397705078125,35.416015625,12.496971130371094,15.04693603515625
1776554393714438000,12.35043798828125,35.32899475097656,12.591995239257812,15.041133880615234
1776554393724478000,12.36047802734375,35.28419494628906,12.622184753417969,15.069099426269531
1776554393734517800,12.370517822265626,35.28367614746094,12.647834777832031,15.16836929321289
1776554393744557800,12.380557861328125,35.07493591308594,12.640403747558594,15.124019622802734
1776554393754598000,12.390597900390626,35.177154541015625,12.594429016113281,15.158935546875
1776554393764637200,12.40063720703125,35.440032958984375,12.609245300292969,15.358573913574219
1776554393774677200,12.41067724609375,35.15238952636719,12.606056213378906,15.256267547607422
1776554393784717300,12.42071728515625,35.172454833984375,12.630767822265625,15.164558410644531
1776554393794757400,12.43075732421875,35.21266174316406,12.529579162597656,15.144668579101562
1776554393804797400,12.44079736328125,35.330963134765625,12.397407531738281,15.155502319335938
1776554393814837500,12.45083740234375,35.380889892578125,12.5250244140625,15.124015808105469
1776554393824877300,12.460877197265624,35.08726501464844,12.434417724609375,15.13644790649414
1776554393834917400,12.47091748046875,34.94969177246094,12.543670654296875,15.082645416259766
1776554393844957400,12.48095751953125,35.100830078125,12.58172607421875,15.102516174316406
1776554393854998300,12.490998291015625,35.219390869140625,12.5889892578125,15.065357208251953
1776554393865038300,12.501038330078124,35.27076721191406,12.522430419921875,15.027698516845703
1776554393875078400,12.511078369140625,35.20860290527344,12.545753479003906,15.0264892578125
1776554393885118200,12.5211181640625,34.9591064453125,12.802978515625,15.017402648925781
1776554393895158300,12.531158203125,34.98408508300781,12.736404418945312,15.088485717773438
1776554393905198300,12.5411982421875,35.06721496582031,12.517990112304688,15.263648986816406
1776554393915238400,12.55123828125,35.10902404785156,12.610084533691406,15.16128921508789
1776554393925278500,12.561278564453126,35.04486083984375,12.614639282226562,15.139110565185547
1776554393935318300,12.571318359375,35.07861328125,12.606292724609375,15.010704040527344
1776554393945358300,12.5813583984375,35.16526794433594,12.559417724609375,15.026008605957031
1776554393955398400,12.5913984375,35.46549987792969,12.733650207519531,15.107528686523438
1776554393965438500,12.6014384765625,35.399200439453125,12.628715515136719,15.057537078857422
1776554393975478500,12.611478515625,35.09638977050781,12.617622375488281,15.14993667602539
1776554393985518300,12.621518310546875,35.160797119140625,12.627685546875,15.068561553955078
1776554393995558100,12.63155810546875,35.25946044921875,12.773460388183594,15.062179565429688
1776554394005598200,12.64159814453125,35.46577453613281,12.800498962402344,14.926475524902344
1776554394015638300,12.65163818359375,35.2481689453125,12.705718994140625,15.03329849243164
1776554394025678300,12.66167822265625,35.290374755859375,12.59765625,15.03225326538086
1776554394035718400,12.671718505859374,35.15806579589844,12.7462158203125,15.055240631103516
1776554394045759500,12.681759521484375,35.10420227050781,12.75433349609375,15.196617126464844
1776554394055799300,12.69179931640625,35.138427734375,12.549591064453125,15.12735366821289
1776554394065839400,12.70183935546875,35.37986755371094,12.617462158203125,14.913055419921875
1776554394075879400,12.71187939453125,35.581939697265625,12.8360595703125,14.98141860961914
1776554394085919500,12.72191943359375,35.2493896484375,12.662132263183594,14.948257446289062
1776554394095959600,12.73195947265625,35.16236877441406,12.75250244140625,15.026203155517578
1776554394105999000,12.7419990234375,35.211883544921875,12.709495544433594,15.0166015625
1776554394116039200,12.7520390625,35.364227294921875,12.546745300292969,15.070610046386719
1776554394126079200,12.762079345703125,35.38960266113281,12.416175842285156,14.968841552734375
1776554394136119300,12.772119384765626,35.45692443847656,12.493362426757812,14.990535736083984
1776554394146159400,12.782159423828125,35.207794189453125,12.62689208984375,15.066421508789062
1776554394156199400,12.792199462890625,35.21714782714844,12.483505249023438,15.044803619384766
1776554394166239200,12.8022392578125,35.475555419921875,12.665733337402344,15.067195892333984
1776554394176279300,12.812279296875,35.31889343261719,12.524948120117188,15.063297271728516
1776554394186319400,12.8223193359375,35.30799865722656,12.603599548339844,15.085853576660156
1776554394196359400,12.832359375,35.27879333496094,12.704788208007812,15.016677856445312
1776554394206399500,12.8423994140625,35.15126037597656,12.81884765625,14.924934387207031
1776554394216439300,12.852439208984375,35.25355529785156,12.869384765625,14.970890045166016
1776554394226479400,12.862479248046874,35.12416076660156,12.7606201171875,14.990978240966797
1776554394236519400,12.87251953125,35.18572998046875,12.702423095703125,15.051647186279297
1776554394246560300,12.882560302734374,35.19378662109375,12.674003601074219,15.054405212402344
1776554394256600300,12.892600341796875,35.10064697265625,12.700202941894531,15.033546447753906
1776554394266640400,12.902640380859374,35.12974548339844,12.804275512695312,14.988178253173828
1776554394276680200,12.91268017578125,35.15299987792969,12.886787414550781,14.96597671508789
1776554394286720300,12.92272021484375,34.969573974609375,12.702896118164062,15.072750091552734
1776554394296760300,12.93276025390625,35.19837951660156,12.830795288085938,15.013168334960938
1776554394306800400,12.94280029296875,35.020782470703125,12.658706665039062,15.062873840332031
1776554394316840400,12.95284033203125,35.118438720703125,12.802627563476562,14.9871826171875
1776554394326880500,12.962880615234376,35.2630615234375,12.75689697265625,14.992298126220703
1776554394336920300,12.97292041015625,35.0404052734375,12.709022521972656,15.043224334716797
1776554394346960400,12.98296044921875,34.90081787109375,12.780220031738281,14.955291748046875
1776554394357000400,12.99300048828125,34.98570251464844,12.7735595703125,15.046161651611328
1776554394367040500,13.00304052734375,35.2279052734375,12.890220642089844,14.987491607666016
1776554394377080300,13.013080322265624,35.09996032714844,12.872406005859375,15.139915466308594
1776554394387120000,13.0231201171875,35.09996032714844,12.872406005859375,15.139915466308594
1776554394397160200,13.03316015625,35.08244323730469,12.758010864257812,14.902229309082031
1776554394407200300,13.0432001953125,34.82948303222656,12.600151062011719,14.923175811767578
1776554394417240300,13.053240234375,34.986785888671875,12.655044555664062,14.880550384521484
1776554394427280400,13.0632802734375,35.12567138671875,12.600074768066406,14.915851593017578
1776554394437320200,13.0733203125,35.072357177734375,12.534248352050781,15.03607177734375
1776554394447361300,13.083361328125,34.99708557128906,12.482017517089844,15.045356750488281
1776554394457401300,13.0934013671875,35.14076232910156,12.597419738769531,15.058128356933594
1776554394467441400,13.10344140625,35.14152526855469,12.675621032714844,14.970157623291016
1776554394477481500,13.1134814453125,35.0711669921875,12.692474365234375,15.024040222167969
1776554394487521500,13.123521484375,35.303375244140625,13.025787353515625,14.936866760253906
1776554394497561300,13.133561279296876,35.44020080566406,12.894439697265625,14.99825668334961
1776554394507601200,13.14360107421875,35.15324401855469,12.711448669433594,14.97646713256836
1776554394517641200,13.15364111328125,35.42210388183594,12.947364807128906,15.048595428466797
1776554394527681300,13.163681396484375,35.54765319824219,12.854194641113281,15.094657897949219
