time,seconds_elapsed,z,y,x
1776554381470676700,0.1066767578125,-254.30633544921875,68.2939453125,-45.83784484863281
1776554381480793600,0.116793701171875,-254.5522918701172,67.99864196777344,-45.65275573730469
1776554381490911500,0.126911376953125,-254.5021514892578,68.20664978027344,-45.74452209472656
1776554381501027600,0.137027587890625,-254.84042358398438,68.12051391601562,-45.76890563964844
1776554381511144700,0.147144775390625,-254.70382690429688,67.92965698242188,-45.608551025390625
1776554381521261600,0.157261474609375,-254.58181762695312,67.98268127441406,-45.70973205566406
1776554381531378400,0.16737841796875,-254.62364196777344,68.09043884277344,-45.549407958984375
1776554381541494500,0.17749462890625,-254.33421325683594,67.99713134765625,-45.67767333984375
1776554381551610400,0.1876103515625,-254.59451293945312,67.98027038574219,-45.65092468261719
1776554381561726500,0.1977265625,-254.3151092529297,68.17570495605469,-45.80604553222656
1776554381571842600,0.207842529296875,-254.38365173339844,67.99288940429688,-45.77781677246094
1776554381581957600,0.21795751953125,-254.8044891357422,68.02400207519531,-45.45338439941406
1776554381592072400,0.228072509765625,-254.26315307617188,68.1932373046875,-45.8211669921875
1776554381602188500,0.2381884765625,-254.5914306640625,68.27670288085938,-45.935791015625
1776554381612305700,0.2483056640625,-254.28797912597656,68.09437561035156,-45.91239929199219
1776554381622422500,0.258422607421875,-254.59890747070312,68.07652282714844,-45.95347595214844
1776554381632539400,0.268539306640625,-254.399658203125,68.31719970703125,-45.72711181640625
1776554381642656500,0.278656494140625,-254.47256469726562,68.35273742675781,-46.004669189453125
1776554381652774700,0.288774658203125,-254.33212280273438,68.21617126464844,-46.04716491699219
1776554381662892500,0.298892578125,-254.58741760253906,68.1986083984375,-45.77032470703125
1776554381673010700,0.3090107421875,-254.49386596679688,68.20458984375,-45.94386291503906
1776554381683127600,0.31912744140625,-254.51815795898438,67.93020629882812,-45.821197509765625
1776554381693245700,0.32924560546875,-254.91815185546875,68.0543212890625,-45.803131103515625
1776554381703362600,0.339362548828125,-254.58843994140625,68.02799987792969,-46.04029846191406
1776554381713479400,0.3494794921875,-254.46873474121094,67.92945861816406,-45.79801940917969
1776554381723596500,0.359596435546875,-254.4156036376953,67.99723815917969,-45.735687255859375
1776554381733713700,0.369713623046875,-254.518798828125,67.8568115234375,-45.87200927734375
1776554381743830500,0.37983056640625,-254.59286499023438,67.77621459960938,-45.97645568847656
1776554381753947400,0.389947509765625,-254.3343963623047,67.68818664550781,-45.8468017578125
1776554381764065500,0.4000654296875,-254.0994415283203,67.44619750976562,-45.7420654296875
1776554381774184700,0.410184814453125,-253.4946746826172,67.26800537109375,-45.70487976074219
1776554381784300500,0.420300537109375,-253.6588897705078,67.15534973144531,-45.75946044921875
1776554381794416600,0.430416748046875,-253.37905883789062,66.9940185546875,-45.85365295410156
1776554381804534800,0.44053466796875,-252.49395751953125,66.77055358886719,-45.84954833984375
1776554381814651400,0.4506513671875,-251.91400146484375,66.47691345214844,-45.84687805175781
1776554381824768500,0.4607685546875,-250.6464080810547,66.20411682128906,-45.67066955566406
1776554381834886700,0.47088671875,-251.00379943847656,65.92030334472656,-45.99095153808594
1776554381845004500,0.481004638671875,-249.45460510253906,65.58773803710938,-45.92478942871094
1776554381855121700,0.49112158203125,-249.00070190429688,65.29306030273438,-46.14143371582031
1776554381865239600,0.501239501953125,-247.7728271484375,65.1143798828125,-46.16468811035156
1776554381875358500,0.5113583984375,-246.99716186523438,64.26962280273438,-46.50706481933594
1776554381885477600,0.5214775390625,-245.97872924804688,63.90385437011719,-46.7855224609375
1776554381895596500,0.531596435546875,-245.12522888183594,63.5062255859375,-46.98640441894531
1776554381905715700,0.5417158203125,-244.1744384765625,63.115692138671875,-47.44548034667969
1776554381915835600,0.551835693359375,-243.43528747558594,62.53755187988281,-47.282989501953125
1776554381925953500,0.56195361328125,-242.9781494140625,62.240325927734375,-47.78865051269531
1776554381936071700,0.57207177734375,-241.8966064453125,61.75506591796875,-47.820526123046875
1776554381946189600,0.582189453125,-241.41387939453125,61.54693603515625,-47.82084655761719
1776554381956308500,0.59230859375,-240.61378479003906,61.19279479980469,-48.127044677734375
1776554381966426600,0.602426513671875,-239.70347595214844,60.99101257324219,-48.2567138671875
1776554381976543700,0.612543701171875,-239.44129943847656,60.986724853515625,-48.29913330078125
1776554381986661600,0.62266162109375,-239.22434997558594,61.03303527832031,-48.129791259765625
1776554381996779800,0.63277978515625,-238.86480712890625,61.178680419921875,-48.207305908203125
1776554382006896400,0.642896484375,-238.76585388183594,61.19166564941406,-48.01972961425781
1776554382017014500,0.6530146484375,-239.25392150878906,61.1229248046875,-47.69203186035156
1776554382027133700,0.6631337890625,-239.28060913085938,61.44464111328125,-47.45819091796875
1776554382037251600,0.67325146484375,-239.3838348388672,61.3607177734375,-47.217193603515625
1776554382047369500,0.683369384765625,-240.10780334472656,61.59034729003906,-46.72137451171875
1776554382057487400,0.6934873046875,-240.0009765625,61.856475830078125,-46.48069763183594
1776554382067605500,0.70360546875,-240.35366821289062,61.83235168457031,-46.27656555175781
1776554382077722600,0.71372265625,-240.1668701171875,61.9210205078125,-46.081024169921875
1776554382087841500,0.723841552734375,-240.1345672607422,61.65016174316406,-45.82093811035156
1776554382097959400,0.73395947265625,-240.37985229492188,61.86041259765625,-45.75242614746094
1776554382108076500,0.74407666015625,-240.6532440185547,61.68788146972656,-45.49516296386719
1776554382118192600,0.754192626953125,-240.66612243652344,61.26408386230469,-45.22467041015625
1776554382128310800,0.764310791015625,-241.65281677246094,61.138275146484375,-45.06256103515625
1776554382138426600,0.774426513671875,-242.08416748046875,60.79438781738281,-44.679412841796875
1776554382148543500,0.78454345703125,-243.05833435058594,61.04219055175781,-44.25532531738281
1776554382158660600,0.79466064453125,-243.14382934570312,61.22373962402344,-44.0732421875
1776554382168777700,0.80477783203125,-243.84161376953125,61.06219482421875,-43.7509765625
1776554382178894600,0.81489453125,-244.06605529785156,61.329620361328125,-43.23731994628906
1776554382189011500,0.825011474609375,-244.7706756591797,61.34375,-42.967071533203125
1776554382199129600,0.835129638671875,-244.8924560546875,61.462066650390625,-42.25782775878906
1776554382209246700,0.845246826171875,-245.51397705078125,61.646026611328125,-42.21153259277344
1776554382219364600,0.855364501953125,-246.3744659423828,61.76066589355469,-41.739105224609375
1776554382229482800,0.865482666015625,-247.04112243652344,62.12638854980469,-41.238555908203125
1776554382239599600,0.875599609375,-247.3128662109375,62.52729797363281,-40.95257568359375
1776554382249716500,0.885716552734375,-247.59719848632812,62.92839050292969,-40.21412658691406
1776554382259832600,0.89583251953125,-247.90806579589844,63.35737609863281,-39.97325134277344
1776554382269950700,0.90595068359375,-248.52828979492188,63.766387939453125,-39.53375244140625
1776554382280067600,0.916067626953125,-248.8220672607422,64.48063659667969,-39.064208984375
1776554382290185700,0.926185791015625,-248.71502685546875,65.05281066894531,-38.601165771484375
1776554382300302600,0.936302490234375,-249.3526611328125,65.5460205078125,-38.0556640625
1776554382310419500,0.94641943359375,-249.00360107421875,66.32289123535156,-37.56541442871094
1776554382320536600,0.95653662109375,-249.5017852783203,67.26127624511719,-37.18267822265625
1776554382330652400,0.96665234375,-249.63746643066406,68.28204345703125,-36.79298400878906
1776554382340769500,0.97676953125,-249.33297729492188,68.96694946289062,-36.061798095703125
1776554382350886700,0.98688671875,-249.9009246826172,70.06282043457031,-35.76542663574219
1776554382361003500,0.99700341796875,-249.90696716308594,71.096435546875,-35.2757568359375
1776554382371121700,1.00712158203125,-249.9069366455078,72.19541931152344,-34.87837219238281
1776554382381237500,1.017237548828125,-249.71177673339844,73.6785888671875,-34.47676086425781
1776554382391355400,1.02735546875,-249.2683563232422,75.19964599609375,-34.152984619140625
1776554382401472500,1.037472412109375,-249.44479370117188,76.82984924316406,-34.01521301269531
1776554382411588600,1.047588623046875,-249.21351623535156,78.636474609375,-33.80511474609375
1776554382421706800,1.057706787109375,-249.0462646484375,80.33625793457031,-33.59611511230469
1776554382431824600,1.06782470703125,-248.40345764160156,82.35379028320312,-33.356536865234375
1776554382441941500,1.07794140625,-248.300537109375,84.19197082519531,-33.61882019042969
1776554382452058600,1.08805859375,-248.2178955078125,86.44874572753906,-33.7626953125
1776554382462176500,1.098176513671875,-248.1803436279297,88.45462036132812,-33.89195251464844
1776554382472294700,1.108294677734375,-248.0426788330078,90.65817260742188,-34.07148742675781
1776554382482411500,1.11841162109375,-247.51332092285156,92.77934265136719,-34.29545593261719
1776554382492529700,1.12852978515625,-247.54656982421875,95.12876892089844,-34.632171630859375
1776554382502646800,1.138646728515625,-246.43531799316406,97.17892456054688,-35.146331787109375
1776554382512763400,1.148763427734375,-245.7465362548828,99.05113220214844,-35.86213684082031
1776554382522881500,1.158881591796875,-244.5012664794922,100.98240661621094,-36.37176513671875
1776554382532999400,1.16899951171875,-243.1630096435547,102.36833190917969,-36.89521789550781
1776554382543117600,1.17911767578125,-241.3678436279297,103.69073486328125,-37.90861511230469
1776554382553234700,1.189234619140625,-238.9527587890625,104.61845397949219,-38.6995849609375
1776554382563350800,1.199350830078125,-237.15196228027344,105.20204162597656,-39.5849609375
1776554382573467400,1.20946728515625,-234.69189453125,105.32423400878906,-40.47425842285156
1776554382583584500,1.21958447265625,-232.17132568359375,105.02590942382812,-41.23939514160156
1776554382593700600,1.22970068359375,-230.23907470703125,104.12483215332031,-42.25968933105469
1776554382603817700,1.239817626953125,-228.4014434814453,102.84561157226562,-42.909820556640625
1776554382613934600,1.2499345703125,-225.93508911132812,101.28817749023438,-43.589111328125
1776554382624052500,1.260052490234375,-224.11264038085938,99.3564453125,-44.06944274902344
1776554382634169600,1.270169677734375,-222.66163635253906,97.36907958984375,-44.86756896972656
1776554382644287500,1.28028759765625,-221.1659698486328,95.11776733398438,-45.632476806640625
1776554382654406700,1.29040673828125,-220.02491760253906,92.5755615234375,-46.320556640625
1776554382664524500,1.300524658203125,-219.03042602539062,90.09588623046875,-47.18115234375
1776554382674642700,1.310642578125,-218.3135986328125,87.8323974609375,-47.62144470214844
1776554382684759600,1.320759521484375,-217.68429565429688,85.63301086425781,-48.34544372558594
1776554382694877700,1.330877685546875,-217.3951873779297,83.88426208496094,-48.52601623535156
1776554382704994600,1.34099462890625,-217.7873077392578,82.16961669921875,-49.074432373046875
1776554382715112700,1.35111279296875,-217.25205993652344,81.69697570800781,-50.160858154296875
1776554382725229600,1.3612294921875,-216.96517944335938,82.04154968261719,-51.41230773925781
1776554382735346400,1.371346435546875,-216.56564331054688,82.35762023925781,-52.61360168457031
1776554382745463600,1.381463623046875,-216.62457275390625,83.1478271484375,-53.51373291015625
1776554382755580700,1.39158056640625,-215.94349670410156,83.86827087402344,-54.11537170410156
1776554382765697000,1.401697021484375,-216.0795440673828,84.40025329589844,-53.96903991699219
1776554382775815000,1.41181494140625,-216.8571319580078,84.59173583984375,-53.81623840332031
1776554382785933000,1.42193310546875,-217.0759735107422,84.50082397460938,-53.15950012207031
1776554382796052000,1.432052001953125,-217.87600708007812,84.27932739257812,-52.59193420410156
1776554382806170000,1.442170166015625,-217.91969299316406,84.08518981933594,-52.02220153808594
1776554382816288000,1.4522880859375,-218.51084899902344,83.95263671875,-51.40470886230469
1776554382826403800,1.46240380859375,-219.49798583984375,83.367919921875,-51.04388427734375
1776554382836522000,1.47252197265625,-219.64495849609375,82.59353637695312,-50.216827392578125
1776554382846638000,1.48263818359375,-219.92417907714844,82.05581665039062,-49.53273010253906
1776554382856756000,1.492755859375,-220.156494140625,80.7032470703125,-48.89521789550781
1776554382866873000,1.502873046875,-220.37924194335938,79.66703796386719,-48.37165832519531
1776554382876990000,1.512989990234375,-220.3748779296875,78.8118896484375,-48.07684326171875
1776554382887106800,1.52310693359375,-221.29090881347656,77.89689636230469,-47.72444152832031
1776554382897223000,1.533222900390625,-221.4094696044922,77.28915405273438,-47.38262939453125
1776554382907339800,1.54333984375,-221.55308532714844,76.47927856445312,-47.07817077636719
1776554382917457000,1.553456787109375,-222.1348419189453,76.03683471679688,-46.80921936035156
1776554382927575800,1.563575927734375,-222.94842529296875,75.64445495605469,-46.506256103515625
1776554382937693000,1.57369287109375,-223.4611358642578,75.36322021484375,-45.90234375
1776554382947810800,1.583810791015625,-224.2010955810547,75.32646179199219,-45.51963806152344
1776554382957928000,1.593927978515625,-224.62030029296875,75.44488525390625,-44.89714050292969
1776554382968045000,1.604045166015625,-225.40841674804688,75.42973327636719,-44.53486633300781
1776554382978163000,1.614162841796875,-225.74880981445312,75.86235046386719,-44.13179016113281
1776554382988279800,1.62427978515625,-226.5494842529297,76.23687744140625,-43.59321594238281
1776554382998398000,1.63439794921875,-226.85824584960938,76.39866638183594,-43.093505859375
1776554383008514800,1.644514892578125,-227.4556121826172,76.59637451171875,-42.832763671875
1776554383018631000,1.654630859375,-227.52090454101562,76.72821044921875,-42.4306640625
1776554383028748000,1.664748046875,-228.65145874023438,76.51057434082031,-42.05438232421875
1776554383038866000,1.674865966796875,-229.0185546875,75.91554260253906,-41.60588073730469
1776554383048982800,1.684982666015625,-229.52035522460938,75.54689025878906,-40.96452331542969
1776554383059101000,1.695100830078125,-229.8539276123047,75.44094848632812,-40.86592102050781
1776554383069218000,1.705218017578125,-230.30641174316406,75.49462890625,-40.735107421875
1776554383079336000,1.7153359375,-230.91683959960938,75.67372131347656,-40.32160949707031
1776554383089454800,1.725454833984375,-230.75921630859375,76.35963439941406,-40.49632263183594
1776554383099573000,1.735572998046875,-230.6320037841797,76.89262390136719,-40.09039306640625
1776554383109689900,1.74568994140625,-230.60008239746094,77.48359680175781,-40.664093017578125
1776554383119808000,1.75580810546875,-230.45843505859375,78.21937561035156,-40.869781494140625
1776554383129925000,1.765925048828125,-230.0522918701172,78.83833312988281,-40.89781188964844
1776554383140043000,1.77604296875,-230.5921173095703,79.4149169921875,-40.86158752441406
1776554383150160000,1.786159912109375,-230.3115997314453,80.02589416503906,-40.9718017578125
1776554383160276000,1.79627587890625,-230.0589141845703,80.58039855957031,-41.176513671875
1776554383170393000,1.80639306640625,-229.44786071777344,80.85798645019531,-41.460845947265625
1776554383180509000,1.816509033203125,-228.46823120117188,81.25201416015625,-42.14558410644531
1776554383190625000,1.826625,-227.9700927734375,81.48788452148438,-42.67784118652344
1776554383200742000,1.836741943359375,-227.18096923828125,81.80099487304688,-43.236114501953125
1776554383210858800,1.846858642578125,-226.7976837158203,82.48233032226562,-43.72593688964844
1776554383220974800,1.856974853515625,-226.92323303222656,83.5343017578125,-44.172821044921875
1776554383231092000,1.867092041015625,-226.39874267578125,84.44894409179688,-44.367950439453125
1776554383241207800,1.877207763671875,-226.2114715576172,85.1851806640625,-44.32379150390625
1776554383251324000,1.887323974609375,-226.62026977539062,86.0897216796875,-44.719207763671875
1776554383261438700,1.897438720703125,-226.3362274169922,87.00411987304688,-44.996917724609375
1776554383271555000,1.90755517578125,-226.81195068359375,87.87800598144531,-45.18397521972656
1776554383281671000,1.9176708984375,-227.4209442138672,89.03398132324219,-45.288421630859375
1776554383291787000,1.927787109375,-227.9097442626953,89.80523681640625,-45.27101135253906
1776554383301903000,1.937903076171875,-228.17886352539062,90.83554077148438,-45.357818603515625
1776554383312019700,1.948019775390625,-228.4815216064453,91.60751342773438,-45.59126281738281
1776554383322135800,1.9581357421875,-228.47393798828125,92.27018737792969,-45.816925048828125
1776554383332251000,1.9682509765625,-228.7084503173828,93.04904174804688,-46.26826477050781
1776554383342366000,1.978365966796875,-228.53387451171875,93.87020874023438,-46.70195007324219
1776554383352481800,1.988481689453125,-228.3975830078125,94.2099609375,-47.21726989746094
1776554383362599000,1.998598876953125,-228.0250244140625,94.64663696289062,-47.53782653808594
1776554383372716000,2.008716064453125,-228.65261840820312,95.48933410644531,-47.90919494628906
1776554383382834000,2.018833984375,-228.84767150878906,96.11857604980469,-47.84120178222656
1776554383392949800,2.02894970703125,-229.34664916992188,97.07350158691406,-48.40788269042969
1776554383403068000,2.03906787109375,-229.4370880126953,97.52168273925781,-48.7542724609375
1776554383413184800,2.049184814453125,-229.5414581298828,97.81558227539062,-49.19258117675781
1776554383423303000,2.059302978515625,-228.8984832763672,97.87908935546875,-49.529815673828125
1776554383433420800,2.0694208984375,-228.43836975097656,98.19813537597656,-49.79498291015625
1776554383443538000,2.079537841796875,-228.497314453125,98.35069274902344,-50.071044921875
1776554383453655000,2.089655029296875,-228.49075317382812,98.65652465820312,-50.230438232421875
1776554383463773000,2.09977294921875,-228.73216247558594,98.58749389648438,-50.055694580078125
1776554383473889800,2.109889892578125,-228.55616760253906,98.71772766113281,-49.98527526855469
1776554383484008000,2.120008056640625,-229.25059509277344,98.48622131347656,-49.650390625
1776554383494124800,2.130124755859375,-228.74588012695312,98.4556884765625,-49.509735107421875
1776554383504241000,2.140240966796875,-228.1512908935547,98.23402404785156,-49.63850402832031
1776554383514358000,2.15035791015625,-227.89598083496094,97.81411743164062,-49.484466552734375
1776554383524476000,2.160475830078125,-227.7110137939453,97.45156860351562,-49.35371398925781
1776554383534592800,2.1705927734375,-227.5612335205078,97.08152770996094,-49.371490478515625
1776554383544710000,2.1807099609375,-227.4650421142578,96.79541015625,-49.33984375
1776554383554828000,2.190828125,-227.65882873535156,96.86976623535156,-49.07623291015625
1776554383564946000,2.20094580078125,-227.4286346435547,96.66983032226562,-49.03021240234375
1776554383575064000,2.21106396484375,-227.29086303710938,96.45559692382812,-48.75543212890625
1776554383585180200,2.22118017578125,-227.347412109375,96.11647033691406,-48.82481384277344
1776554383595296800,2.231296875,-227.19754028320312,95.96369934082031,-48.70942687988281
1776554383605412900,2.241412841796875,-227.06820678710938,95.55508422851562,-48.69789123535156
1776554383615528700,2.25152880859375,-226.59637451171875,95.43785095214844,-48.7052001953125
1776554383625645800,2.261645751953125,-226.4196014404297,94.9010009765625,-48.45695495605469
1776554383635762000,2.271761962890625,-226.28851318359375,94.87576293945312,-48.45599365234375
1776554383645879000,2.281879150390625,-226.08663940429688,94.85549926757812,-48.59794616699219
1776554383655997000,2.291996826171875,-226.00489807128906,94.65354919433594,-48.46540832519531
1776554383666113800,2.30211376953125,-225.57901000976562,94.30685424804688,-48.25788879394531
1776554383676231000,2.31223095703125,-225.2214813232422,94.04660034179688,-48.42706298828125
1776554383686348000,2.32234814453125,-224.86917114257812,93.42251586914062,-48.60987854003906
1776554383696465000,2.33246484375,-224.5652313232422,92.933349609375,-48.431549072265625
1776554383706583000,2.3425830078125,-224.14767456054688,92.34986877441406,-48.7415771484375
1776554383716699000,2.352698974609375,-223.57559204101562,91.87236022949219,-48.26454162597656
1776554383726816000,2.36281591796875,-223.30941772460938,91.66290283203125,-48.43634033203125
1776554383736934000,2.372933837890625,-223.8060760498047,91.27262878417969,-48.307891845703125
1776554383747052000,2.383052001953125,-223.60394287109375,91.02867126464844,-48.532470703125
1776554383757169000,2.3931689453125,-222.45591735839844,90.57905578613281,-48.878448486328125
1776554383767285800,2.40328564453125,-222.3135223388672,90.80186462402344,-49.405426025390625
1776554383777403000,2.41340283203125,-221.35980224609375,90.65997314453125,-50.20054626464844
1776554383787521800,2.423521728515625,-220.55552673339844,90.232421875,-51.15119934082031
1776554383797639000,2.433638916015625,-219.4532470703125,90.4169921875,-52.31341552734375
1776554383807755800,2.443755859375,-218.677490234375,90.22230529785156,-53.2745361328125
1776554383817872600,2.45387255859375,-218.2672882080078,90.6849365234375,-54.11524963378906
1776554383827990800,2.46399072265625,-218.09054565429688,91.17866516113281,-54.477935791015625
1776554383838108700,2.474108642578125,-218.9724884033203,91.5660400390625,-54.33094787597656
1776554383848226800,2.484226806640625,-219.17141723632812,92.26132202148438,-54.04901123046875
1776554383858344000,2.494343994140625,-219.5435028076172,92.79495239257812,-53.76365661621094
1776554383868460800,2.504460693359375,-220.1388397216797,93.4881591796875,-53.55387878417969
1776554383878579000,2.514578857421875,-220.84242248535156,93.93667602539062,-53.29133605957031
1776554383888695800,2.52469580078125,-221.07095336914062,94.23362731933594,-53.29756164550781
1776554383898813700,2.534813720703125,-221.06468200683594,94.49880981445312,-53.363525390625
1776554383908930800,2.544930908203125,-221.210693359375,94.54371643066406,-53.730560302734375
1776554383919047000,2.555046875,-220.55148315429688,94.27476501464844,-54.1419677734375
1776554383929164800,2.565164794921875,-220.44448852539062,94.49618530273438,-55.17066955566406
1776554383939280600,2.57528076171875,-219.7401885986328,94.486083984375,-55.67840576171875
1776554383949397800,2.585397705078125,-219.14309692382812,94.08303833007812,-56.24708557128906
1776554383959515000,2.595514892578125,-218.76263427734375,94.32902526855469,-57.021209716796875
1776554383969632000,2.605632080078125,-218.326171875,94.56709289550781,-57.56169128417969
1776554383979751000,2.6157509765625,-218.0259552001953,94.55514526367188,-58.334564208984375
1776554383989868800,2.625868896484375,-217.88754272460938,94.46835327148438,-58.83668518066406
1776554383999987000,2.635987060546875,-217.05227661132812,94.451416015625,-59.089813232421875
1776554384010102800,2.646102783203125,-217.3556671142578,94.61201477050781,-59.50706481933594
1776554384020220700,2.656220703125,-217.16683959960938,94.70298767089844,-59.614349365234375
1776554384030339800,2.66633984375,-217.31419372558594,95.01718139648438,-59.89079284667969
1776554384040457700,2.676457763671875,-217.56886291503906,95.02362060546875,-60.037933349609375
1776554384050574800,2.686574951171875,-217.41326904296875,95.325927734375,-59.9935302734375
1776554384060691700,2.696691650390625,-217.3911590576172,95.24476623535156,-60.00926208496094
1776554384070809900,2.706809814453125,-217.446044921875,95.29046630859375,-60.30656433105469
1776554384080927700,2.716927734375,-217.39337158203125,95.24693298339844,-60.18951416015625
1776554384091044900,2.727044921875,-217.17991638183594,95.38822937011719,-60.3729248046875
1776554384101163000,2.7371630859375,-216.92599487304688,95.06767272949219,-60.229705810546875
1776554384111282000,2.747281982421875,-217.6367645263672,95.09904479980469,-60.25007629394531
1776554384121399800,2.75739990234375,-217.27378845214844,95.27098083496094,-60.06318664550781
1776554384131518000,2.76751806640625,-217.8208465576172,95.17509460449219,-59.621337890625
1776554384141634800,2.777634765625,-217.88577270507812,95.52523803710938,-59.330902099609375
1776554384151752700,2.787752685546875,-218.40879821777344,95.90135192871094,-59.16961669921875
1776554384161869800,2.797869873046875,-218.60951232910156,96.174560546875,-59.04972839355469
1776554384171987000,2.807987060546875,-218.81796264648438,96.44302368164062,-58.7410888671875
1776554384182103800,2.818103759765625,-218.80368041992188,96.50871276855469,-58.81355285644531
1776554384192222000,2.828221923828125,-218.70689392089844,96.71206665039062,-58.9017333984375
1776554384202339800,2.83833984375,-218.8258514404297,96.87469482421875,-59.23883056640625
1776554384212456700,2.848456787109375,-218.711669921875,97.27487182617188,-59.454833984375
1776554384222573800,2.85857373046875,-218.56065368652344,97.09800720214844,-59.538604736328125
1776554384232690700,2.868690673828125,-218.41163635253906,97.33279418945312,-59.717681884765625
1776554384242807800,2.878807861328125,-218.3253631591797,97.35670471191406,-59.82073974609375
1776554384252923600,2.888923583984375,-218.3528289794922,97.63739013671875,-59.92167663574219
1776554384263040800,2.899040771484375,-218.62823486328125,97.72366333007812,-59.97941589355469
1776554384273159700,2.90915966796875,-218.33753967285156,97.50869750976562,-60.003997802734375
1776554384283277800,2.91927783203125,-217.9586181640625,97.41697692871094,-59.837158203125
1776554384293395700,2.929395751953125,-217.82403564453125,97.045166015625,-60.19464111328125
1776554384303513900,2.939513916015625,-217.52960205078125,96.86894226074219,-60.40199279785156
1776554384313630700,2.949630615234375,-217.32713317871094,96.78817749023438,-60.346893310546875
1776554384323748900,2.959748779296875,-216.9154510498047,96.40057373046875,-60.45628356933594
1776554384333867800,2.96986767578125,-216.83872985839844,95.86589050292969,-60.27595520019531
1776554384343986700,2.979986572265625,-216.64402770996094,95.56588745117188,-60.180450439453125
1776554384354105600,2.990105712890625,-216.4722137451172,95.61639404296875,-60.410247802734375
1776554384364223700,3.0002236328125,-216.4578094482422,95.34234619140625,-60.50724792480469
1776554384374341600,3.010341552734375,-216.30226135253906,95.27592468261719,-60.541168212890625
1776554384384459800,3.020459716796875,-215.94773864746094,95.32783508300781,-60.74656677246094
1776554384394577700,3.03057763671875,-215.8572998046875,95.58570861816406,-60.895294189453125
1776554384404695800,3.04069580078125,-216.3362579345703,95.321044921875,-60.80931091308594
1776554384414813700,3.050813720703125,-216.21234130859375,95.33720397949219,-60.668365478515625
1776554384424930800,3.060930908203125,-215.6117401123047,94.80809020996094,-60.20155334472656
1776554384435048700,3.071048583984375,-215.67694091796875,93.92535400390625,-60.05036926269531
1776554384445166800,3.081166748046875,-214.92385864257812,92.87493896484375,-59.53230285644531
1776554384455284000,3.091283935546875,-214.52430725097656,91.91709899902344,-59.24293518066406
1776554384465401900,3.10140185546875,-214.1001739501953,91.146484375,-59.12031555175781
1776554384475518700,3.111518798828125,-213.52194213867188,90.48854064941406,-58.97320556640625
1776554384485635800,3.1216357421875,-213.3036346435547,89.85859680175781,-59.410064697265625
1776554384495753700,3.131753662109375,-213.53221130371094,90.37864685058594,-59.36613464355469
1776554384505870800,3.141870849609375,-213.6995391845703,90.7454833984375,-59.21392822265625
1776554384515988700,3.15198876953125,-214.36026000976562,90.88014221191406,-59.18394470214844
1776554384526107000,3.16210693359375,-214.0041961669922,91.01675415039062,-58.98492431640625
1776554384536225800,3.172225830078125,-214.56985473632812,91.39241027832031,-59.271820068359375
1776554384546344700,3.1823447265625,-214.407958984375,91.1904296875,-59.296142578125
1776554384556462800,3.192462890625,-214.12002563476562,90.74009704589844,-59.46742248535156
1776554384566581800,3.202581787109375,-213.94992065429688,90.40460205078125,-59.308929443359375
1776554384576700700,3.21270068359375,-213.0598602294922,89.92015075683594,-59.439849853515625
1776554384586818800,3.22281884765625,-213.68545532226562,89.56678771972656,-59.52677917480469
1776554384596935700,3.232935791015625,-213.33831787109375,89.54832458496094,-59.40968322753906
1776554384607051800,3.2430517578125,-213.2360382080078,89.00640869140625,-59.176605224609375
1776554384617169000,3.2531689453125,-212.71499633789062,88.9560546875,-58.85154724121094
1776554384627286800,3.263286865234375,-213.1524200439453,88.528564453125,-59.16619873046875
1776554384637403600,3.273403564453125,-212.85671997070312,88.16940307617188,-59.02894592285156
1776554384647521800,3.283521728515625,-213.0757598876953,87.69802856445312,-59.05104064941406
1776554384657639000,3.293638916015625,-212.7871551513672,87.69345092773438,-59.061553955078125
1776554384667755800,3.303755859375,-212.62796020507812,87.38705444335938,-59.045166015625
1776554384677874700,3.313874755859375,-212.8721160888672,87.41064453125,-58.96687316894531
1776554384687992800,3.323992919921875,-212.78201293945312,87.494873046875,-58.72608947753906
1776554384698109000,3.33410888671875,-212.5929412841797,87.23890686035156,-58.647552490234375
1776554384708226800,3.344226806640625,-213.021240234375,87.38638305664062,-58.39801025390625
1776554384718346000,3.354345947265625,-212.87742614746094,87.025146484375,-58.3193359375
1776554384728462600,3.364462646484375,-213.20187377929688,86.81427001953125,-58.331939697265625
1776554384738580700,3.374580810546875,-213.02670288085938,86.58341979980469,-58.25025939941406
1776554384748698600,3.38469873046875,-213.12750244140625,86.80793762207031,-57.99693298339844
1776554384758816800,3.394816650390625,-212.99061584472656,86.88201904296875,-57.75163269042969
1776554384768934100,3.40493408203125,-213.31048583984375,86.81834411621094,-57.79664611816406
1776554384779052300,3.41505224609375,-213.42813110351562,86.78669738769531,-57.84352111816406
1776554384789168000,3.425168212890625,-213.40277099609375,87.10423278808594,-57.82273864746094
1776554384799286000,3.4352861328125,-213.32447814941406,86.94624328613281,-57.729339599609375
1776554384809404200,3.445404052734375,-213.40567016601562,87.17916870117188,-57.79658508300781
1776554384819520300,3.455520263671875,-213.46397399902344,87.22047424316406,-57.72297668457031
1776554384829639200,3.46563916015625,-213.58566284179688,87.26390075683594,-57.65367126464844
1776554384839755000,3.475755126953125,-213.56777954101562,87.440673828125,-57.38746643066406
1776554384849872100,3.4858720703125,-213.72023010253906,87.63787841796875,-57.36357116699219
1776554384859989200,3.4959892578125,-213.72386169433594,87.63839721679688,-57.226654052734375
1776554384870106000,3.506106201171875,-214.03021240234375,87.56744384765625,-57.12562561035156
1776554384880223200,3.51622314453125,-213.93954467773438,87.76866149902344,-56.86839294433594
1776554384890340000,3.526340087890625,-214.37669372558594,87.52668762207031,-56.816253662109375
1776554384900456200,3.536456298828125,-213.49517822265625,87.75135803222656,-56.594085693359375
1776554384910572300,3.546572265625,-213.831787109375,87.744140625,-57.05561828613281
1776554384920688000,3.556688232421875,-213.76292419433594,87.7283935546875,-56.873870849609375
1776554384930805200,3.56680517578125,-214.04241943359375,87.92234802246094,-56.94561767578125
1776554384940922400,3.57692236328125,-213.9739227294922,88.08677673339844,-56.92762756347656
1776554384951040300,3.587040283203125,-213.56053161621094,88.02882385253906,-56.92083740234375
1776554384961158400,3.597158447265625,-214.01560974121094,88.44248962402344,-57.04444885253906
1776554384971275000,3.60727490234375,-214.3619384765625,88.21701049804688,-57.019287109375
1776554384981393200,3.61739306640625,-214.14968872070312,88.41453552246094,-57.19122314453125
1776554384991510300,3.62751025390625,-213.95814514160156,88.45372009277344,-57.30302429199219
1776554385001627100,3.637627197265625,-213.99359130859375,88.66061401367188,-57.407318115234375
1776554385011745300,3.647745361328125,-213.9381103515625,88.734619140625,-57.44288635253906
1776554385021863200,3.65786328125,-214.09005737304688,88.37496948242188,-57.49284362792969
1776554385031980300,3.667980224609375,-213.61318969726562,88.78851318359375,-57.747344970703125
1776554385042098200,3.67809814453125,-213.6192626953125,89.13954162597656,-57.376861572265625
1776554385052217300,3.68821728515625,-213.76976013183594,88.75523376464844,-57.77754211425781
1776554385062335200,3.698335205078125,-213.56198120117188,89.01106262207031,-57.88905334472656
1776554385072452000,3.7084521484375,-213.83316040039062,89.1387939453125,-57.949859619140625
1776554385082568200,3.718568115234375,-213.88938903808594,89.21694946289062,-58.023956298828125
1776554385092684300,3.728684326171875,-213.55764770507812,89.26104736328125,-58.0848388671875
1776554385102802200,3.73880224609375,-213.5868377685547,89.52227783203125,-58.21258544921875
1776554385112921300,3.74892138671875,-213.6813201904297,89.55271911621094,-58.1275634765625
1776554385123038200,3.7590380859375,-213.5985870361328,89.44273376464844,-58.06352233886719
1776554385133155000,3.769155029296875,-213.7311553955078,89.57540893554688,-58.023895263671875
1776554385143272200,3.779272216796875,-213.69078063964844,89.77154541015625,-58.07447814941406
1776554385153390000,3.78939013671875,-213.79978942871094,89.77951049804688,-58.09222412109375
1776554385163507200,3.799507080078125,-213.90618896484375,89.79446411132812,-58.08570861816406
1776554385173624300,3.809624267578125,-213.93890380859375,89.93019104003906,-58.054779052734375
1776554385183740200,3.819740234375,-213.18463134765625,89.52532958984375,-57.80162048339844
1776554385193858000,3.829858154296875,-213.83021545410156,89.781982421875,-58.07276916503906
1776554385203975200,3.83997509765625,-213.8286590576172,89.90348815917969,-58.227813720703125
1776554385214093300,3.85009326171875,-213.65318298339844,89.94163513183594,-58.076416015625
1776554385224211200,3.860211181640625,-213.66578674316406,89.92793273925781,-58.13920593261719
1776554385234328300,3.870328369140625,-213.51405334472656,89.94656372070312,-58.07029724121094
1776554385244445200,3.880445068359375,-213.86508178710938,90.21009826660156,-58.419158935546875
1776554385254564400,3.890564453125,-213.57310485839844,89.82719421386719,-58.226837158203125
1776554385264682200,3.90068212890625,-213.59426879882812,90.06883239746094,-58.17005920410156
1776554385274800000,3.910800048828125,-213.41961669921875,89.9674072265625,-58.4017333984375
1776554385284918000,3.92091796875,-213.52281188964844,90.13812255859375,-58.31904602050781
1776554385295035100,3.93103515625,-213.4070587158203,90.07015991210938,-58.290496826171875
1776554385305153000,3.941153076171875,-213.7516632080078,90.12321472167969,-58.279510498046875
1776554385315270100,3.951270263671875,-213.6823272705078,90.23822021484375,-58.48155212402344
1776554385325388300,3.96138818359375,-213.45726013183594,89.93756103515625,-58.35762023925781
1776554385335505200,3.971505126953125,-213.5858917236328,90.04086303710938,-58.314422607421875
1776554385345621000,3.98162109375,-213.50830078125,90.19435119628906,-58.50108337402344
1776554385355738000,3.991738037109375,-213.5077667236328,90.06033325195312,-58.441741943359375
1776554385365854200,4.001854248046875,-213.7808380126953,90.08872985839844,-58.18223571777344
1776554385375971000,4.01197119140625,-213.41647338867188,89.86541748046875,-58.14002990722656
1776554385386087200,4.022087158203125,-213.9619140625,89.68638610839844,-58.325836181640625
1776554385396204300,4.032204345703125,-213.87771606445312,89.68821716308594,-57.877593994140625
1776554385406321400,4.0423212890625,-213.8112030029297,89.52304077148438,-57.76615905761719
1776554385416438000,4.05243798828125,-213.96165466308594,89.70564270019531,-58.09228515625
1776554385426556200,4.06255615234375,-213.99574279785156,89.36772155761719,-58.10723876953125
1776554385436673300,4.07267333984375,-214.33030700683594,89.41893005371094,-58.021270751953125
1776554385446791200,4.082791259765625,-214.11492919921875,89.612548828125,-58.033447265625
1776554385456909000,4.092908935546875,-214.1818389892578,89.22415161132812,-57.890106201171875
1776554385467026200,4.103026123046875,-214.12030029296875,89.05744934082031,-57.56544494628906
1776554385477144300,4.113144287109375,-214.2718963623047,89.06935119628906,-57.80473327636719
1776554385487261200,4.12326123046875,-214.54391479492188,89.03874206542969,-57.69935607910156
1776554385497379000,4.133379150390625,-214.35482788085938,89.08282470703125,-57.55975341796875
1776554385507497000,4.1434970703125,-214.32553100585938,88.74223327636719,-57.242950439453125
1776554385517615000,4.153614990234375,-214.2427978515625,88.6651611328125,-57.03413391113281
1776554385527732200,4.163732177734375,-214.73793029785156,88.6114501953125,-57.11383056640625
1776554385537848300,4.173848388671875,-214.66160583496094,88.34010314941406,-56.99263000488281
1776554385547965200,4.183965087890625,-214.473388671875,88.60887145996094,-56.995025634765625
1776554385558083000,4.1940830078125,-214.9718475341797,88.38714599609375,-57.1021728515625
1776554385568201000,4.204200927734375,-215.0196075439453,88.36589050292969,-57.033935546875
1776554385578318000,4.214318115234375,-214.67202758789062,88.42268371582031,-56.89472961425781
1776554385588435200,4.224435302734375,-214.68280029296875,88.37031555175781,-56.87648010253906
1776554385598553000,4.234552978515625,-214.78134155273438,88.10005187988281,-56.70674133300781
1776554385608670200,4.244670166015625,-214.70631408691406,88.38668823242188,-56.47264099121094
1776554385618786000,4.2547861328125,-214.5642547607422,88.22817993164062,-56.276763916015625
1776554385628903200,4.264903076171875,-215.22459411621094,88.16453552246094,-56.06988525390625
1776554385639020300,4.275020263671875,-215.21279907226562,88.37496948242188,-56.14601135253906
1776554385649138200,4.28513818359375,-214.77012634277344,88.22340393066406,-56.00736999511719
1776554385659255300,4.29525537109375,-214.59323120117188,88.3043212890625,-55.89524841308594
1776554385669373200,4.305373291015625,-214.9771728515625,88.2889404296875,-55.98353576660156
1776554385679491300,4.3154912109375,-214.8154296875,88.24691772460938,-56.24705505371094
1776554385689609200,4.325609130859375,-214.62925720214844,88.289794921875,-56.318328857421875
1776554385699727000,4.33572705078125,-214.7322540283203,88.1336669921875,-56.40611267089844
1776554385709845000,4.345844970703125,-214.38430786132812,88.10008239746094,-56.32244873046875
1776554385719962000,4.355962158203125,-214.95855712890625,88.29911804199219,-56.340576171875
1776554385730081000,4.3660810546875,-214.81898498535156,88.19273376464844,-56.30470275878906
1776554385740198100,4.3761982421875,-215.03363037109375,88.68635559082031,-56.3350830078125
1776554385750316000,4.38631591796875,-214.93577575683594,88.49691772460938,-56.06634521484375
1776554385760434200,4.39643408203125,-215.0238494873047,88.446044921875,-55.958953857421875
1776554385770553000,4.406552978515625,-215.37918090820312,88.18743896484375,-55.82415771484375
1776554385780671200,4.416671142578125,-214.81927490234375,88.48811340332031,-55.81416320800781
1776554385790790100,4.4267900390625,-215.10800170898438,88.67791748046875,-55.83488464355469
1776554385800907000,4.436906982421875,-214.70599365234375,88.73677062988281,-55.72515869140625
1776554385811023400,4.4470234375,-214.824462890625,88.57525634765625,-55.972442626953125
1776554385821140200,4.45714013671875,-215.11990356445312,88.66534423828125,-55.90568542480469
1776554385831257000,4.467257080078125,-215.1983642578125,88.56756591796875,-55.88539123535156
1776554385841375200,4.477375244140625,-215.00384521484375,88.59614562988281,-55.98240661621094
1776554385851493000,4.4874931640625,-215.10939025878906,88.46061706542969,-55.73616027832031
1776554385861612000,4.497612060546875,-215.01625061035156,88.275146484375,-55.76792907714844
1776554385871730200,4.507730224609375,-215.21072387695312,87.80584716796875,-55.560638427734375
1776554385881847000,4.517846923828125,-214.90538024902344,88.00886535644531,-55.609588623046875
1776554385891965200,4.527965087890625,-214.744140625,88.22615051269531,-55.558837890625
1776554385902082300,4.538082275390625,-214.477783203125,88.006591796875,-55.627532958984375
1776554385912201200,4.548201171875,-215.12620544433594,87.93406677246094,-55.441864013671875
1776554385922319000,4.558319091796875,-214.93331909179688,87.88462829589844,-55.391204833984375
1776554385932437200,4.568437255859375,-214.55471801757812,87.85923767089844,-55.553802490234375
1776554385942556200,4.57855615234375,-214.41546630859375,87.88751220703125,-55.23725891113281
1776554385952673300,4.58867333984375,-215.20364379882812,87.55538940429688,-55.52197265625
1776554385962791200,4.598791259765625,-214.5334930419922,87.52577209472656,-55.521087646484375
1776554385972908300,4.608908203125,-214.9359130859375,87.43911743164062,-55.30000305175781
1776554385983025200,4.619025146484375,-215.0806427001953,87.64852905273438,-55.36566162109375
1776554385993143000,4.62914306640625,-214.9400634765625,87.40255737304688,-55.223602294921875
1776554386003260200,4.63926025390625,-215.2454833984375,87.35592651367188,-55.10749816894531
1776554386013377300,4.649377197265625,-215.16709899902344,87.43791198730469,-55.139190673828125
1776554386023495200,4.6594951171875,-215.5110626220703,87.44606018066406,-55.18815612792969
1776554386033613300,4.66961328125,-215.53890991210938,87.50643920898438,-55.22233581542969
1776554386043730200,4.679730224609375,-215.20236206054688,87.6434326171875,-55.552398681640625
1776554386053847000,4.689846923828125,-215.71603393554688,87.37045288085938,-55.294158935546875
1776554386063964200,4.699964111328125,-215.33689880371094,87.59236145019531,-55.41448974609375
1776554386074082000,4.71008203125,-215.906982421875,87.62651062011719,-55.24705505371094
1776554386084199200,4.72019921875,-215.6064910888672,87.62173461914062,-54.8634033203125
1776554386094316300,4.73031640625,-216.2798309326172,87.47183227539062,-54.79078674316406
1776554386104433200,4.74043310546875,-216.28179931640625,87.54788208007812,-54.676025390625
1776554386114552300,4.75055224609375,-216.15077209472656,87.79542541503906,-54.74729919433594
1776554386124670200,4.760670166015625,-216.2848358154297,87.80282592773438,-54.61167907714844
1776554386134788400,4.770788330078125,-216.13525390625,87.7685546875,-54.34178161621094
1776554386144906200,4.78090625,-216.28573608398438,87.72125244140625,-54.532135009765625
1776554386155024400,4.7910244140625,-216.45968627929688,87.86094665527344,-54.620330810546875
1776554386165142000,4.80114208984375,-216.54779052734375,87.57261657714844,-54.52183532714844
1776554386175258000,4.811258056640625,-216.5277099609375,87.9085693359375,-54.588958740234375
1776554386185377000,4.821376953125,-216.51377868652344,87.84817504882812,-54.58137512207031
1776554386195494100,4.831494140625,-216.43601989746094,88.05326843261719,-54.489044189453125
1776554386205611300,4.841611328125,-216.35494995117188,88.25128173828125,-54.57414245605469
1776554386215727000,4.85172705078125,-216.47625732421875,88.29930114746094,-54.61140441894531
1776554386225844200,4.86184423828125,-216.24563598632812,88.199462890625,-54.255096435546875
1776554386235962000,4.871962158203125,-216.33079528808594,88.18572998046875,-54.51884460449219
1776554386246078200,4.882078125,-216.4848175048828,87.91429138183594,-54.49812316894531
1776554386256194000,4.892194091796875,-216.36651611328125,88.04327392578125,-54.49525451660156
1776554386266312200,4.902312255859375,-216.29013061523438,88.0325927734375,-54.419586181640625
1776554386276430000,4.91243017578125,-216.2108612060547,88.18229675292969,-54.341827392578125
1776554386286546200,4.922546142578125,-216.79856872558594,88.23881530761719,-54.62327575683594
1776554386296664300,4.932664306640625,-216.55404663085938,88.40469360351562,-54.52210998535156
1776554386306782200,4.9427822265625,-216.59498596191406,88.440185546875,-54.714141845703125
1776554386316900400,4.952900390625,-216.10902404785156,88.36422729492188,-54.655181884765625
1776554386327017000,4.963016845703125,-216.41717529296875,88.66072082519531,-54.69227600097656
1776554386337133000,4.973133056640625,-216.58375549316406,88.55650329589844,-54.695892333984375
1776554386347250200,4.983250244140625,-216.4239959716797,88.71961975097656,-54.84602355957031
1776554386357367300,4.9933671875,-216.41729736328125,88.75177001953125,-54.8367919921875
1776554386367483100,5.003483154296875,-216.19088745117188,88.45236206054688,-54.69895935058594
1776554386377600300,5.013600341796875,-216.30909729003906,88.72817993164062,-54.693359375
1776554386387717000,5.023717041015625,-216.47378540039062,88.85371398925781,-54.87809753417969
1776554386397834000,5.033833984375,-216.20822143554688,88.99722290039062,-54.8834228515625
1776554386407951000,5.043951171875,-216.31222534179688,89.27114868164062,-55.02928161621094
1776554386418068200,5.054068115234375,-215.69715881347656,89.22209167480469,-54.85234069824219
1776554386428185300,5.064185302734375,-215.8824920654297,89.55807495117188,-55.15336608886719
1776554386438301200,5.07430126953125,-215.8208770751953,89.62220764160156,-55.29722595214844
1776554386448417300,5.084417236328125,-215.44200134277344,89.4083251953125,-55.58831787109375
1776554386458534100,5.0945341796875,-215.91392517089844,89.98431396484375,-55.771820068359375
1776554386468651300,5.1046513671875,-215.8407745361328,89.76580810546875,-55.94963073730469
1776554386478768000,5.11476806640625,-215.838623046875,89.69122314453125,-55.96044921875
1776554386488884200,5.12488427734375,-215.70797729492188,89.86189270019531,-56.15093994140625
1776554386499001300,5.13500146484375,-215.6801300048828,90.19175720214844,-56.256317138671875
1776554386509117200,5.1451171875,-215.2583770751953,90.08778381347656,-56.00675964355469
1776554386519232300,5.155232177734375,-215.53518676757812,90.13658142089844,-56.17854309082031
1776554386529348000,5.16534814453125,-215.80142211914062,90.38311767578125,-56.34306335449219
1776554386539465200,5.17546533203125,-215.29161071777344,90.81979370117188,-56.36628723144531
1776554386549580000,5.185580078125,-215.80674743652344,90.65621948242188,-56.21226501464844
1776554386559696100,5.195696044921875,-215.26535034179688,90.59365844726562,-56.06410217285156
1776554386569811200,5.205811279296875,-215.5421142578125,90.57606506347656,-56.388153076171875
1776554386579925000,5.215925048828125,-215.35586547851562,90.80538940429688,-56.55686950683594
1776554386590041000,5.226041015625,-215.2312469482422,90.50921630859375,-56.45672607421875
1776554386600157200,5.2361572265625,-215.56723022460938,90.73396301269531,-56.53489685058594
1776554386610274000,5.246274169921875,-214.88421630859375,90.79714965820312,-56.49809265136719
1776554386620391200,5.25639111328125,-215.25399780273438,90.66751098632812,-56.44349670410156
1776554386630508300,5.26650830078125,-215.24267578125,91.02369689941406,-56.54792785644531
1776554386640624400,5.276624267578125,-215.18728637695312,90.69004821777344,-56.4132080078125
1776554386650741000,5.286740966796875,-214.6538543701172,90.66175842285156,-56.42924499511719
1776554386660857000,5.296857177734375,-215.69171142578125,90.54544067382812,-56.52467346191406
1776554386670973200,5.30697314453125,-215.35755920410156,90.485595703125,-56.660888671875
1776554386681090000,5.317090087890625,-215.2303009033203,90.55218505859375,-56.5118408203125
1776554386691206100,5.3272060546875,-215.01283264160156,90.79104614257812,-56.68328857421875
1776554386701323300,5.3373232421875,-214.79806518554688,90.35597229003906,-56.36427307128906
1776554386711440100,5.347440185546875,-215.0178985595703,90.73861694335938,-56.6595458984375
1776554386721556200,5.35755615234375,-215.0619659423828,90.6334228515625,-56.4737548828125
1776554386731673300,5.36767333984375,-215.0822296142578,90.47019958496094,-56.4742431640625
1776554386741790200,5.377790283203125,-214.92486572265625,90.68797302246094,-56.66046142578125
1776554386751908000,5.387908203125,-215.3284912109375,90.35018920898438,-56.4998779296875
1776554386762024700,5.398024658203125,-215.0865020751953,90.44415283203125,-56.631683349609375
1776554386772142600,5.408142578125,-215.3650665283203,90.19850158691406,-56.62709045410156
1776554386782258700,5.4182587890625,-215.43594360351562,90.17889404296875,-56.528076171875
1776554386792375600,5.42837548828125,-215.52523803710938,90.31570434570312,-56.577545166015625
1776554386802493700,5.43849365234375,-215.45494079589844,90.370849609375,-56.680877685546875
1776554386812609800,5.44860986328125,-215.18698120117188,90.36929321289062,-56.5467529296875
1776554386822726700,5.4587265625,-215.0948944091797,90.52359008789062,-56.660675048828125
1776554386832844800,5.4688447265625,-215.45091247558594,90.27476501464844,-56.55181884765625
1776554386842962700,5.478962646484375,-214.9000701904297,90.7586669921875,-56.28343200683594
1776554386853080800,5.489080810546875,-215.49671936035156,90.58741760253906,-56.56452941894531
1776554386863197400,5.499197509765625,-215.76832580566406,90.67231750488281,-56.536346435546875
1776554386873314600,5.509314453125,-215.47959899902344,90.56259155273438,-56.453094482421875
1776554386883431700,5.519431640625,-215.51783752441406,90.3848876953125,-56.21711730957031
1776554386893548800,5.529548828125,-215.60618591308594,90.49111938476562,-56.155364990234375
1776554386903665700,5.539665771484375,-216.09005737304688,90.48182678222656,-56.35614013671875
1776554386913781800,5.54978173828125,-216.15887451171875,90.64314270019531,-56.30213928222656
1776554386923897900,5.55989794921875,-215.80026245117188,90.82243347167969,-56.22906494140625
1776554386934015700,5.570015625,-215.72520446777344,90.61773681640625,-56.333160400390625
1776554386944132600,5.580132568359375,-215.8158721923828,90.85597229003906,-56.37701416015625
1776554386954250500,5.59025048828125,-215.59780883789062,90.90766906738281,-56.21965026855469
1776554386964366600,5.60036669921875,-215.61224365234375,90.76455688476562,-56.348846435546875
1776554386974483700,5.610483642578125,-215.70065307617188,90.69132995605469,-56.27691650390625
1776554386984600800,5.620600830078125,-215.3934326171875,90.87879943847656,-56.11279296875
1776554386994716700,5.630716552734375,-215.7940673828125,90.94606018066406,-56.363861083984375
1776554387004833800,5.640833740234375,-215.4462890625,91.01043701171875,-56.33331298828125
1776554387014950700,5.65095068359375,-215.5010528564453,90.85943603515625,-56.326324462890625
1776554387025066500,5.66106640625,-215.57106018066406,90.902587890625,-56.23741149902344
1776554387035183600,5.67118359375,-215.36903381347656,91.0955810546875,-56.26422119140625
1776554387045300700,5.68130078125,-215.51426696777344,90.73530578613281,-56.364593505859375
1776554387055416600,5.69141650390625,-215.1754608154297,90.911865234375,-56.470947265625
1776554387065531600,5.70153173828125,-215.3831024169922,90.97732543945312,-56.50141906738281
1776554387075647500,5.7116474609375,-215.22593688964844,90.69148254394531,-56.521697998046875
1776554387085763600,5.721763671875,-215.45999145507812,90.67840576171875,-56.37806701660156
1776554387095879700,5.731879638671875,-215.2360382080078,91.01087951660156,-56.522705078125
1776554387105995800,5.741995849609375,-215.35751342773438,90.70187377929688,-56.643157958984375
1776554387116112600,5.752112548828125,-214.80897521972656,90.53262329101562,-56.5284423828125
1776554387126229800,5.762229736328125,-214.88377380371094,90.57534790039062,-56.547332763671875
1776554387136345600,5.772345703125,-214.90328979492188,90.65208435058594,-56.644134521484375
1776554387146462700,5.782462646484375,-215.18649291992188,90.51400756835938,-56.725189208984375
1776554387156578800,5.792578857421875,-214.98007202148438,90.28065490722656,-56.78007507324219
1776554387166694700,5.802694580078125,-214.7691650390625,90.32298278808594,-56.721343994140625
1776554387176810800,5.812810791015625,-214.6567840576172,90.34024047851562,-56.73175048828125
1776554387186926600,5.822926513671875,-214.67825317382812,90.38200378417969,-56.80419921875
1776554387197043700,5.833043701171875,-214.5950164794922,90.40853881835938,-56.786224365234375
1776554387207160800,5.843160888671875,-214.7921142578125,90.41276550292969,-56.766845703125
1776554387217277700,5.853277587890625,-215.04559326171875,90.27777099609375,-56.846588134765625
1776554387227394600,5.86339453125,-214.59971618652344,90.42524719238281,-56.77812194824219
1776554387237513700,5.873513671875,-215.1725311279297,90.23292541503906,-56.609527587890625
1776554387247632000,5.8836318359375,-214.92755126953125,90.126953125,-56.66328430175781
1776554387257748500,5.89374853515625,-215.33990478515625,90.16339111328125,-56.72517395019531
1776554387267866600,5.90386669921875,-215.1127471923828,90.18341064453125,-56.55693054199219
1776554387277984500,5.913984619140625,-215.36656188964844,90.02606201171875,-56.581787109375
1776554387288102700,5.9241025390625,-215.32644653320312,90.2413330078125,-56.57635498046875
1776554387298218800,5.93421875,-215.2181854248047,90.34219360351562,-56.64617919921875
1776554387308335900,5.9443359375,-215.41397094726562,90.19317626953125,-56.627685546875
1776554387318452500,5.954452392578125,-215.15113830566406,90.60470581054688,-56.53968811035156
1776554387328570600,5.964570556640625,-215.48477172851562,90.47503662109375,-56.572021484375
1776554387338688500,5.9746884765625,-215.37396240234375,90.546142578125,-56.60969543457031
1776554387348807700,5.9848076171875,-214.93495178222656,90.71597290039062,-56.82667541503906
1776554387358923800,5.994923828125,-215.37266540527344,90.72355651855469,-56.58009338378906
1776554387369041700,6.005041748046875,-215.478759765625,90.58071899414062,-56.69950866699219
1776554387379158800,6.01515869140625,-215.5615692138672,90.56689453125,-56.79437255859375
1776554387389274600,6.025274658203125,-215.69398498535156,90.64503479003906,-56.71800231933594
1776554387399391700,6.035391845703125,-215.09909057617188,90.93159484863281,-56.81138610839844
1776554387409508600,6.045508544921875,-214.86740112304688,90.97122192382812,-56.61964416503906
1776554387419625700,6.055625732421875,-215.3404998779297,91.3028564453125,-56.779022216796875
1776554387429742600,6.06574267578125,-215.48825073242188,91.08338928222656,-56.86436462402344
1776554387439859700,6.075859619140625,-215.4326629638672,90.86683654785156,-56.9034423828125
1776554387449977600,6.0859775390625,-215.56918334960938,90.75883483886719,-56.87791442871094
1776554387460094700,6.0960947265625,-215.30857849121094,91.12007141113281,-56.7144775390625
1776554387470210800,6.1062109375,-215.3832550048828,90.98324584960938,-56.85076904296875
1776554387480328400,6.116328369140625,-215.50115966796875,91.01481628417969,-56.91558837890625
1776554387490444500,6.126444580078125,-215.64630126953125,91.2230224609375,-57.223907470703125
1776554387500561700,6.136561767578125,-215.48536682128906,91.53691101074219,-57.40411376953125
1776554387510678800,6.1466787109375,-215.36282348632812,91.77171325683594,-57.30976867675781
1776554387520794600,6.156794677734375,-215.85853576660156,91.29965209960938,-57.33953857421875
1776554387530911700,6.166911865234375,-215.5692138671875,91.71897888183594,-57.37699890136719
1776554387541028900,6.17702880859375,-215.3380584716797,91.68597412109375,-57.43833923339844
1776554387551144700,6.187144775390625,-215.84124755859375,91.72215270996094,-57.06488037109375
1776554387561262600,6.1972626953125,-216.22659301757812,91.88790893554688,-57.36058044433594
1776554387571377700,6.207377685546875,-216.25193786621094,91.98980712890625,-57.35551452636719
1776554387581493500,6.217493408203125,-216.3253631591797,92.19352722167969,-57.37513732910156
1776554387591610600,6.227610595703125,-216.71148681640625,92.11958312988281,-57.27717590332031
1776554387601725700,6.2377255859375,-216.5183563232422,92.07745361328125,-57.188385009765625
1776554387611842600,6.247842529296875,-216.29910278320312,92.02326965332031,-57.29194641113281
1776554387621961500,6.25796142578125,-216.54135131835938,92.06690979003906,-57.26856994628906
1776554387632079600,6.26807958984375,-216.46731567382812,91.91893005371094,-57.45442199707031
1776554387642196700,6.27819677734375,-216.35081481933594,91.63845825195312,-57.44732666015625
1776554387652313600,6.288313720703125,-216.1915740966797,91.57698059082031,-57.46223449707031
1776554387662430700,6.2984306640625,-216.0277557373047,90.9947509765625,-57.53181457519531
1776554387672547600,6.308547607421875,-216.27120971679688,91.15873718261719,-57.61378479003906
1776554387682664700,6.318664794921875,-216.17860412597656,91.14389038085938,-57.57530212402344
1776554387692780800,6.32878076171875,-216.11160278320312,90.68353271484375,-57.106048583984375
1776554387702897700,6.338897705078125,-216.0705108642578,90.88972473144531,-57.276519775390625
1776554387713014500,6.3490146484375,-216.3171844482422,90.90542602539062,-57.20793151855469
1776554387723131600,6.359131591796875,-216.1488800048828,90.56710815429688,-56.87139892578125
1776554387733249800,6.369249755859375,-216.63063049316406,90.33308410644531,-56.86982727050781
1776554387743367700,6.37936767578125,-216.39895629882812,90.61836242675781,-56.46270751953125
1776554387753484800,6.38948486328125,-216.74754333496094,90.40518188476562,-56.54954528808594
1776554387763600600,6.3996005859375,-216.40042114257812,90.42201232910156,-56.29972839355469
1776554387773717800,6.4097177734375,-216.42320251464844,90.36639404296875,-56.242828369140625
1776554387783833900,6.419833740234375,-216.66729736328125,90.18928527832031,-56.38948059082031
1776554387793950500,6.429950439453125,-216.27029418945312,90.31416320800781,-56.11686706542969
1776554387804066600,6.440066650390625,-216.6417236328125,90.33056640625,-56.3858642578125
1776554387814182700,6.4501826171875,-216.7833709716797,90.31758117675781,-56.55296325683594
1776554387824298500,6.460298583984375,-216.63705444335938,90.23185729980469,-56.5252685546875
1776554387834416600,6.470416748046875,-216.42845153808594,90.38130187988281,-56.70158386230469
1776554387844532700,6.48053271484375,-216.59922790527344,90.22930908203125,-56.67601013183594
1776554387854649900,6.49064990234375,-216.4234619140625,90.25091552734375,-56.76231384277344
1776554387864765700,6.500765625,-216.49362182617188,90.49607849121094,-56.707489013671875
1776554387874883600,6.510883544921875,-216.63917541503906,90.46006774902344,-56.634124755859375
1776554387885000700,6.521000732421875,-216.55697631835938,90.66670227050781,-56.3966064453125
1776554387895117800,6.531117919921875,-216.97430419921875,90.7613525390625,-56.64360046386719
1776554387905234700,6.541234619140625,-216.98374938964844,90.68690490722656,-56.34687805175781
1776554387915351600,6.5513515625,-216.84400939941406,90.75396728515625,-56.24784851074219
1776554387925468700,6.56146875,-216.7537078857422,90.82408142089844,-56.19378662109375
1776554387935585800,6.571585693359375,-216.6561279296875,91.06268310546875,-56.02204895019531
1776554387945703000,6.581702880859375,-216.77110290527344,91.13218688964844,-56.02928161621094
1776554387955819500,6.591819580078125,-216.82839965820312,90.97175598144531,-55.91780090332031
1776554387965936600,6.6019365234375,-216.9854278564453,91.02595520019531,-56.056488037109375
1776554387976052700,6.612052734375,-217.04971313476562,90.92022705078125,-56.0694580078125
1776554387986168600,6.62216845703125,-216.8433074951172,90.87132263183594,-55.85408020019531
1776554387996285700,6.63228564453125,-216.90756225585938,90.93685913085938,-55.94001770019531
1776554388006401800,6.64240185546875,-217.05113220214844,90.88761901855469,-55.93818664550781
1776554388016517600,6.652517578125,-216.62155151367188,90.98429870605469,-55.93736267089844
1776554388026635500,6.662635498046875,-216.5234832763672,90.8201904296875,-55.75831604003906
1776554388036753700,6.672753662109375,-216.3450927734375,90.62490844726562,-55.79551696777344
1776554388046870800,6.682870849609375,-216.74130249023438,91.02371215820312,-55.97749328613281
1776554388056986600,6.692986572265625,-216.58917236328125,90.65370178222656,-55.85115051269531
1776554388067104500,6.7031044921875,-216.09759521484375,90.50907897949219,-55.87739562988281
1776554388077220600,6.713220703125,-215.87118530273438,90.723388671875,-55.72154235839844
1776554388087337700,6.723337646484375,-216.30223083496094,90.57701110839844,-56.13914489746094
1776554388097455600,6.73345556640625,-215.8681640625,90.46603393554688,-55.987457275390625
1776554388107573800,6.74357373046875,-215.418212890625,90.51589965820312,-55.934295654296875
1776554388117691600,6.753691650390625,-216.0293731689453,90.37239074707031,-56.347747802734375
1776554388127807700,6.763807861328125,-215.7621307373047,90.48439025878906,-56.38104248046875
1776554388137924600,6.773924560546875,-215.61196899414062,90.14503479003906,-56.6207275390625
1776554388148042800,6.784042724609375,-215.69789123535156,90.37626647949219,-56.61297607421875
1776554388158160600,6.79416064453125,-215.1471710205078,90.51522827148438,-56.665557861328125
1776554388168279600,6.804279541015625,-215.0635986328125,90.26148986816406,-56.591461181640625
1776554388178397700,6.814397705078125,-214.75759887695312,90.24891662597656,-56.892578125
1776554388188514800,6.824514892578125,-215.0898895263672,90.4010009765625,-56.85821533203125
1776554388198630700,6.834630615234375,-214.94949340820312,90.48739624023438,-56.75335693359375
1776554388208747500,6.84474755859375,-215.146728515625,90.45927429199219,-56.72886657714844
1776554388218865700,6.85486572265625,-214.69021606445312,90.13972473144531,-56.566192626953125
1776554388228982800,6.864982666015625,-215.19720458984375,90.0704345703125,-56.61219787597656
1776554388239099000,6.875098876953125,-214.65518188476562,90.2308349609375,-56.740570068359375
1776554388249215500,6.885215576171875,-215.03855895996094,90.17417907714844,-56.74786376953125
1776554388259331600,6.89533154296875,-214.7222442626953,90.23318481445312,-56.786712646484375
1776554388269448700,6.90544873046875,-214.87400817871094,90.14346313476562,-56.745880126953125
1776554388279564500,6.915564453125,-214.8854217529297,90.08610534667969,-56.740753173828125
1776554388289681700,6.925681640625,-215.4246826171875,90.08966064453125,-56.80470275878906
1776554388299797800,6.9357978515625,-215.1739044189453,90.14761352539062,-56.83607482910156
1776554388309916000,6.945916015625,-214.59115600585938,90.32450866699219,-56.53068542480469
1776554388320032500,6.956032470703125,-215.32290649414062,90.206787109375,-56.798095703125
1776554388330148600,6.966148681640625,-215.17860412597656,90.18829345703125,-56.673858642578125
1776554388340264400,6.976264404296875,-214.9028778076172,90.42373657226562,-56.810577392578125
1776554388350381600,6.986381591796875,-215.24253845214844,90.3057861328125,-56.635955810546875
1776554388360497700,6.99649755859375,-215.1324920654297,90.21977233886719,-56.47528076171875
1776554388370613500,7.006613525390625,-215.42929077148438,90.61067199707031,-56.79833984375
1776554388380730600,7.016730712890625,-215.183349609375,90.13265991210938,-56.79948425292969
1776554388390848500,7.0268486328125,-215.152587890625,90.42388916015625,-56.87351989746094
1776554388400965600,7.036965576171875,-214.98178100585938,90.18803405761719,-56.58428955078125
1776554388411082800,7.047082763671875,-214.7703399658203,90.2662353515625,-56.62748718261719
1776554388421198600,7.057198486328125,-215.1517333984375,90.05513000488281,-56.69403076171875
1776554388431314700,7.067314697265625,-215.0140838623047,90.38594055175781,-56.67633056640625
1776554388441431800,7.077431884765625,-215.1015167236328,90.17715454101562,-56.60069274902344
1776554388451547600,7.087547607421875,-215.03997802734375,90.4407958984375,-56.806549072265625
1776554388461663700,7.097663818359375,-215.1363067626953,90.59268188476562,-56.75621032714844
1776554388471781600,7.10778173828125,-214.8677520751953,90.35665893554688,-56.803009033203125
1776554388481897500,7.1178974609375,-214.97503662109375,90.4678955078125,-56.649749755859375
1776554388492015600,7.128015625,-215.14529418945312,90.70758056640625,-56.629364013671875
1776554388502131700,7.138131591796875,-214.85443115234375,90.36212158203125,-56.36750793457031
1776554388512248800,7.148248779296875,-215.28579711914062,90.30781555175781,-56.55180358886719
1776554388522365700,7.15836572265625,-215.30154418945312,90.344482421875,-56.54872131347656
1776554388532483600,7.168483642578125,-215.37852478027344,90.63818359375,-56.69844055175781
1776554388542600700,7.1786005859375,-215.1380157470703,90.66258239746094,-56.59202575683594
1776554388552718600,7.188718505859375,-215.00392150878906,90.55194091796875,-56.48847961425781
1776554388562835700,7.198835693359375,-215.34228515625,90.48095703125,-56.566497802734375
1776554388572953600,7.20895361328125,-215.32925415039062,90.49407958984375,-56.680419921875
1776554388583072800,7.21907275390625,-215.46945190429688,90.40299987792969,-56.50148010253906
1776554388593190700,7.229190673828125,-215.6332244873047,90.70494079589844,-56.40077209472656
1776554388603308800,7.239308837890625,-215.42205810546875,90.43438720703125,-56.4725341796875
1776554388613425700,7.24942578125,-215.56494140625,90.70611572265625,-56.76258850097656
1776554388623542800,7.259542724609375,-215.55575561523438,90.38478088378906,-56.56976318359375
1776554388633660700,7.26966064453125,-215.59976196289062,90.7232666015625,-56.525482177734375
1776554388643777500,7.279777587890625,-215.72984313964844,90.65139770507812,-56.24346923828125
1776554388653895700,7.289895751953125,-215.61375427246094,90.49612426757812,-56.39582824707031
1776554388664013600,7.300013671875,-215.64230346679688,90.68492126464844,-56.5677490234375
1776554388674131700,7.310131591796875,-215.35107421875,90.75801086425781,-56.4346923828125
1776554388684249600,7.32024951171875,-215.87362670898438,90.61827087402344,-56.375396728515625
1776554388694367700,7.33036767578125,-215.37783813476562,90.63909912109375,-56.25965881347656
1776554388704485600,7.340485595703125,-215.533203125,90.49024963378906,-56.2882080078125
1776554388714603800,7.350603759765625,-215.80105590820312,90.74150085449219,-56.387054443359375
1776554388724721700,7.3607216796875,-215.6268310546875,90.754150390625,-56.483001708984375
1776554388734840600,7.370840576171875,-215.98419189453125,90.81607055664062,-56.51188659667969
1776554388744958700,7.380958740234375,-215.65142822265625,90.69418334960938,-56.45646667480469
1776554388755076600,7.39107666015625,-215.56004333496094,90.75906372070312,-56.62841796875
1776554388765194500,7.401194580078125,-215.7755889892578,90.944580078125,-56.56648254394531
1776554388775312400,7.4113125,-215.83279418945312,90.78953552246094,-56.5572509765625
1776554388785429500,7.421429443359375,-215.5476531982422,90.64645385742188,-56.24299621582031
1776554388795547400,7.43154736328125,-215.6560516357422,90.66056823730469,-56.26918029785156
1776554388805665500,7.44166552734375,-215.543212890625,90.427490234375,-56.25199890136719
1776554388815783400,7.451783447265625,-215.42266845703125,90.63877868652344,-56.52684020996094
1776554388825901600,7.461901611328125,-215.93235778808594,90.60983276367188,-56.40773010253906
1776554388836018400,7.472018310546875,-215.73611450195312,90.46742248535156,-56.23161315917969
1776554388846136300,7.48213623046875,-215.6177215576172,90.3760986328125,-56.36332702636719
1776554388856255500,7.49225537109375,-215.91925048828125,90.53067016601562,-56.394073486328125
1776554388866374400,7.50237451171875,-215.54466247558594,90.4742431640625,-56.41551208496094
1776554388876493600,7.51249365234375,-215.82559204101562,90.31791687011719,-56.43536376953125
1776554388886611500,7.522611572265625,-215.29681396484375,90.371826171875,-56.27423095703125
1776554388896729300,7.532729248046875,-215.13697814941406,90.63981628417969,-56.44073486328125
1776554388906847500,7.542847412109375,-215.80140686035156,90.38786315917969,-56.349365234375
1776554388916965400,7.55296533203125,-215.41055297851562,90.34928894042969,-56.42681884765625
1776554388927083500,7.56308349609375,-215.72206115722656,90.58723449707031,-56.09825134277344
1776554388937200400,7.573200439453125,-215.8045654296875,90.21412658691406,-56.33042907714844
1776554388947319600,7.583319580078125,-215.68258666992188,90.58549499511719,-56.431121826171875
1776554388957436400,7.5934365234375,-215.80816650390625,90.63316345214844,-56.458099365234375
1776554388967553300,7.60355322265625,-215.6477813720703,90.50947570800781,-56.319854736328125
1776554388977670400,7.61367041015625,-215.00819396972656,90.63201904296875,-56.25721740722656
1776554388987787500,7.62378759765625,-215.82269287109375,90.3507080078125,-56.35150146484375
1776554388997904600,7.633904541015625,-215.65513610839844,90.55046081542969,-56.51628112792969
1776554389008021200,7.644021240234375,-215.22695922851562,90.40621948242188,-56.424407958984375
1776554389018137300,7.654137451171875,-215.6255340576172,90.4649658203125,-56.3968505859375
1776554389028254500,7.66425439453125,-215.33734130859375,90.60392761230469,-56.376617431640625
1776554389038370300,7.674370361328125,-215.706787109375,90.54747009277344,-56.45008850097656
1776554389048488400,7.684488525390625,-215.5946044921875,90.34805297851562,-56.356903076171875
1776554389058606300,7.6946064453125,-215.2310791015625,90.67935180664062,-56.53422546386719
1776554389068723500,7.704723388671875,-215.4953155517578,90.46736145019531,-56.25828552246094
1776554389078838300,7.71483837890625,-215.1195068359375,90.63410949707031,-56.48004150390625
1776554389088956400,7.724956298828125,-215.12313842773438,90.54423522949219,-56.48291015625
1776554389099073500,7.735073486328125,-215.34201049804688,90.5687255859375,-56.57530212402344
1776554389109190400,7.7451904296875,-215.5487060546875,90.7044677734375,-56.289794921875
1776554389119307500,7.7553076171875,-215.29446411132812,90.50869750976562,-56.15190124511719
1776554389129424400,7.76542431640625,-215.39195251464844,90.5556640625,-56.449676513671875
1776554389139540500,7.77554052734375,-215.59600830078125,90.48585510253906,-56.44444274902344
1776554389149657600,7.78565771484375,-215.32957458496094,90.401611328125,-56.48603820800781
1776554389159774500,7.7957744140625,-215.81820678710938,90.22329711914062,-56.39356994628906
1776554389169891300,7.805891357421875,-215.47459411621094,90.26695251464844,-56.37187194824219
1776554389180009500,7.816009521484375,-215.52969360351562,90.01255798339844,-56.48304748535156
1776554389190126300,7.826126220703125,-215.7694854736328,90.09846496582031,-56.485931396484375
1776554389200245500,7.83624560546875,-215.67445373535156,90.36363220214844,-56.36680603027344
1776554389210363400,7.84636328125,-215.6604461669922,90.46296691894531,-56.44624328613281
1776554389220481300,7.856481201171875,-215.8246307373047,90.35514831542969,-56.68028259277344
1776554389230598400,7.866598388671875,-215.5440673828125,90.624267578125,-56.566680908203125
1776554389240715500,7.876715576171875,-215.49098205566406,90.33992004394531,-56.49491882324219
1776554389250832400,7.886832275390625,-215.41741943359375,90.41050720214844,-56.679229736328125
1776554389260949200,7.89694921875,-215.06788635253906,90.57618713378906,-56.314544677734375
1776554389271067400,7.9070673828125,-215.63510131835938,90.37013244628906,-56.547027587890625
1776554389281185300,7.917185302734375,-215.63829040527344,90.30642700195312,-56.60459899902344
1776554389291303400,7.927303466796875,-215.85350036621094,90.20179748535156,-56.453125
1776554389301421300,7.93742138671875,-215.51019287109375,90.06341552734375,-56.34950256347656
1776554389311538400,7.947538330078125,-215.67137145996094,90.29658508300781,-56.243072509765625
1776554389321654300,7.957654296875,-215.99069213867188,90.31730651855469,-56.4158935546875
1776554389331771400,7.967771484375,-215.62832641601562,90.53030395507812,-56.58100891113281
1776554389341887500,7.977887451171875,-215.76974487304688,90.3712158203125,-56.43830871582031
1776554389352004600,7.988004638671875,-215.38682556152344,90.47882080078125,-56.434539794921875
1776554389362120400,7.998120361328125,-215.8784637451172,90.48188781738281,-56.303009033203125
1776554389372237600,8.008237548828125,-215.7540283203125,90.48541259765625,-56.53388977050781
1776554389382354400,8.0183544921875,-216.1101837158203,90.40940856933594,-56.55860900878906
1776554389392472600,8.02847265625,-215.80960083007812,90.33094787597656,-56.471038818359375
1776554389402591500,8.038591552734376,-215.5708770751953,90.51829528808594,-56.26214599609375
1776554389412708600,8.04870849609375,-215.6409912109375,90.49282836914062,-56.40185546875
1776554389422825200,8.0588251953125,-215.63467407226562,90.49632263183594,-56.449676513671875
1776554389432942300,8.0689423828125,-215.68873596191406,90.35331726074219,-56.58601379394531
1776554389443057700,8.0790576171875,-215.6774444580078,90.45034790039062,-56.41119384765625
1776554389453172500,8.08917236328125,-215.32945251464844,90.57417297363281,-56.416961669921875
1776554389463288300,8.099288330078124,-215.23753356933594,90.31007385253906,-56.44874572753906
1776554389473404400,8.109404296875,-214.96754455566406,90.36064147949219,-56.44401550292969
1776554389483520500,8.1195205078125,-215.377197265625,90.2786865234375,-56.44117736816406
1776554389493636400,8.12963623046875,-215.36534118652344,90.28573608398438,-56.25071716308594
1776554389503752400,8.13975244140625,-215.81227111816406,90.43002319335938,-56.5546875
1776554389513867300,8.1498671875,-215.33595275878906,90.60728454589844,-56.39582824707031
1776554389523983400,8.1599833984375,-215.40170288085938,90.53704833984375,-56.6583251953125
1776554389534100500,8.1701005859375,-215.74095153808594,90.29373168945312,-56.55865478515625
1776554389544215600,8.180215576171875,-215.53701782226562,90.46043395996094,-56.390716552734375
1776554389554331600,8.19033154296875,-215.79824829101562,90.43040466308594,-56.491973876953125
1776554389564446500,8.200446533203126,-215.42156982421875,90.42787170410156,-56.432891845703125
1776554389574562300,8.210562255859376,-215.4212646484375,90.52059936523438,-56.583099365234375
1776554389584679400,8.220679443359375,-215.66343688964844,90.37286376953125,-56.56196594238281
1776554389594795500,8.23079541015625,-215.63943481445312,90.53749084472656,-56.38616943359375
1776554389604911400,8.240911376953125,-215.85476684570312,90.61856079101562,-56.59861755371094
1776554389615027500,8.25102734375,-215.81187438964844,90.36801147460938,-56.658203125
1776554389625143600,8.2611435546875,-215.4474334716797,90.15956115722656,-56.47261047363281
1776554389635259400,8.27125927734375,-215.47096252441406,90.4521484375,-56.57426452636719
1776554389645376500,8.28137646484375,-215.55030822753906,90.49137878417969,-56.529510498046875
1776554389655494400,8.291494384765626,-215.67909240722656,90.43801879882812,-56.74800109863281
1776554389665611500,8.301611572265625,-215.3053436279297,90.55552673339844,-56.58222961425781
1776554389675727400,8.311727294921875,-215.5011444091797,90.56462097167969,-56.63523864746094
1776554389685844500,8.321844482421875,-215.3751983642578,90.32907104492188,-56.40220642089844
1776554389695960600,8.331960693359376,-215.690185546875,90.6832275390625,-56.62776184082031
1776554389706076400,8.342076416015624,-215.25279235839844,90.35223388671875,-56.70640563964844
1776554389716192500,8.352192626953125,-215.6030731201172,90.39299011230469,-56.7769775390625
1776554389726310400,8.362310302734375,-215.47604370117188,90.62350463867188,-56.714599609375
1776554389736428500,8.372428466796874,-215.4580535888672,90.61248779296875,-56.66700744628906
1776554389746544400,8.38254443359375,-215.52467346191406,90.5035400390625,-56.661407470703125
1776554389756660500,8.392660400390625,-215.24346923828125,90.4676513671875,-56.6986083984375
1776554389766777000,8.402777099609375,-215.34823608398438,90.83805847167969,-56.73033142089844
1776554389776892000,8.412891845703125,-215.34353637695312,90.51800537109375,-56.73828125
1776554389787009000,8.423009033203124,-215.51942443847656,90.75328063964844,-56.761260986328125
1776554389797125000,8.433125,-215.6648406982422,90.549072265625,-56.71797180175781
1776554389807242200,8.4432421875,-215.6902313232422,90.78439331054688,-56.77955627441406
1776554389817357000,8.453357177734375,-215.87818908691406,90.83636474609375,-56.878814697265625
1776554389827473200,8.46347314453125,-215.54452514648438,90.87159729003906,-56.69053649902344
1776554389837590000,8.473590087890624,-215.9112091064453,90.653564453125,-56.869232177734375
1776554389847706000,8.4837060546875,-215.8533172607422,91.15428161621094,-56.8956298828125
1776554389857823200,8.4938232421875,-215.51443481445312,90.89344787597656,-56.920654296875
1776554389867939000,8.50393896484375,-215.6842803955078,90.74012756347656,-56.74815368652344
1776554389878055200,8.51405517578125,-215.1050567626953,90.92434692382812,-56.74540710449219
1776554389888172000,8.524172119140625,-215.6498260498047,90.63206481933594,-56.949462890625
1776554389898288000,8.5342880859375,-215.63450622558594,90.68739318847656,-56.80364990234375
1776554389908406000,8.544406005859376,-215.5035400390625,90.58091735839844,-56.710845947265625
1776554389918522000,8.554522216796874,-215.3898162841797,90.59695434570312,-56.847869873046875
1776554389928638000,8.564637939453124,-215.2149200439453,90.66738891601562,-56.851531982421875
1776554389938754000,8.574754150390625,-215.23655700683594,90.51695251464844,-56.83351135253906
1776554389948870000,8.584869873046875,-215.85935974121094,90.90936279296875,-56.8416748046875
1776554389958986000,8.594986083984375,-215.3234100341797,90.85203552246094,-56.92051696777344
1776554389969102000,8.60510205078125,-215.4967803955078,90.46731567382812,-56.69181823730469
1776554389979219000,8.615218994140625,-215.0776824951172,90.59626770019531,-56.8065185546875
1776554389989334000,8.625333984375,-215.49481201171875,90.83139038085938,-56.88658142089844
1776554389999449900,8.635449951171875,-215.91958618164062,90.49917602539062,-56.84051513671875
1776554390009566000,8.64556591796875,-215.5565185546875,90.66143798828125,-56.93363952636719
1776554390019683000,8.65568310546875,-215.1768035888672,90.70439147949219,-56.66935729980469
1776554390029800000,8.665800048828125,-215.4154815673828,90.47628784179688,-56.73628234863281
1776554390039917800,8.675917724609375,-215.3243865966797,90.37977600097656,-56.64640808105469
1776554390050035000,8.686034912109376,-215.52601623535156,90.3511962890625,-56.5634765625
1776554390060151000,8.696151123046874,-215.5880889892578,90.50404357910156,-56.739349365234375
1776554390070267000,8.706266845703125,-215.5026092529297,90.56448364257812,-56.6448974609375
1776554390080385000,8.716385009765625,-215.3472900390625,90.55303955078125,-56.65058898925781
1776554390090502100,8.726502197265624,-215.57659912109375,90.70491027832031,-56.77156066894531
1776554390100620000,8.7366201171875,-214.99362182617188,90.54946899414062,-56.77198791503906
1776554390110737200,8.746737060546875,-215.37840270996094,90.65045166015625,-56.71415710449219
1776554390120855000,8.75685498046875,-215.39085388183594,90.51882934570312,-56.68255615234375
1776554390130973200,8.76697314453125,-215.22755432128906,90.50152587890625,-56.619232177734375
1776554390141089000,8.777089111328126,-215.22555541992188,90.63494873046875,-56.713104248046875
1776554390151205000,8.787205078125,-215.52407836914062,90.33641052246094,-56.63890075683594
1776554390161322200,8.797322265625,-215.58432006835938,90.77119445800781,-56.42518615722656
1776554390171441200,8.807441162109376,-215.3750457763672,90.46168518066406,-56.57237243652344
1776554390181557000,8.817556884765626,-215.55723571777344,90.59548950195312,-56.58668518066406
1776554390191675000,8.8276748046875,-215.88961791992188,90.40017700195312,-56.61207580566406
1776554390201793000,8.83779296875,-215.680419921875,90.45291137695312,-56.52423095703125
1776554390211910000,8.847909912109374,-215.30300903320312,90.40432739257812,-56.57075500488281
1776554390222026000,8.85802587890625,-215.5706329345703,90.40435791015625,-56.55389404296875
1776554390232143000,8.86814306640625,-215.34701538085938,90.7347412109375,-56.54347229003906
1776554390242259000,8.878259033203125,-215.68048095703125,90.56782531738281,-56.498321533203125
1776554390252376000,8.8883759765625,-215.76010131835938,90.44273376464844,-56.50325012207031
1776554390262492000,8.898491943359375,-215.7687530517578,90.35432434082031,-56.504608154296875
1776554390272609000,8.908609130859375,-215.6667022705078,90.35774230957031,-56.37669372558594
1776554390282725000,8.91872509765625,-215.53518676757812,90.30029296875,-56.52360534667969
1776554390292842200,8.92884228515625,-215.71774291992188,90.36944580078125,-56.60260009765625
1776554390302958800,8.938958740234375,-215.61204528808594,90.3460693359375,-56.29486083984375
1776554390313075000,8.949074951171875,-215.55563354492188,90.28352355957031,-56.533721923828125
1776554390323193000,8.959193115234376,-215.5607147216797,90.35223388671875,-56.661163330078125
1776554390333311000,8.96931103515625,-215.75071716308594,90.39805603027344,-56.788665771484375
1776554390343428000,8.979427978515625,-215.69229125976562,90.49093627929688,-56.705047607421875
1776554390353545000,8.989544921875,-215.2333984375,90.16500854492188,-56.48655700683594
1776554390363662000,8.999662109375,-215.5636444091797,90.52163696289062,-56.69091796875
1776554390373778200,9.009778076171875,-215.60824584960938,90.62698364257812,-56.6478271484375
1776554390383893000,9.01989306640625,-215.5682830810547,90.40644836425781,-56.63568115234375
1776554390394007000,9.030007080078125,-215.4249267578125,90.32734680175781,-56.579742431640625
1776554390404122000,9.0401220703125,-215.6774444580078,90.45367431640625,-56.60797119140625
1776554390414238000,9.050238037109375,-215.42547607421875,90.53169250488281,-56.617889404296875
1776554390424354000,9.06035400390625,-215.74900817871094,90.42921447753906,-56.46675109863281
1776554390434468900,9.07046875,-215.31744384765625,90.14570617675781,-56.65386962890625
1776554390444584200,9.080584228515624,-215.42428588867188,90.49574279785156,-56.48960876464844
1776554390454700000,9.090699951171874,-215.68756103515625,90.27522277832031,-56.72624206542969
1776554390464817200,9.100817138671875,-215.49429321289062,90.30894470214844,-56.40325927734375
1776554390474933200,9.110933349609375,-215.64723205566406,90.37202453613281,-56.66493225097656
1776554390485049000,9.121049072265626,-215.92601013183594,90.05043029785156,-56.42022705078125
1776554390495166000,9.131166015625,-215.7588348388672,90.28865051269531,-56.40293884277344
1776554390505282000,9.141281982421875,-215.80654907226562,90.08363342285156,-56.638671875
1776554390515398100,9.151398193359375,-215.14804077148438,90.42726135253906,-56.784088134765625
1776554390525513000,9.161512939453125,-215.33897399902344,90.3563232421875,-56.64787292480469
1776554390535630000,9.171630126953126,-215.34689331054688,90.25653076171875,-56.5238037109375
1776554390545747000,9.181746826171874,-215.18907165527344,90.16200256347656,-56.50071716308594
1776554390555864000,9.191864013671875,-215.317626953125,90.25234985351562,-56.61579895019531
1776554390565982200,9.201982177734376,-215.35153198242188,90.32228088378906,-56.658172607421875
1776554390576100000,9.21210009765625,-215.68565368652344,90.67022705078125,-56.733642578125
1776554390586218200,9.22221826171875,-215.3280487060547,90.42762756347656,-56.514312744140625
1776554390596336000,9.232336181640624,-215.60354614257812,90.144775390625,-56.4638671875
1776554390606453000,9.242452880859375,-215.04815673828125,90.39306640625,-56.48188781738281
1776554390616571000,9.25257080078125,-215.2649383544922,90.26283264160156,-56.540069580078125
1776554390626688000,9.26268798828125,-215.6592559814453,90.43002319335938,-56.678131103515625
1776554390636804000,9.27280419921875,-215.51193237304688,90.28584289550781,-56.40251159667969
1776554390646922000,9.282921875,-215.6668701171875,90.35685729980469,-56.54249572753906
1776554390657039000,9.2930390625,-215.67013549804688,90.2791748046875,-56.63623046875
1776554390667155000,9.303155029296875,-215.57386779785156,90.29568481445312,-56.537872314453125
1776554390677271000,9.31327099609375,-215.44442749023438,90.41822814941406,-56.44358825683594
1776554390687387000,9.323386962890625,-215.26185607910156,90.02033996582031,-56.605438232421875
1776554390697504000,9.33350390625,-215.4527130126953,90.51943969726562,-56.73585510253906
1776554390707621000,9.34362109375,-215.3908233642578,90.20750427246094,-56.689666748046875
1776554390717738200,9.35373828125,-215.4264373779297,90.25750732421875,-56.52635192871094
1776554390727854000,9.36385400390625,-215.34677124023438,90.32655334472656,-56.3946533203125
1776554390737972000,9.373971923828124,-215.30821228027344,90.115478515625,-56.36473083496094
1776554390748089000,9.384089111328125,-215.05673217773438,90.07229614257812,-56.439910888671875
1776554390758207000,9.39420703125,-215.53721618652344,89.947021484375,-56.596405029296875
1776554390768322800,9.40432275390625,-215.0689697265625,90.22370910644531,-56.5244140625
1776554390778439700,9.414439697265625,-215.09844970703125,90.46102905273438,-56.29371643066406
1776554390788554800,9.4245546875,-215.22857666015625,90.24468994140625,-56.52516174316406
1776554390798670800,9.4346708984375,-214.93577575683594,90.16375732421875,-56.35130310058594
1776554390808787700,9.44478759765625,-215.2601776123047,90.3961181640625,-56.280426025390625
1776554390818904600,9.454904541015624,-215.1833038330078,90.42861938476562,-56.7025146484375
1776554390829020700,9.465020751953125,-215.33123779296875,90.40309143066406,-56.490203857421875
1776554390839137800,9.4751376953125,-215.22337341308594,90.40512084960938,-56.494873046875
1776554390849254700,9.485254638671876,-215.26341247558594,90.20545959472656,-56.34504699707031
1776554390859370800,9.495370849609374,-215.23451232910156,90.61294555664062,-56.38555908203125
1776554390869486800,9.50548681640625,-215.33290100097656,90.39115905761719,-56.40380859375
1776554390879601700,9.5156015625,-215.40086364746094,90.29376220703125,-56.3345947265625
1776554390889717800,9.5257177734375,-215.43685913085938,90.31396484375,-56.56317138671875
1776554390899833600,9.53583349609375,-215.1253204345703,90.49467468261719,-56.35722351074219
1776554390909949000,9.545948974609376,-215.48226928710938,90.31671142578125,-56.29603576660156
1776554390920063700,9.556063720703126,-214.82237243652344,90.42976379394531,-56.11061096191406
1776554390930177800,9.566177734375,-215.39013671875,90.51832580566406,-56.45062255859375
1776554390940294700,9.576294677734374,-215.27992248535156,90.45095825195312,-56.253448486328125
1776554390950410500,9.586410400390625,-215.65330505371094,90.62472534179688,-56.32398986816406
1776554390960526600,9.596526611328125,-215.617919921875,90.59255981445312,-56.285675048828125
1776554390970642700,9.606642578125,-215.60858154296875,90.51412963867188,-56.217803955078125
1776554390980757800,9.6167578125,-215.5194549560547,90.41651916503906,-56.3016357421875
1776554390990872600,9.62687255859375,-215.61985778808594,90.6478271484375,-56.40238952636719
1776554391000987600,9.636987548828126,-215.5546112060547,90.43392944335938,-56.46653747558594
1776554391011103700,9.647103759765624,-215.5730438232422,90.51261901855469,-56.25584411621094
1776554391021218800,9.65721875,-215.50201416015625,90.41278076171875,-56.232879638671875
1776554391031334700,9.667334716796875,-215.90188598632812,90.58238220214844,-56.324249267578125
1776554391041450800,9.67745068359375,-215.75347900390625,90.596435546875,-56.189483642578125
1776554391051567900,9.68756787109375,-215.6331329345703,90.44509887695312,-56.43424987792969
1776554391061684700,9.697684814453124,-215.50645446777344,90.12689208984375,-56.01322937011719
1776554391071800800,9.70780078125,-215.61968994140625,90.28730773925781,-56.181640625
1776554391081917000,9.7179169921875,-215.7968292236328,90.35313415527344,-56.372222900390625
1776554391092032800,9.72803271484375,-215.2943572998047,90.30027770996094,-56.35179138183594
1776554391102148900,9.73814892578125,-215.45538330078125,90.25064086914062,-56.36390686035156
1776554391112264700,9.7482646484375,-215.4639892578125,90.26852416992188,-56.26524353027344
1776554391122380800,9.758380859375,-215.22720336914062,90.33663940429688,-56.53179931640625
1776554391132497000,9.768496826171875,-215.1765899658203,90.476318359375,-56.4180908203125
1776554391142611700,9.77861181640625,-215.09426879882812,90.05947875976562,-56.311492919921875
1776554391152729900,9.788729736328126,-215.50074768066406,90.23356628417969,-56.53071594238281
1776554391162846700,9.7988466796875,-215.47955322265625,90.26129150390625,-56.42413330078125
1776554391172962600,9.808962646484375,-215.6380615234375,90.25285339355469,-56.58294677734375
1776554391183078700,9.81907861328125,-215.32171630859375,90.3231201171875,-56.53990173339844
1776554391193194800,9.82919482421875,-215.705810546875,90.5692138671875,-56.63130187988281
1776554391203310800,9.839310791015626,-215.32583618164062,90.14262390136719,-56.2022705078125
1776554391213427700,9.849427734375,-215.38540649414062,90.34226989746094,-56.557525634765625
1776554391223543600,9.85954345703125,-215.3603057861328,90.21304321289062,-56.43952941894531
1776554391233659600,9.86965966796875,-215.48426818847656,90.2904052734375,-56.5435791015625
1776554391243776800,9.87977685546875,-215.6494903564453,90.06411743164062,-56.3685302734375
1776554391253893600,9.8898935546875,-215.46112060546875,90.45263671875,-56.347259521484375
1776554391264010800,9.9000107421875,-215.84182739257812,90.22520446777344,-56.357330322265625
1776554391274127600,9.910127685546875,-215.66964721679688,90.01950073242188,-56.22822570800781
1776554391284244700,9.92024462890625,-215.8114471435547,90.31086730957031,-56.34931945800781
1776554391294363000,9.93036279296875,-215.57162475585938,90.24093627929688,-56.43360900878906
1776554391304478700,9.940478759765625,-215.98509216308594,90.271728515625,-56.44610595703125
1776554391314595600,9.950595703125,-215.4796142578125,90.3101806640625,-56.30787658691406
1776554391324712700,9.960712646484374,-215.8124542236328,90.33045959472656,-56.50743103027344
1776554391334829800,9.970829833984375,-215.84201049804688,90.28598022460938,-56.41246032714844
1776554391344946700,9.98094677734375,-215.75848388671875,90.31802368164062,-56.20790100097656
1776554391355063600,9.9910634765625,-215.5770263671875,90.33006286621094,-56.358673095703125
1776554391365181700,10.001181640625,-215.44192504882812,90.29228210449219,-56.5174560546875
1776554391375297800,10.0112978515625,-215.3084716796875,90.15892028808594,-56.53669738769531
1776554391385413600,10.02141357421875,-215.65753173828125,90.04656982421875,-56.419464111328125
1776554391395529700,10.03152978515625,-215.37673950195312,90.22738647460938,-56.225860595703125
1776554391405646800,10.041646728515625,-215.7642822265625,90.13499450683594,-56.434234619140625
1776554391415763700,10.051763671875,-215.4517822265625,90.1087646484375,-56.44148254394531
1776554391425881600,10.061881591796874,-215.6757049560547,90.01539611816406,-56.535064697265625
1776554391435998700,10.071998779296875,-215.75889587402344,89.88943481445312,-56.38667297363281
1776554391446116600,10.08211669921875,-215.3909149169922,90.14363098144531,-56.56434631347656
1776554391456233700,10.092233642578124,-215.63992309570312,90.05239868164062,-56.383270263671875
1776554391466351900,10.102351806640625,-215.5985107421875,90.05018615722656,-56.35633850097656
1776554391476469800,10.1124697265625,-215.41925048828125,90.25509643554688,-56.35972595214844
1776554391486587600,10.122587646484375,-215.4169921875,90.10130310058594,-56.18426513671875
1776554391496705800,10.132705810546875,-215.53005981445312,90.21438598632812,-56.46681213378906
1776554391506823700,10.14282373046875,-215.27732849121094,90.5142822265625,-56.64276123046875
1776554391516940800,10.15294091796875,-215.38795471191406,90.28556823730469,-56.564697265625
1776554391527057700,10.1630576171875,-215.06124877929688,90.12248229980469,-56.43119812011719
1776554391537174800,10.1731748046875,-214.9699249267578,90.17752075195312,-56.24176025390625
1776554391547291600,10.183291748046875,-215.763671875,90.21670532226562,-56.430694580078125
1776554391557408800,10.19340869140625,-215.06459045410156,90.11199951171875,-56.38560485839844
1776554391567527000,10.20352685546875,-215.65957641601562,90.09733581542969,-56.44190979003906
1776554391577643500,10.2136435546875,-215.4175262451172,90.317626953125,-56.653045654296875
1776554391587760600,10.2237607421875,-215.48109436035156,90.15980529785156,-56.53511047363281
1776554391597877800,10.233877685546876,-215.65330505371094,90.36795043945312,-56.51470947265625
1776554391607995600,10.24399560546875,-215.5732879638672,90.15779113769531,-56.425628662109375
1776554391618112800,10.25411279296875,-215.47161865234375,90.28062438964844,-56.39781188964844
1776554391628228600,10.264228515625,-215.65774536132812,90.324462890625,-56.37391662597656
1776554391638345700,10.274345703125,-215.7601318359375,90.49171447753906,-56.63529968261719
1776554391648461800,10.2844619140625,-215.44691467285156,90.27099609375,-56.42839050292969
1776554391658577700,10.29457763671875,-215.7752685546875,90.40594482421875,-56.687530517578125
1776554391668695800,10.30469580078125,-216.09120178222656,90.54991149902344,-56.51805114746094
1776554391678812700,10.314812744140625,-215.30694580078125,90.38998413085938,-56.2000732421875
1776554391688929800,10.3249296875,-215.392578125,90.29832458496094,-56.41844177246094
1776554391699047700,10.335047607421876,-215.4705352783203,90.32514953613281,-56.55119323730469
1776554391709164500,10.34516455078125,-215.5343780517578,90.57955932617188,-56.47038269042969
1776554391719281700,10.35528173828125,-215.7276153564453,90.41165161132812,-56.437103271484375
1776554391729400600,10.365400634765624,-215.3923797607422,90.3267822265625,-56.547271728515625
1776554391739517700,10.375517578125,-215.904541015625,90.4664306640625,-56.63771057128906
1776554391749634800,10.385634765625,-215.8253173828125,90.33326721191406,-56.51478576660156
1776554391759751700,10.395751708984376,-215.48631286621094,90.35488891601562,-56.446624755859375
1776554391769868300,10.405868408203125,-215.88995361328125,90.10159301757812,-56.35148620605469
1776554391779984400,10.415984375,-215.87713623046875,90.37139892578125,-56.66493225097656
1776554391790100200,10.426100341796875,-215.6890869140625,90.32333374023438,-56.43421936035156
1776554391800218400,10.43621826171875,-215.62762451171875,90.38044738769531,-56.46589660644531
1776554391810335500,10.44633544921875,-215.67770385742188,90.4964599609375,-56.5457763671875
1776554391820452400,10.456452392578125,-215.53419494628906,90.57148742675781,-56.24188232421875
1776554391830569500,10.466569580078126,-215.87196350097656,90.43608093261719,-56.5030517578125
1776554391840686300,10.476686279296874,-215.4476318359375,90.55314636230469,-56.37648010253906
1776554391850803500,10.486803466796875,-215.74530029296875,90.52459716796875,-56.618011474609375
1776554391860921300,10.49692138671875,-215.8140106201172,90.45416259765625,-56.41957092285156
1776554391871038500,10.50703857421875,-215.3977508544922,90.26286315917969,-56.41972351074219
1776554391881155600,10.517155517578125,-215.87681579589844,90.48641967773438,-56.39506530761719
1776554391891272400,10.5272724609375,-215.6358184814453,90.55696105957031,-56.60783386230469
1776554391901389300,10.537389404296874,-215.57806396484375,90.47210693359375,-56.68608093261719
1776554391911505400,10.54750537109375,-215.8868408203125,90.55307006835938,-56.51676940917969
1776554391921622500,10.55762255859375,-215.79815673828125,90.48794555664062,-56.587432861328125
1776554391931739400,10.567739501953126,-215.3629913330078,90.323486328125,-56.722015380859375
1776554391941856500,10.5778564453125,-215.8799591064453,90.47554016113281,-56.6802978515625
1776554391951974400,10.587974365234375,-216.08807373046875,90.45199584960938,-56.623748779296875
1776554391962092300,10.59809228515625,-215.37167358398438,90.61593627929688,-56.27955627441406
1776554391972209400,10.60820947265625,-215.61676025390625,90.19216918945312,-56.56794738769531
1776554391982327600,10.61832763671875,-215.48638916015625,90.17977905273438,-56.52275085449219
1776554391992444400,10.6284443359375,-215.711181640625,90.45819091796875,-56.75914001464844
1776554392002561300,10.638561279296875,-215.69381713867188,90.35356140136719,-56.59211730957031
1776554392012678400,10.648678466796875,-215.5973663330078,90.28959655761719,-56.56251525878906
1776554392022796300,10.65879638671875,-215.28025817871094,90.43241882324219,-56.8905029296875
1776554392032912400,10.668912353515625,-215.18869018554688,90.54180908203125,-56.77081298828125
1776554392043030500,10.679030517578125,-215.1448516845703,90.47172546386719,-56.64988708496094
1776554392053149400,10.6891494140625,-215.68411254882812,90.62826538085938,-56.68852233886719
1776554392063268400,10.699268310546875,-215.45643615722656,90.49530029296875,-56.79264831542969
1776554392073386500,10.709386474609374,-215.6766357421875,90.55134582519531,-56.64552307128906
1776554392083503400,10.71950341796875,-215.39637756347656,90.32173156738281,-56.68312072753906
1776554392093620500,10.729620361328125,-215.50283813476562,90.57052612304688,-56.809722900390625
1776554392103736300,10.739736328125,-214.83961486816406,90.52481079101562,-56.46856689453125
1776554392113853400,10.749853515625,-215.25360107421875,90.49713134765625,-56.60548400878906
1776554392123970600,10.759970458984375,-215.4447021484375,90.39274597167969,-56.66725158691406
1776554392134088400,10.77008837890625,-215.26568603515625,90.6876220703125,-56.70635986328125
1776554392144206600,10.78020654296875,-215.39366149902344,90.40940856933594,-56.67121887207031
1776554392154324500,10.790324462890625,-215.27452087402344,90.37301635742188,-56.42987060546875
1776554392164442600,10.800442626953124,-215.59725952148438,90.74339294433594,-56.62382507324219
1776554392174559200,10.810559326171875,-215.50746154785156,90.37843322753906,-56.60516357421875
1776554392184677400,10.820677490234376,-215.2962646484375,90.31187438964844,-56.607452392578125
1776554392194794500,10.83079443359375,-215.5856170654297,90.55442810058594,-56.673675537109375
1776554392204911400,10.840911376953125,-215.5618896484375,90.49238586425781,-56.85749816894531
1776554392215029500,10.851029541015626,-215.64962768554688,90.40754699707031,-56.58207702636719
1776554392225146600,10.861146728515624,-215.5624237060547,90.44770812988281,-56.756866455078125
1776554392235264500,10.871264404296875,-215.58871459960938,90.54472351074219,-56.732330322265625
1776554392245381400,10.88138134765625,-215.41726684570312,90.61431884765625,-56.407073974609375
1776554392255498500,10.89149853515625,-215.6857147216797,90.50480651855469,-56.680816650390625
1776554392265616400,10.901616455078125,-215.23016357421875,90.45558166503906,-56.70390319824219
1776554392275732500,10.911732421875,-215.5093536376953,90.57278442382812,-56.97369384765625
1776554392285850600,10.9218505859375,-215.2856903076172,90.40412902832031,-56.78865051269531
1776554392295968500,10.931968505859375,-214.90133666992188,90.41069030761719,-56.572052001953125
1776554392306086700,10.942086669921874,-215.54827880859375,90.54740905761719,-56.8348388671875
1776554392316203300,10.952203369140625,-215.4738006591797,90.59780883789062,-56.71965026855469
1776554392326321400,10.9623212890625,-215.3328399658203,90.54399108886719,-56.66180419921875
1776554392336438500,10.9724384765625,-215.2581787109375,90.63194274902344,-56.64060974121094
1776554392346555400,10.982555419921875,-215.58212280273438,90.46786499023438,-56.70002746582031
1776554392356673500,10.992673583984375,-215.56918334960938,90.57192993164062,-56.93278503417969
1776554392366791400,11.00279150390625,-215.69496154785156,90.42086791992188,-56.7393798828125
1776554392376909600,11.01290966796875,-215.55332946777344,90.63313293457031,-56.72941589355469
1776554392387027500,11.02302734375,-215.59869384765625,90.74447631835938,-56.6231689453125
1776554392397147400,11.0331474609375,-215.82371520996094,90.7703857421875,-56.682586669921875
1776554392407266300,11.043266357421874,-215.9315185546875,90.58912658691406,-56.77906799316406
1776554392417384400,11.053384521484375,-215.54844665527344,90.92530822753906,-56.824951171875
1776554392427502300,11.06350244140625,-215.7918243408203,90.7232666015625,-56.69404602050781
1776554392437621200,11.073621337890625,-215.53497314453125,90.67169189453125,-56.49969482421875
1776554392447738400,11.08373828125,-215.8217010498047,90.58277893066406,-56.811614990234375
1776554392457855500,11.09385546875,-215.5723419189453,90.63444519042969,-56.61393737792969
1776554392467974400,11.103974365234375,-215.80618286132812,90.4871826171875,-56.826751708984375
1776554392478093300,11.11409326171875,-216.2519989013672,90.45645141601562,-56.61323547363281
1776554392488210400,11.12421044921875,-215.51402282714844,90.42192077636719,-56.70088195800781
1776554392498327600,11.13432763671875,-215.59722900390625,90.50604248046875,-56.66175842285156
1776554392508445400,11.144445556640624,-215.89923095703125,90.73785400390625,-56.76373291015625
1776554392518563600,11.1545634765625,-215.81631469726562,90.58799743652344,-56.791656494140625
1776554392528680400,11.164680419921876,-215.39430236816406,90.62472534179688,-56.660430908203125
1776554392538799600,11.174799560546875,-215.381103515625,90.78076171875,-56.887664794921875
1776554392548916200,11.184916259765625,-215.5723876953125,90.56840515136719,-56.75169372558594
1776554392559033300,11.195033447265626,-215.60171508789062,90.53604125976562,-56.837677001953125
1776554392569151500,11.2051513671875,-215.20367431640625,90.37089538574219,-56.60247802734375
1776554392579269400,11.215269287109376,-215.32435607910156,90.70265197753906,-56.667266845703125
1776554392589387500,11.225387451171875,-215.3321075439453,90.80393981933594,-56.832916259765625
1776554392599504400,11.23550439453125,-215.460693359375,90.60105895996094,-56.74855041503906
1776554392609622500,11.24562255859375,-215.31678771972656,91.06761169433594,-56.94132995605469
1776554392619739600,11.25573974609375,-215.2210693359375,90.82130432128906,-56.765167236328125
1776554392629856300,11.265856201171875,-215.27032470703125,90.98954772949219,-56.75730895996094
1776554392639974400,11.275974365234376,-215.07290649414062,90.60337829589844,-56.84698486328125
1776554392650092300,11.28609228515625,-215.4110107421875,90.78913879394531,-56.85115051269531
1776554392660210400,11.29621044921875,-215.01400756835938,90.74745178222656,-56.841552734375
1776554392670327600,11.30632763671875,-215.4195098876953,90.7835693359375,-56.7080078125
1776554392680444400,11.3164443359375,-215.44696044921875,90.70419311523438,-56.81352233886719
1776554392690561500,11.3265615234375,-215.48924255371094,90.70806884765625,-56.93928527832031
1776554392700679400,11.336679443359374,-215.6764678955078,90.69027709960938,-56.869354248046875
1776554392710797300,11.34679736328125,-215.710205078125,90.6983642578125,-56.73194885253906
1776554392720915200,11.356915283203126,-215.13706970214844,90.68307495117188,-56.515045166015625
1776554392731031300,11.36703125,-215.68324279785156,90.69580078125,-56.85435485839844
1776554392741148400,11.3771484375,-215.67987060546875,90.40571594238281,-56.780517578125
1776554392751266600,11.3872666015625,-215.5141143798828,90.75297546386719,-56.67726135253906
1776554392761382400,11.39738232421875,-215.50790405273438,90.80387878417969,-56.84919738769531
1776554392771499800,11.407499755859375,-215.435791015625,90.63600158691406,-56.82183837890625
1776554392781615900,11.417615966796875,-215.3863983154297,90.4371337890625,-56.66407775878906
1776554392791733000,11.42773291015625,-215.61337280273438,90.68363952636719,-56.695709228515625
1776554392801849900,11.437849853515624,-215.3622589111328,90.61058044433594,-56.89738464355469
1776554392811967700,11.4479677734375,-214.93975830078125,90.62350463867188,-56.829315185546875
1776554392822086000,11.4580859375,-215.47618103027344,90.6322021484375,-56.792022705078125
1776554392832203000,11.468203125,-215.2339630126953,90.55827331542969,-56.80364990234375
1776554392842321000,11.47832080078125,-216.05662536621094,90.47874450683594,-56.58683776855469
1776554392852439000,11.48843896484375,-215.5517120361328,90.53260803222656,-56.712127685546875
1776554392862556000,11.498555908203125,-215.1412353515625,90.76612854003906,-56.65992736816406
1776554392872671000,11.5086708984375,-215.5164031982422,90.54286193847656,-56.82380676269531
1776554392882788900,11.518788818359376,-215.24041748046875,90.90351867675781,-56.96226501464844
1776554392892907000,11.528906982421875,-215.3687286376953,90.81434631347656,-56.834075927734375
1776554392903026000,11.53902587890625,-215.21966552734375,90.79916381835938,-56.60987854003906
1776554392913143000,11.54914306640625,-215.33494567871094,90.74928283691406,-56.503143310546875
1776554392923261000,11.559260986328125,-215.15953063964844,90.69523620605469,-56.767608642578125
1776554392933378000,11.5693779296875,-215.46669006347656,90.79212951660156,-56.90626525878906
1776554392943497000,11.5794970703125,-215.27391052246094,90.76272583007812,-56.8118896484375
1776554392953614800,11.58961474609375,-215.05044555664062,90.5460205078125,-56.73779296875
1776554392963732000,11.59973193359375,-215.48011779785156,90.87149047851562,-56.90705871582031
1776554392973848800,11.609848876953125,-215.3509521484375,90.72416687011719,-56.83477783203125
1776554392983968000,11.619968017578126,-215.24656677246094,90.80661010742188,-56.82658386230469
1776554392994086100,11.630086181640625,-215.21084594726562,90.99235534667969,-56.779449462890625
1776554393004205000,11.640205078125,-215.04934692382812,90.74345397949219,-56.85694885253906
1776554393014321000,11.65032080078125,-215.40310668945312,90.50675964355469,-56.77635192871094
1776554393024438000,11.66043798828125,-214.88514709472656,90.5997314453125,-56.669891357421875
1776554393034555000,11.670554931640625,-215.2019500732422,90.59336853027344,-56.66215515136719
1776554393044672000,11.680672119140626,-215.3053436279297,90.64823913574219,-56.82646179199219
1776554393054790100,11.6907900390625,-215.15248107910156,90.92768859863281,-56.6842041015625
1776554393064906000,11.700906005859375,-215.16392517089844,90.74252319335938,-56.76927185058594
1776554393075022800,11.71102294921875,-215.4108123779297,90.71736145019531,-56.6903076171875
1776554393085140000,11.721139892578124,-215.41189575195312,90.48646545410156,-56.72392272949219
1776554393095255800,11.731255859375,-215.0630340576172,90.72531127929688,-56.84550476074219
1776554393105373000,11.741373046875,-215.33502197265625,90.77346801757812,-56.69499206542969
1776554393115489000,11.751489013671875,-215.0880889892578,90.94259643554688,-56.804779052734375
1776554393125607000,11.76160693359375,-215.24801635742188,90.62092590332031,-56.83641052246094
1776554393135725000,11.77172509765625,-215.40061950683594,90.57302856445312,-56.839508056640625
1776554393145842000,11.781842041015626,-214.99319458007812,90.65658569335938,-56.63641357421875
1776554393155958000,11.7919580078125,-215.1858367919922,90.59996032714844,-56.691741943359375
1776554393166077000,11.802076904296875,-215.30197143554688,90.35032653808594,-56.55235290527344
1776554393176194800,11.81219482421875,-215.217529296875,90.50083923339844,-56.67469787597656
1776554393186313000,11.82231298828125,-215.09439086914062,90.63702392578125,-56.819793701171875
1776554393196430800,11.832430908203126,-215.0009765625,90.68290710449219,-56.71302795410156
1776554393206548000,11.8425478515625,-215.2840576171875,90.45181274414062,-56.71769714355469
1776554393216667000,11.8526669921875,-215.1240997314453,90.67263793945312,-56.91780090332031
1776554393226785800,11.862785888671874,-215.19667053222656,90.58123779296875,-56.68687438964844
1776554393236904000,11.872904052734375,-215.10806274414062,90.42756652832031,-56.8131103515625
1776554393247021800,11.883021728515626,-214.97930908203125,90.61892700195312,-56.78619384765625
1776554393257140000,11.893139892578125,-215.1492156982422,90.56069946289062,-56.810791015625
1776554393267257900,11.9032578125,-215.3572998046875,90.43771362304688,-56.86433410644531
1776554393277376800,11.913376708984375,-215.46453857421875,90.52986145019531,-56.60398864746094
1776554393287495000,11.923494873046875,-215.32212829589844,90.55503845214844,-56.645416259765625
1776554393297613800,11.93361376953125,-215.52377319335938,90.792236328125,-56.94859313964844
1776554393307732700,11.943732666015626,-215.159912109375,90.70140075683594,-56.83815002441406
1776554393317853000,11.95385302734375,-215.57423400878906,90.5775146484375,-56.79295349121094
1776554393327971800,11.963971923828124,-215.29115295410156,90.72740173339844,-56.61967468261719
1776554393338093000,11.974093017578125,-215.35092163085938,90.72686767578125,-56.725250244140625
1776554393348213000,11.984212890625,-215.47955322265625,90.53385925292969,-56.699432373046875
1776554393358331000,11.994330810546876,-215.5570831298828,90.81314086914062,-56.899749755859375
1776554393368450000,12.004449951171875,-215.56329345703125,90.67727661132812,-56.70011901855469
1776554393378569000,12.01456884765625,-215.6460418701172,90.80935668945312,-56.93931579589844
1776554393388686800,12.024686767578125,-215.61676025390625,90.56282043457031,-56.72611999511719
1776554393398805000,12.034804931640625,-215.30392456054688,90.60516357421875,-56.803558349609375
1776554393408921900,12.044921875,-215.4437713623047,90.62519836425781,-56.684234619140625
1776554393419040000,12.0550400390625,-215.4614715576172,90.69888305664062,-56.794403076171875
1776554393429158000,12.065157958984376,-215.28515625,90.80111694335938,-56.52311706542969
1776554393439273700,12.075273681640626,-215.41207885742188,90.7476806640625,-56.67237854003906
1776554393449391900,12.085391845703125,-215.46896362304688,90.78092956542969,-56.71528625488281
1776554393459509000,12.095509033203125,-215.10523986816406,90.77632141113281,-56.7523193359375
1776554393469625900,12.1056259765625,-215.49984741210938,90.89804077148438,-56.848785400390625
1776554393479744000,12.115743896484375,-215.13246154785156,90.68659973144531,-56.50042724609375
1776554393489862000,12.12586181640625,-215.21824645996094,90.71646118164062,-56.75953674316406
1776554393499980000,12.13597998046875,-215.4014129638672,90.73167419433594,-56.620941162109375
1776554393510099000,12.146098876953126,-215.2074432373047,90.97201538085938,-56.48301696777344
1776554393520219000,12.156218994140625,-215.13433837890625,90.82569885253906,-56.62138366699219
1776554393530339000,12.166339111328124,-215.1024169921875,90.62214660644531,-56.72660827636719
1776554393540458000,12.1764580078125,-215.55812072753906,90.68240356445312,-56.712921142578125
1776554393550575900,12.186575927734374,-215.32025146484375,90.55966186523438,-56.85072326660156
1776554393560695000,12.196695068359375,-215.51519775390625,90.59297180175781,-56.59440612792969
1776554393570812000,12.20681201171875,-215.32034301757812,90.707275390625,-56.643402099609375
1776554393580931000,12.21693115234375,-215.05807495117188,90.54841613769531,-56.709075927734375
1776554393591049000,12.227049072265626,-215.5460662841797,90.75445556640625,-56.764068603515625
1776554393601166800,12.237166748046874,-215.6300048828125,90.62486267089844,-56.69755554199219
1776554393611286000,12.2472861328125,-215.33631896972656,90.485595703125,-56.54109191894531
1776554393621404000,12.25740380859375,-215.27061462402344,90.7186279296875,-56.47645568847656
1776554393631522800,12.267522705078125,-215.3137664794922,90.70277404785156,-56.604034423828125
1776554393641642800,12.277642822265625,-215.0982666015625,90.7877197265625,-56.75439453125
1776554393651763000,12.287762939453126,-215.35064697265625,90.36558532714844,-56.62469482421875
1776554393661881900,12.2978818359375,-215.4072723388672,90.40083312988281,-56.657928466796875
1776554393672000800,12.308000732421876,-214.90951538085938,90.42642211914062,-56.55513000488281
1776554393682119000,12.318118896484375,-215.19944763183594,90.37522888183594,-56.67112731933594
1776554393692237800,12.32823779296875,-215.49935913085938,90.4676513671875,-56.57841491699219
1776554393702356000,12.33835595703125,-214.90122985839844,90.39834594726562,-56.691558837890625
1776554393712475000,12.348474853515626,-215.16519165039062,90.54457092285156,-56.67295837402344
1776554393722594000,12.358593994140625,-215.1931915283203,90.54896545410156,-56.631561279296875
1776554393732712000,12.3687119140625,-215.17608642578125,90.57281494140625,-56.50392150878906
1776554393742830000,12.378830078125,-215.46766662597656,90.55221557617188,-56.60540771484375
1776554393752950000,12.388949951171876,-215.2417449951172,90.49090576171875,-56.53895568847656
1776554393763068000,12.39906787109375,-214.91494750976562,90.5299072265625,-56.27378845214844
1776554393773185300,12.409185302734375,-215.42161560058594,90.51956176757812,-56.4962158203125
1776554393783303200,12.41930322265625,-215.2791290283203,90.55537414550781,-56.583709716796875
1776554393793421300,12.42942138671875,-215.2309112548828,90.40409851074219,-56.57502746582031
1776554393803539200,12.439539306640626,-215.08154296875,90.25959777832031,-56.551971435546875
1776554393813655300,12.4496552734375,-215.05880737304688,90.49057006835938,-56.60029602050781
1776554393823772400,12.4597724609375,-215.48910522460938,90.31314086914062,-56.57038879394531
1776554393833889300,12.46988916015625,-215.56460571289062,90.50190734863281,-56.650543212890625
1776554393844005400,12.48000537109375,-215.29859924316406,90.51164245605469,-56.60136413574219
1776554393854123300,12.490123291015625,-215.19300842285156,90.50665283203125,-56.66120910644531
1776554393864240400,12.500240478515625,-215.16836547851562,90.41072082519531,-56.699066162109375
1776554393874359300,12.510359375,-215.27569580078125,90.46980285644531,-56.68577575683594
1776554393884476400,12.520476318359375,-215.59971618652344,90.82008361816406,-56.697998046875
1776554393894595300,12.53059521484375,-215.46554565429688,90.62469482421875,-56.59501647949219
1776554393904713500,12.54071337890625,-215.35926818847656,90.34587097167969,-56.378448486328125
1776554393914832400,12.550832275390626,-215.3339080810547,90.56149291992188,-56.591217041015625
1776554393924949500,12.560949462890624,-215.4402313232422,90.53121948242188,-56.58149719238281
1776554393935068400,12.571068359375,-215.36752319335938,90.51774597167969,-56.752166748046875
1776554393945187300,12.581187255859374,-215.2598114013672,90.45553588867188,-56.6796875
1776554393955306200,12.59130615234375,-214.87461853027344,90.71774291992188,-56.57182312011719
1776554393965424400,12.60142431640625,-215.08673095703125,90.50173950195312,-56.67413330078125
1776554393975542300,12.611542236328125,-215.483642578125,90.52798461914062,-56.52508544921875
1776554393985660400,12.621660400390626,-215.2731475830078,90.54646301269531,-56.67559814453125
1776554393995777300,12.63177734375,-215.16085815429688,90.74623107910156,-56.65214538574219
1776554394005895400,12.6418955078125,-214.91171264648438,90.72602844238281,-56.83929443359375
1776554394016013300,12.652013427734374,-215.29795837402344,90.58277893066406,-56.635986328125
1776554394026131500,12.66213134765625,-215.1523895263672,90.46943664550781,-56.67994689941406
1776554394036250400,12.67225048828125,-215.35414123535156,90.7200927734375,-56.64739990234375
1776554394046369300,12.682369384765625,-215.3767852783203,90.67233276367188,-56.45892333984375
1776554394056487400,12.6924873046875,-215.30752563476562,90.38290405273438,-56.61198425292969
1776554394066606300,12.7026064453125,-214.983642578125,90.55923461914062,-56.88398742675781
1776554394076725200,12.712725341796874,-214.79722595214844,90.83779907226562,-56.70317077636719
1776554394086843100,12.722843017578125,-215.3424835205078,90.50770568847656,-56.77671813964844
1776554394096962600,12.732962646484374,-215.33181762695312,90.70323181152344,-56.654571533203125
1776554394107080400,12.74308056640625,-215.2279815673828,90.60716247558594,-56.699005126953125
1776554394117197300,12.753197265625,-215.03472900390625,90.39677429199219,-56.61968994140625
1776554394127314400,12.763314453125,-215.05987548828125,90.27900695800781,-56.78343200683594
1776554394137433300,12.773433349609375,-214.97586059570312,90.4388427734375,-56.712615966796875
1776554394147552300,12.78355224609375,-215.3508758544922,90.59478759765625,-56.61517333984375
1776554394157669400,12.79366943359375,-215.2386932373047,90.34123229980469,-56.67558288574219
1776554394167787300,12.803787353515625,-214.88121032714844,90.65299987792969,-56.63568115234375
1776554394177906200,12.81390625,-215.2030029296875,90.38371276855469,-56.65003967285156
1776554394188025300,12.824025390625,-215.15589904785156,90.54966735839844,-56.61695861816406
1776554394198143200,12.834143310546875,-215.19239807128906,90.65982055664062,-56.722625732421875
1776554394208261400,12.844261474609375,-215.35903930664062,90.77899169921875,-56.82334899902344
1776554394218379300,12.854379150390624,-215.16531372070312,90.80426025390625,-56.72261047363281
1776554394228499500,12.86449951171875,-215.38687133789062,90.63212585449219,-56.71281433105469
1776554394238618400,12.874618408203125,-215.2493438720703,90.59403991699219,-56.63600158691406
1776554394248736300,12.884736328125,-215.2625732421875,90.57746887207031,-56.656280517578125
1776554394258853400,12.894853271484376,-215.39598083496094,90.62539672851562,-56.68653869628906
1776554394268971500,12.904971435546875,-215.3182373046875,90.76045227050781,-56.74165344238281
1776554394279089400,12.91508935546875,-215.2973175048828,90.83438110351562,-56.754638671875
1776554394289207600,12.92520751953125,-215.56295776367188,90.54450988769531,-56.5965576171875
1776554394299325200,12.9353251953125,-215.170166015625,90.79644775390625,-56.722320556640625
1776554394309442300,12.9454423828125,-215.50942993164062,90.50502014160156,-56.62913513183594
1776554394319558400,12.955558349609374,-215.30227661132812,90.774658203125,-56.75471496582031
1776554394329674200,12.96567431640625,-215.1389617919922,90.65347290039062,-56.71745300292969
1776554394339790300,12.975790283203125,-215.5077362060547,90.60475158691406,-56.64830017089844
1776554394349907500,12.985907470703125,-215.61427307128906,90.72331237792969,-56.791473388671875
1776554394360023300,12.996023193359376,-215.44009399414062,90.68568420410156,-56.62947082519531
1776554394370140400,13.006140380859375,-215.1352996826172,90.85140991210938,-56.74763488769531
1776554394380257300,13.01625732421875,-215.41050720214844,90.78009033203125,-56.51123046875
1776554394390375400,13.02637548828125,-215.38409423828125,90.62727355957031,-56.90411376953125
1776554394400493300,13.036493408203125,-215.73072814941406,90.45211791992188,-56.7802734375
1776554394410611500,13.046611572265626,-215.4102020263672,90.59165954589844,-56.84819030761719
1776554394420728300,13.056728271484374,-215.2786407470703,90.49298095703125,-56.781890869140625
1776554394430844400,13.066844482421875,-215.40841674804688,90.42283630371094,-56.62788391113281
