time,seconds_elapsed,z,y,x
1776018950121961200,0.084961181640625,-26.963653564453125,-1.512263298034668,-22.37023162841797
1776018950132021000,0.09502099609375,-26.7977294921875,-1.6389598846435547,-22.20016098022461
1776018950142081000,0.1050810546875,-26.932525634765625,-1.9106626510620117,-22.314373016357422
1776018950152141000,0.11514111328125,-26.773712158203125,-2.3598451614379883,-22.63935089111328
1776018950162200800,0.125200927734375,-26.752044677734375,-2.3025617599487305,-22.51305389404297
1776018950172261000,0.13526123046875,-27.039337158203125,-2.406312942504883,-22.612258911132812
1776018950182321200,0.145321044921875,-27.00677490234375,-2.4063243865966797,-22.664016723632812
1776018950192381200,0.155381103515625,-26.444610595703125,-2.614561080932617,-22.649656295776367
1776018950202441000,0.16544091796875,-26.41680908203125,-2.967118263244629,-22.678895950317383
1776018950212502000,0.175501953125,-26.5775146484375,-2.9004993438720703,-22.720664978027344
1776018950222562000,0.18556201171875,-26.64215087890625,-2.674287796020508,-22.754756927490234
1776018950232622000,0.1956220703125,-26.45989990234375,-2.937483787536621,-22.84840202331543
1776018950242681900,0.205681884765625,-26.533782958984375,-2.8673839569091797,-22.870479583740234
1776018950252742100,0.2157421875,-27.02667236328125,-3.038637161254883,-22.865901947021484
1776018950262802200,0.22580224609375,-26.5692138671875,-2.736363410949707,-22.940650939941406
1776018950272862000,0.235862060546875,-26.643157958984375,-2.819760322570801,-22.825542449951172
1776018950282922000,0.245921875,-27.108367919921875,-2.675640106201172,-22.808826446533203
1776018950292982300,0.255982177734375,-27.19769287109375,-3.1024932861328125,-22.809734344482422
1776018950303042300,0.266042236328125,-26.6024169921875,-3.2813539505004883,-22.764942169189453
1776018950313102600,0.2761025390625,-26.725555419921875,-3.598881721496582,-22.665916442871094
1776018950323162400,0.286162353515625,-26.573699951171875,-3.7296972274780273,-22.53245735168457
1776018950333222400,0.296222412109375,-26.89776611328125,-3.710515022277832,-22.60271644592285
1776018950343282400,0.306282470703125,-26.725067138671875,-3.9737958908081055,-22.582117080688477
1776018950353342200,0.31634228515625,-27.381195068359375,-3.9278783798217773,-22.632362365722656
1776018950363402200,0.32640234375,-27.153656005859375,-3.9029550552368164,-22.703676223754883
1776018950373462500,0.336462646484375,-27.380584716796875,-3.6963815689086914,-22.7037353515625
1776018950383522300,0.346522216796875,-27.00927734375,-3.6068944931030273,-22.652599334716797
1776018950393582300,0.356582275390625,-27.263763427734375,-3.5056467056274414,-22.392173767089844
1776018950403642400,0.366642333984375,-27.08087158203125,-3.188418388366699,-22.376672744750977
1776018950413702400,0.376702392578125,-27.01483154296875,-3.091549873352051,-22.264171600341797
1776018950423762400,0.386762451171875,-26.87158203125,-3.1594619750976562,-22.224380493164062
1776018950433822500,0.396822509765625,-26.8399658203125,-3.1133384704589844,-22.19369125366211
1776018950443883500,0.406883544921875,-26.991790771484375,-3.234675407409668,-22.411014556884766
1776018950453943600,0.416943603515625,-27.05517578125,-3.226799964904785,-22.390823364257812
1776018950464003300,0.42700341796875,-26.8028564453125,-3.108684539794922,-22.31238555908203
1776018950474063400,0.4370634765625,-26.42462158203125,-3.443057060241699,-22.46137809753418
1776018950484123400,0.447123291015625,-26.4163818359375,-3.419827461242676,-22.486949920654297
1776018950494183400,0.457183349609375,-26.864013671875,-3.2711668014526367,-22.403865814208984
1776018950504243500,0.467243408203125,-26.876953125,-3.297703742980957,-22.123376846313477
1776018950514303500,0.477303466796875,-26.87115478515625,-3.35775089263916,-22.267181396484375
1776018950524363300,0.48736328125,-27.124725341796875,-3.4279375076293945,-22.022735595703125
1776018950534423300,0.49742333984375,-27.042266845703125,-3.782465934753418,-22.074546813964844
1776018950544483300,0.5074833984375,-27.298980712890625,-3.702216148376465,-22.078367233276367
1776018950554543600,0.517543701171875,-27.0657958984375,-3.991377830505371,-22.039447784423828
1776018950564603400,0.527603271484375,-26.987060546875,-4.0359392166137695,-21.85551643371582
1776018950574663400,0.537663330078125,-26.884552001953125,-3.9935503005981445,-21.903244018554688
1776018950584723500,0.547723388671875,-27.06268310546875,-3.9211435317993164,-21.92320442199707
1776018950594783200,0.557783203125,-26.984100341796875,-3.9342660903930664,-21.6096134185791
1776018950604843300,0.56784326171875,-27.1385498046875,-3.7110795974731445,-21.180931091308594
1776018950614903600,0.577903564453125,-26.9051513671875,-3.8833322525024414,-21.309772491455078
1776018950624963300,0.58796337890625,-27.059295654296875,-3.9288530349731445,-21.328388214111328
1776018950635023400,0.5980234375,-27.055206298828125,-3.688939094543457,-21.592754364013672
1776018950645083400,0.60808349609375,-27.200439453125,-3.5711984634399414,-21.597991943359375
1776018950655143200,0.61814306640625,-27.056427001953125,-3.547053337097168,-21.53592872619629
1776018950665204200,0.628204345703125,-26.917877197265625,-3.2687673568725586,-21.350093841552734
1776018950675264300,0.63826416015625,-27.185302734375,-2.870598793029785,-21.429615020751953
1776018950685324500,0.648324462890625,-27.064910888671875,-2.470643997192383,-21.308504104614258
1776018950695384300,0.65838427734375,-27.4295654296875,-1.9662494659423828,-21.23148536682129
1776018950705444400,0.6684443359375,-27.349822998046875,-1.6591291427612305,-21.29967498779297
1776018950715504400,0.67850439453125,-27.32958984375,-1.217855453491211,-21.393619537353516
1776018950725564400,0.688564453125,-27.28912353515625,-1.013265609741211,-21.392147064208984
1776018950735624200,0.698624267578125,-26.835052490234375,-0.32686614990234375,-21.114070892333984
1776018950745684500,0.7086845703125,-27.510650634765625,0.1868762969970703,-20.709041595458984
1776018950755744500,0.71874462890625,-27.832122802734375,0.6881570816040039,-20.309120178222656
1776018950765804300,0.72880419921875,-28.2803955078125,1.5377349853515625,-19.690391540527344
1776018950775864300,0.7388642578125,-28.69805908203125,2.2404937744140625,-18.8267822265625
1776018950785924400,0.74892431640625,-29.21331787109375,2.6002941131591797,-18.375499725341797
1776018950795984400,0.758984375,-29.46649169921875,3.101151466369629,-18.012365341186523
1776018950806044400,0.76904443359375,-29.2861328125,2.8408899307250977,-18.011470794677734
1776018950816104400,0.7791044921875,-29.511566162109375,2.7817277908325195,-18.168472290039062
1776018950826164500,0.78916455078125,-29.3719482421875,2.5359811782836914,-18.053598403930664
1776018950836224300,0.799224365234375,-29.734161376953125,2.6325416564941406,-18.05695915222168
1776018950846284300,0.8092841796875,-29.850860595703125,2.4490394592285156,-17.592174530029297
1776018950856344600,0.819344482421875,-29.70184326171875,2.5374326705932617,-17.22818946838379
1776018950866404400,0.829404296875,-29.765899658203125,2.7437515258789062,-17.044187545776367
1776018950876465400,0.83946533203125,-30.03472900390625,2.6068248748779297,-16.58494758605957
1776018950886525400,0.849525390625,-30.537445068359375,1.9409046173095703,-16.024219512939453
1776018950896585500,0.85958544921875,-31.237213134765625,1.5028314590454102,-15.272481918334961
1776018950906645200,0.869645263671875,-31.04852294921875,1.2697010040283203,-14.589469909667969
1776018950916705300,0.879705322265625,-31.3128662109375,0.6313085556030273,-14.118194580078125
1776018950926765600,0.889765625,-32.116851806640625,0.17379093170166016,-13.190689086914062
1776018950936825300,0.899825439453125,-32.440216064453125,-0.1935405731201172,-12.695806503295898
1776018950946885400,0.909885498046875,-32.46258544921875,-0.7942619323730469,-12.157649993896484
1776018950956945400,0.9199453125,-32.909393310546875,-1.0827980041503906,-11.862850189208984
1776018950967005400,0.93000537109375,-32.7880859375,-1.207381248474121,-11.478649139404297
1776018950977065200,0.940065185546875,-32.743255615234375,-1.314687728881836,-10.995733261108398
1776018950987125500,0.95012548828125,-33.02032470703125,-1.0340900421142578,-10.729057312011719
1776018950997185500,0.960185546875,-33.3660888671875,-0.6869297027587891,-10.106769561767578
1776018951007245300,0.970245361328125,-33.18817138671875,-0.31435108184814453,-9.685098648071289
1776018951017305300,0.980305419921875,-33.278350830078125,0.5446844100952148,-8.806425094604492
1776018951027365400,0.990365478515625,-33.677459716796875,1.1129751205444336,-8.144628524780273
1776018951037425200,1.000425048828125,-33.594207763671875,1.9441499710083008,-7.683374404907227
1776018951047485400,1.0104853515625,-33.5657958984375,2.855405807495117,-6.929372787475586
1776018951057545500,1.02054541015625,-33.724639892578125,3.81392765045166,-6.487648010253906
1776018951067606500,1.0306064453125,-33.77374267578125,4.718571662902832,-6.22953987121582
1776018951077666300,1.040666259765625,-33.470672607421875,5.674173831939697,-6.104686737060547
1776018951087726300,1.050726318359375,-32.89898681640625,6.527205467224121,-6.054229736328125
1776018951097786400,1.060786376953125,-32.8951416015625,7.607821941375732,-6.055109024047852
1776018951107846100,1.07084619140625,-32.343109130859375,8.37350845336914,-5.932477951049805
1776018951117906400,1.080906494140625,-32.287078857421875,9.29382038116455,-5.780643463134766
1776018951127966500,1.090966552734375,-31.948699951171875,9.94649887084961,-5.804267883300781
1776018951138026500,1.101026611328125,-31.98272705078125,10.565032005310059,-5.865331649780273
1776018951148086300,1.111086181640625,-31.757293701171875,11.33450984954834,-5.531085968017578
1776018951158146300,1.121146240234375,-31.668609619140625,12.396607398986816,-5.66285514831543
1776018951168206300,1.131206298828125,-31.621826171875,13.046673774719238,-5.319740295410156
1776018951178266400,1.141266357421875,-31.260498046875,13.83081340789795,-5.092884063720703
1776018951188326400,1.151326416015625,-31.1685791015625,14.450281143188477,-4.598894119262695
1776018951198386400,1.161386474609375,-30.6697998046875,15.18663215637207,-4.307605743408203
1776018951208446200,1.1714462890625,-30.52972412109375,15.901200294494629,-3.9751625061035156
1776018951218506200,1.18150634765625,-30.246551513671875,16.204105377197266,-3.6681957244873047
1776018951228566500,1.19156640625,-29.77337646484375,16.774700164794922,-3.5238609313964844
1776018951238626600,1.20162646484375,-29.41497802734375,17.344385147094727,-3.268434524536133
1776018951248686300,1.211686279296875,-29.177978515625,18.14220428466797,-3.2458858489990234
1776018951258747400,1.221747314453125,-28.7706298828125,18.473552703857422,-3.062641143798828
1776018951268807400,1.231807373046875,-28.70501708984375,18.767269134521484,-2.8423805236816406
1776018951278867500,1.241867431640625,-28.442626953125,19.062721252441406,-2.620603561401367
1776018951288927200,1.25192724609375,-27.756866455078125,19.555910110473633,-2.345844268798828
1776018951298987000,1.261987060546875,-27.19500732421875,20.328388214111328,-2.104581832885742
1776018951309047000,1.272047119140625,-27.019927978515625,20.792160034179688,-1.9986610412597656
1776018951319106800,1.28210693359375,-26.56201171875,21.361133575439453,-1.6466789245605469
1776018951329166800,1.292166748046875,-25.871673583984375,21.79055404663086,-1.7027626037597656
1776018951339227000,1.302226806640625,-25.659393310546875,22.0927734375,-1.404083251953125
1776018951349287000,1.312286865234375,-25.786041259765625,22.898807525634766,-1.2984123229980469
1776018951359347000,1.322346923828125,-25.098236083984375,23.345104217529297,-1.1697311401367188
1776018951369407000,1.332406982421875,-24.9659423828125,23.69289779663086,-1.1032752990722656
1776018951379466800,1.342466796875,-24.768798828125,24.153095245361328,-1.0382423400878906
1776018951389526800,1.35252685546875,-24.034149169921875,24.558837890625,-0.9974517822265625
1776018951399586800,1.3625869140625,-23.40509033203125,25.281726837158203,-1.016876220703125
1776018951409647000,1.372647216796875,-23.07757568359375,25.25572967529297,-0.8475761413574219
1776018951419707000,1.382706787109375,-22.4605712890625,25.51731300354004,-0.8659782409667969
1776018951429767000,1.392766845703125,-21.9283447265625,25.837501525878906,-0.4771575927734375
1776018951439828000,1.402827880859375,-22.157501220703125,25.823291778564453,-0.22117233276367188
1776018951449888000,1.412887939453125,-21.809967041015625,26.12848663330078,0.12372207641601562
1776018951459947800,1.42294775390625,-21.62933349609375,26.44049072265625,0.45839691162109375
1776018951470007800,1.4330078125,-20.83416748046875,26.987152099609375,0.4680366516113281
1776018951480068000,1.443068115234375,-20.090057373046875,27.17030906677246,0.8429832458496094
1776018951490128000,1.4531279296875,-19.46124267578125,27.467370986938477,1.2970733642578125
1776018951500188000,1.46318798828125,-19.443084716796875,27.3416690826416,2.3979034423828125
1776018951510248000,1.473248046875,-19.65679931640625,27.703393936157227,2.834941864013672
1776018951520307700,1.4833076171875,-19.182861328125,27.585655212402344,3.1746673583984375
1776018951530367700,1.49336767578125,-19.327301025390625,27.24405288696289,3.6285362243652344
1776018951540428000,1.503427978515625,-18.95574951171875,27.228416442871094,4.0720062255859375
1776018951550488000,1.513488037109375,-19.092864990234375,27.323760986328125,4.474857330322266
1776018951560547800,1.5235478515625,-19.29962158203125,27.28662109375,4.607532501220703
1776018951570607900,1.53360791015625,-19.480865478515625,26.75741195678711,5.158573150634766
1776018951580668000,1.54366796875,-19.680023193359375,26.510284423828125,5.687435150146484
1776018951590727700,1.553727783203125,-19.828643798828125,26.396690368652344,6.074676513671875
1776018951600788000,1.5637880859375,-19.70465087890625,26.201637268066406,6.578422546386719
1776018951610848000,1.573847900390625,-20.15985107421875,25.807147979736328,6.527324676513672
1776018951620909000,1.583908935546875,-20.36907958984375,25.772998809814453,6.426372528076172
1776018951630968800,1.59396875,-20.310577392578125,25.636642456054688,6.451038360595703
1776018951641028900,1.60402880859375,-20.725372314453125,25.627962112426758,6.116008758544922
1776018951651089000,1.6140888671875,-20.356292724609375,25.791446685791016,5.46258544921875
1776018951661148700,1.624148681640625,-20.595458984375,25.743925094604492,5.153285980224609
1776018951671209000,1.634208984375,-20.95635986328125,25.428680419921875,4.8977508544921875
1776018951681269000,1.64426904296875,-21.236602783203125,24.865379333496094,4.51763916015625
1776018951691328800,1.654328857421875,-21.30712890625,24.582778930664062,4.480365753173828
1776018951701388800,1.664388916015625,-21.666229248046875,24.13278579711914,4.0156097412109375
1776018951711448800,1.67444873046875,-21.937225341796875,23.95718765258789,3.6874351501464844
1776018951721508900,1.6845087890625,-22.153472900390625,23.575363159179688,3.75909423828125
1776018951731569000,1.69456884765625,-22.33929443359375,23.557239532470703,3.7722740173339844
1776018951741629000,1.70462890625,-22.31951904296875,23.61214256286621,4.0242462158203125
1776018951751689000,1.71468896484375,-22.56744384765625,23.55830955505371,4.155143737792969
1776018951761748700,1.724748779296875,-22.4117431640625,23.30412483215332,4.334438323974609
1776018951771808800,1.734808837890625,-22.5927734375,23.076162338256836,4.252586364746094
1776018951781869000,1.744869140625,-22.924530029296875,23.20938491821289,4.319862365722656
1776018951791928800,1.7549287109375,-22.6265869140625,22.92783546447754,4.208103179931641
1776018951801988900,1.76498876953125,-22.668243408203125,22.876880645751953,4.070552825927734
1776018951812049000,1.775048828125,-22.66595458984375,22.854759216308594,4.051216125488281
1776018951822110000,1.78510986328125,-22.6715087890625,22.84446907043457,3.932964324951172
1776018951832169700,1.795169677734375,-22.907958984375,22.737794876098633,3.7469100952148438
1776018951842229800,1.805229736328125,-22.67840576171875,22.693538665771484,3.742992401123047
1776018951852289800,1.815289794921875,-22.318695068359375,22.5931339263916,3.4772720336914062
1776018951862350000,1.82535009765625,-22.42962646484375,22.525390625,3.090496063232422
1776018951872409900,1.835409912109375,-22.4351806640625,22.377399444580078,2.7722930908203125
1776018951882470000,1.845469970703125,-22.532196044921875,22.392776489257812,1.9810295104980469
1776018951892530000,1.855530029296875,-22.61529541015625,22.00265884399414,0.9653587341308594
1776018951902589700,1.865589599609375,-23.13568115234375,21.726369857788086,-0.21100616455078125
1776018951912650000,1.87564990234375,-23.3018798828125,21.238189697265625,-1.393798828125
1776018951922710000,1.8857099609375,-23.7862548828125,20.83644676208496,-2.734495162963867
1776018951932769800,1.895769775390625,-23.695281982421875,20.266145706176758,-4.301897048950195
1776018951942829800,1.905829833984375,-23.64556884765625,19.99185562133789,-5.515693664550781
1776018951952889900,1.915889892578125,-23.380584716796875,19.93671417236328,-6.779634475708008
1776018951962950000,1.925949951171875,-23.018157958984375,20.10652732849121,-7.699649810791016
1776018951973010000,1.936010009765625,-22.46014404296875,20.201642990112305,-8.38656234741211
1776018951983070000,1.946070068359375,-22.09515380859375,19.980430603027344,-9.029609680175781
1776018951993131000,1.956131103515625,-21.621429443359375,20.179607391357422,-9.489587783813477
1776018952003191000,1.96619091796875,-21.752410888671875,19.99563980102539,-9.508089065551758
1776018952013250800,1.976250732421875,-22.0450439453125,20.03591537475586,-9.65158462524414
1776018952023310800,1.986310791015625,-21.259521484375,20.542985916137695,-9.73758316040039
1776018952033371000,1.996370849609375,-20.770843505859375,20.820762634277344,-10.196613311767578
1776018952043431000,2.006430908203125,-20.1148681640625,20.999231338500977,-10.525449752807617
1776018952053491000,2.016490966796875,-19.406280517578125,21.090206146240234,-11.20307731628418
1776018952063551000,2.026551025390625,-18.454254150390625,21.46817398071289,-11.614410400390625
1776018952073610800,2.03661083984375,-17.95458984375,21.470504760742188,-12.080648422241211
1776018952083670800,2.0466708984375,-17.5438232421875,21.542156219482422,-12.227907180786133
1776018952093730800,2.056730712890625,-16.982421875,21.690811157226562,-12.288244247436523
1776018952103790800,2.066790771484375,-16.80609130859375,21.811614990234375,-12.635843276977539
1776018952113851000,2.076850830078125,-16.621826171875,21.46445083618164,-13.166250228881836
1776018952123911000,2.086910888671875,-16.721649169921875,21.388164520263672,-13.449020385742188
1776018952133971000,2.096970947265625,-16.681427001953125,21.136322021484375,-13.776494979858398
1776018952144031700,2.10703173828125,-16.525054931640625,21.05056381225586,-13.994718551635742
1776018952154091800,2.117091796875,-16.42913818359375,20.932518005371094,-14.35420036315918
1776018952164151800,2.12715185546875,-16.1353759765625,20.898256301879883,-14.896163940429688
1776018952174212000,2.137212158203125,-15.70257568359375,20.714384078979492,-15.168928146362305
1776018952184272000,2.14727197265625,-15.1910400390625,20.721817016601562,-15.93642807006836
1776018952194332000,2.157331787109375,-15.189453125,20.182313919067383,-16.340295791625977
1776018952204392000,2.167391845703125,-14.856353759765625,19.991073608398438,-17.291196823120117
1776018952214451700,2.17745166015625,-14.37786865234375,19.442214965820312,-17.833662033081055
1776018952224511700,2.18751171875,-13.986419677734375,19.11700439453125,-18.464143753051758
1776018952234572000,2.197572021484375,-13.488311767578125,19.02493667602539,-18.96822738647461
1776018952244631800,2.2076318359375,-12.383056640625,19.180604934692383,-19.47504425048828
1776018952254691800,2.21769189453125,-11.87841796875,19.510591506958008,-19.775081634521484
1776018952264751900,2.227751953125,-11.184295654296875,19.69247055053711,-19.916091918945312
1776018952274812000,2.23781201171875,-10.13690185546875,19.81070327758789,-20.162548065185547
1776018952284872000,2.247871826171875,-9.583343505859375,19.724407196044922,-20.052032470703125
1776018952294932500,2.257932373046875,-9.559051513671875,20.20530128479004,-19.99446678161621
1776018952304993300,2.2679931640625,-9.815216064453125,20.155723571777344,-19.783035278320312
1776018952315053300,2.27805322265625,-9.9998779296875,20.19249153137207,-19.548564910888672
1776018952325113300,2.28811328125,-10.31903076171875,19.977737426757812,-19.207056045532227
1776018952335173400,2.29817333984375,-10.623321533203125,20.115997314453125,-19.007869720458984
1776018952345233200,2.308233154296875,-11.03619384765625,19.8233699798584,-18.87314224243164
1776018952355293200,2.318293212890625,-10.91925048828125,19.81209945678711,-19.106769561767578
1776018952365353500,2.328353515625,-10.99639892578125,19.858253479003906,-19.108497619628906
1776018952375413200,2.338413330078125,-10.690826416015625,19.969457626342773,-19.19282341003418
1776018952385473300,2.348473388671875,-9.95989990234375,20.078567504882812,-19.52883529663086
1776018952395533300,2.358533203125,-9.813751220703125,19.957529067993164,-19.552749633789062
1776018952405593300,2.36859326171875,-9.33111572265625,19.813385009765625,-19.538890838623047
1776018952415653000,2.378653076171875,-9.356414794921875,19.7803955078125,-19.698883056640625
1776018952425713400,2.38871337890625,-9.35772705078125,19.731128692626953,-19.943866729736328
1776018952435773400,2.3987734375,-9.680389404296875,19.855009078979492,-19.826927185058594
1776018952445834500,2.40883447265625,-9.224945068359375,19.73097038269043,-19.879737854003906
1776018952455894300,2.418894287109375,-9.061309814453125,19.80182456970215,-19.74933624267578
1776018952465954300,2.428954345703125,-9.380767822265625,19.932100296020508,-19.71695899963379
1776018952476014300,2.439014404296875,-9.513702392578125,20.135866165161133,-19.746267318725586
1776018952486074000,2.44907421875,-8.8426513671875,20.143875122070312,-19.740951538085938
1776018952496134400,2.459134521484375,-8.690887451171875,20.28656768798828,-19.689006805419922
1776018952506194400,2.4691943359375,-8.601531982421875,20.23809242248535,-19.719242095947266
1776018952516254200,2.479254150390625,-8.734161376953125,20.256641387939453,-19.740737915039062
1776018952526314200,2.489314208984375,-8.88201904296875,20.265106201171875,-19.554363250732422
1776018952536374300,2.499374267578125,-8.928619384765625,20.482736587524414,-19.619102478027344
1776018952546434300,2.509434326171875,-8.572113037109375,20.190244674682617,-19.582490921020508
1776018952556494300,2.519494384765625,-8.988433837890625,20.296348571777344,-19.535512924194336
1776018952566554400,2.529554443359375,-9.124420166015625,20.307910919189453,-19.317466735839844
1776018952576614400,2.539614501953125,-9.14532470703125,20.274011611938477,-19.27129364013672
1776018952586674200,2.549674072265625,-9.414154052734375,20.130468368530273,-19.254318237304688
1776018952596735200,2.5597353515625,-9.148529052734375,20.1282901763916,-19.382564544677734
1776018952606795300,2.569795166015625,-9.204315185546875,20.139753341674805,-19.432872772216797
1776018952616855300,2.579855224609375,-9.45556640625,19.931726455688477,-19.27315902709961
1776018952626915300,2.589915283203125,-9.3660888671875,20.168289184570312,-19.213531494140625
1776018952636975400,2.599975341796875,-9.6495361328125,20.158037185668945,-18.96965217590332
1776018952647035400,2.610035400390625,-9.95343017578125,20.180389404296875,-19.012086868286133
1776018952657095200,2.62009521484375,-9.55072021484375,20.116201400756836,-18.89459228515625
1776018952667155200,2.6301552734375,-9.5660400390625,20.123912811279297,-18.875778198242188
1776018952677215200,2.64021533203125,-9.643768310546875,20.183513641357422,-18.844104766845703
1776018952687275500,2.650275634765625,-9.610015869140625,19.967388153076172,-18.600910186767578
1776018952697335300,2.660335205078125,-9.623016357421875,20.186046600341797,-18.69652557373047
1776018952707395300,2.670395263671875,-10.142333984375,20.071866989135742,-18.606163024902344
1776018952717455400,2.680455322265625,-10.467803955078125,20.203861236572266,-18.608936309814453
1776018952727515100,2.69051513671875,-10.18963623046875,20.188289642333984,-18.53216552734375
1776018952737576200,2.700576171875,-10.6075439453125,20.06548500061035,-18.418678283691406
1776018952747636200,2.71063623046875,-10.4814453125,19.97716522216797,-18.428558349609375
1776018952757696500,2.720696533203125,-10.47052001953125,19.594890594482422,-18.095909118652344
1776018952767756300,2.73075634765625,-10.298675537109375,19.665943145751953,-18.284395217895508
1776018952777816300,2.74081640625,-10.1678466796875,19.766420364379883,-18.255220413208008
1776018952787876400,2.75087646484375,-10.407470703125,19.747587203979492,-18.251972198486328
1776018952797936000,2.76093603515625,-10.43743896484375,19.697383880615234,-18.150279998779297
1776018952807996200,2.77099609375,-11.030364990234375,19.531078338623047,-18.322237014770508
1776018952818056400,2.781056396484375,-10.783966064453125,19.397850036621094,-18.434141159057617
1776018952828116200,2.7911162109375,-11.078460693359375,19.08181381225586,-18.18169403076172
1776018952838176300,2.80117626953125,-10.445587158203125,19.13161277770996,-18.231121063232422
1776018952848236300,2.811236328125,-10.98675537109375,19.193805694580078,-18.0474796295166
1776018952858296300,2.82129638671875,-11.006622314453125,19.01436424255371,-18.203128814697266
1776018952868356400,2.8313564453125,-11.162445068359375,19.275196075439453,-18.009809494018555
1776018952878417200,2.841417236328125,-11.065216064453125,18.98033905029297,-17.856599807739258
1776018952888477400,2.8514775390625,-11.275848388671875,18.762514114379883,-17.733613967895508
1776018952898537500,2.861537353515625,-11.563507080078125,18.908370971679688,-17.615365982055664
1776018952908597200,2.87159716796875,-11.752105712890625,18.64885139465332,-17.694833755493164
1776018952918657300,2.8816572265625,-11.855712890625,18.514352798461914,-17.397294998168945
1776018952928717300,2.89171728515625,-12.003814697265625,18.28677749633789,-17.277484893798828
1776018952938777000,2.901777099609375,-12.165557861328125,18.539892196655273,-17.12041664123535
1776018952948837400,2.91183740234375,-12.03289794921875,18.604257583618164,-16.974884033203125
1776018952958897400,2.9218974609375,-12.308502197265625,18.15549087524414,-16.708932876586914
1776018952968957200,2.931957275390625,-12.413238525390625,18.05449104309082,-16.55074691772461
1776018952979017200,2.942017333984375,-12.912261962890625,17.996065139770508,-16.493030548095703
1776018952989077200,2.9520771484375,-13.34521484375,17.80270767211914,-16.38646125793457
1776018952999137300,2.96213720703125,-13.533416748046875,17.54019546508789,-16.161191940307617
1776018953009197300,2.972197265625,-13.408294677734375,17.455875396728516,-16.113779067993164
1776018953019258400,2.98225830078125,-13.89013671875,17.431156158447266,-16.066686630249023
1776018953029318400,2.992318359375,-14.144012451171875,17.218290328979492,-15.895023345947266
1776018953039378400,3.00237841796875,-14.162872314453125,17.058971405029297,-15.743032455444336
1776018953049438200,3.012438232421875,-14.133331298828125,16.604833602905273,-15.789022445678711
1776018953059498200,3.022498291015625,-14.119415283203125,16.704566955566406,-15.880413055419922
1776018953069558300,3.032558349609375,-14.556854248046875,16.342552185058594,-16.011249542236328
1776018953079618300,3.042618408203125,-14.564483642578125,15.945049285888672,-16.056400299072266
1776018953089678300,3.05267822265625,-14.6302490234375,15.446146011352539,-16.010862350463867
1776018953099738400,3.06273828125,-14.271026611328125,15.143905639648438,-16.077096939086914
1776018953109798100,3.072798095703125,-14.332305908203125,15.004724502563477,-15.901468276977539
1776018953119858200,3.082858154296875,-15.087615966796875,14.662040710449219,-15.906902313232422
1776018953129918500,3.09291845703125,-15.2406005859375,14.51733112335205,-15.903100967407227
1776018953139979300,3.102979248046875,-15.556427001953125,14.265302658081055,-15.720191955566406
1776018953150039300,3.113039306640625,-15.975830078125,13.92259407043457,-15.432336807250977
1776018953160099300,3.123099365234375,-16.472869873046875,13.820591926574707,-15.71597671508789
1776018953170159400,3.133159423828125,-16.968902587890625,13.585291862487793,-15.281587600708008
1776018953180219400,3.143219482421875,-17.106689453125,13.381622314453125,-15.156244277954102
1776018953190279200,3.153279052734375,-17.0286865234375,13.271860122680664,-15.079984664916992
1776018953200339200,3.163339111328125,-16.978057861328125,12.9705810546875,-14.97004508972168
1776018953210399500,3.1733994140625,-17.07623291015625,12.883109092712402,-14.790233612060547
1776018953220459300,3.183459228515625,-17.14056396484375,12.773713111877441,-14.708110809326172
1776018953230519300,3.193519287109375,-17.271087646484375,12.627315521240234,-14.322227478027344
1776018953240579300,3.203579345703125,-17.609954833984375,12.264501571655273,-14.220861434936523
1776018953250639000,3.21363916015625,-17.314971923828125,12.127553939819336,-14.236320495605469
1776018953260699400,3.223699462890625,-17.778350830078125,12.111959457397461,-14.007051467895508
1776018953270759400,3.233759521484375,-17.5380859375,12.018829345703125,-14.15652847290039
1776018953280820500,3.243820556640625,-17.283111572265625,12.32971477508545,-14.425216674804688
1776018953290880300,3.25388037109375,-17.27886962890625,12.374018669128418,-14.298454284667969
1776018953300940000,3.26393994140625,-17.127655029296875,12.739880561828613,-14.231855392456055
1776018953311000000,3.274,-17.160797119140625,12.565934181213379,-14.47772216796875
1776018953321059800,3.284059814453125,-17.367950439453125,12.564621925354004,-14.818361282348633
1776018953331120000,3.2941201171875,-16.860565185546875,12.736491203308105,-14.956016540527344
1776018953341180200,3.30418017578125,-16.764068603515625,12.711255073547363,-14.947284698486328
1776018953351240000,3.314239990234375,-16.67474365234375,13.085553169250488,-14.895240783691406
1776018953361300000,3.324300048828125,-16.618927001953125,12.945053100585938,-14.946643829345703
1776018953371360000,3.334360107421875,-16.09466552734375,12.948566436767578,-15.217876434326172
1776018953381419800,3.344419677734375,-15.7220458984375,13.135454177856445,-15.199884414672852
1776018953391480000,3.35447998046875,-15.688690185546875,13.216468811035156,-15.389810562133789
1776018953401541000,3.364541015625,-15.696624755859375,13.58476734161377,-15.478862762451172
1776018953411601200,3.37460107421875,-15.088836669921875,13.6856689453125,-15.756181716918945
1776018953421661000,3.384660888671875,-14.78131103515625,13.827400207519531,-16.077880859375
1776018953431721000,3.394720947265625,-14.50946044921875,14.120290756225586,-15.769563674926758
1776018953441781000,3.404781005859375,-14.263641357421875,14.00764274597168,-15.934694290161133
1776018953451841000,3.414841064453125,-14.196044921875,13.938718795776367,-16.149002075195312
1776018953461901000,3.424901123046875,-14.0986328125,13.720878601074219,-15.943044662475586
1776018953471961000,3.434961181640625,-14.15142822265625,13.76854133605957,-16.0655460357666
1776018953482021000,3.445021240234375,-14.16497802734375,13.743168830871582,-16.19101333618164
1776018953492081000,3.455080810546875,-14.28631591796875,13.584587097167969,-15.996843338012695
1776018953502141000,3.465140869140625,-14.230560302734375,13.5955171585083,-16.118452072143555
1776018953512201000,3.475200927734375,-14.217529296875,13.901918411254883,-15.913795471191406
1776018953522262000,3.485261962890625,-14.241851806640625,14.05921459197998,-15.814537048339844
1776018953532322000,3.495322021484375,-14.320465087890625,13.76574993133545,-15.84133529663086
1776018953542382000,3.505382080078125,-14.1392822265625,13.766968727111816,-16.02713394165039
1776018953552442000,3.515442138671875,-14.038848876953125,13.845921516418457,-16.36130714416504
1776018953562502000,3.525501953125,-13.888702392578125,13.840447425842285,-16.378007888793945
1776018953572562000,3.53556201171875,-13.739501953125,13.714184761047363,-16.35645294189453
1776018953582622000,3.5456220703125,-14.156036376953125,13.678380012512207,-16.167999267578125
1776018953592682000,3.555681884765625,-14.100006103515625,13.698525428771973,-16.23862075805664
1776018953602742000,3.565741943359375,-14.24432373046875,13.61670207977295,-16.441978454589844
1776018953612802000,3.575802001953125,-14.229339599609375,13.530657768249512,-16.5468692779541
1776018953622862000,3.585862060546875,-13.97265625,13.650347709655762,-16.488161087036133
1776018953632921900,3.595921875,-14.429290771484375,13.713329315185547,-16.634122848510742
1776018953642983000,3.60598291015625,-14.38421630859375,13.998968124389648,-16.377647399902344
1776018953653043000,3.61604296875,-14.118438720703125,13.695115089416504,-16.349790573120117
1776018953663103000,3.62610302734375,-14.462005615234375,14.106034278869629,-16.242416381835938
1776018953673163000,3.6361630859375,-14.548431396484375,14.071023941040039,-16.136537551879883
1776018953683223000,3.64622314453125,-14.3240966796875,14.244284629821777,-16.16207504272461
1776018953693283000,3.656282958984375,-13.95294189453125,14.018829345703125,-16.10646629333496
1776018953703342800,3.6663427734375,-14.417236328125,14.021719932556152,-16.232624053955078
1776018953713403000,3.67640283203125,-13.90576171875,14.458636283874512,-16.239765167236328
1776018953723463200,3.686463134765625,-13.728607177734375,14.653657913208008,-16.05248260498047
1776018953733523000,3.69652294921875,-13.583892822265625,14.78774642944336,-16.145038604736328
1776018953743583000,3.7065830078125,-13.820404052734375,15.033651351928711,-16.18781089782715
1776018953753643000,3.71664306640625,-13.7301025390625,15.01376724243164,-16.118680953979492
1776018953763704000,3.7267041015625,-13.52978515625,14.844073295593262,-16.299522399902344
1776018953773763800,3.736763916015625,-13.5709228515625,14.894097328186035,-16.271577835083008
1776018953783824000,3.746823974609375,-13.136566162109375,14.828429222106934,-16.4561824798584
1776018953793884200,3.75688427734375,-13.53265380859375,14.84698486328125,-16.25708770751953
1776018953803944200,3.766944091796875,-13.200103759765625,14.700228691101074,-16.20759391784668
1776018953814004000,3.77700390625,-13.145172119140625,14.752686500549316,-16.27804183959961
1776018953824064000,3.78706396484375,-13.249359130859375,14.74304485321045,-16.284915924072266
1776018953834124000,3.7971240234375,-13.538116455078125,14.863149642944336,-16.37596893310547
1776018953844183800,3.807183837890625,-13.57373046875,14.581270217895508,-16.56938934326172
1776018953854244000,3.817244140625,-13.663909912109375,14.839004516601562,-16.120512008666992
1776018953864304000,3.82730419921875,-13.61712646484375,14.743236541748047,-16.248727798461914
1776018953874364000,3.837364013671875,-13.7373046875,15.037816047668457,-16.372840881347656
1776018953884425000,3.847425048828125,-13.71044921875,14.976975440979004,-16.228410720825195
1776018953894485000,3.857485107421875,-13.76629638671875,15.056615829467773,-16.297021865844727
1776018953904545000,3.867544921875,-13.980560302734375,14.810956001281738,-16.01622772216797
1776018953914604800,3.877604736328125,-14.11895751953125,14.932188987731934,-15.972444534301758
1776018953924665000,3.8876650390625,-13.97906494140625,15.260769844055176,-16.028207778930664
1776018953934725000,3.89772509765625,-13.90484619140625,15.119429588317871,-15.981103897094727
1776018953944785200,3.90778515625,-13.9876708984375,15.285591125488281,-16.165647506713867
1776018953954845000,3.917844970703125,-13.87335205078125,15.168749809265137,-16.02370262145996
1776018953964905000,3.927905029296875,-13.55029296875,15.305959701538086,-16.105749130249023
1776018953974965000,3.937965087890625,-13.340301513671875,15.514579772949219,-16.454450607299805
1776018953985025000,3.94802490234375,-13.54296875,15.50289249420166,-16.178316116333008
1776018953995086000,3.958086181640625,-13.60162353515625,15.625678062438965,-16.214157104492188
1776018954005146000,3.96814599609375,-13.17755126953125,15.885144233703613,-16.253732681274414
1776018954015206100,3.9782060546875,-13.3306884765625,15.877666473388672,-16.2879638671875
1776018954025266000,3.988265869140625,-13.30841064453125,15.6515531539917,-16.27459716796875
1776018954035326000,3.998325927734375,-13.521240234375,15.736814498901367,-16.376863479614258
1776018954045386000,4.008385986328125,-13.55609130859375,15.884659767150879,-16.255842208862305
1776018954055446000,4.018446044921875,-13.362823486328125,15.67949104309082,-16.323484420776367
1776018954065506000,4.028506103515625,-13.5501708984375,15.575382232666016,-16.247047424316406
1776018954075566000,4.038566162109375,-13.433319091796875,15.805497169494629,-16.345739364624023
1776018954085625900,4.0486259765625,-13.653350830078125,15.842652320861816,-16.16516876220703
1776018954095686000,4.058685791015625,-13.360443115234375,16.001880645751953,-16.283170700073242
1776018954105746000,4.068745849609375,-13.647186279296875,15.870687484741211,-16.295949935913086
1776018954115807000,4.078806884765625,-13.8211669921875,16.115734100341797,-16.44215965270996
1776018954125867000,4.088866943359375,-13.682525634765625,16.050533294677734,-16.333765029907227
1776018954135927000,4.098927001953125,-13.617706298828125,16.241039276123047,-16.157230377197266
1776018954145987000,4.108987060546875,-13.633544921875,16.19123077392578,-16.170724868774414
1776018954156047000,4.119047119140625,-13.3248291015625,16.069107055664062,-16.137746810913086
1776018954166107000,4.12910693359375,-13.554412841796875,16.131010055541992,-16.343284606933594
1776018954176167000,4.1391669921875,-13.228790283203125,15.881458282470703,-16.291215896606445
1776018954186227200,4.149227294921875,-13.260894775390625,15.775907516479492,-16.15885353088379
1776018954196287000,4.159286865234375,-13.089599609375,15.823773384094238,-16.041112899780273
1776018954206347000,4.169346923828125,-12.775909423828125,15.56898307800293,-16.33283233642578
1776018954216407000,4.179406982421875,-12.728729248046875,15.792945861816406,-16.418621063232422
1776018954226468000,4.189468017578125,-12.451141357421875,15.94349193572998,-16.656400680541992
1776018954236527900,4.19952783203125,-12.3944091796875,15.947172164916992,-16.498136520385742
1776018954246588000,4.209587890625,-12.449951171875,15.836963653564453,-16.637420654296875
1776018954256648000,4.21964794921875,-12.26702880859375,15.977447509765625,-16.621620178222656
1776018954266708000,4.2297080078125,-12.115020751953125,15.999212265014648,-16.488140106201172
1776018954276768000,4.23976806640625,-12.031829833984375,15.866904258728027,-16.620548248291016
1776018954286828000,4.249828125,-12.28424072265625,15.867443084716797,-16.609590530395508
1776018954296888600,4.259888671875,-12.098785400390625,15.849465370178223,-16.614376068115234
1776018954306948400,4.2699482421875,-11.9678955078125,15.779966354370117,-16.742822647094727
1776018954317008400,4.28000830078125,-11.92724609375,15.784899711608887,-16.609329223632812
1776018954327068700,4.290068603515625,-11.935577392578125,15.889034271240234,-16.689130783081055
1776018954337128400,4.30012841796875,-11.55389404296875,16.078001022338867,-16.739351272583008
1776018954347189500,4.310189453125,-12.00640869140625,16.282665252685547,-16.542081832885742
1776018954357249500,4.32024951171875,-12.124603271484375,16.349864959716797,-16.358306884765625
1776018954367309600,4.3303095703125,-11.86138916015625,16.382984161376953,-16.180992126464844
1776018954377369300,4.340369384765625,-12.100830078125,16.26367950439453,-16.521068572998047
1776018954387429400,4.350429443359375,-11.861846923828125,16.12259292602539,-16.181011199951172
1776018954397489700,4.36048974609375,-11.9595947265625,16.338735580444336,-16.248708724975586
1776018954407549700,4.3705498046875,-12.23846435546875,16.450618743896484,-15.851160049438477
1776018954417609500,4.380609375,-12.368804931640625,16.51940155029297,-15.899713516235352
1776018954427669500,4.39066943359375,-11.89813232421875,16.57410430908203,-16.08963966369629
1776018954437729500,4.4007294921875,-12.264495849609375,16.70180892944336,-16.39975357055664
1776018954447790600,4.41079052734375,-12.56829833984375,16.426454544067383,-16.580896377563477
1776018954457850400,4.420850341796875,-12.560211181640625,16.33576011657715,-16.622495651245117
1776018954467910700,4.43091064453125,-12.387969970703125,16.168357849121094,-16.887422561645508
1776018954477970700,4.440970703125,-12.399383544921875,16.31032371520996,-16.709299087524414
1776018954488030500,4.451030517578125,-12.616668701171875,16.285417556762695,-16.82539939880371
1776018954498090500,4.461090576171875,-12.836578369140625,16.185348510742188,-16.694015502929688
1776018954508150500,4.471150634765625,-12.73455810546875,16.038700103759766,-16.58707618713379
1776018954518210300,4.481210205078125,-12.938507080078125,16.22028350830078,-16.71514129638672
1776018954528270600,4.4912705078125,-12.63006591796875,16.397125244140625,-16.825632095336914
1776018954538330600,4.50133056640625,-12.870269775390625,16.22658348083496,-16.607126235961914
1776018954548390400,4.511390380859375,-12.93951416015625,16.159934997558594,-16.44416046142578
1776018954558451500,4.521451416015625,-12.496337890625,16.0021915435791,-16.469310760498047
1776018954568511500,4.531511474609375,-12.676544189453125,16.041349411010742,-16.444833755493164
1776018954578571500,4.541571533203125,-12.277862548828125,16.22042465209961,-16.498037338256836
1776018954588631300,4.55163134765625,-12.543243408203125,16.27118492126465,-16.366172790527344
1776018954598691600,4.561691650390625,-12.659637451171875,16.29800033569336,-16.39556884765625
1776018954608751600,4.571751708984375,-12.831512451171875,16.06289291381836,-16.457368850708008
1776018954618811600,4.581811767578125,-12.852752685546875,15.959257125854492,-16.39063262939453
1776018954628871400,4.591871337890625,-12.708251953125,16.164663314819336,-16.390316009521484
1776018954638931500,4.601931396484375,-12.7418212890625,15.90063190460205,-16.556411743164062
1776018954648991500,4.611991455078125,-12.975433349609375,15.686274528503418,-16.323043823242188
1776018954659051500,4.622051513671875,-12.77850341796875,15.872415542602539,-16.450504302978516
1776018954669112300,4.6321123046875,-12.39306640625,16.1793212890625,-16.415674209594727
1776018954679172600,4.642172607421875,-12.345550537109375,15.883451461791992,-16.645465850830078
1776018954689232600,4.652232666015625,-12.577850341796875,16.09027671813965,-16.549909591674805
1776018954699292400,4.66229248046875,-12.689697265625,16.032611846923828,-16.379594802856445
1776018954709352400,4.6723525390625,-12.702850341796875,16.139911651611328,-16.37912940979004
1776018954719412500,4.68241259765625,-12.570037841796875,16.08792495727539,-16.367961883544922
1776018954729472500,4.692472412109375,-12.44342041015625,15.956709861755371,-16.46017837524414
1776018954739532500,4.702532470703125,-12.470794677734375,16.1032772064209,-16.48004913330078
1776018954749592600,4.712592529296875,-12.7554931640625,15.783868789672852,-16.35615348815918
1776018954759652600,4.722652587890625,-12.46258544921875,15.872879981994629,-16.346521377563477
1776018954769713400,4.73271337890625,-12.676055908203125,16.049453735351562,-16.380884170532227
1776018954779773400,4.7427734375,-12.581451416015625,16.207788467407227,-16.344816207885742
1776018954789833500,4.75283349609375,-12.234649658203125,15.902579307556152,-16.5113468170166
1776018954799893500,4.7628935546875,-12.412994384765625,16.12325096130371,-16.606281280517578
1776018954809953500,4.77295361328125,-12.011322021484375,16.09307289123535,-16.386577606201172
1776018954820013600,4.783013671875,-12.499542236328125,16.03316879272461,-16.534421920776367
1776018954830073600,4.793073486328125,-12.36224365234375,16.02570343017578,-16.61646270751953
1776018954840133400,4.80313330078125,-12.8756103515625,15.976377487182617,-16.54001808166504
1776018954850193400,4.813193359375,-12.889678955078125,15.85757827758789,-16.352054595947266
1776018954860253700,4.823253662109375,-12.61810302734375,15.68184757232666,-16.52137565612793
1776018954870313500,4.8333134765625,-12.5037841796875,15.854574203491211,-16.622879028320312
1776018954880374500,4.84337451171875,-12.632781982421875,15.960660934448242,-16.544944763183594
1776018954890434600,4.8534345703125,-12.82025146484375,15.896648406982422,-16.470104217529297
1776018954900494600,4.86349462890625,-12.3602294921875,15.717299461364746,-16.42083740234375
1776018954910554400,4.873554443359375,-12.6148681640625,15.545316696166992,-16.635974884033203
1776018954920614400,4.883614501953125,-12.843353271484375,15.514248847961426,-16.78940200805664
1776018954930674400,4.89367431640625,-12.566253662109375,15.76601505279541,-16.9893741607666
1776018954940734500,4.903734375,-12.72674560546875,15.568132400512695,-17.15022087097168
1776018954950794500,4.91379443359375,-12.9661865234375,15.616530418395996,-17.048009872436523
1776018954960854500,4.9238544921875,-12.756134033203125,15.730186462402344,-17.167388916015625
1776018954970914600,4.93391455078125,-12.29937744140625,15.772773742675781,-17.330490112304688
1776018954980975400,4.943975341796875,-12.41473388671875,15.565056800842285,-17.24430274963379
1776018954991035400,4.954035400390625,-12.161468505859375,15.612696647644043,-17.21759033203125
1776018955001095400,4.964095458984375,-12.647918701171875,15.74626636505127,-16.99201774597168
1776018955011155700,4.97415576171875,-12.24468994140625,15.524272918701172,-17.05440902709961
1776018955021215500,4.984215576171875,-12.4512939453125,15.488578796386719,-17.07695960998535
1776018955031275500,4.994275634765625,-12.3134765625,15.549602508544922,-16.732744216918945
1776018955041335600,5.00433544921875,-12.37652587890625,15.756406784057617,-16.713666915893555
1776018955051395300,5.014395263671875,-12.499664306640625,15.434078216552734,-16.783470153808594
1776018955061455600,5.02445556640625,-12.772857666015625,15.510381698608398,-16.74698829650879
1776018955071515600,5.034515625,-12.458465576171875,15.543996810913086,-16.640687942504883
1776018955081576700,5.04457666015625,-12.366973876953125,15.569162368774414,-16.6748046875
1776018955091636500,5.054636474609375,-12.3568115234375,15.584567070007324,-16.58954620361328
1776018955101696500,5.064696533203125,-12.4578857421875,15.583122253417969,-16.59511375427246
1776018955111756500,5.074756591796875,-12.4932861328125,15.807940483093262,-16.605802536010742
1776018955121816300,5.08481640625,-12.365234375,15.740890502929688,-16.721399307250977
1776018955131876400,5.09487646484375,-12.447540283203125,15.587889671325684,-16.506778717041016
1776018955141936600,5.1049365234375,-12.526275634765625,15.499239921569824,-16.81529998779297
1776018955151996700,5.11499658203125,-12.26300048828125,15.636384010314941,-16.759769439697266
1776018955162056400,5.125056396484375,-11.99896240234375,15.727060317993164,-16.68460464477539
1776018955172116500,5.135116455078125,-12.41796875,15.749211311340332,-16.722803115844727
1776018955182177500,5.145177490234375,-12.0489501953125,15.891986846923828,-16.812618255615234
1776018955192237600,5.155237548828125,-12.111114501953125,15.923714637756348,-16.815584182739258
1776018955202297300,5.16529736328125,-12.55902099609375,15.84050464630127,-16.871479034423828
1776018955212357600,5.175357666015625,-12.199310302734375,15.859045028686523,-17.070459365844727
1776018955222417700,5.185417724609375,-12.3306884765625,15.784330368041992,-16.8717098236084
1776018955232477400,5.1954775390625,-12.47601318359375,15.765193939208984,-16.95429039001465
1776018955242537500,5.205537353515625,-12.09814453125,15.941608428955078,-16.863853454589844
1776018955252597500,5.215597412109375,-12.425872802734375,15.989895820617676,-16.918302536010742
1776018955262657300,5.2256572265625,-12.50384521484375,15.912370681762695,-17.034509658813477
1776018955272717600,5.235717529296875,-12.102508544921875,16.100635528564453,-16.96615219116211
1776018955282778600,5.245778564453125,-12.357757568359375,15.989167213439941,-17.072078704833984
1776018955292838700,5.255838623046875,-12.46728515625,16.02764320373535,-17.089923858642578
1776018955302897400,5.2658974609375,-12.363616943359375,16.23828125,-16.82926368713379
1776018955312957400,5.27595751953125,-12.2750244140625,15.933940887451172,-16.851726531982422
1776018955323017500,5.286017578125,-12.15570068359375,16.149892807006836,-16.86966896057129
1776018955333077500,5.296077392578125,-12.159271240234375,15.894878387451172,-16.705577850341797
1776018955343137500,5.306137451171875,-12.4342041015625,15.870198249816895,-16.709056854248047
1776018955353197600,5.316197509765625,-12.4169921875,15.902547836303711,-16.723190307617188
1776018955363257300,5.32625732421875,-12.304962158203125,15.691207885742188,-16.737102508544922
1776018955373317400,5.3363173828125,-12.80975341796875,15.892802238464355,-16.811721801757812
1776018955383378400,5.34637841796875,-12.60345458984375,16.1980037689209,-16.81214141845703
1776018955393438500,5.3564384765625,-12.573486328125,15.703885078430176,-16.835895538330078
1776018955403498500,5.36649853515625,-12.365386962890625,15.772502899169922,-16.82359504699707
1776018955413558500,5.37655859375,-12.421478271484375,15.498642921447754,-16.922868728637695
1776018955423618600,5.38661865234375,-12.480224609375,15.539772033691406,-16.8242244720459
1776018955433678300,5.39667822265625,-12.21234130859375,15.867931365966797,-16.86829376220703
1776018955443738400,5.40673828125,-12.16973876953125,15.576868057250977,-17.06949806213379
1776018955453798700,5.416798583984375,-12.112548828125,15.637792587280273,-17.071735382080078
1776018955463858700,5.426858642578125,-12.478271484375,15.849851608276367,-16.932493209838867
1776018955473919500,5.43691943359375,-12.618927001953125,16.06138038635254,-16.853763580322266
1776018955483979500,5.4469794921875,-12.2628173828125,15.841621398925781,-16.834630966186523
1776018955494039600,5.45703955078125,-12.64178466796875,15.569828033447266,-16.72824478149414
1776018955504099600,5.467099609375,-12.406097412109375,15.871508598327637,-16.961172103881836
1776018955514159400,5.477159423828125,-12.100738525390625,15.649811744689941,-16.81402587890625
1776018955524219400,5.487219482421875,-12.2757568359375,15.913037300109863,-16.848581314086914
1776018955534279700,5.49727978515625,-12.52618408203125,15.812828063964844,-16.857585906982422
1776018955544339500,5.50733935546875,-12.425567626953125,15.851932525634766,-16.863380432128906
1776018955554399500,5.5173994140625,-12.544647216796875,16.143821716308594,-16.481637954711914
1776018955564459500,5.52745947265625,-12.300018310546875,15.970096588134766,-16.639251708984375
1776018955574520600,5.5375205078125,-12.3740234375,15.868562698364258,-16.540369033813477
1776018955584580400,5.547580322265625,-12.510467529296875,15.797016143798828,-16.599750518798828
1776018955594640400,5.557640380859375,-12.64404296875,15.833601951599121,-16.610790252685547
1776018955604700700,5.56770068359375,-12.935943603515625,15.895384788513184,-16.623483657836914
1776018955614760400,5.577760498046875,-12.54217529296875,15.834003448486328,-16.667146682739258
1776018955624820500,5.587820556640625,-12.61492919921875,16.030879974365234,-16.664148330688477
1776018955634880500,5.597880615234375,-12.382080078125,16.070003509521484,-16.67943000793457
1776018955644940500,5.6079404296875,-12.50897216796875,15.860187530517578,-16.628795623779297
1776018955655000600,5.61800048828125,-12.63818359375,16.002002716064453,-16.738739013671875
1776018955665060600,5.628060546875,-12.647003173828125,15.895971298217773,-16.56795310974121
1776018955675121700,5.63812158203125,-12.6744384765625,15.982070922851562,-16.435302734375
1776018955685181700,5.648181640625,-12.2041015625,15.753793716430664,-16.55735969543457
1776018955695241500,5.658241455078125,-12.4263916015625,15.874603271484375,-16.78402328491211
1776018955705301500,5.668301513671875,-12.63592529296875,15.840095520019531,-16.59347152709961
1776018955715361500,5.678361572265625,-12.588592529296875,15.783008575439453,-16.56232452392578
1776018955725421300,5.68842138671875,-12.661895751953125,15.8115816116333,-16.696624755859375
1776018955735481600,5.698481689453125,-12.744476318359375,15.720499038696289,-16.429536819458008
1776018955745541600,5.708541748046875,-12.7728271484375,15.914205551147461,-16.416059494018555
1776018955755601400,5.718601318359375,-12.4500732421875,15.968659400939941,-16.638458251953125
1776018955765662500,5.728662353515625,-13.03607177734375,15.743078231811523,-16.677303314208984
1776018955775722500,5.738722412109375,-13.156829833984375,15.864075660705566,-16.46294403076172
1776018955785782500,5.748782470703125,-12.8619384765625,15.739368438720703,-16.432859420776367
1776018955795842300,5.75884228515625,-12.65460205078125,15.594902038574219,-16.326326370239258
1776018955805902600,5.768902587890625,-12.8575439453125,15.686457633972168,-16.412315368652344
1776018955815962600,5.778962646484375,-12.90313720703125,15.460367202758789,-16.362855911254883
1776018955826022400,5.7890224609375,-12.997772216796875,15.491992950439453,-16.34638786315918
1776018955836082400,5.79908251953125,-12.812469482421875,15.857248306274414,-16.31624412536621
1776018955846142500,5.809142578125,-12.95562744140625,15.7124605178833,-16.4024600982666
1776018955856203500,5.81920361328125,-13.225341796875,15.57703685760498,-16.358783721923828
1776018955866263300,5.82926318359375,-13.19952392578125,15.804909706115723,-16.3203182220459
1776018955876323600,5.839323486328125,-12.4913330078125,15.789116859436035,-16.32286262512207
1776018955886383600,5.849383544921875,-12.913909912109375,15.550168991088867,-16.292203903198242
1776018955896443600,5.859443603515625,-13.05084228515625,15.52687931060791,-16.51359748840332
1776018955906503400,5.86950341796875,-12.751129150390625,15.6569242477417,-16.43951416015625
1776018955916563500,5.8795634765625,-12.957061767578125,15.608147621154785,-16.32927894592285
1776018955926623500,5.88962353515625,-13.14031982421875,15.66640853881836,-16.497329711914062
1776018955936683500,5.89968359375,-13.219573974609375,15.7835054397583,-16.141889572143555
1776018955946744300,5.909744384765625,-13.293609619140625,15.749622344970703,-16.36981201171875
1776018955956804600,5.9198046875,-12.823028564453125,15.652149200439453,-16.52083969116211
1776018955966864600,5.92986474609375,-12.62261962890625,15.743020057678223,-16.406503677368164
1776018955976924400,5.93992431640625,-13.06689453125,15.95340633392334,-16.42644500732422
1776018955986984400,5.949984375,-12.776153564453125,15.869117736816406,-16.475086212158203
1776018955997044500,5.96004443359375,-12.7681884765625,15.879109382629395,-16.47024154663086
1776018956007104500,5.9701044921875,-12.812774658203125,15.927177429199219,-16.662939071655273
1776018956017164500,5.98016455078125,-12.62896728515625,15.974632263183594,-16.89737319946289
1776018956027224600,5.990224609375,-12.672698974609375,15.932347297668457,-16.772245407104492
1776018956037285600,6.00028564453125,-13.37554931640625,16.010215759277344,-16.799705505371094
1776018956047345400,6.010345458984375,-13.314788818359375,15.693513870239258,-16.615726470947266
1776018956057405400,6.020405517578125,-13.23187255859375,15.605789184570312,-16.681400299072266
1776018956067465500,6.030465576171875,-12.87713623046875,15.570724487304688,-16.62983512878418
1776018956077525500,6.040525390625,-13.005889892578125,15.501930236816406,-16.5853271484375
1776018956087585500,6.05058544921875,-12.69952392578125,15.611224174499512,-16.69452476501465
1776018956097645600,6.0606455078125,-12.95977783203125,15.725324630737305,-16.59665298461914
1776018956107705600,6.07070556640625,-12.759765625,15.740682601928711,-16.423091888427734
1776018956117765400,6.080765380859375,-12.527069091796875,15.954761505126953,-16.623332977294922
1776018956127826400,6.090826416015625,-12.56329345703125,15.796201705932617,-16.69406509399414
1776018956137886500,6.100886474609375,-12.70123291015625,15.775383949279785,-16.509620666503906
1776018956147946500,6.110946533203125,-12.754974365234375,15.555724143981934,-16.430130004882812
1776018956158006500,6.121006591796875,-12.79205322265625,15.394013404846191,-16.789609909057617
1776018956168066600,6.131066650390625,-13.40875244140625,15.740789413452148,-16.56948471069336
1776018956178126600,6.141126708984375,-13.358306884765625,15.78321361541748,-16.610307693481445
1776018956188186400,6.151186279296875,-12.899200439453125,15.844780921936035,-16.58391761779785
1776018956198246400,6.161246337890625,-12.8939208984375,15.73151969909668,-16.556211471557617
1776018956208306400,6.171306396484375,-13.0562744140625,15.614422798156738,-16.59284210205078
1776018956218367500,6.181367431640625,-13.444793701171875,15.828092575073242,-16.35485076904297
1776018956228427500,6.191427490234375,-13.4569091796875,15.672277450561523,-16.397947311401367
1776018956238487600,6.201487548828125,-13.3062744140625,15.750997543334961,-16.359224319458008
1776018956248547600,6.211547607421875,-13.156463623046875,15.644112586975098,-16.52139663696289
1776018956258607400,6.221607421875,-13.35272216796875,15.598322868347168,-16.63298225402832
1776018956268667400,6.23166748046875,-13.573699951171875,15.565510749816895,-16.597497940063477
1776018956278727400,6.2417275390625,-13.078216552734375,15.55439281463623,-16.54756736755371
1776018956288787700,6.25178759765625,-12.975677490234375,15.6431303024292,-16.50605583190918
1776018956298848300,6.26184814453125,-13.202667236328125,15.78299331665039,-16.605485916137695
1776018956308909000,6.271908935546875,-13.270660400390625,15.587898254394531,-16.541959762573242
1776018956318969300,6.28196923828125,-12.904296875,15.380574226379395,-16.64842987060547
1776018956329029400,6.292029296875,-13.17169189453125,15.714445114135742,-16.468807220458984
1776018956339089200,6.302089111328125,-13.092803955078125,15.73210620880127,-16.55356788635254
1776018956349149200,6.312149169921875,-13.030792236328125,15.55712890625,-16.666427612304688
1776018956359209200,6.322209228515625,-12.82977294921875,15.679865837097168,-16.589529037475586
1776018956369269200,6.332269287109375,-12.695465087890625,15.59130573272705,-16.490522384643555
1776018956379329300,6.342329345703125,-12.881805419921875,15.565773010253906,-16.650535583496094
1776018956389389300,6.352389404296875,-13.033233642578125,15.513358116149902,-16.51738166809082
1776018956399450400,6.362450439453125,-12.651763916015625,15.43465805053711,-16.436574935913086
1776018956409510100,6.37251025390625,-13.065673828125,15.331207275390625,-16.582687377929688
1776018956419570200,6.382570068359375,-12.93743896484375,15.490273475646973,-16.609142303466797
1776018956429630200,6.392630126953125,-12.8912353515625,15.785870552062988,-16.43630599975586
1776018956439690200,6.402690185546875,-12.969268798828125,15.740372657775879,-16.456039428710938
1776018956449750300,6.412750244140625,-13.023681640625,15.467655181884766,-16.584232330322266
1776018956459810300,6.422810302734375,-12.996307373046875,15.728738784790039,-16.854351043701172
1776018956469870300,6.432870361328125,-12.883514404296875,15.565164566040039,-16.869346618652344
1776018956479930000,6.44293017578125,-13.16827392578125,15.498404502868652,-16.970308303833008
1776018956489991200,6.4529912109375,-13.1373291015625,15.491094589233398,-16.72109031677246
1776018956500051200,6.46305126953125,-13.384918212890625,15.648758888244629,-16.96172332763672
1776018956510111200,6.473111328125,-13.724029541015625,15.806022644042969,-16.940961837768555
1776018956520171300,6.483171142578125,-13.35931396484375,15.590937614440918,-16.610824584960938
1776018956530231300,6.493231201171875,-13.507415771484375,15.540136337280273,-16.830799102783203
1776018956540291300,6.503291259765625,-13.20367431640625,15.592428207397461,-16.75535011291504
1776018956550351000,6.51335107421875,-12.736907958984375,15.628881454467773,-16.733461380004883
1776018956560411100,6.5234111328125,-12.866668701171875,15.471477508544922,-16.71953582763672
1776018956570472200,6.53347216796875,-12.58538818359375,15.519857406616211,-16.776330947875977
1776018956580532200,6.5435322265625,-12.9866943359375,15.589714050292969,-16.61275291442871
1776018956590592300,6.55359228515625,-12.76593017578125,15.630488395690918,-16.69338035583496
1776018956600652300,6.56365234375,-12.692840576171875,15.535804748535156,-16.7802734375
1776018956610712300,6.57371240234375,-12.557373046875,15.519390106201172,-16.71417236328125
1776018956620772400,6.5837724609375,-12.909423828125,15.59528923034668,-16.768800735473633
1776018956630832000,6.59383203125,-13.132904052734375,15.906383514404297,-16.715917587280273
1776018956640892200,6.60389208984375,-12.733489990234375,15.755776405334473,-16.85729217529297
1776018956650952400,6.613952392578125,-12.876739501953125,15.755560874938965,-16.760303497314453
1776018956661013200,6.62401318359375,-12.714599609375,15.788345336914062,-16.746583938598633
1776018956671073300,6.6340732421875,-12.645965576171875,15.810994148254395,-16.744874954223633
1776018956681133300,6.64413330078125,-12.945770263671875,15.61520004272461,-16.66337013244629
1776018956691193300,6.654193359375,-12.98291015625,15.712800979614258,-16.916860580444336
1776018956701253000,6.664253173828125,-13.02935791015625,15.606093406677246,-16.790510177612305
1776018956711313200,6.674313232421875,-13.062225341796875,15.751514434814453,-16.747922897338867
1776018956721373400,6.68437353515625,-12.76824951171875,15.598652839660645,-16.723739624023438
1776018956731433200,6.69443310546875,-12.685302734375,15.836430549621582,-16.7989444732666
1776018956741493200,6.7044931640625,-13.20849609375,15.981094360351562,-17.02010154724121
1776018956751554300,6.71455419921875,-12.7716064453125,15.901515007019043,-16.926782608032227
1776018956761614300,6.7246142578125,-13.04766845703125,15.818685531616211,-16.732879638671875
1776018956771674000,6.734674072265625,-13.0601806640625,15.86845588684082,-16.738866806030273
1776018956781734100,6.744734130859375,-13.412567138671875,15.896364212036133,-16.642446517944336
1776018956791794200,6.754794189453125,-13.10784912109375,15.947534561157227,-16.66335105895996
1776018956801854500,6.7648544921875,-13.034912109375,15.73565673828125,-16.688644409179688
1776018956811914200,6.774914306640625,-13.168182373046875,16.062358856201172,-16.6923828125
1776018956821974300,6.784974365234375,-13.24261474609375,15.941956520080566,-16.746728897094727
1776018956832035300,6.795035400390625,-13.254791259765625,15.87123966217041,-16.650283813476562
1776018956842095000,6.80509521484375,-12.866546630859375,15.72348403930664,-16.479595184326172
1776018956852155100,6.815155029296875,-13.317718505859375,15.59314250946045,-16.403779983520508
1776018956862215200,6.825215087890625,-13.2498779296875,15.66684341430664,-16.502607345581055
1776018956872275500,6.835275390625,-13.15771484375,15.855729103088379,-16.505889892578125
1776018956882335200,6.845335205078125,-13.101593017578125,15.781726837158203,-16.582361221313477
1776018956892395300,6.855395263671875,-13.12774658203125,15.794952392578125,-16.69569969177246
1776018956902455300,6.865455322265625,-12.652435302734375,15.825711250305176,-16.635705947875977
1776018956912515000,6.87551513671875,-12.992431640625,15.945066452026367,-16.696670532226562
1776018956922576100,6.885576171875,-13.258697509765625,15.834202766418457,-16.556655883789062
1776018956932636200,6.89563623046875,-13.118011474609375,15.765928268432617,-16.854570388793945
1776018956942696400,6.905696533203125,-12.860015869140625,15.961706161499023,-16.69893455505371
1776018956952756200,6.915756103515625,-12.761016845703125,15.780330657958984,-16.725811004638672
1776018956962816300,6.925816162109375,-12.6275634765625,15.828579902648926,-16.73209571838379
1776018956972876300,6.935876220703125,-12.311126708984375,15.762429237365723,-16.780986785888672
1776018956982936000,6.94593603515625,-12.828125,15.967489242553711,-16.724384307861328
1776018956992996000,6.95599609375,-12.735076904296875,15.90434455871582,-16.741622924804688
1776018957003057200,6.96605712890625,-12.950439453125,15.8348388671875,-16.974651336669922
1776018957013117400,6.976117431640625,-12.66339111328125,15.868992805480957,-16.917219161987305
1776018957023177200,6.98617724609375,-12.584716796875,15.505538940429688,-16.840967178344727
1776018957033237200,6.9962373046875,-12.578521728515625,15.382087707519531,-16.758298873901367
1776018957043297300,7.00629736328125,-12.893890380859375,15.449552536010742,-16.823463439941406
1776018957053357300,7.016357421875,-13.11737060546875,15.492866516113281,-16.656131744384766
1776018957063417000,7.0264169921875,-13.10174560546875,15.549152374267578,-16.58617401123047
1776018957073477400,7.036477294921875,-13.185577392578125,15.441177368164062,-16.630657196044922
1776018957083538200,7.0465380859375,-13.150848388671875,15.393527030944824,-16.70346450805664
1776018957093598500,7.056598388671875,-13.0428466796875,15.355295181274414,-16.75705337524414
1776018957103658200,7.066658203125,-13.070068359375,15.365514755249023,-16.79957389831543
1776018957113718300,7.07671826171875,-13.212677001953125,15.46548843383789,-16.908096313476562
1776018957123778300,7.0867783203125,-13.70587158203125,15.37140941619873,-16.830718994140625
1776018957133838000,7.096838134765625,-13.06781005859375,15.559078216552734,-16.704524993896484
1776018957143898400,7.1068984375,-13.384552001953125,15.74682331085205,-16.405555725097656
1776018957153958400,7.11695849609375,-13.312225341796875,15.583890914916992,-16.63246726989746
1776018957164019500,7.12701953125,-12.89129638671875,15.570955276489258,-16.69343376159668
1776018957174079200,7.137079345703125,-12.923004150390625,15.535005569458008,-16.636808395385742
1776018957184139300,7.14713916015625,-13.136505126953125,15.412698745727539,-16.59764862060547
1776018957194199300,7.15719921875,-12.6446533203125,15.31653118133545,-16.50935935974121
1776018957204259000,7.167259033203125,-12.5819091796875,15.386552810668945,-16.670873641967773
1776018957214319000,7.177319091796875,-12.421234130859375,15.422626495361328,-16.626577377319336
1776018957224379400,7.18737939453125,-12.490203857421875,15.397285461425781,-16.751644134521484
1776018957234439200,7.197439208984375,-12.255889892578125,15.342687606811523,-16.728761672973633
1776018957244500200,7.207500244140625,-12.20123291015625,15.320773124694824,-16.8807373046875
1776018957254560300,7.217560302734375,-12.8675537109375,15.324960708618164,-16.765514373779297
1776018957264620300,7.227620361328125,-12.6292724609375,15.347471237182617,-16.725482940673828
1776018957274680000,7.23768017578125,-12.646026611328125,15.353485107421875,-16.66469383239746
1776018957284740000,7.247739990234375,-12.492584228515625,15.416653633117676,-16.69380760192871
1776018957294800400,7.25780029296875,-12.48431396484375,15.5881986618042,-16.64974021911621
1776018957304860700,7.267860595703125,-12.92919921875,15.458927154541016,-16.820980072021484
1776018957314920400,7.27792041015625,-12.66424560546875,15.499595642089844,-16.75330924987793
1776018957324981500,7.2879814453125,-12.73614501953125,15.479131698608398,-16.801237106323242
1776018957335041500,7.29804150390625,-12.508514404296875,15.317230224609375,-16.800260543823242
1776018957345101600,7.3081015625,-12.38946533203125,15.603347778320312,-16.997802734375
1776018957355161300,7.318161376953125,-12.64385986328125,15.514358520507812,-16.703218460083008
1776018957365221400,7.328221435546875,-12.549346923828125,15.496870994567871,-16.704330444335938
1776018957375281700,7.33828173828125,-12.549346923828125,15.496870994567871,-16.704330444335938
1776018957385341400,7.348341552734375,-12.60845947265625,15.841716766357422,-16.713991165161133
1776018957395401500,7.3584013671875,-12.656829833984375,15.778306007385254,-16.547407150268555
1776018957405462500,7.368462646484375,-12.66424560546875,15.89674186706543,-16.646738052368164
1776018957415522600,7.3785224609375,-12.643890380859375,15.891904830932617,-16.96968650817871
1776018957425582300,7.388582275390625,-13.062530517578125,15.925339698791504,-16.811580657958984
1776018957435642400,7.398642333984375,-12.842010498046875,16.00705337524414,-16.92717742919922
1776018957445702700,7.40870263671875,-12.771484375,16.001394271850586,-16.947185516357422
1776018957455762400,7.418762451171875,-13.249053955078125,16.05437469482422,-16.58469581604004
1776018957465822500,7.428822509765625,-12.829986572265625,15.98777961730957,-16.49654769897461
1776018957475882500,7.438882568359375,-13.127197265625,15.841840744018555,-16.73661994934082
1776018957485943600,7.448943603515625,-12.797119140625,16.190452575683594,-16.579389572143555
1776018957496003300,7.45900341796875,-12.95672607421875,16.15345001220703,-16.79271697998047
1776018957506063400,7.4690634765625,-13.1336669921875,16.21876335144043,-16.83099937438965
1776018957516123600,7.47912353515625,-12.881134033203125,16.477537155151367,-16.920555114746094
1776018957526183700,7.48918359375,-13.164764404296875,16.4089412689209,-16.741336822509766
1776018957536243500,7.499243408203125,-13.69622802734375,16.41667366027832,-16.760847091674805
1776018957546303500,7.509303466796875,-13.479888916015625,16.309682846069336,-16.81746482849121
1776018957556363500,7.519363525390625,-13.692413330078125,16.489408493041992,-16.732200622558594
1776018957566424600,7.529424560546875,-13.629913330078125,16.64423942565918,-16.585315704345703
1776018957576484400,7.539484375,-13.316680908203125,16.71803092956543,-16.780179977416992
1776018957586544600,7.549544677734375,-13.59149169921875,16.57365608215332,-16.779815673828125
1776018957596604700,7.559604736328125,-14.11590576171875,16.55084991455078,-16.672222137451172
1776018957606664400,7.56966455078125,-14.034210205078125,16.49044418334961,-16.665189743041992
1776018957616724500,7.579724365234375,-14.09869384765625,16.717464447021484,-16.66998863220215
1776018957626784500,7.589784423828125,-13.88262939453125,16.6597843170166,-16.49449348449707
1776018957636844300,7.59984423828125,-13.684600830078125,16.776914596557617,-16.521635055541992
1776018957646905300,7.6099052734375,-13.722442626953125,16.592117309570312,-16.661846160888672
1776018957656965400,7.61996533203125,-13.888336181640625,16.716163635253906,-16.718006134033203
1776018957667025700,7.630025634765625,-14.216094970703125,17.003890991210938,-16.770875930786133
1776018957677085400,7.64008544921875,-14.164581298828125,16.901464462280273,-16.746952056884766
1776018957687145500,7.6501455078125,-14.227447509765625,16.824119567871094,-16.781723022460938
1776018957697205500,7.66020556640625,-14.00732421875,16.93723487854004,-16.70979118347168
1776018957707265500,7.670265625,-14.229095458984375,16.95897102355957,-16.6101016998291
1776018957717325600,7.68032568359375,-14.427947998046875,16.891157150268555,-16.572134017944336
1776018957727386400,7.690386474609375,-14.61749267578125,16.960222244262695,-16.778928756713867
1776018957737446700,7.70044677734375,-14.715789794921875,16.890892028808594,-16.85633087158203
1776018957747506700,7.710506591796875,-14.539764404296875,17.094959259033203,-16.80756950378418
1776018957757566500,7.72056640625,-14.911773681640625,17.27720832824707,-16.981348037719727
1776018957767626500,7.73062646484375,-15.10296630859375,17.338226318359375,-16.675371170043945
1776018957777686500,7.7406865234375,-15.186767578125,17.31087875366211,-16.859756469726562
1776018957787746300,7.750746337890625,-14.950836181640625,17.34980583190918,-16.978429794311523
1776018957797807400,7.760807373046875,-14.83489990234375,17.345874786376953,-16.90563201904297
1776018957807867600,7.77086767578125,-14.807342529296875,17.401912689208984,-16.81749725341797
1776018957817927700,7.780927734375,-15.1837158203125,17.547216415405273,-16.836698532104492
1776018957827987500,7.790987548828125,-15.14813232421875,17.696584701538086,-16.79023551940918
1776018957838047500,7.801047607421875,-15.3575439453125,17.73798370361328,-16.712039947509766
1776018957848107500,7.811107421875,-15.513427734375,17.611480712890625,-16.68488311767578
1776018957858167300,7.821167236328125,-15.782135009765625,17.752765655517578,-16.54901123046875
1776018957868227600,7.8312275390625,-15.765045166015625,17.69927215576172,-16.705629348754883
1776018957878288400,7.841288330078125,-16.1180419921875,17.86138916015625,-16.57680320739746
1776018957888348700,7.8513486328125,-16.309173583984375,17.920475006103516,-16.5150089263916
1776018957898408400,7.861408447265625,-16.425201416015625,17.80333137512207,-16.782470703125
1776018957908468500,7.871468505859375,-16.4998779296875,17.834144592285156,-16.569133758544922
1776018957918528500,7.881528564453125,-16.430572509765625,18.081384658813477,-16.569917678833008
1776018957928588300,7.89158837890625,-16.834197998046875,18.09010887145996,-16.66956329345703
1776018957938648600,7.901648681640625,-17.1927490234375,18.095298767089844,-16.75977325439453
1776018957948708600,7.91170849609375,-17.16461181640625,18.155776977539062,-16.775514602661133
1776018957958769700,7.921769775390625,-17.084503173828125,18.090497970581055,-16.41280174255371
1776018957968829400,7.931829345703125,-17.001953125,17.974645614624023,-16.39236831665039
1776018957978889500,7.941889404296875,-17.38153076171875,17.911151885986328,-16.341087341308594
1776018957988949500,7.951949462890625,-17.87445068359375,18.14000129699707,-16.19473648071289
1776018957999009500,7.962009521484375,-17.971282958984375,18.08078956604004,-16.3736515045166
1776018958009069600,7.972069580078125,-18.082305908203125,18.012840270996094,-16.512720108032227
1776018958019129600,7.982129638671875,-18.17755126953125,17.965118408203125,-16.16766357421875
1776018958029190700,7.992190673828125,-18.32806396484375,17.976032257080078,-16.09062385559082
1776018958039250700,8.002250732421874,-18.91650390625,18.224681854248047,-15.819616317749023
1776018958049310500,8.012310546875,-19.481414794921875,18.343481063842773,-15.794805526733398
1776018958059370500,8.02237060546875,-19.42803955078125,18.036800384521484,-15.641918182373047
1776018958069430500,8.032430419921875,-19.779052734375,18.117076873779297,-15.487649917602539
1776018958079490300,8.042490234375,-19.90850830078125,18.088302612304688,-15.387920379638672
1776018958089550600,8.052550537109376,-20.06427001953125,17.93231201171875,-15.066408157348633
1776018958099610600,8.062610595703125,-19.859100341796875,18.18246078491211,-15.078933715820312
1776018958109671700,8.072671630859375,-20.209075927734375,18.0848388671875,-15.089723587036133
1776018958119731500,8.0827314453125,-20.21063232421875,18.13743019104004,-15.062929153442383
1776018958129791500,8.09279150390625,-20.31866455078125,17.776723861694336,-14.865560531616211
1776018958139851500,8.1028515625,-20.593841552734375,17.995943069458008,-14.826417922973633
1776018958149911300,8.112911376953125,-20.71136474609375,17.94746208190918,-14.567319869995117
1776018958159971600,8.1229716796875,-21.092193603515625,18.028839111328125,-14.388250350952148
1776018958170031600,8.133031494140624,-20.91259765625,18.22866439819336,-14.526918411254883
1776018958180091600,8.143091552734376,-21.344085693359375,18.280025482177734,-14.613901138305664
1776018958190152400,8.15315234375,-21.336456298828125,17.958332061767578,-14.505830764770508
1776018958200212500,8.16321240234375,-21.4229736328125,17.883487701416016,-14.621566772460938
1776018958210272500,8.1732724609375,-21.035858154296875,17.877391815185547,-14.611562728881836
1776018958220332500,8.18333251953125,-21.704498291015625,17.622928619384766,-14.47227668762207
1776018958230392600,8.193392578125,-21.821197509765625,17.57552719116211,-14.386720657348633
1776018958240452600,8.20345263671875,-21.593719482421875,17.601943969726562,-14.21223258972168
1776018958250512600,8.2135126953125,-21.600799560546875,17.81804656982422,-13.86130142211914
1776018958260573400,8.223573486328124,-21.906707763671875,17.683902740478516,-13.894826889038086
1776018958270633500,8.233633544921876,-22.19232177734375,17.766826629638672,-13.399744033813477
1776018958280693500,8.243693603515625,-22.020477294921875,17.662601470947266,-13.103679656982422
1776018958290753500,8.25375341796875,-22.406982421875,17.606313705444336,-13.141653060913086
1776018958300812500,8.2638125,-22.347869873046875,17.803089141845703,-13.07789421081543
1776018958310872600,8.27387255859375,-22.32177734375,17.635011672973633,-12.905450820922852
1776018958320932600,8.2839326171875,-22.221649169921875,17.6666202545166,-12.331192016601562
1776018958330992400,8.293992431640625,-22.1865234375,17.476192474365234,-12.246129989624023
1776018958341053400,8.304053466796875,-22.218048095703125,17.56529998779297,-11.67279052734375
1776018958351113500,8.314113525390624,-22.359710693359375,17.252025604248047,-11.609745025634766
1776018958361173500,8.324173583984376,-22.335723876953125,17.25579261779785,-11.328311920166016
1776018958371233500,8.334233642578125,-22.791015625,17.307743072509766,-11.003149032592773
1776018958381293600,8.34429345703125,-23.016357421875,17.03847312927246,-10.462699890136719
1776018958391353600,8.354353515625,-22.95379638671875,17.263839721679688,-9.958358764648438
1776018958401413400,8.364413330078126,-23.217864990234375,17.056072235107422,-9.478246688842773
1776018958411474400,8.374474365234375,-23.49505615234375,16.593856811523438,-8.777900695800781
1776018958421534500,8.384534423828125,-23.540130615234375,16.301502227783203,-7.90643310546875
1776018958431594500,8.394594482421875,-23.98760986328125,15.603059768676758,-6.405805587768555
1776018958441654500,8.404654541015624,-24.7177734375,14.770940780639648,-5.022516250610352
1776018958451714600,8.414714599609376,-25.076507568359375,14.124282836914062,-4.329851150512695
1776018958461774600,8.424774658203125,-25.00335693359375,13.860353469848633,-4.7192840576171875
1776018958471834600,8.434834716796875,-24.620635986328125,13.996953010559082,-5.230321884155273
1776018958481895400,8.4448955078125,-23.9508056640625,14.388361930847168,-5.97905158996582
1776018958491955500,8.45495556640625,-23.09991455078125,14.908586502075195,-6.949792861938477
1776018958502015500,8.465015380859375,-23.058135986328125,14.546510696411133,-7.092693328857422
1776018958512075800,8.47507568359375,-23.403106689453125,14.063234329223633,-6.677511215209961
1776018958522135600,8.485135498046875,-23.801727294921875,13.46033000946045,-6.310735702514648
1776018958532195600,8.495195556640626,-24.2227783203125,13.128087043762207,-5.876335144042969
1776018958542255600,8.505255615234375,-24.737396240234375,12.810317039489746,-5.347990036010742
1776018958552316400,8.51531640625,-25.122222900390625,12.261677742004395,-4.907306671142578
1776018958562376400,8.52537646484375,-25.14935302734375,11.758041381835938,-4.368124008178711
1776018958572436500,8.5354365234375,-25.40374755859375,11.381088256835938,-3.847858428955078
1776018958582496800,8.545496826171876,-25.608978271484375,11.128807067871094,-3.2804813385009766
1776018958592556500,8.555556640625,-25.472320556640625,11.366025924682617,-2.9574966430664062
1776018958602616600,8.565616455078125,-25.43035888671875,11.233810424804688,-2.705129623413086
1776018958612676600,8.575676513671874,-25.501800537109375,11.133893966674805,-2.7553443908691406
1776018958622736400,8.585736328125,-25.03485107421875,11.211637496948242,-2.091524124145508
1776018958632797400,8.59579736328125,-25.660247802734375,11.148236274719238,-2.0014610290527344
1776018958642857500,8.605857421875,-25.31072998046875,11.279479026794434,-1.6350212097167969
1776018958652917500,8.61591748046875,-25.49224853515625,11.281027793884277,-1.2691154479980469
1776018958662977500,8.6259775390625,-25.085357666015625,10.803730010986328,-1.0517196655273438
1776018958673037600,8.63603759765625,-25.353118896484375,10.225789070129395,-0.3184165954589844
1776018958683097600,8.64609765625,-25.03082275390625,10.023881912231445,0.5538520812988281
1776018958693157400,8.656157470703125,-25.324127197265625,9.490076065063477,1.6838035583496094
1776018958703218400,8.666218505859375,-25.420166015625,8.994503021240234,2.526264190673828
1776018958713278500,8.676278564453124,-25.4376220703125,8.721691131591797,2.6664047241210938
1776018958723338500,8.68633837890625,-25.4222412109375,8.475394248962402,2.845001220703125
1776018958733398500,8.6963984375,-25.27996826171875,8.032099723815918,2.2685546875
1776018958743458600,8.70645849609375,-25.500762939453125,8.148662567138672,1.7389373779296875
1776018958753518600,8.7165185546875,-25.5362548828125,8.103754043579102,1.4348564147949219
1776018958763578600,8.72657861328125,-24.72332763671875,8.461549758911133,1.1139335632324219
1776018958773638400,8.736638427734375,-25.1524658203125,8.666275978088379,0.7315559387207031
1776018958783699500,8.746699462890625,-24.796295166015625,8.622074127197266,0.8095436096191406
1776018958793759500,8.756759521484375,-24.654144287109375,8.794323921203613,1.1609306335449219
1776018958803819800,8.76681982421875,-24.52886962890625,8.507865905761719,1.4459114074707031
1776018958813879600,8.776879638671875,-24.53271484375,8.36882209777832,1.6450996398925781
1776018958823939600,8.786939697265625,-24.756439208984375,8.097315788269043,1.9085502624511719
1776018958833999600,8.79699951171875,-24.2696533203125,8.125436782836914,1.5960350036621094
1776018958844059400,8.807059326171874,-24.49853515625,7.832977294921875,1.2826118469238281
1776018958854120400,8.817120361328126,-24.35693359375,7.721566677093506,1.0948371887207031
1776018958864180500,8.827180419921875,-24.576141357421875,7.863509654998779,1.1945915222167969
1776018958874240500,8.837240478515625,-24.664794921875,7.680992603302002,0.8510284423828125
1776018958884300500,8.847300537109374,-24.399810791015625,7.784741401672363,0.684478759765625
1776018958894360600,8.857360595703126,-24.262969970703125,7.682709693908691,0.4029731750488281
1776018958904420600,8.867420654296875,-24.022125244140625,7.869141101837158,0.5261421203613281
1776018958914480400,8.87748046875,-24.39801025390625,8.062963485717773,0.6141166687011719
1776018958924541400,8.88754150390625,-24.1934814453125,7.938984394073486,0.5157814025878906
1776018958934601500,8.8976015625,-24.272674560546875,7.854183673858643,0.44091033935546875
1776018958944661500,8.90766162109375,-24.418304443359375,7.669714450836182,0.25980377197265625
1776018958954721500,8.917721435546875,-24.564453125,7.721253395080566,0.139739990234375
1776018958964781600,8.927781494140625,-24.3751220703125,7.56425666809082,0.2952423095703125
1776018958974841600,8.937841552734374,-24.829071044921875,7.416887283325195,0.23648834228515625
1776018958984901400,8.9479013671875,-24.324066162109375,7.340493679046631,-0.07974624633789062
1776018958994962400,8.95796240234375,-24.376861572265625,7.617391109466553,0.00176239013671875
1776018959005022500,8.9680224609375,-23.7991943359375,7.394906520843506,-0.2861137390136719
1776018959015082500,8.97808251953125,-23.74139404296875,7.659217834472656,-0.46219635009765625
1776018959025142500,8.988142578125,-23.961181640625,7.908160209655762,-0.6288070678710938
1776018959035202600,8.99820263671875,-23.6278076171875,7.971108436584473,-0.9069137573242188
1776018959045262600,9.0082626953125,-23.409698486328125,8.005180358886719,-1.3203773498535156
1776018959055322600,9.018322509765625,-23.44390869140625,8.202631950378418,-1.2689208984375
1776018959065383400,9.028383544921875,-23.33746337890625,8.50006103515625,-1.331298828125
1776018959075443500,9.038443359375,-23.432586669921875,8.48713493347168,-1.2045707702636719
1776018959085503500,9.04850341796875,-23.58551025390625,8.404457092285156,-1.3885040283203125
1776018959095563800,9.058563720703125,-23.349151611328125,8.547623634338379,-1.2640876770019531
1776018959105623600,9.06862353515625,-23.175018310546875,8.25274658203125,-1.1375617980957031
1776018959115683600,9.07868359375,-23.70477294921875,8.214822769165039,-1.40325927734375
1776018959125743600,9.08874365234375,-23.961456298828125,8.162919044494629,-1.4263954162597656
1776018959135804700,9.0988046875,-23.82159423828125,8.250658988952637,-1.4301223754882812
1776018959145864400,9.108864501953125,-23.698272705078125,8.502694129943848,-1.3791656494140625
1776018959155924500,9.118924560546875,-23.640716552734375,8.567057609558105,-1.4730606079101562
1776018959165984500,9.128984619140626,-23.51934814453125,8.750131607055664,-1.3899993896484375
1776018959176044500,9.13904443359375,-23.38421630859375,8.860166549682617,-1.7974433898925781
1776018959186104600,9.1491044921875,-23.5450439453125,8.724807739257812,-1.9613723754882812
1776018959196164600,9.15916455078125,-23.227752685546875,8.641014099121094,-1.96051025390625
1776018959206225700,9.1692255859375,-23.5205078125,8.786407470703125,-2.134756088256836
1776018959216285400,9.179285400390626,-23.295684814453125,9.059327125549316,-2.1946868896484375
1776018959226345500,9.189345458984375,-23.412750244140625,8.891348838806152,-2.708498001098633
1776018959236405500,9.199405517578125,-23.601654052734375,8.966323852539062,-2.7435855865478516
1776018959246465500,9.209465576171874,-23.878204345703125,9.18811321258545,-2.846708297729492
1776018959256525600,9.219525634765626,-23.95611572265625,9.315203666687012,-3.0388259887695312
1776018959266585600,9.229585693359375,-23.853179931640625,9.319489479064941,-3.2488174438476562
1776018959276646700,9.239646728515625,-23.952972412109375,9.273737907409668,-3.316049575805664
1776018959286706400,9.24970654296875,-23.721405029296875,9.203102111816406,-3.4796142578125
1776018959296766500,9.259766357421874,-23.423797607421875,9.352828979492188,-3.6167030334472656
1776018959306826800,9.26982666015625,-23.559844970703125,9.4087495803833,-3.6814804077148438
1776018959316886800,9.27988671875,-23.569091796875,9.395442962646484,-3.816631317138672
1776018959326946800,9.28994677734375,-23.710113525390625,9.46950912475586,-3.9087047576904297
1776018959337006800,9.3000068359375,-23.80810546875,9.443845748901367,-4.2826385498046875
1776018959347068000,9.31006787109375,-23.740570068359375,9.52165412902832,-4.3872528076171875
1776018959357128000,9.3201279296875,-23.25726318359375,9.762850761413574,-4.291099548339844
1776018959367187700,9.330187744140625,-23.186126708984375,9.762879371643066,-4.180248260498047
1776018959377247700,9.340247802734375,-23.43157958984375,9.759503364562988,-4.19499397277832
1776018959387307800,9.350307861328124,-23.14697265625,9.639350891113281,-4.156551361083984
1776018959397367800,9.360367919921876,-23.316741943359375,9.440126419067383,-4.174877166748047
1776018959407427800,9.370427734375,-23.6683349609375,9.379659652709961,-3.830453872680664
1776018959417489000,9.380489013671875,-23.3319091796875,9.088644027709961,-3.797475814819336
1776018959427549000,9.390548828125,-23.15582275390625,9.257552146911621,-3.8831138610839844
1776018959437608700,9.400608642578124,-23.5086669921875,9.461462020874023,-3.572235107421875
1776018959447668700,9.410668701171875,-23.240234375,9.266725540161133,-3.4866600036621094
1776018959457728800,9.420728759765625,-23.5467529296875,9.106311798095703,-3.307689666748047
1776018959467788800,9.430788818359375,-23.692779541015625,8.975467681884766,-3.0569686889648438
1776018959477848800,9.440848876953124,-23.28179931640625,8.943435668945312,-3.0651016235351562
1776018959487910000,9.450909912109376,-23.138763427734375,8.620985984802246,-3.2396488189697266
1776018959497970000,9.460969970703125,-23.154388427734375,8.577856063842773,-3.129690170288086
1776018959508029700,9.47102978515625,-22.92449951171875,8.139266967773438,-2.9582557678222656
1776018959518089700,9.48108984375,-23.050872802734375,7.7994065284729,-2.9727115631103516
1776018959528149800,9.491149658203126,-22.640838623046875,7.574328899383545,-2.931468963623047
1776018959538209800,9.501209716796875,-22.9879150390625,7.5796732902526855,-3.014558792114258
1776018959548270600,9.5112705078125,-23.086181640625,7.686708450317383,-2.9404430389404297
1776018959558331000,9.521330810546875,-22.99951171875,8.053285598754883,-3.142667770385742
1776018959568391000,9.531390869140624,-23.008819580078125,7.7326250076293945,-3.0573558807373047
1776018959578450700,9.54145068359375,-22.98480224609375,7.7602152824401855,-3.352334976196289
1776018959588510700,9.5515107421875,-23.234405517578125,7.970624923706055,-3.4731521606445312
1776018959598570800,9.56157080078125,-22.78729248046875,8.071062088012695,-3.766824722290039
1776018959608630800,9.571630859375,-22.93902587890625,8.436668395996094,-4.035356521606445
1776018959618691600,9.581691650390624,-23.04791259765625,8.188213348388672,-4.08228874206543
1776018959628752000,9.591751953125,-22.726104736328125,8.310079574584961,-4.030597686767578
1776018959638812000,9.60181201171875,-22.805633544921875,8.600024223327637,-4.253984451293945
1776018959648872000,9.611871826171875,-22.918792724609375,8.397201538085938,-4.163211822509766
1776018959658931700,9.621931640625,-23.0257568359375,8.16120719909668,-3.825998306274414
1776018959668991700,9.63199169921875,-22.9146728515625,8.323810577392578,-3.572265625
1776018959679051800,9.6420517578125,-23.21356201171875,8.501726150512695,-3.3562545776367188
1776018959689112800,9.65211279296875,-23.83074951171875,8.583985328674316,-3.221223831176758
1776018959699172600,9.662172607421875,-23.468841552734375,8.578524589538574,-3.1704349517822266
1776018959709233000,9.67223291015625,-23.504913330078125,8.630436897277832,-3.1986942291259766
1776018959719293000,9.68229296875,-23.263458251953125,8.579671859741211,-3.0653209686279297
1776018959729352700,9.692352783203125,-23.26971435546875,8.46141242980957,-2.962596893310547
1776018959739412700,9.702412841796875,-23.311065673828125,8.165225982666016,-3.114818572998047
1776018959749472800,9.71247265625,-23.458160400390625,8.06572151184082,-2.7807865142822266
1776018959759533800,9.722533935546876,-23.784393310546875,7.804727554321289,-2.3798294067382812
1776018959769593600,9.732593505859375,-23.6328125,7.983697414398193,-2.349428176879883
1776018959779654000,9.74265380859375,-23.5301513671875,7.703486442565918,-2.3188018798828125
1776018959789714000,9.7527138671875,-23.22161865234375,7.589568614959717,-2.3807334899902344
1776018959799773700,9.762773681640626,-23.413299560546875,7.594653606414795,-2.5689010620117188
1776018959809833700,9.772833740234375,-23.507537841796875,7.67776346206665,-2.951812744140625
1776018959819894800,9.782894775390625,-22.976531982421875,7.81321907043457,-3.216890335083008
1776018959829954800,9.792954833984375,-23.519439697265625,7.6872124671936035,-3.653085708618164
1776018959840014600,9.8030146484375,-23.8612060546875,7.808583736419678,-3.7110595703125
1776018959850075000,9.813074951171876,-23.769989013671875,7.747066497802734,-3.8978271484375
1776018959860135000,9.823135009765625,-23.700531005859375,7.696122169494629,-3.9640045166015625
1776018959870195000,9.83319482421875,-23.1756591796875,7.554790019989014,-4.05790901184082
1776018959880254700,9.843254638671874,-23.225433349609375,7.43639612197876,-3.862985610961914
1776018959890315800,9.853315673828124,-23.36676025390625,7.438821315765381,-4.140195846557617
1776018959900375800,9.863375732421876,-23.43048095703125,7.48751974105835,-3.9758949279785156
1776018959910435600,9.873435546875,-23.082550048828125,7.386074542999268,-4.038599014282227
1776018959920495900,9.883495849609375,-23.649932861328125,7.639969825744629,-4.022148132324219
1776018959930556000,9.893555908203124,-23.582550048828125,7.58753776550293,-3.979127883911133
1776018959940616000,9.903615966796876,-23.288238525390625,7.553948402404785,-4.355155944824219
1776018959950675700,9.91367578125,-23.122589111328125,7.761158466339111,-4.345920562744141
1776018959960736800,9.92373681640625,-23.253326416015625,7.7165398597717285,-4.178853988647461
1776018959970796800,9.933796875,-23.25372314453125,7.9190497398376465,-4.353532791137695
1776018959980856800,9.94385693359375,-22.840911865234375,7.8873491287231445,-4.670537948608398
1776018959990916600,9.95391650390625,-23.053314208984375,7.889155864715576,-4.522977828979492
1776018960000977000,9.963976806640625,-23.115966796875,7.862674713134766,-4.399940490722656
1776018960011037000,9.974036865234375,-22.703826904296875,7.923188209533691,-4.404121398925781
1776018960021096700,9.9840966796875,-22.871124267578125,7.771267414093018,-4.359758377075195
1776018960031157800,9.99415771484375,-23.547637939453125,7.682880878448486,-4.2582550048828125
1776018960041217800,10.0042177734375,-23.006622314453125,7.9261932373046875,-4.198856353759766
1776018960051277800,10.01427783203125,-23.133819580078125,7.882549285888672,-4.046165466308594
1776018960061337600,10.024337646484375,-22.83636474609375,8.03836441040039,-4.312068939208984
1776018960071398000,10.03439794921875,-22.90802001953125,8.002129554748535,-4.309762954711914
1776018960081458000,10.0444580078125,-23.21990966796875,7.946613311767578,-4.569845199584961
1776018960091519000,10.05451904296875,-23.063934326171875,8.084117889404297,-4.418092727661133
1776018960101578800,10.064578857421875,-22.790802001953125,8.039875984191895,-4.755346298217773
1776018960111638800,10.074638671875,-23.025146484375,8.28152847290039,-4.758033752441406
1776018960121698800,10.08469873046875,-22.427703857421875,8.103397369384766,-4.872400283813477
1776018960131758600,10.094758544921875,-22.618255615234375,8.182882308959961,-4.830787658691406
1776018960141819000,10.10481884765625,-22.881988525390625,8.004651069641113,-4.665071487426758
1776018960151879000,10.11487890625,-23.05401611328125,8.040870666503906,-4.700345993041992
1776018960161940000,10.12493994140625,-23.2158203125,8.363473892211914,-4.685333251953125
1776018960171999700,10.134999755859376,-23.433990478515625,8.395710945129395,-4.818939208984375
1776018960182059800,10.145059814453125,-22.932647705078125,8.320210456848145,-4.771198272705078
1776018960192119800,10.155119873046875,-22.667144775390625,8.10153579711914,-4.591348648071289
1776018960202179800,10.165179931640624,-22.73333740234375,7.994237899780273,-4.862085342407227
1776018960212239600,10.175239501953126,-23.0408935546875,7.916706562042236,-4.751832962036133
1776018960222300000,10.1852998046875,-22.805389404296875,7.9287309646606445,-4.696132659912109
1776018960232361000,10.19536083984375,-22.93865966796875,8.015954971313477,-4.600057601928711
1776018960242421000,10.2054208984375,-22.528167724609375,8.02288818359375,-4.790445327758789
1776018960252480800,10.215480712890624,-22.626251220703125,7.811345100402832,-4.784429550170898
1776018960262540800,10.225540771484376,-22.780853271484375,7.769214630126953,-4.818838119506836
1776018960272600800,10.235600830078125,-22.848785400390625,8.112855911254883,-4.93560791015625
1776018960282660600,10.24566064453125,-22.722930908203125,7.927793979644775,-4.888521194458008
1776018960292721700,10.2557216796875,-22.93939208984375,8.0279541015625,-4.850364685058594
1776018960302781700,10.26578173828125,-22.94903564453125,8.130464553833008,-4.955299377441406
1776018960312842000,10.275842041015625,-22.67596435546875,8.060794830322266,-4.845855712890625
1776018960322902000,10.285902099609375,-22.773712158203125,8.166053771972656,-4.859615325927734
1776018960332961800,10.2959619140625,-23.04742431640625,7.873082637786865,-4.592487335205078
1776018960343021800,10.306021728515624,-22.62762451171875,7.89267110824585,-4.624845504760742
1776018960353083000,10.316082763671876,-23.218048095703125,7.895266056060791,-4.674083709716797
1776018960363143000,10.326142822265625,-23.136932373046875,7.8246684074401855,-4.447454452514648
1776018960373202700,10.33620263671875,-23.107666015625,7.859930992126465,-4.482757568359375
1776018960383263000,10.346262939453124,-23.33062744140625,7.796764373779297,-4.346858978271484
1776018960393323000,10.356322998046876,-23.285247802734375,7.8849663734436035,-4.261667251586914
1776018960403382800,10.3663828125,-22.9896240234375,7.918518543243408,-4.490682601928711
1776018960413442800,10.37644287109375,-23.288970947265625,7.963042259216309,-4.557151794433594
1776018960423504000,10.38650390625,-22.92474365234375,8.063457489013672,-4.862525939941406
1776018960433564000,10.39656396484375,-22.79571533203125,7.955749988555908,-4.765985488891602
1776018960443623700,10.406623779296876,-23.181884765625,7.927857398986816,-4.6804351806640625
1776018960453684000,10.41668408203125,-23.152435302734375,7.545740127563477,-4.6858978271484375
1776018960463744000,10.426743896484375,-23.3134765625,7.654181480407715,-4.698991775512695
1776018960473804000,10.436803955078124,-23.460174560546875,7.534895420074463,-4.803974151611328
1776018960483863800,10.44686376953125,-23.212432861328125,7.6061320304870605,-4.7277069091796875
1776018960493924900,10.4569248046875,-23.223114013671875,7.631428241729736,-4.709951400756836
1776018960503985000,10.46698486328125,-23.019256591796875,7.596251964569092,-4.719570159912109
1776018960514044700,10.477044677734375,-22.94451904296875,7.782040596008301,-4.796438217163086
1776018960524105000,10.48710498046875,-22.79095458984375,7.864969253540039,-4.855155944824219
1776018960534165000,10.4971650390625,-22.449981689453125,8.000690460205078,-5.112958908081055
1776018960544225000,10.50722509765625,-23.058929443359375,8.087642669677734,-4.930822372436523
1776018960554285800,10.517285888671875,-22.9901123046875,7.918456077575684,-5.065210342407227
1776018960564345900,10.527345947265625,-22.636566162109375,8.239974975585938,-5.352354049682617
1776018960574406000,10.537406005859374,-22.558929443359375,8.30063247680664,-5.251300811767578
1776018960584466000,10.5474658203125,-22.4012451171875,8.296424865722656,-5.163211822509766
1776018960594525700,10.557525634765625,-22.032501220703125,8.341827392578125,-5.140018463134766
1776018960604586000,10.5675859375,-21.68536376953125,8.584226608276367,-5.22636604309082
1776018960614646800,10.577646728515624,-22.120269775390625,8.60588264465332,-5.204113006591797
1776018960624707000,10.58770703125,-22.214141845703125,8.902172088623047,-5.292497634887695
1776018960634766800,10.597766845703125,-21.904815673828125,8.805795669555664,-5.268857955932617
1776018960644827000,10.607826904296875,-21.447265625,9.026999473571777,-5.313718795776367
1776018960654887000,10.617886962890625,-21.358184814453125,8.88756275177002,-5.282539367675781
1776018960664946700,10.62794677734375,-21.388916015625,9.25083065032959,-5.430080413818359
1776018960675007000,10.638007080078125,-21.076995849609375,9.379850387573242,-5.717735290527344
1776018960685067800,10.64806787109375,-20.633880615234375,9.596237182617188,-5.854305267333984
1776018960695128000,10.658128173828125,-20.81683349609375,9.641165733337402,-5.912572860717773
1776018960705187800,10.668187744140624,-20.52471923828125,9.659847259521484,-6.152812957763672
1776018960715247900,10.678247802734376,-20.39703369140625,9.717233657836914,-6.050571441650391
1776018960725308000,10.688307861328125,-20.722015380859375,10.288228988647461,-6.049121856689453
1776018960735367700,10.69836767578125,-20.410064697265625,10.415077209472656,-6.275030136108398
1776018960745428700,10.7084287109375,-20.6685791015625,10.488064765930176,-6.626798629760742
1776018960755488800,10.71848876953125,-20.207855224609375,10.725902557373047,-6.792423248291016
1776018960765549000,10.728549072265626,-19.859710693359375,10.949004173278809,-6.954833984375
1776018960775608800,10.73860888671875,-19.40264892578125,11.394200325012207,-7.146764755249023
1776018960785668900,10.7486689453125,-19.276824951171875,11.339997291564941,-7.06669807434082
1776018960795729000,10.75872900390625,-19.52142333984375,11.449077606201172,-7.308446884155273
1776018960805790000,10.7687900390625,-19.260894775390625,11.6696138381958,-7.466588973999023
1776018960815849700,10.778849609375,-19.078521728515625,11.720569610595703,-7.742786407470703
1776018960825909800,10.78890966796875,-18.8829345703125,12.194122314453125,-7.744699478149414
1776018960835970000,10.798969970703125,-18.83111572265625,12.279767036437988,-7.641607284545898
1776018960846030000,10.809030029296874,-18.43377685546875,12.341638565063477,-7.993844985961914
1776018960856089900,10.81908984375,-18.511932373046875,12.518282890319824,-8.04354476928711
1776018960866150000,10.82914990234375,-18.059722900390625,12.661922454833984,-8.173845291137695
1776018960876211000,10.8392109375,-17.942230224609375,12.779073715209961,-8.221651077270508
1776018960886270700,10.849270751953124,-17.96051025390625,12.681096076965332,-8.146848678588867
1776018960896330800,10.859330810546876,-17.621063232421875,12.90328598022461,-8.300945281982422
1776018960906390800,10.869390869140625,-17.948486328125,12.999369621276855,-8.291532516479492
1776018960916451000,10.879451171875,-18.199737548828125,13.190225601196289,-8.677604675292969
1776018960926510800,10.8895107421875,-17.7987060546875,13.114459991455078,-8.926925659179688
1776018960936572000,10.899572021484374,-17.8887939453125,13.28705883026123,-8.97722053527832
1776018960946632000,10.9096318359375,-17.420745849609375,13.210582733154297,-8.890890121459961
1776018960956692000,10.91969189453125,-17.64599609375,13.180585861206055,-9.095741271972656
1776018960966751700,10.929751708984375,-17.6590576171875,13.24587345123291,-8.930133819580078
1776018960976811800,10.939811767578124,-17.261444091796875,13.274225234985352,-9.246524810791016
1776018960986872000,10.9498720703125,-17.1510009765625,13.197105407714844,-9.320526123046875
1776018960996931800,10.959931884765625,-17.539520263671875,13.317851066589355,-9.220083236694336
1776018961006993000,10.969992919921875,-17.35845947265625,13.166993141174316,-9.273496627807617
1776018961017053000,10.980052978515625,-17.588623046875,13.291159629821777,-9.220190048217773
1776018961027113000,10.990113037109374,-17.789337158203125,13.326629638671875,-9.100234985351562
1776018961037172700,11.0001728515625,-17.416290283203125,13.245511054992676,-9.083452224731445
1776018961047232800,11.010232666015625,-17.901885986328125,13.077611923217773,-9.133451461791992
1776018961057293000,11.02029296875,-17.98101806640625,12.931462287902832,-8.783710479736328
1776018961067353900,11.030353759765624,-18.180511474609375,12.773360252380371,-8.607179641723633
1776018961077414000,11.040413818359376,-18.142425537109375,12.935232162475586,-8.352731704711914
1776018961087474000,11.050473876953125,-18.12890625,12.940662384033203,-8.264190673828125
1776018961097534000,11.060533935546875,-18.266876220703125,12.777725219726562,-8.069368362426758
1776018961107593700,11.07059375,-18.026092529296875,12.843055725097656,-8.235830307006836
1776018961117653800,11.08065380859375,-18.6053466796875,12.805846214294434,-8.211183547973633
1776018961127714800,11.09071484375,-18.67950439453125,12.5372896194458,-8.3819580078125
1776018961137774800,11.10077490234375,-18.518310546875,12.591301918029785,-8.35390853881836
1776018961147835000,11.1108349609375,-18.784393310546875,12.374556541442871,-8.306365966796875
1776018961157895000,11.12089501953125,-19.091156005859375,12.427017211914062,-8.186328887939453
1776018961167955000,11.130954833984376,-19.205413818359375,12.483352661132812,-8.297412872314453
1776018961178015000,11.141014892578125,-19.47308349609375,12.666138648986816,-8.382287979125977
1776018961188075800,11.15107568359375,-18.72821044921875,12.41064739227295,-8.37443733215332
1776018961198135800,11.1611357421875,-18.774932861328125,12.31258487701416,-8.440624237060547
1776018961208195800,11.17119580078125,-18.806915283203125,12.485824584960938,-8.437772750854492
1776018961218256000,11.181255859375,-18.8929443359375,12.34716796875,-8.303524017333984
1776018961228316000,11.19131591796875,-19.25274658203125,12.415914535522461,-8.233659744262695
1776018961238376000,11.2013759765625,-18.854949951171875,12.631553649902344,-8.180612564086914
1776018961248436000,11.21143603515625,-18.59722900390625,12.694662094116211,-8.208152770996094
1776018961258496800,11.221496826171874,-18.684478759765625,13.00410270690918,-8.39277458190918
1776018961268556800,11.231556884765626,-18.625762939453125,12.792778968811035,-8.640007019042969
1776018961278616800,11.241616943359375,-18.5107421875,12.980165481567383,-8.775257110595703
1776018961288676900,11.2516767578125,-18.247833251953125,13.06014347076416,-8.900367736816406
1776018961298737000,11.26173681640625,-17.943450927734375,13.05861759185791,-9.04489517211914
1776018961308797000,11.271796875,-18.133270263671875,13.147520065307617,-9.05626106262207
1776018961318858000,11.28185791015625,-18.23712158203125,13.306532859802246,-8.93397331237793
1776018961328918000,11.29191796875,-18.2564697265625,13.237662315368652,-8.642162322998047
1776018961338977800,11.301977783203125,-18.57562255859375,13.396133422851562,-8.724149703979492
1776018961349037800,11.312037841796876,-18.3033447265625,13.441575050354004,-8.81867790222168
1776018961359097900,11.322097900390625,-18.525146484375,13.243239402770996,-8.71628189086914
1776018961369158100,11.332158203125,-18.412811279296875,13.507328987121582,-8.666147232055664
1776018961379219000,11.342218994140625,-18.303680419921875,13.30008316040039,-8.63382339477539
1776018961389279000,11.352279052734374,-18.446014404296875,13.186267852783203,-8.919214248657227
1776018961399339000,11.362339111328126,-18.060089111328125,13.44568157196045,-8.895940780639648
1776018961409399000,11.37239892578125,-18.333587646484375,13.369123458862305,-9.123212814331055
1776018961419458800,11.382458740234375,-18.264404296875,13.633442878723145,-9.089794158935547
1776018961429518800,11.392518798828124,-18.40826416015625,13.175206184387207,-8.995750427246094
1776018961439580000,11.402579833984374,-18.3912353515625,13.106145858764648,-8.979911804199219
1776018961449640000,11.412639892578126,-18.629302978515625,13.209809303283691,-9.151521682739258
1776018961459700000,11.422699951171875,-18.824493408203125,13.079174995422363,-9.06949234008789
1776018961469760000,11.432760009765625,-18.955810546875,13.166491508483887,-9.109676361083984
1776018961479820000,11.442820068359374,-19.18560791015625,13.173691749572754,-8.928064346313477
1776018961489879800,11.4528798828125,-19.4500732421875,13.245166778564453,-8.913970947265625
1776018961499940900,11.46294091796875,-19.505645751953125,13.05540943145752,-9.105093002319336
1776018961510001000,11.4730009765625,-19.570953369140625,13.05010986328125,-9.176778793334961
1776018961520061000,11.48306103515625,-19.552978515625,12.933677673339844,-8.943309783935547
1776018961530121000,11.493120849609374,-19.779693603515625,12.886764526367188,-9.021400451660156
1776018961540181000,11.503180908203126,-20.017425537109375,13.172859191894531,-8.815994262695312
1776018961550241000,11.513240966796875,-20.3485107421875,13.17274284362793,-8.83043098449707
1776018961560302000,11.523302001953125,-20.293487548828125,12.767660140991211,-8.86979866027832
1776018961570361900,11.53336181640625,-20.373809814453125,12.67756462097168,-8.788751602172852
1776018961580422000,11.543421875,-20.605010986328125,12.766398429870605,-8.491104125976562
1776018961590482000,11.55348193359375,-20.363739013671875,12.820990562438965,-8.335884094238281
1776018961600542000,11.5635419921875,-20.68609619140625,12.64151382446289,-8.519468307495117
1776018961610602000,11.57360205078125,-20.6588134765625,12.660677909851074,-8.291482925415039
1776018961620663000,11.5836630859375,-20.6712646484375,12.517215728759766,-8.359182357788086
1776018961630723000,11.59372314453125,-20.677154541015625,12.430985450744629,-8.296907424926758
1776018961640782800,11.603782958984375,-21.090118408203125,12.138827323913574,-8.38455581665039
1776018961650843000,11.6138427734375,-21.089080810546875,12.051233291625977,-8.470260620117188
1776018961660903000,11.62390283203125,-20.941925048828125,12.05496883392334,-8.57939338684082
1776018961670962700,11.633962646484376,-21.179779052734375,11.845986366271973,-8.482484817504883
1776018961681023700,11.644023681640626,-21.4556884765625,11.841361045837402,-8.478340148925781
1776018961691084000,11.654083984375,-21.850799560546875,11.107603073120117,-8.68478775024414
1776018961701144000,11.66414404296875,-21.844573974609375,11.0300874710083,-8.732526779174805
1776018961711203800,11.674203857421874,-21.67529296875,10.72981071472168,-8.486946105957031
1776018961721263900,11.684263916015626,-21.61834716796875,10.88698959350586,-8.67497444152832
1776018961731324000,11.694323974609375,-21.78582763671875,10.682435989379883,-8.58604621887207
1776018961741384000,11.704384033203125,-21.76031494140625,10.661833763122559,-8.52216911315918
1776018961751444700,11.71444482421875,-21.42205810546875,10.91752815246582,-8.700183868408203
1776018961761504800,11.7245048828125,-21.737274169921875,11.216525077819824,-8.790014266967773
1776018961771565000,11.73456494140625,-20.985107421875,11.635018348693848,-9.108108520507812
1776018961781625000,11.744625,-20.8759765625,11.964323997497559,-9.356758117675781
1776018961791684900,11.754684814453125,-20.754638671875,11.860871315002441,-10.000627517700195
1776018961801745000,11.764744873046874,-20.371124267578125,12.255820274353027,-10.522634506225586
1776018961811806000,11.774805908203126,-20.095672607421875,12.295296669006348,-11.056253433227539
1776018961821866000,11.784865966796875,-19.696075439453125,12.286992073059082,-11.454936981201172
1776018961831925800,11.79492578125,-18.96014404296875,12.26987075805664,-12.212852478027344
1776018961841986000,11.804986083984375,-18.904266357421875,12.389636039733887,-12.842824935913086
1776018961852046000,11.815046142578124,-18.012115478515625,12.542499542236328,-13.539113998413086
1776018961862105900,11.82510595703125,-17.7149658203125,12.597762107849121,-14.081171035766602
1776018961872167000,11.8351669921875,-17.66644287109375,12.721646308898926,-14.594123840332031
1776018961882227000,11.84522705078125,-16.887969970703125,13.091851234436035,-14.84263801574707
1776018961892287000,11.855286865234374,-17.00830078125,13.294432640075684,-15.098731994628906
1776018961902346800,11.8653466796875,-16.76263427734375,13.8981294631958,-15.161182403564453
1776018961912407000,11.875406982421875,-16.947784423828125,13.97603702545166,-15.132781982421875
1776018961922467000,11.885467041015625,-16.813323974609375,14.373828887939453,-15.144412994384766
1776018961932528000,11.895528076171875,-16.937103271484375,14.27840805053711,-14.962818145751953
1776018961942588000,11.905587890625,-16.720428466796875,14.023356437683105,-15.071357727050781
1776018961952648000,11.91564794921875,-17.163360595703125,14.168715476989746,-15.08926010131836
1776018961962708000,11.9257080078125,-17.356231689453125,13.963940620422363,-15.04758071899414
1776018961972767700,11.935767822265625,-17.383544921875,13.93453311920166,-14.771442413330078
1776018961982827800,11.945827880859374,-17.948333740234375,14.151633262634277,-14.415987014770508
1776018961992888800,11.955888916015626,-18.001617431640625,14.222864151000977,-14.10407829284668
1776018962002949000,11.96594921875,-18.22381591796875,13.985214233398438,-13.769041061401367
1776018962013009000,11.9760087890625,-18.689239501953125,14.005821228027344,-13.648033142089844
1776018962023069000,11.98606884765625,-18.961029052734375,14.081778526306152,-13.333740234375
1776018962033129000,11.99612890625,-19.1400146484375,14.248360633850098,-13.036338806152344
1776018962043188700,12.006188720703125,-19.35345458984375,13.986804962158203,-12.964019775390625
1776018962053249800,12.016249755859375,-19.478057861328125,13.914405822753906,-12.905067443847656
1776018962063309800,12.026309814453125,-19.184234619140625,14.150031089782715,-12.823623657226562
1776018962073369900,12.036369873046874,-18.851409912109375,14.395906448364258,-12.73121452331543
1776018962083430000,12.046429931640626,-19.160888671875,14.433236122131348,-12.702709197998047
1776018962093490000,12.056489990234375,-19.31134033203125,14.438959121704102,-12.694738388061523
1776018962103551000,12.066551025390625,-19.186370849609375,14.766899108886719,-12.687753677368164
1776018962113611000,12.076611083984375,-19.239227294921875,14.573471069335938,-12.490150451660156
1776018962123670800,12.0866708984375,-18.963470458984375,14.681842803955078,-12.654228210449219
1776018962133730800,12.096730712890626,-18.89849853515625,14.880159378051758,-12.664205551147461
1776018962143790800,12.106790771484375,-19.07489013671875,14.91025161743164,-12.464553833007812
1776018962153851100,12.11685107421875,-19.18182373046875,14.93629264831543,-12.598520278930664
1776018962163911000,12.126910888671874,-19.36773681640625,14.946094512939453,-12.711368560791016
1776018962173972000,12.136971923828124,-19.480224609375,15.166592597961426,-12.85879135131836
1776018962184032000,12.147031982421876,-19.064361572265625,15.118605613708496,-13.166336059570312
1776018962194092000,12.157092041015625,-18.18402099609375,15.269245147705078,-13.265743255615234
1776018962204151800,12.16715185546875,-18.12646484375,15.295154571533203,-13.458341598510742
1776018962214211800,12.1772119140625,-17.719635009765625,15.593527793884277,-13.403800964355469
1776018962224273000,12.18727294921875,-17.984100341796875,15.748757362365723,-13.517642974853516
1776018962234333000,12.1973330078125,-17.764190673828125,15.9674072265625,-13.518333435058594
1776018962244393000,12.20739306640625,-17.291290283203125,15.869892120361328,-13.61811637878418
1776018962254453000,12.217452880859375,-17.3363037109375,15.937042236328125,-13.731147766113281
1776018962264513000,12.227512939453124,-17.36212158203125,15.93831729888916,-13.68929672241211
1776018962274572800,12.23757275390625,-16.88592529296875,15.800702095031738,-13.919927597045898
1776018962284633900,12.2476337890625,-16.968231201171875,15.981100082397461,-14.17523193359375
1776018962294694000,12.25769384765625,-16.5269775390625,15.807278633117676,-14.160446166992188
1776018962304754200,12.267754150390624,-16.617889404296875,15.528604507446289,-14.27606201171875
1776018962314814200,12.277814208984376,-16.5423583984375,15.609843254089355,-14.38033676147461
1776018962324874200,12.287874267578125,-16.789520263671875,15.512528419494629,-14.320602416992188
1776018962334934300,12.297934326171875,-16.679840087890625,15.898744583129883,-14.081350326538086
1776018962344995300,12.307995361328125,-17.061798095703125,15.761581420898438,-14.313764572143555
1776018962355055400,12.318055419921874,-16.885650634765625,15.721080780029297,-14.213846206665039
1776018962365115100,12.328115234375,-16.935333251953125,15.558728218078613,-13.973201751708984
1776018962375175200,12.338175048828125,-17.122589111328125,15.617183685302734,-13.854433059692383
1776018962385235200,12.348235107421875,-17.607666015625,15.491432189941406,-13.677194595336914
1776018962395295200,12.358295166015624,-17.313720703125,15.511673927307129,-13.655776977539062
1776018962405356300,12.368356201171874,-17.614898681640625,15.462691307067871,-13.708484649658203
1776018962415416300,12.378416259765626,-17.952239990234375,15.58327865600586,-13.420578002929688
1776018962425476400,12.388476318359375,-18.160064697265625,15.5566987991333,-13.405628204345703
1776018962435536100,12.3985361328125,-18.571136474609375,15.253812789916992,-13.457525253295898
1776018962445596200,12.40859619140625,-18.360443115234375,15.321130752563477,-13.456838607788086
1776018962455656200,12.41865625,-18.536163330078125,15.156366348266602,-13.190271377563477
1776018962465717200,12.42871728515625,-18.510040283203125,15.179903030395508,-13.156343460083008
1776018962475777000,12.438777099609375,-18.7388916015625,15.327276229858398,-13.138696670532227
1776018962485837300,12.44883740234375,-18.68023681640625,15.059391975402832,-13.196855545043945
1776018962495897300,12.4588974609375,-18.280303955078125,14.86562728881836,-13.206825256347656
1776018962505957400,12.468957275390625,-18.516937255859375,15.071754455566406,-13.363142013549805
1776018962516018200,12.47901806640625,-18.378936767578125,15.100630760192871,-13.711565017700195
1776018962526078200,12.489078125,-17.9798583984375,15.22474479675293,-13.643726348876953
1776018962536138200,12.49913818359375,-17.885040283203125,15.303022384643555,-13.618961334228516
1776018962546198300,12.5091982421875,-17.60980224609375,15.029739379882812,-13.861320495605469
1776018962556258300,12.51925830078125,-17.435882568359375,15.166962623596191,-14.093624114990234
1776018962566318300,12.529318359375,-17.27215576171875,15.196084022521973,-14.013235092163086
1776018962576379400,12.53937939453125,-17.449615478515625,15.2672700881958,-14.250659942626953
1776018962586439400,12.549439453125,-17.14703369140625,15.278775215148926,-14.48015022277832
1776018962596499200,12.559499267578126,-16.94500732421875,15.245645523071289,-14.711616516113281
1776018962606559200,12.569559326171875,-16.826141357421875,15.146890640258789,-14.527616500854492
1776018962616619300,12.579619384765625,-16.45452880859375,15.415055274963379,-14.615104675292969
1776018962626679300,12.58967919921875,-16.380645751953125,15.373855590820312,-14.582794189453125
1776018962636740000,12.599739990234376,-16.14630126953125,15.331815719604492,-14.698989868164062
1776018962646800400,12.60980029296875,-16.356781005859375,15.132489204406738,-14.553638458251953
1776018962656860400,12.6198603515625,-16.565185546875,15.223627090454102,-14.579675674438477
1776018962666920200,12.629920166015625,-16.534271240234375,15.21915340423584,-14.593198776245117
1776018962676980200,12.639980224609374,-16.738372802734375,15.094289779663086,-14.479242324829102
1776018962687040300,12.650040283203126,-16.916412353515625,15.131332397460938,-14.595954895019531
1776018962697101300,12.660101318359375,-16.6976318359375,15.18978500366211,-14.669736862182617
1776018962707161000,12.6701611328125,-16.77972412109375,14.977523803710938,-14.622869491577148
1776018962717221400,12.680221435546875,-16.753692626953125,14.739018440246582,-15.086397171020508
1776018962727281400,12.690281494140624,-17.1669921875,14.370805740356445,-15.371711730957031
1776018962737341200,12.700341064453125,-17.553497314453125,14.033355712890625,-15.697729110717773
1776018962747402200,12.71040234375,-17.558990478515625,13.582589149475098,-15.978805541992188
1776018962757462300,12.720462158203125,-17.433380126953125,13.038549423217773,-16.04419708251953
1776018962767522300,12.730522216796874,-17.964019775390625,12.64504337310791,-16.042320251464844
1776018962777582000,12.74058203125,-18.190277099609375,12.363107681274414,-15.905105590820312
1776018962787642400,12.750642333984375,-18.40850830078125,12.046131134033203,-15.53390121459961
1776018962797702400,12.760702392578125,-18.703857421875,11.964071273803711,-15.289554595947266
1776018962807763500,12.770763427734375,-19.352386474609375,11.717920303344727,-14.862688064575195
1776018962817823200,12.7808232421875,-20.147735595703125,11.086498260498047,-14.19384765625
1776018962827883300,12.79088330078125,-20.55206298828125,10.857426643371582,-13.697513580322266
1776018962837943300,12.800943359375,-21.05755615234375,10.554021835327148,-13.303655624389648
1776018962848003000,12.811003173828125,-21.6142578125,10.731368064880371,-12.91234016418457
1776018962858063000,12.82106298828125,-21.64013671875,10.883033752441406,-12.6312255859375
1776018962868124200,12.831124267578126,-21.626678466796875,10.947222709655762,-12.64109992980957
1776018962878184200,12.84118408203125,-21.816650390625,11.084258079528809,-12.52532958984375
1776018962888244200,12.851244140625,-21.632904052734375,11.57941722869873,-12.050750732421875
1776018962898304300,12.86130419921875,-22.0458984375,12.032137870788574,-11.863481521606445
1776018962908364300,12.8713642578125,-22.198272705078125,12.366927146911621,-11.594602584838867
