time,seconds_elapsed,z,y,x
1776554206544359000,0.11135888671875,-8.929515283292531,-4.051410064744949,-0.14218234671722166
1776554206554398000,0.12139794921875,-8.928035858389734,-4.054719627684355,-0.14074446853436529
1776554206564438000,0.13143798828125,-8.927885636264085,-4.055106873436272,-0.1390799237224739
1776554206574477000,0.14147705078125,-8.928982199329138,-4.052773169791698,-0.13671795296464115
1776554206584517000,0.15151708984375,-8.930437074312568,-4.049643639594316,-0.13441108252806588
1776554206594555400,0.161555419921875,-8.931791411530972,-4.0466710535243156,-0.1339548266605474
1776554206604594400,0.171594482421875,-8.932994357579947,-4.04396793204546,-0.1353490574979223
1776554206614634200,0.18163427734375,-8.933752482470869,-4.0422143663764,-0.13768221315322443
1776554206624673300,0.19167333984375,-8.934211916676164,-4.041122479486465,-0.13991290394789538
1776554206634712600,0.201712646484375,-8.934649139049649,-4.040089629307389,-0.1417838489189278
1776554206644752400,0.21175244140625,-8.935031416365504,-4.03920144829601,-0.14300523480689153
1776554206654791400,0.22179150390625,-8.934678949666022,-4.039950513097644,-0.14385813444233497
1776554206664830500,0.23183056640625,-8.933896274855732,-4.041666377104819,-0.14428260693210176
1776554206674870300,0.241870361328125,-8.933281357827783,-4.043018083974719,-0.14445177122023886
1776554206684909300,0.251909423828125,-8.933141072574257,-4.04331443657279,-0.1448543241391424
1776554206694948400,0.2619482421875,-8.933778201434016,-4.041900185860693,-0.14504259498654865
1776554206704988200,0.27198828125,-8.935053043675422,-4.039123999145627,-0.14384960407600736
1776554206715027500,0.28202734375,-8.935908783721922,-4.037254698142409,-0.1431312358067371
1776554206725067300,0.2920673828125,-8.936322625219821,-4.036303681027889,-0.14416160176778212
1776554206735106600,0.3021064453125,-8.936570462501049,-4.035701623481512,-0.14562941843117586
1776554206745145300,0.312145263671875,-8.937467703601717,-4.033647905822098,-0.14743792002471162
1776554206755185400,0.322185302734375,-8.939738571143149,-4.0285502904221415,-0.14913618444311433
1776554206765224400,0.332224365234375,-8.943647853541373,-4.019828054784238,-0.1501126830587629
1776554206775263200,0.34226318359375,-8.948675910836458,-4.008624523724615,-0.15004788332739843
1776554206785303300,0.35230322265625,-8.954370323085785,-3.995876101310551,-0.15037636636309326
1776554206795342300,0.36234228515625,-8.960379792633653,-3.9822847983315586,-0.152919073115848
1776554206805381400,0.37238134765625,-8.966210398483275,-3.9689050922766325,-0.1588971246121451
1776554206815421400,0.38242138671875,-8.970705371814965,-3.9584199386194348,-0.16656559514710678
1776554206825460500,0.39246044921875,-8.972011778238414,-3.955198638485372,-0.17260551463216542
1776554206835500300,0.402500244140625,-8.968148088547586,-3.963791987046599,-0.17623599835531786
1776554206845539300,0.412539306640625,-8.960871960064768,-3.9802904096439478,-0.17448130017509683
1776554206855578400,0.422578369140625,-8.955026741167902,-3.9937005108371375,-0.16803420639494432
1776554206865618400,0.432618408203125,-8.952180704087018,-4.000419882220029,-0.15964379652729258
1776554206875657200,0.4426572265625,-8.950158842870593,-4.005270537121594,-0.1511485106462147
1776554206885696500,0.452696533203125,-8.948267914557457,-4.009728101052343,-0.14480011886702848
1776554206895736600,0.462736572265625,-8.94848360313475,-4.009475879856944,-0.1383260274820961
1776554206905775400,0.472775390625,-8.951109859985113,-4.003940749822557,-0.12835361825316213
1776554206915814400,0.482814453125,-8.95279445207119,-4.000662751065194,-0.11205996098029426
1776554206925854500,0.4928544921875,-8.950063565802573,-4.007130193513632,-0.09824074013009666
1776554206935893200,0.502893310546875,-8.943987460759281,-4.020730264320969,-0.09589857005127705
1776554206945932300,0.512932373046875,-8.936673338353634,-4.036775097931922,-0.10345293095358647
1776554206955972400,0.522972412109375,-8.930281006968022,-4.050403518050909,-0.1212292462659534
1776554206966011400,0.533011474609375,-8.924666674217582,-4.06208548027724,-0.1420115019286517
1776554206976051500,0.543051513671875,-8.920057134595513,-4.071595651422441,-0.15835357405366376
1776554206986090500,0.553090576171875,-8.91524827300906,-4.081661702884733,-0.1696315403226763
1776554206996129300,0.56312939453125,-8.910579696676134,-4.091413281570374,-0.17969941841587422
1776554207006169300,0.57316943359375,-8.905425967174768,-4.102274575063586,-0.18738493141718207
1776554207016208400,0.58320849609375,-8.89977247145772,-4.114143876555562,-0.1955870704374276
1776554207026247200,0.5932470703125,-8.894466181743145,-4.1250758971974255,-0.2063942773895338
1776554207036287200,0.603287353515625,-8.88990457291603,-4.13426224321574,-0.21874683235380799
1776554207046326300,0.613326171875,-8.886659307384491,-4.140658373993635,-0.22937966911969704
1776554207056365300,0.623365234375,-8.883805086997151,-4.146331158933044,-0.23733598015271126
1776554207066405400,0.6334052734375,-8.879034219333528,-4.156099688753486,-0.24488246827581897
1776554207076444400,0.6434443359375,-8.871844015568493,-4.1709409917935725,-0.253010610478092
1776554207086484500,0.653484375,-8.86368350546658,-4.187876636764407,-0.2591970988269895
1776554207096523300,0.663523193359375,-8.856003472357989,-4.204115531642735,-0.25885175598803906
1776554207106562300,0.673562255859375,-8.849906324526668,-4.217480916911363,-0.24979685432966797
1776554207116602400,0.683602294921875,-8.844927367070317,-4.228990152919292,-0.23084923021560533
1776554207126641200,0.69364111328125,-8.840790705657005,-4.238900137037039,-0.20622357873143626
1776554207136680400,0.703680419921875,-8.838741956433653,-4.244326545999944,-0.18088150433991104
1776554207146720500,0.713720458984375,-8.83992327517271,-4.242701282885671,-0.16008715638061985
1776554207156759300,0.72375927734375,-8.844092669811845,-4.234453094500303,-0.1476933652236592
1776554207166798300,0.73379833984375,-8.84928439323604,-4.2238650649905205,-0.13970383690763263
1776554207176838400,0.74383837890625,-8.853765338042377,-4.214610914433003,-0.13518524523833766
1776554207186877200,0.753877197265625,-8.856609037035703,-4.2086616506397725,-0.13428428694377653
1776554207196917200,0.763917236328125,-8.858034101402758,-4.205585604195297,-0.13661352447578684
1776554207206956300,0.773956298828125,-8.859294330596923,-4.202802403217554,-0.14050126176248304
1776554207216995300,0.783995361328125,-8.860707120004296,-4.199645985013246,-0.14569183440920896
1776554207227035400,0.794035400390625,-8.862369500258565,-4.195959405454993,-0.1506999448948074
1776554207237074400,0.804074462890625,-8.863966998583077,-4.1925419982269405,-0.1518711806312669
1776554207247113500,0.814113525390625,-8.86536166781187,-4.189617342951894,-0.15115902290707453
1776554207257153300,0.8241533203125,-8.867195312979817,-4.185767097264528,-0.15026465875008144
1776554207267192300,0.8341923828125,-8.870055378586054,-4.179813449557125,-0.14719109652363693
1776554207277232400,0.844232421875,-8.87358589079976,-4.172594604219496,-0.13898840951411984
1776554207287271200,0.854271240234375,-8.877001836723089,-4.16574342315048,-0.12570197123321702
1776554207297310500,0.864310546875,-8.880296786615252,-4.159157907280326,-0.11007262308797798
1776554207307350300,0.874350341796875,-8.882752363073825,-4.15420759139657,-0.09828738315026275
1776554207317389300,0.884389404296875,-8.884383763667941,-4.150880492800474,-0.09109702412160113
1776554207327428400,0.894428466796875,-8.88643718906641,-4.146606176482141,-0.08529681341024115
1776554207337468400,0.904468505859375,-8.888909716659784,-4.141423513147235,-0.07924441803609952
1776554207347507500,0.914507568359375,-8.891264755353331,-4.136455953867733,-0.07435813926530536
1776554207357546200,0.924546142578125,-8.893886336028576,-4.130869678167999,-0.07130503073842265
1776554207367586300,0.93458642578125,-8.89637756832242,-4.125521302877367,-0.07021960098873824
1776554207377625300,0.944625244140625,-8.898045793795585,-4.121924155168235,-0.07007042917585932
1776554207387665200,0.9546650390625,-8.898376633185148,-4.121220975334942,-0.06942030383720993
1776554207397704400,0.964704345703125,-8.897899078801274,-4.12225031838268,-0.06950113225476816
1776554207407743500,0.974743408203125,-8.896939878380298,-4.124301405693591,-0.07062121319272555
1776554207417783300,0.984783203125,-8.895600738731027,-4.1271676087796685,-0.07181585720423608
1776554207427822300,0.994822265625,-8.893836067146061,-4.130915270875394,-0.07484691829609219
1776554207437861400,1.004861328125,-8.891724189558625,-4.135365528282523,-0.07983644737880677
1776554207447901200,1.014901123046875,-8.890235996827483,-4.138427253940701,-0.08662987951175309
1776554207457940200,1.024940185546875,-8.890254117006062,-4.1382133189290755,-0.09464125433340669
1776554207467980300,1.034980224609375,-8.891424329829215,-4.135527148585021,-0.10185665647177956
1776554207478019600,1.04501953125,-8.89270209468007,-4.132695432290435,-0.10518387379888444
1776554207488058400,1.055058349609375,-8.893161528885363,-4.131766919268667,-0.10278452103957533
1776554207498098400,1.065098388671875,-8.89214446079731,-4.1340816259518265,-0.09756516068978234
1776554207508137500,1.075137451171875,-8.889723955652117,-4.1394159727171065,-0.0918248452058062
1776554207518176300,1.08517626953125,-8.886749908277391,-4.145970508927107,-0.08360899732061661
1776554207528216300,1.09521630859375,-8.883201860406995,-4.153765400587022,-0.07308872668426483
1776554207538255400,1.10525537109375,-8.87916281414926,-4.162584082336724,-0.061161667123064395
1776554207548295200,1.115295166015625,-8.875241841313242,-4.171088583570718,-0.04988395201580133
1776554207558334500,1.12533447265625,-8.872911352539061,-4.176112549212575,-0.043698226285306736
1776554207568373500,1.13537353515625,-8.873438006761669,-4.174995235620439,-0.0436169777426403
1776554207578413300,1.145413330078125,-8.876268261751532,-4.168943095974624,-0.046497474215552205
1776554207588452400,1.155452392578125,-8.879813387012481,-4.16136856906712,-0.04807323106571566
1776554207598491400,1.165491455078125,-8.883429239422082,-4.15370431804955,-0.04249946778768208
1776554207608531500,1.175531494140625,-8.885978339383005,-4.148348051713406,-0.031236541540885808
1776554207618570500,1.185570556640625,-8.88637990592122,-4.147562162032723,-0.019084187607117928
1776554207628609500,1.195609619140625,-8.885841561260818,-4.148758678340911,-0.0017652155784802744
1776554207638649300,1.2056494140625,-8.885967817988991,-4.148449174000323,0.018241902980522716
1776554207648688600,1.215688720703125,-8.888317595985532,-4.143296321281791,0.03588906407144386
1776554207658728700,1.225728759765625,-8.893126457571983,-4.132800061708688,0.05149829187726136
1776554207668767500,1.235767578125,-8.898189001658558,-4.121761950343847,0.06082098219292238
1776554207678806500,1.245806640625,-8.901869151476024,-4.113469630555809,0.08047912919651716
1776554207688846600,1.2558466796875,-8.905266392698884,-4.105366695860028,0.11215169438435696
1776554207698885400,1.265885498046875,-8.908599921035766,-4.096984651961923,0.14813512677494436
1776554207708924400,1.27592431640625,-8.912328586170077,-4.086883236925304,0.1953851911897771
1776554207718964500,1.285964599609375,-8.915718813130258,-4.076515279906988,0.2497218711310066
1776554207729003500,1.29600341796875,-8.915617690843343,-4.073311515429616,0.30046036218348887
1776554207739043600,1.306043701171875,-8.907216357722877,-4.087414567323028,0.3534408417427912
1776554207749082600,1.31608251953125,-8.882589865988493,-4.131283811926841,0.44997211107388135
1776554207759121400,1.326121337890625,-8.839560871601105,-4.204725772495568,0.5939970625836402
1776554207769161500,1.336161376953125,-8.782284740674495,-4.29480176474005,0.7723556608498096
1776554207779200500,1.346200439453125,-8.715269890543818,-4.392593445928394,0.9589428660180419
1776554207789239300,1.3562392578125,-8.643777602738142,-4.489219298207759,1.1412279170129447
1776554207799279400,1.366279296875,-8.571147250813246,-4.581812533970177,1.3087440726168453
1776554207809318700,1.376318603515625,-8.497559452033043,-4.6793934950172895,1.4370602175369858
1776554207819358500,1.3863583984375,-8.423157414260507,-4.781779810519517,1.5347260803885756
1776554207829397500,1.3963974609375,-8.353747777947783,-4.877212361361086,1.6118565202116966
1776554207839436500,1.4064365234375,-8.313743099817634,-4.93407845018208,1.6452736366450786
1776554207849476600,1.4164765625,-8.302111698734759,-4.953294022783637,1.6462717077717184
1776554207859515400,1.426515380859375,-8.300441135174035,-4.9538522411882875,1.6530014544181524
1776554207869554400,1.436554443359375,-8.298312890973687,-4.947565123742819,1.6822564827360211
1776554207879594500,1.446594482421875,-8.294777702584863,-4.933364164432883,1.7403937605366109
1776554207889633500,1.456633544921875,-8.290732811108231,-4.909705640947818,1.8245352481655774
1776554207899673300,1.46667333984375,-8.288920208728314,-4.877856212222576,1.9159078560918568
1776554207909712600,1.476712646484375,-8.287779221999644,-4.841344929166138,2.0110890625208615
1776554207919751400,1.48675146484375,-8.28101981086731,-4.805090251219272,2.122783304594457
1776554207929791500,1.49679150390625,-8.263049269890784,-4.772425998979807,2.261936485349387
1776554207939830500,1.50683056640625,-8.224275010338426,-4.751719311037659,2.439846243869513
1776554207949869600,1.51686962890625,-8.161149568861722,-4.756140634611248,2.635365162707865
1776554207959909400,1.526909423828125,-8.07976600163877,-4.784854395659267,2.827177482113242
1776554207969948400,1.536948486328125,-7.984990453401207,-4.832383624075353,3.009713146868348
1776554207979988500,1.546988525390625,-7.877432580479979,-4.891792675377428,3.191676564693451
1776554207990027500,1.557027587890625,-7.7568024600178,-4.958204591178894,3.379143256109953
1776554208000066600,1.567066650390625,-7.628262004822492,-5.028251940873265,3.5632398865714667
1776554208010106600,1.577106689453125,-7.500187413573265,-5.095753113216161,3.735086984051764
1776554208020145400,1.5871455078125,-7.382540692836046,-5.149452554699779,3.8925074967727062
1776554208030184400,1.597184326171875,-7.2800114617317915,-5.180690573528409,4.041319171102344
1776554208040224500,1.607224609375,-7.196258242768049,-5.187317298191785,4.180429535628855
1776554208050263600,1.617263671875,-7.128988541093468,-5.176030765023827,4.3077392799854275
1776554208060303400,1.627303466796875,-7.079574814105033,-5.154749492064118,4.4134532786056395
1776554208070342700,1.6373427734375,-7.050259872293472,-5.13693560295403,4.480637347823381
1776554208080381700,1.647381591796875,-7.042088840797543,-5.138477571699023,4.491704977543652
1776554208090421500,1.65742138671875,-7.0630135554045435,-5.157532985302805,4.436673995195329
1776554208100460500,1.66746044921875,-7.10865770072639,-5.174207641249895,4.343380209948123
1776554208110500600,1.67750048828125,-7.17510790271163,-5.159338573420047,4.2508156157583
1776554208120539400,1.687539306640625,-7.274545013019442,-5.093120426625013,4.160710397419333
1776554208130578400,1.697578369140625,-7.408097158896923,-4.977089324390888,4.064366284690797
1776554208140618500,1.707618408203125,-7.569018373215198,-4.822577977114916,3.952605991643667
1776554208150657500,1.717657470703125,-7.733308187183737,-4.648613156828284,3.841448048403859
1776554208160696600,1.727696533203125,-7.8759923185437914,-4.478543005892634,3.752570910555124
1776554208170736600,1.737736572265625,-7.9833508695006365,-4.327461048543453,3.702644850130379
1776554208180775700,1.747775634765625,-8.055132495641708,-4.197357874076068,3.696947223010659
1776554208190815500,1.7578154296875,-8.098703341820835,-4.083381950806081,3.7292598853334784
1776554208200854500,1.7678544921875,-8.117187677538395,-3.9912127856746316,3.7883857357800004
1776554208210893600,1.7778935546875,-8.111888402086496,-3.931260713537037,3.861714883624017
1776554208220933400,1.787933349609375,-8.085877762517333,-3.9076623958066103,3.939433498598635
1776554208230972400,1.797972412109375,-8.04407041887939,-3.9179584566324945,4.014089803393185
1776554208241011700,1.80801171875,-7.987572871109843,-3.957315192247927,4.0876296713784335
1776554208251051500,1.818051513671875,-7.919452690085768,-4.01688703289628,4.161401886814833
1776554208261090600,1.828090576171875,-7.842451283469796,-4.087836884388327,4.237444385270774
1776554208271130600,1.838130615234375,-7.760524695411324,-4.1617829950869085,4.31557684174329
1776554208281169400,1.84816943359375,-7.679393057122826,-4.232681408652663,4.391095608586073
1776554208291208400,1.85820849609375,-7.601694900414347,-4.298330231127142,4.461947552661598
1776554208301248500,1.86824853515625,-7.527968569946289,-4.359772249561548,4.526859293033183
1776554208311287600,1.87828759765625,-7.461568052321672,-4.418367938654124,4.579673183853924
1776554208321327400,1.888327392578125,-7.409642634773254,-4.4680864938080305,4.615601990847289
1776554208331366700,1.89836669921875,-7.377878546243905,-4.501514131635427,4.633967960882186
1776554208341405700,1.90840576171875,-7.365415955033898,-4.514081060002744,4.64156294605583
1776554208351445500,1.918445556640625,-7.37033646030128,-4.501798793795705,4.645678856942057
1776554208361484500,1.928484619140625,-7.391388600680232,-4.460727070955932,4.651846439661085
1776554208371523600,1.938523681640625,-7.425663795247673,-4.3882554167240855,4.666166641436517
1776554208381563400,1.9485634765625,-7.470745630511641,-4.283528967836499,4.69145188934058
1776554208391602400,1.9586025390625,-7.523784562259912,-4.14795116135031,4.728376429373026
1776554208401642500,1.968642578125,-7.586499084848165,-3.978770360469818,4.773343698346615
1776554208411681500,1.978681640625,-7.660393173098564,-3.7755712623924014,4.820147535097599
1776554208421720600,1.988720458984375,-7.7418088890254495,-3.5427862966075536,4.8665647106185554
1776554208431760600,1.9987607421875,-7.828980976521969,-3.284820420075953,4.907891869524121
1776554208441799700,2.008799560546875,-7.920712334758043,-3.00385331492424,4.940604052558541
1776554208451838500,2.01883837890625,-8.014624544164539,-2.700417188332975,4.9642649141311646
1776554208461878500,2.02887841796875,-8.112205212950705,-2.370761309466511,4.974133397194743
1776554208471917600,2.03891748046875,-8.216025068387388,-2.0074927915945646,4.963595636567473
1776554208481957400,2.048957275390625,-8.322658227679133,-1.6093948062732815,4.930881115445494
1776554208491996400,2.058996337890625,-8.423872869053483,-1.1841260515622793,4.87920032030791
1776554208502035700,2.06903564453125,-8.51086317024231,-0.748535955453664,4.814071722315251
1776554208512075500,2.079075439453125,-8.57775643981993,-0.31780520900972187,4.742518644233048
1776554208522114600,2.089114501953125,-8.62166046347618,0.10746191999977454,4.671810492542385
1776554208532154600,2.099154541015625,-8.642270120784639,0.5388427095839753,4.603390159527957
1776554208542193400,2.109193359375,-8.635764392152428,0.9861625160507858,4.5410836332187055
1776554208552232400,2.119232421875,-8.595862005352974,1.4524622231997548,4.491312763355672
1776554208562272500,2.1292724609375,-8.518268478062748,1.9377749661155044,4.4558404679581525
1776554208572311600,2.1393115234375,-8.404288463139533,2.436059857198596,4.427632026083767
1776554208582350600,2.1493505859375,-8.253523901176452,2.9396090985506773,4.405499396991729
1776554208592390700,2.159390625,-8.070519449865818,3.4364427679121494,4.384969819182158
1776554208602429400,2.169429443359375,-7.863782240790128,3.9096877641543744,4.36413219833672
1776554208612469500,2.179469482421875,-7.644749029242992,4.344017631068826,4.34254492816776
1776554208622508300,2.18950830078125,-7.42820529642403,4.722437979234755,4.3232785021618
1776554208632547300,2.19954736328125,-7.223366614446044,5.031036018633842,4.32227253998965
1776554208642587400,2.20958740234375,-7.029193118867278,5.274145102295279,4.352495828817784
1776554208652626200,2.219626220703125,-6.82707830889523,5.474554277393222,4.426131266131997
1776554208662665500,2.22966552734375,-6.585410071691871,5.65361671307981,4.565016297470033
1776554208672705500,2.23970556640625,-6.28562983725965,5.817883730694652,4.776345218250155
1776554208682744300,2.249744384765625,-5.934059209835529,5.948947566887736,5.0564177126497025
1776554208692784400,2.259784423828125,-5.561919257113337,6.022275253427028,5.382160071334242
1776554208702823400,2.269823486328125,-5.204182508274912,6.0227487161576745,5.728295229706168
1776554208712862200,2.2798623046875,-4.88807745424658,5.9495993087947365,6.0728375659286975
1776554208722902300,2.28990234375,-4.598450072777271,5.8231952811062335,6.412099915921687
1776554208732941300,2.29994140625,-4.322186030749976,5.693249050766229,6.713866355735063
1776554208742981400,2.3099814453125,-4.053889898861945,5.586940885645151,6.965806980627775
1776554208753020200,2.320020263671875,-3.797868142135441,5.493351916843652,7.181203296977281
1776554208763059500,2.3300595703125,-3.6069697227045894,5.3789621520757676,7.363892690989375
1776554208773099500,2.340099609375,-3.5094799470722675,5.20608863415718,7.533298240536451
1776554208783138300,2.35013818359375,-3.489944933257997,4.959504567861557,7.706748681560159
1776554208793177300,2.36017724609375,-3.524389054651558,4.648711941027641,7.882800829514861
1776554208803217400,2.370217529296875,-3.6012533908843993,4.2961599013507366,8.046389217215776
1776554208813256200,2.380256103515625,-3.7046044597655534,3.923976109486818,8.188326914122701
1776554208823296300,2.390296142578125,-3.825812380115688,3.568035888676345,8.294736786052583
1776554208833335300,2.400335205078125,-3.953290174515545,3.2713217638164758,8.35705383375585
1776554208843374300,2.410374267578125,-4.066413280348479,3.0306355233877897,8.393444997563957
1776554208853414400,2.420414306640625,-4.172078471390903,2.816745227687061,8.416061903041602
1776554208863453400,2.430453369140625,-4.28482222251743,2.614481072372198,8.424676002129912
1776554208873493500,2.440493408203125,-4.422207078425586,2.417158465112746,8.412598610845208
1776554208883532300,2.4505322265625,-4.580213282079995,2.211475733526051,8.384592413544654
1776554208893571300,2.4605712890625,-4.753224162642658,1.970604199658334,8.348291266107559
1776554208903611400,2.470611328125,-4.92232956019938,1.699650538998842,8.309768935489654
1776554208913650200,2.480650146484375,-5.058491596314311,1.4158851814307272,8.281143144986032
1776554208923689500,2.490689453125,-5.130028892305493,1.1424101125348358,8.27937730435729
1776554208933729500,2.5007294921875,-5.141292629119754,0.8807624056853354,8.304321775999664
1776554208943768300,2.510768310546875,-5.123700273805857,0.603724529741332,8.33987941159308
1776554208953808400,2.520808349609375,-5.105134689545631,0.3221413750505075,8.366851589670777
1776554208963847400,2.530847412109375,-5.102122063726187,0.03863395146594848,8.374798749282956
1776554208973886200,2.54088623046875,-5.114795082816482,-0.2429083003923297,8.363626197883486
1776554208983926300,2.55092626953125,-5.144034036782384,-0.4965223018573597,8.33443225210309
1776554208993965300,2.56096533203125,-5.220830860736966,-0.6982727720290423,8.271984856018424
1776554209004005400,2.57100537109375,-5.348095304647088,-0.8478408907491713,8.17615015411675
1776554209014044200,2.581044189453125,-5.552226130616664,-0.9595244652982801,8.026362328231334
1776554209024083500,2.59108349609375,-5.81406271110177,-1.0383270030520855,7.828725540456175
1776554209034123500,2.60112353515625,-6.099807990440726,-1.0791243659298866,7.602513815581798
1776554209044162300,2.611162353515625,-6.348185954415798,-1.1067610723309218,7.392292856043577
1776554209054201300,2.621201416015625,-6.526647501599788,-1.1325021011784673,7.231230771949887
1776554209064241400,2.631241455078125,-6.654049308153986,-1.155952827131748,7.1104001604795455
1776554209074280200,2.6412802734375,-6.754460231930017,-1.1857044798601417,7.010117831519246
1776554209084320300,2.6513203125,-6.831830471858382,-1.2117593238972126,6.930232393899559
1776554209094359300,2.661359375,-6.89156860898435,-1.2150973822787403,6.870239989751577
1776554209104398300,2.6713984375,-6.91508743173778,-1.1970701426789163,6.849742560645938
1776554209114438400,2.6814384765625,-6.879210647192597,-1.1796586968898772,6.888777516961097
1776554209124477400,2.6914775390625,-6.792107533279061,-1.180578369018063,6.974517525827884
1776554209134517500,2.701517578125,-6.681175215488672,-1.1846431342389434,7.08017687165141
1776554209144556300,2.711556396484375,-6.555597701752186,-1.1777581970307975,7.197736498627066
1776554209154595300,2.72159521484375,-6.46407443330884,-1.1599333481352776,7.28290367604196
1776554209164635400,2.731635498046875,-6.416818176615238,-1.1414939475379884,7.327470547521114
1776554209174674200,2.741674072265625,-6.414637325444817,-1.1310158812087028,7.331003982344269
1776554209184714200,2.75171435546875,-6.458838870742917,-1.1218686981569974,7.293503395989537
1776554209194753500,2.76175341796875,-6.540995760425925,-1.1043022810019552,7.222622518080472
1776554209204792300,2.771792236328125,-6.641250616857409,-1.0794905688937753,7.134344515168666
1776554209214832400,2.781832275390625,-6.75697192249,-1.0457802416674793,7.029939553320408
1776554209224871400,2.791871337890625,-6.887220350646972,-1.0078015164069831,6.908032252529263
1776554209234911500,2.801911376953125,-7.034028283938765,-0.9728100633289665,6.763613844722509
1776554209244950300,2.8119501953125,-7.184110124334692,-0.9418093603875487,6.608475305458903
1776554209254989300,2.8219892578125,-7.311635849529504,-0.9130654964622109,6.471219044366478
1776554209265029400,2.832029296875,-7.398269592365622,-0.8919174944933503,6.374987452101707
1776554209275068200,2.842068115234375,-7.442671628671884,-0.8812839453414082,6.3245835450321435
1776554209285108200,2.852108154296875,-7.458115866041183,-0.8728938642673194,6.307531872466206
1776554209295147500,2.8621474609375,-7.480888838863373,-0.857971751075983,6.282561097338795
1776554209305186300,2.872186279296875,-7.527918301063775,-0.8191821478240191,6.231354641714692
1776554209315226400,2.882226318359375,-7.59005122437179,-0.7542126859158277,6.163819567102194
1776554209325265400,2.892265380859375,-7.65482443305552,-0.6690100718613714,6.093149117073416
1776554209335304200,2.90230419921875,-7.715283285671472,-0.5640499603483825,6.02715834929347
1776554209345344300,2.91234423828125,-7.7704609830141065,-0.4455759950067848,5.965884673163295
1776554209355383300,2.92238330078125,-7.820383244046568,-0.3151126819901168,5.908696805042028
1776554209365423400,2.93242333984375,-7.859317078074812,-0.18267112770304084,5.8624359891265625
1776554209375462400,2.94246240234375,-7.896366413530707,-0.049323171761305996,5.815096145802736
1776554209385501400,2.95250146484375,-7.940279789537191,0.07924213474746793,5.754655997887253
1776554209395541500,2.96254150390625,-7.9832363032102585,0.18097769472338257,5.692588541030884
1776554209405580300,2.972580322265625,-8.00182760643363,0.2467188899227418,5.6639446303486825
1776554209415620400,2.982620361328125,-7.975718767186999,0.2920488364625722,5.698509163251519
1776554209425659400,2.992659423828125,-7.905397276726364,0.32189200339931995,5.7940884290874
1776554209435698200,3.0026982421875,-7.814360915017128,0.3584850099224597,5.914188972717524
1776554209445738200,3.01273828125,-7.723155626481771,0.4145647706713527,6.02921060564816
1776554209455777300,3.02277734375,-7.635141242942214,0.48070890238210556,6.135463825711607
1776554209465817300,3.0328173828125,-7.559128847363591,0.5480228450572118,6.223313374078273
1776554209475856400,3.0428564453125,-7.504428119882941,0.6110917705737055,6.283352539977431
1776554209485895400,3.0528955078125,-7.459597044509649,0.664435530487448,6.331138958024979
1776554209495935500,3.062935546875,-7.414264449355006,0.7078353309486061,6.379501714655756
1776554209505974300,3.072974365234375,-7.375618200096487,0.7369667328868061,6.4208659907013175
1776554209516014300,3.083014404296875,-7.3542586012035605,0.7436714181572198,6.444549648627638
1776554209526053400,3.093053466796875,-7.341476276519894,0.7289905663758516,6.460781236982346
1776554209536092200,3.103092041015625,-7.327539521104097,0.7141236905030905,6.478239152261614
1776554209546132200,3.11313232421875,-7.323063836994767,0.7077047633714973,6.484001369050144
1776554209556171500,3.123171630859375,-7.361355865988135,0.6998876598797739,6.441349975803494
1776554209566210300,3.133210205078125,-7.46194565346241,0.6856309517946094,6.326110316208005
1776554209576250400,3.14325048828125,-7.598506918027996,0.6621086219098419,6.163983233231305
1776554209586289400,3.153289306640625,-7.7290645582646125,0.6314257527459413,6.002770342490076
1776554209596330000,3.163330078125,-7.819139965987205,0.6149322255194187,5.88670416894257
1776554209606369000,3.173369140625,-7.859555563005805,0.613246610520035,5.832811835235357
1776554209616407800,3.18340771484375,-7.869791710337996,0.6174041685909032,5.818554177302122
1776554209626448000,3.19344775390625,-7.87718825033009,0.6209926215369254,5.808154363840818
1776554209636487000,3.20348681640625,-7.892608522301912,0.6324926513250917,5.785937271335721
1776554209646527000,3.21352685546875,-7.899359165605902,0.6575071194637566,5.773924177458882
1776554209656566000,3.22356591796875,-7.879774175170064,0.6908719211880118,5.796743912032246
1776554209666605000,3.23360498046875,-7.833735477572679,0.7222627924907952,5.855024251565337
1776554209676645000,3.24364501953125,-7.774698182192444,0.7456052357640117,5.930305994781851
1776554209686684000,3.253683837890625,-7.714351557779311,0.7464986774723976,6.0084863820493215
1776554209696724000,3.263723876953125,-7.656697241190075,0.7157040915623307,6.085486035099625
1776554209706763000,3.273762939453125,-7.594507034736871,0.6627400516811758,6.16884294822216
1776554209716801800,3.2838017578125,-7.516894802746176,0.5906436605025083,6.2703925206393
1776554209726841900,3.293841796875,-7.443589912560582,0.5099933394575491,6.3642176362842315
1776554209736881000,3.303880859375,-7.4342317171067,0.45635910869725044,6.379209453710914
1776554209746921000,3.3139208984375,-7.5048805398255585,0.4560312284497544,6.2959659378349775
1776554209756960000,3.3239599609375,-7.570552743175625,0.48114502877704796,6.214951203924417
1776554209766999000,3.3339990234375,-7.59861154744625,0.5211892351999878,6.177365277373791
1776554209777039000,3.3440390625,-7.597837640464306,0.5682572027798741,6.174166773593425
1776554209787078000,3.354077880859375,-7.573763521915674,0.6058554408228024,6.200115453842282
1776554209797117000,3.364116943359375,-7.5628125043123955,0.6264389773093164,6.211427705973386
1776554209807157000,3.374156982421875,-7.575410120078921,0.6275728767100721,6.195942552071809
1776554209817195800,3.38419580078125,-7.595683092778921,0.6116604373071343,6.1726703975558275
1776554209827235800,3.39423583984375,-7.605392585888505,0.5831592595638707,6.163466515880823
1776554209837275100,3.404275146484375,-7.5988821810811755,0.5573831959355622,6.173871590039134
1776554209847314000,3.41431396484375,-7.582846992081404,0.5439435033217073,6.194750711938738
1776554209857354000,3.42435400390625,-7.563913159030675,0.546574253684096,6.2176248070478435
1776554209867393000,3.43439306640625,-7.546845704373717,0.5603570971798152,6.2371069216310975
1776554209877433000,3.44443310546875,-7.535452788221836,0.5700327245524153,6.249992122167349
1776554209887471900,3.454471923828125,-7.528863472959399,0.5685819777548313,6.258060862332582
1776554209897511000,3.464510986328125,-7.5324349017053835,0.5570584940258413,6.254797476622462
1776554209907551000,3.474551025390625,-7.549432798257469,0.5354071091121062,6.236167594954371
1776554209917590000,3.484590087890625,-7.572011125290393,0.5108795111749321,6.210799344941973
1776554209927629800,3.4946298828125,-7.587341380891203,0.48729021700117736,6.19396336095333
1776554209937669000,3.504669189453125,-7.585230087825655,0.465831432050094,6.198198806565999
1776554209947708000,3.5147080078125,-7.567458868813515,0.4506196517297998,6.221003928092122
1776554209957748000,3.524748046875,-7.54758570908606,0.44926169778220354,6.245198458150028
1776554209967787000,3.534787109375,-7.531577408093214,0.46870793733447785,6.263069045883417
1776554209977827000,3.5448271484375,-7.534263870698213,0.5014321030676364,6.257300983875989
1776554209987865900,3.554865966796875,-7.561054846990108,0.5311648318998515,6.222434253156185
1776554209997905000,3.56490478515625,-7.590178065621853,0.5500057625027374,6.1852300193995235
1776554210007945000,3.574945068359375,-7.599979328668117,0.5548968590125442,6.172745800879597
1776554210017984000,3.58498388671875,-7.579770068854093,0.5424191432986408,6.1986494729429475
1776554210028024000,3.595024169921875,-7.532798474320769,0.5100245748460293,6.258371243456006
1776554210038063000,3.60506298828125,-7.468272518396377,0.4668412666797638,6.338560632458329
1776554210048102000,3.615101806640625,-7.405430570036172,0.4277180475592613,6.41459523986876
1776554210058142000,3.625141845703125,-7.32936147583425,0.3990099855996668,6.503202328604459
1776554210068181000,3.635180908203125,-7.23212158330977,0.37367322670407593,6.612651714360713
1776554210078219800,3.6452197265625,-7.1344959063380955,0.3453396240800619,6.719381319764256
1776554210088259800,3.655259765625,-7.047861578980088,0.3129572575218975,6.811761497297883
1776554210098299100,3.665299072265625,-6.9748962960124015,0.2814632363718934,6.887814224886894
1776554210108339000,3.6753388671875,-6.923249110883474,0.26208702984852716,6.940483738800883
1776554210118378000,3.6853779296875,-6.880756123068928,0.257123379559163,6.982798447439074
1776554210128417000,3.6954169921875,-6.832707254692911,0.2622467869875021,7.029632094806432
1776554210138457000,3.70545703125,-6.776711226704716,0.2721209874058142,7.083256132966279
1776554210148496000,3.715495849609375,-6.723615596333146,0.2827290550566278,7.1332631496727466
1776554210158536000,3.725535888671875,-6.681935093945264,0.2918667030950077,7.17195440711677
1776554210168575000,3.735574951171875,-6.644907385799288,0.29560700386818495,7.206122634178399
1776554210178614000,3.745614013671875,-6.600161066100001,0.2964482039326802,7.2470946960359806
1776554210188653800,3.75565380859375,-6.546546380290389,0.2953347445317544,7.295607674792408
1776554210198693000,3.765693115234375,-6.496557483762502,0.29271139202453195,7.3402622245550155
1776554210208733200,3.775733154296875,-6.448821919119358,0.2965104920465499,7.3820841812402005
1776554210218772000,3.78577197265625,-6.395860728782415,0.30082177937440574,7.4278434773743145
1776554210228811000,3.79581103515625,-6.350230027464032,0.3131218734990805,7.466386266258358
1776554210238851000,3.80585107421875,-6.311257030469179,0.3399962902907282,7.498187764188647
1776554210248889900,3.815889892578125,-6.262640006816387,0.37487394426334647,7.537187649190425
1776554210258930000,3.825929931640625,-6.201057703128456,0.4096052485678345,7.586138434842228
1776554210268969000,3.835968994140625,-6.149842479676008,0.43914581582881507,7.626071801301837
1776554210279008000,3.846008056640625,-6.121939742749929,0.4609992991859093,7.647202852135896
1776554210289048000,3.856048095703125,-6.0975675180375575,0.47629926924630994,7.66571582942605
1776554210299087000,3.866087158203125,-6.052329615429043,0.49549270308129484,7.700271594500541
1776554210309127200,3.876127197265625,-5.973363630741834,0.5360059517880902,7.758995586147904
1776554210319166000,3.886166015625,-5.848463577875495,0.6169497758869081,7.8476254712373015
1776554210329205000,3.896205078125,-5.695245193019509,0.7345757460970431,7.949526925832033
1776554210339245000,3.9062451171875,-5.552503778514266,0.8614137812886387,8.037291134002805
1776554210349283800,3.916283935546875,-5.46291820013523,0.9697883043549954,8.086187559118866
1776554210359324000,3.926323974609375,-5.417811814951897,1.050502886275202,8.106426045027375
1776554210369363000,3.936363037109375,-5.384097176876664,1.1161094039779156,8.120109702464937
1776554210379402000,3.946402099609375,-5.351139494648575,1.1793735963381826,8.132942296031118
1776554210389442000,3.956442138671875,-5.329099512276053,1.2513771946668624,8.136654010030627
1776554210399481000,3.966481201171875,-5.318207531383633,1.3330651516638696,8.130804699480533
1776554210409519900,3.976519775390625,-5.270984007915854,1.4314556755281984,8.14481627369821
1776554210419560000,3.986559814453125,-5.182537078177929,1.553988999263197,8.179046460080146
1776554210429599000,3.996598876953125,-5.079244461485743,1.6916214001916348,8.21645235388875
1776554210439639000,4.00663916015625,-4.984159701168537,1.8251799758099019,8.246045528119803
1776554210449677800,4.016677734375,-4.906899935877322,1.9416179052792488,8.265763789546488
1776554210459717000,4.026717041015625,-4.852729077489673,2.0480730776555833,8.272049737948178
1776554210469757200,4.036757080078125,-4.8206379489630455,2.1569684827908873,8.263130518433451
1776554210479796000,4.0467958984375,-4.811716683621705,2.2595045820273456,8.240898812881111
1776554210489836000,4.0568359375,-4.832583530561625,2.355750348947942,8.20164349181354
1776554210499875000,4.066875,-4.854183367951214,2.461509063492715,8.157711411106586
1776554210509913900,4.076913818359375,-4.815885201478004,2.5728210282504556,8.146055460104346
1776554210519954000,4.086953857421875,-4.687337439759076,2.666835528987646,8.190679614728689
1776554210529993000,4.096992919921875,-4.534301717993617,2.743285439200699,8.251356494009494
1776554210540032800,4.10703271484375,-4.428010211746394,2.796170349431038,8.291233746367693
1776554210550072000,4.117072021484375,-4.38012617854327,2.8132778438374397,8.31085673072636
1776554210560111000,4.127111083984375,-4.382351453377306,2.805008028142154,8.312478778970242
1776554210570151200,4.137151123046875,-4.411897573596239,2.773823785327375,8.307312189987302
1776554210580190000,4.14718994140625,-4.405377231916785,2.718772052451968,8.328944176080823
1776554210590230000,4.15722998046875,-4.340241327400506,2.657109961526096,8.38286748944819
1776554210600268800,4.167268798828125,-4.25813587564379,2.612050630354881,8.438949442154168
1776554210610307600,4.1773076171875,-4.178424917808175,2.578330147060752,8.489013742005824
1776554210620347600,4.18734765625,-4.1497517810314895,2.530608318682015,8.517391695228218
1776554210630387000,4.197386962890625,-4.178121550947427,2.452662032431364,8.526319682571291
1776554210640426800,4.2074267578125,-4.2292414973318575,2.3479944741241634,8.530582016190886
1776554210650465800,4.2174658203125,-4.267026745846867,2.2318356538571416,8.54293705537319
1776554210660504800,4.2275048828125,-4.262953797319531,2.127362449078262,8.571577458924054
1776554210670544600,4.237544677734375,-4.214294103568792,2.048925895092636,8.614640355581045
1776554210680583700,4.247583740234375,-4.160349455152452,2.002434923683107,8.651713656434417
1776554210690623700,4.257623779296875,-4.163313857915997,2.0146371103912593,8.64745307638049
1776554210700662800,4.267662841796875,-4.203442454686761,2.0402800856918097,8.621990718343854
1776554210710701800,4.277701904296875,-4.244708823315799,2.040900555677712,8.601602010309696
1776554210720741600,4.28774169921875,-4.272199472309649,2.0261787873640653,8.59146698526442
1776554210730781000,4.297781005859375,-4.291572865821421,2.0111285177484155,8.585345872035623
1776554210740819700,4.30781982421875,-4.297201811619103,2.0048674115270373,8.583992703860998
1776554210750859800,4.31785986328125,-4.291240565127134,2.004730048882961,8.587008252289891
1776554210760898800,4.32789892578125,-4.291834147106111,1.9947369165264068,8.589037127768993
1776554210770938600,4.337938720703125,-4.304676677544415,1.964404029843956,8.589601191392541
1776554210780977700,4.347977783203125,-4.336420892329514,1.918779612135887,8.583944773066044
1776554210791016700,4.3580166015625,-4.3741789605766535,1.880552465072274,8.573241592743992
1776554210801056500,4.368056396484375,-4.395485075716674,1.852638914491236,8.568420456197858
1776554210811095800,4.378095703125,-4.389636641949415,1.8278835356801748,8.57673177294731
1776554210821136000,4.388135986328125,-4.372814978747069,1.7999755380570888,8.591214471808076
1776554210831175000,4.3981748046875,-4.3910041309103365,1.7914191605053842,8.583722070226072
1776554210841213700,4.408213623046875,-4.461532834380865,1.826089784131199,8.53993553546965
1776554210851253800,4.418253662109375,-4.518704043628275,1.870150459653884,8.50024942176938
1776554210861292800,4.428292724609375,-4.555810954490304,1.8981512501269577,8.47419611210227
1776554210871332600,4.43833251953125,-4.585492099265754,1.9002187040507792,8.45770850315988
1776554210881371600,4.44837158203125,-4.6009097408890725,1.8720919491104782,8.455607146966457
1776554210891411000,4.458410888671875,-4.597423944599926,1.8092827339760957,8.471160689929127
1776554210901450800,4.46845068359375,-4.64157025257945,1.7033936710499227,8.469041213557123
1776554210911489800,4.47848974609375,-4.778562309777737,1.5540626490212976,8.421437166339159
1776554210921528800,4.48852880859375,-4.9303702433139085,1.3795442865051328,8.364131809318065
1776554210931568600,4.498568603515625,-5.0135669974386685,1.1983351941786706,8.342573472982645
1776554210941607700,4.508607666015625,-5.071961318740248,1.046907565196976,8.327640107744932
1776554210951647700,4.518647705078125,-5.14031063234508,0.938223464724794,8.298634962534903
1776554210961686800,4.528686767578125,-5.255074491122365,0.8668445741657167,8.234267996564506
1776554210971725800,4.538725830078125,-5.412520138284564,0.8240374058354646,8.136091115450858
1776554210981765600,4.548765625,-5.562486827868223,0.8076442702434956,8.035971868097782
1776554210991805000,4.558804931640625,-5.692224383893609,0.8257219979215413,7.942741795736551
1776554211001844700,4.5688447265625,-5.799957028859853,0.8625220347914844,7.860466832631826
1776554211011883800,4.5788837890625,-5.898346675941347,0.9180544638559222,7.780556845092773
1776554211021922800,4.5889228515625,-5.994792787739634,0.9783343797083943,7.699070986539125
1776554211031962600,4.598962646484375,-6.059305884182453,1.0389913121797143,7.6403984328180545
1776554211042001700,4.609001708984375,-6.082681499072909,1.0893008920293301,7.614774162217974
1776554211052041700,4.619041748046875,-6.051470368251204,1.111367762408778,7.636422514924407
1776554211062080500,4.62908056640625,-5.943740061372518,1.1095741569902746,7.720828060317039
1776554211072119800,4.639119873046875,-5.8101452453970905,1.1183757414747029,7.820603024277091
1776554211082159900,4.649159912109375,-5.678686856928468,1.145228530956432,7.912734195485711
1776554211092199000,4.659198974609375,-5.534166157791018,1.1539796273626386,8.013222276151179
1776554211102237700,4.66923779296875,-5.387561053594947,1.1361301554825156,8.115034883418678
1776554211112277800,4.67927783203125,-5.257514285489917,1.0963382433202118,8.205302014321088
1776554211122316800,4.68931689453125,-5.134763519611955,1.012135673153773,8.293380695268512
1776554211132356600,4.699356689453125,-5.064453135067224,0.8693911168433726,8.35259568530321
1776554211142395600,4.709395751953125,-5.055982243841886,0.673744772233069,8.375767886576057
1776554211152435000,4.71943505859375,-5.051145909726619,0.45470578853227195,8.393422785732149
1776554211162474800,4.729474853515625,-5.029262579220533,0.27261510933199895,8.414426995316147
1776554211172513800,4.739513671875,-5.0069987249642605,0.14674023835044353,8.430825756931304
1776554211182553900,4.749553955078125,-5.0038124961435795,0.07255630030799656,8.433681730884313
1776554211192592600,4.759592529296875,-5.026258721229434,0.0365738748476957,8.420556291851401
1776554211202631700,4.769631591796875,-5.05272937952578,0.0012315607929282123,8.404778877004981
1776554211212671700,4.779671630859375,-5.062407308453321,-0.07371068080777768,8.398629122203587
1776554211222710800,4.789710693359375,-5.035210673969984,-0.18119362076269463,8.413335692948102
1776554211232750600,4.79975048828125,-4.9720279493480914,-0.3154039930868894,8.446883742284774
1776554211242789600,4.80978955078125,-4.882348262944817,-0.4611139385415241,8.492375327393413
1776554211252829000,4.819828857421875,-4.789241232441365,-0.5860076347323134,8.537573482513427
1776554211262868700,4.82986865234375,-4.724010635378956,-0.6818443459279835,8.566749308115243
1776554211272907800,4.83990771484375,-4.699393788255751,-0.7660601409021764,8.57317028107345
1776554211282947800,4.84994775390625,-4.699053011994064,-0.8471344229802489,8.565724641242623
1776554211292986600,4.859986572265625,-4.704794185994565,-0.9227376532360911,8.554756087982653
1776554211303025700,4.870025634765625,-4.7090050816878675,-0.9959382793296128,8.544224172574282
1776554211313065700,4.880065673828125,-4.715688212713599,-1.0698141743361949,8.531597330713272
1776554211323104500,4.8901044921875,-4.722160623598098,-1.130687379906699,8.520159990897774
1776554211333143800,4.900143798828125,-4.730455281473696,-1.177336610617861,8.509233523213863
1776554211343184000,4.910183837890625,-4.7345697310552,-1.2148746063735336,8.501664549264312
1776554211353223000,4.920222900390625,-4.7307864131242034,-1.2429505809746682,8.499713415196538
1776554211363262700,4.9302626953125,-4.726374734161794,-1.2610150838449596,8.499505909925698
1776554211373301800,4.9403017578125,-4.729868713757395,-1.2737237587705255,8.495666185632347
1776554211383340800,4.9503408203125,-4.745211244317889,-1.284420217090845,8.485494920229911
1776554211393380600,4.960380615234375,-4.770273204860091,-1.295443569277972,8.469753161218762
1776554211403419600,4.970419677734375,-4.800410861231386,-1.3083740702606736,8.45071586779356
1776554211413459700,4.980459716796875,-4.829921325615048,-1.3247398063890634,8.431329030278324
1776554211423498800,4.990498779296875,-4.851787997247278,-1.3409081202492117,8.416205695426463
1776554211433537800,5.000537841796875,-4.861633099435269,-1.3508359322845935,8.408933074074984
1776554211443577900,5.010577880859375,-4.860814184267818,-1.3545168127544223,8.408814416131376
1776554211453616600,5.02061669921875,-4.851914838497341,-1.3514960036285222,8.41443810123205
1776554211463655700,5.03065576171875,-4.839925710017979,-1.3336914668686688,8.4241779894799
1776554211473695700,5.04069580078125,-4.82727840989083,-1.2997173010744154,8.436735273236035
1776554211483734800,5.05073486328125,-4.817922552524506,-1.2585615532130001,8.448315236392617
1776554211493774600,5.060774658203125,-4.816953415231406,-1.219798472641781,8.454552084955573
1776554211503813600,5.070813720703125,-4.827824353335798,-1.1944756692063063,8.4519661601156
1776554211513853000,5.08085302734375,-4.852500529430807,-1.1862413632158189,8.438984513467549
1776554211523892700,5.090892822265625,-4.883262162919342,-1.1895588902659713,8.420752691206335
1776554211533931800,5.100931884765625,-4.909481184542178,-1.195071662338078,8.404711656987667
1776554211543970800,5.110970703125,-4.923147890844941,-1.1959012450300157,8.39659557054937
1776554211554010600,5.1210107421875,-4.925327572971582,-1.1973078238923103,8.39511673016846
1776554211564049700,5.131049560546875,-4.923232061997056,-1.2069809305142611,8.394960662823914
1776554211574089700,5.14108984375,-4.9221243930161,-1.2213706903945654,8.393529168716073
1776554211584128500,5.15112841796875,-4.925471365356445,-1.2351666491001845,8.389545652037858
1776554211594167800,5.161167724609375,-4.927130823001265,-1.248200756587833,8.386641162768006
1776554211604207900,5.171207763671875,-4.9261271989166735,-1.259570291864127,8.385531155699491
1776554211614247000,5.181246826171875,-4.924888012510538,-1.2700414169959724,8.384680091828107
1776554211624287000,5.191286865234375,-4.922581489133835,-1.279669369301945,8.384570786234736
1776554211634325800,5.20132568359375,-4.9219618959307665,-1.2894764775671064,8.383431553071738
1776554211644364800,5.21136474609375,-4.923775667354464,-1.2992355089068413,8.380859072235227
1776554211654404900,5.22140478515625,-4.924600427740812,-1.3075459488734602,8.37908154116869
1776554211664444000,5.23144384765625,-4.923736504387855,-1.3150785363353787,8.378410510039329
1776554211674483000,5.24148291015625,-4.918696172133088,-1.321738286485523,8.380324234706164
1776554211684522800,5.251522705078125,-4.905988666251301,-1.3277590080797672,8.38681885742247
1776554211694562000,5.26156201171875,-4.885814770011604,-1.334491823466122,8.397519699656963
1776554211704601900,5.271601806640625,-4.860547642286122,-1.3433382700055836,8.410760289502143
1776554211714641000,5.281640869140625,-4.833772448085248,-1.353814217443019,8.424500061041115
1776554211724680000,5.291679931640625,-4.805604045960306,-1.3649327005676923,8.438810910466312
1776554211734719700,5.3017197265625,-4.774435000714659,-1.3759693506278097,8.454694708296657
1776554211744758800,5.3117587890625,-4.736370058475434,-1.3855956954985855,8.474509415835142
1776554211754797800,5.3217978515625,-4.693308623123169,-1.3948404937058687,8.496921154129504
1776554211764837600,5.331837646484375,-4.651451595124602,-1.405593650649488,8.518139298725128
1776554211774877000,5.341876953125,-4.615865317958593,-1.4182722226977347,8.535378602817653
1776554211784917000,5.3519169921875,-4.583862159976363,-1.4306082649186254,8.550552791073917
1776554211794956000,5.3619560546875,-4.5511569912046195,-1.4413042848475277,8.56621271702051
1776554211804994800,5.371994873046875,-4.51688618055135,-1.4523622699566185,8.582468855294584
1776554211815035000,5.382034912109375,-4.481149096737802,-1.463798294597864,8.5992440490067
1776554211825074000,5.392073974609375,-4.44449519034028,-1.4747976813875139,8.616369371330737
1776554211835113700,5.40211376953125,-4.4083664768606425,-1.4853544389761983,8.633100141379236
1776554211845152800,5.41215283203125,-4.3738332158789035,-1.4956078297041355,8.648880478835105
1776554211855192000,5.422192138671875,-4.342937434616685,-1.5073596422962843,8.662399301099777
1776554211865232000,5.43223193359375,-4.312707423786819,-1.520224238435924,8.67524358510375
1776554211875271000,5.44227099609375,-4.280046094156801,-1.5342342052184044,8.688943024632334
1776554211885310000,5.45231005859375,-4.243006403312087,-1.547434609183669,8.704753757226467
1776554211895349800,5.462349853515625,-4.200444734175503,-1.5575092823438346,8.723578869205713
1776554211905388800,5.472388916015625,-4.156435788840056,-1.5656823596663771,8.743172042948007
1776554211915428900,5.482428955078125,-4.114255812497436,-1.5731250768877565,8.761767437824606
1776554211925468000,5.492468017578125,-4.074061749275028,-1.5799989081799983,8.779294326686859
1776554211935507000,5.5025068359375,-4.031273870167136,-1.5863586524702609,8.797879200169444
1776554211945546800,5.512546630859375,-3.9812738677233455,-1.5910006330572068,8.819781819897889
1776554211955586000,5.5225859375,-3.924245574077964,-1.5946680695235729,8.84464387395382
1776554211965624800,5.532624755859375,-3.8612200858443972,-1.6040622130736708,8.870646330216527
1776554211975665000,5.542664794921875,-3.79338515150249,-1.6253797263905405,8.895995875528454
1776554211985704000,5.552703857421875,-3.7248657420277596,-1.6574715855695306,8.91899973449707
1776554211995743700,5.56274365234375,-3.6602132371142506,-1.6981804664462803,8.938087881326675
1776554212005782800,5.57278271484375,-3.6027991590216755,-1.746103224224597,8.952170182693004
1776554212015821800,5.58282177734375,-3.55218394728899,-1.797214110519737,8.962275981643796
1776554212025861600,5.592861572265625,-3.5055256564885378,-1.8490272998653352,8.970103898790478
1776554212035901000,5.60290087890625,-3.4592198323875665,-1.9013566220395266,8.977138619732857
1776554212045940000,5.61293994140625,-3.4120986002504825,-1.9537296372249722,8.983926087915897
1776554212055980000,5.62297998046875,-3.3668794023424384,-2.0057553002774715,8.989519377878308
1776554212066018800,5.633018798828125,-3.331490109053254,-2.058375860483199,8.990808248645067
1776554212076059000,5.643058837890625,-3.309289383161068,-2.111920257535577,8.98658858512342
1776554212086098000,5.653097900390625,-3.2994434041902423,-2.161958692293614,8.97830766351223
1776554212096136700,5.66313671875,-3.2999966541588304,-2.203690048085898,8.967951104670762
1776554212106176800,5.6731767578125,-3.3081393363431095,-2.2334281837455925,8.957589285132288
1776554212116216000,5.683216064453125,-3.323457316984236,-2.2528502387046814,8.94705035546124
1776554212126254800,5.6932548828125,-3.341061070474982,-2.2671040972456336,8.93688668884337
1776554212136295000,5.703294921875,-3.3549043023884293,-2.281542810834199,8.928020660820604
1776554212146334000,5.713333984375,-3.3703701670676467,-2.300698469942063,8.917274225878716
1776554212156373800,5.723373779296875,-3.391744086746871,-2.323657466855645,8.903206537559628
1776554212166412800,5.733412841796875,-3.4154166387572884,-2.347175120565295,8.887973312592505
1776554212176451800,5.743451904296875,-3.442000694300234,-2.3722854502938686,8.871035621795057
1776554212186492000,5.753491943359375,-3.475162666928768,-2.4001032854154705,8.850600736531614
1776554212196531000,5.763531005859375,-3.5079005689263343,-2.4267075069636106,8.830407843330502
1776554212206570000,5.773570068359375,-3.535457853415608,-2.4536513357296585,8.811952733707427
1776554212216610000,5.783610107421875,-3.555775542040169,-2.484771865658462,8.795040761873125
1776554212226648800,5.79364892578125,-3.564149694892764,-2.5175132747873663,8.78233208694756
1776554212236688000,5.80368798828125,-3.5621824864730236,-2.5479779711559414,8.774341672715543
1776554212246728000,5.81372802734375,-3.551976734279096,-2.5693705955356356,8.77224031652212
1776554212256766700,5.8237666015625,-3.539061723126471,-2.57889362616241,8.774664328798652
1776554212266806800,5.833806884765625,-3.5221225710242985,-2.577911629387736,8.781765685236454
1776554212276845800,5.843845703125,-3.4993209566295147,-2.5664848109662532,8.794219508618117
1776554212286884900,5.853884765625,-3.4787589378550647,-2.548075878572464,8.807720210704208
1776554212296925000,5.863925048828125,-3.462946743956208,-2.529871528840065,8.819190868267416
1776554212306964000,5.8739638671875,-3.445581475396454,-2.5171803895711897,8.829619323301316
1776554212317002800,5.884002685546875,-3.4253511727944015,-2.5176763563945888,8.837344949117302
1776554212327042800,5.894042724609375,-3.4039722846791145,-2.530341484439373,8.841986637443304
1776554212337081900,5.904081787109375,-3.386020740664005,-2.5496958809897303,8.843318762829899
1776554212347122000,5.914121826171875,-3.368614847832918,-2.5719991904735564,8.843508732444047
1776554212357160700,5.92416064453125,-3.351861281430721,-2.5957389625012874,8.842937070035934
1776554212367200000,5.934199951171875,-3.3364743272066115,-2.6161551430642604,8.842740670681
1776554212377240000,5.944239990234375,-3.3273005484089255,-2.633205646586418,8.84113557357192
1776554212387278800,5.95427880859375,-3.3225518925771116,-2.654262755401432,8.836623649105428
1776554212397318000,5.96431787109375,-3.3183468421027063,-2.675858208876848,8.831690284356474
1776554212407358000,5.97435791015625,-3.3148478940710424,-2.6867989973470565,8.829681867143512
1776554212417396700,5.984396728515625,-3.313392434565723,-2.6834444262221453,8.831248385807871
1776554212427436800,5.994436767578125,-3.310564809924364,-2.6726231724783776,8.835589045360685
1776554212437475800,6.004475830078125,-3.3096105779394507,-2.667911341525614,8.837369499036669
1776554212447515000,6.014514892578125,-3.315179902504384,-2.675516848093271,8.832982077732682
1776554212457555000,6.024554931640625,-3.3250039619043465,-2.698419292514026,8.82231630681157
1776554212467594000,6.034593994140625,-3.3260604852199553,-2.737362478892505,8.809912752312421
1776554212477632800,6.0446328125,-3.308547917144,-2.786794033798575,8.801004638713598
1776554212487672800,6.0546728515625,-3.2732188296094535,-2.836998326642811,8.798174383723735
1776554212497711900,6.0647119140625,-3.2251220304384827,-2.8742119127497077,8.80385593649149
1776554212507750700,6.074750732421875,-3.1752225657597184,-2.887260487154126,8.817714365974068
1776554212517790700,6.084790771484375,-3.14127587249428,-2.876962088240683,8.833225823360682
1776554212527829800,6.094829833984375,-3.1394775909006594,-2.857642470742762,8.840132534009218
1776554212537869800,6.104869873046875,-3.173275815606117,-2.8449752968713637,8.832146795952319
1776554212547908900,6.114908935546875,-3.2339827977642415,-2.846806896212697,8.809507678642868
1776554212557948000,6.124947998046875,-3.3038439772367476,-2.8661493100643156,8.777254345291853
1776554212567988000,6.134988037109375,-3.366430197270214,-2.899726000973582,8.742374755090475
1776554212578026800,6.14502685546875,-3.410221115940809,-2.9383424396157265,8.712457171210646
1776554212588065800,6.155065673828125,-3.432434993575513,-2.970656270982325,8.6927535228312
1776554212598105900,6.16510595703125,-3.4440193406462667,-2.990395575197041,8.68139626251459
1776554212608144600,6.17514453125,-3.4568154015943406,-2.996635346369445,8.674156374388932
1776554212618184700,6.185184814453125,-3.4760639996826646,-2.9963255497679113,8.666566942173242
1776554212628224000,6.19522412109375,-3.5021199396982787,-2.9987440090864896,8.655233062732218
1776554212638262800,6.2052626953125,-3.5327401188895102,-3.008881079958379,8.639258079487085
1776554212648302800,6.215302734375,-3.5660488065123555,-3.028786972911656,8.618592892599105
1776554212658342000,6.225341796875,-3.5956001874282952,-3.0569930766984816,8.596326700255274
1776554212668381000,6.235380859375,-3.6178462137669323,-3.0869626830264925,8.576258894738555
1776554212678420700,6.245420654296875,-3.6311893872037526,-3.110054512539506,8.562266609743237
1776554212688459800,6.255459716796875,-3.636511751270294,-3.1222748194262384,8.555556882971525
1776554212698499000,6.2654990234375,-3.638567222495377,-3.125977765597403,8.553331023615598
1776554212708539000,6.275538818359375,-3.635611003038287,-3.119600924041867,8.556915311843156
1776554212718578000,6.285577880859375,-3.629008536033332,-3.1123920155763622,8.562340844023227
1776554212728618000,6.295617919921875,-3.6166947056442496,-3.114218646481633,8.566887255281209
1776554212738656800,6.30565673828125,-3.5940815995588897,-3.121982558481395,8.573575354743003
1776554212748695800,6.31569580078125,-3.5697859472140667,-3.1363293560028076,8.57848826122582
1776554212758736000,6.32573583984375,-3.5469533531591293,-3.1479008435919877,8.583718563094735
1776554212768774700,6.335774658203125,-3.5233477289050814,-3.1427731253147124,8.595311970254778
1776554212778814000,6.34581396484375,-3.508725621573627,-3.1273057993307707,8.60692700472474
1776554212788853800,6.355853759765625,-3.503540620151162,-3.1136066520631314,8.614002642199397
1776554212798893000,6.36589306640625,-3.503251574076712,-3.1089842529594898,8.615788941094278
1776554212808931800,6.375931884765625,-3.506690608614683,-3.1138261400327085,8.612640706196427
1776554212818972000,6.385971923828125,-3.519491930259764,-3.13128902374804,8.601080032262205
1776554212829011000,6.396010986328125,-3.5425352444559333,-3.1536031468868253,8.58344968302548
1776554212839050800,6.40605078125,-3.5707860641673204,-3.164311295644939,8.567789757078886
1776554212849089800,6.41608984375,-3.5957737904295324,-3.161099347861111,8.558519239908456
1776554212859128800,6.42612890625,-3.6081586402282118,-3.152600691846013,8.55644068006873
1776554212869168600,6.436168701171875,-3.6055981420904395,-3.148658091700077,8.558971659851073
1776554212879208000,6.4462080078125,-3.593370236419141,-3.1529429294124243,8.562536658856272
1776554212889247000,6.4562470703125,-3.5784868478029965,-3.162089820203185,8.565395555418728
1776554212899286800,6.466286865234375,-3.565156826108694,-3.1715032529756426,8.567474699780345
1776554212909325800,6.476325927734375,-3.5556305806115267,-3.177310185688734,8.569282041463255
1776554212919364900,6.48636474609375,-3.5515471106901764,-3.1785195614784953,8.570526488566399
1776554212929405000,6.496405029296875,-3.5530709592565892,-3.1757360682398077,8.570925717017055
1776554212939443700,6.506443603515625,-3.5593574921801685,-3.171280842396617,8.569966516596079
1776554212949483800,6.51648388671875,-3.5666663538888095,-3.1676424858942624,8.568274325725437
1776554212959523000,6.526523193359375,-3.5722073291420933,-3.165310243554413,8.56682821857035
1776554212969561900,6.536561767578125,-3.575047813265025,-3.163771781940758,8.566210378932952
1776554212979602000,6.546601806640625,-3.574875087046623,-3.161608174166083,8.567081316548585
1776554212989641000,6.556640869140625,-3.5713010279521344,-3.1584859504923224,8.56972277096808
1776554212999679700,6.5666796875,-3.5650238473787903,-3.1553447298571466,8.573493521678447
1776554213009719800,6.5767197265625,-3.5576030497282742,-3.152766111540794,8.577523800107837
1776554213019758800,6.5867587890625,-3.550740178221464,-3.1509771822974084,8.58102508622706
1776554213029798000,6.5967978515625,-3.545860004964471,-3.1501728801771995,8.583338039344548
1776554213039838000,6.606837890625,-3.5428427029699083,-3.1498806192323565,8.584691207519173
1776554213049877000,6.616876953125,-3.5403637456357475,-3.1494401819884774,8.58587369530201
1776554213059917000,6.6269169921875,-3.537211419084668,-3.1489997447445988,8.587335000026226
1776554213069955800,6.636955810546875,-3.533834343867004,-3.1490505981490013,8.58870687290132
1776554213079995000,6.646994873046875,-3.5315710751101372,-3.149624014122784,8.589427003869414
1776554213090035000,6.657034912109375,-3.531209840582311,-3.1505089802637696,8.589251062780619
1776554213100073700,6.66707373046875,-3.5326331513836977,-3.151308021686971,8.588373110902308
1776554213110113000,6.677113037109375,-3.5356679890349505,-3.1522368269696828,8.586782626840472
1776554213120152800,6.68715283203125,-3.5407299485996364,-3.153068601618707,8.584391347789763
1776554213130192000,6.69719189453125,-3.5474189248442647,-3.1533249144673348,8.581535373836756
1776554213140231000,6.70723095703125,-3.554249939908087,-3.1523250897750255,8.579075705724954
1776554213150271000,6.71727099609375,-3.5595009923040863,-3.1501401469513772,8.577701494762302
1776554213160309800,6.727309814453125,-3.5625817149236796,-3.1479934903115034,8.577211080896854
1776554213170348800,6.737348876953125,-3.5635581587404013,-3.147012954841554,8.577164903667569
1776554213180388900,6.747388916015625,-3.564004441203177,-3.147287387868762,8.576877903419733
1776554213190428000,6.757427978515625,-3.5643592459902167,-3.148361739102006,8.576336051627994
1776554213200467700,6.7674677734375,-3.563873216038942,-3.1497292280629274,8.576036776420473
1776554213210507000,6.777507080078125,-3.560824349862337,-3.151380502401292,8.57669670163393
1776554213220545800,6.7875458984375,-3.5553286750555038,-3.1533009490698576,8.578270819082856
1776554213230585900,6.7975859375,-3.5473370917797085,-3.1553973368272183,8.580808228605985
1776554213240625000,6.807625,-3.5372137571722266,-3.1574393640488383,8.584234695923328
1776554213250663700,6.81766357421875,-3.5257045211642977,-3.1592440753832456,8.588303552797436
1776554213260703700,6.827703857421875,-3.5129210274368523,-3.1605612954616547,8.593055715760588
1776554213270742800,6.83774267578125,-3.498480998674035,-3.1608330981403587,8.598845405077935
1776554213280781800,6.84778173828125,-3.4846491649374363,-3.1595977111265063,8.60491391133666
1776554213290822000,6.85782177734375,-3.475352928803861,-3.1558757679939267,8.610037245699763
1776554213300861000,6.86786083984375,-3.47048678407222,-3.1486946243181824,8.61462866514325
1776554213310901000,6.87790087890625,-3.4740614276885986,-3.1425287951648233,8.615438812482356
1776554213320939800,6.887939697265625,-3.487552192902565,-3.1382629544138907,8.611542974087595
1776554213330978800,6.897978759765625,-3.5086496337279676,-3.136422879505157,8.603639653617144
1776554213341019000,6.908018798828125,-3.534188271871209,-3.1377281168848272,8.592704418104887
1776554213351057700,6.9180576171875,-3.5602898045942184,-3.142194448643923,8.580286835080384
1776554213361097000,6.928096923828125,-3.5828733923241494,-3.1488176661759613,8.56845143585801
1776554213371137000,6.938136962890625,-3.5984526542499657,-3.156968531666696,8.558917883837223
1776554213381175800,6.94817578125,-3.6047178521245717,-3.1655665564030406,8.5531042291224
1776554213391214800,6.95821484375,-3.6004733464226124,-3.173392135462165,8.551990714922546
1776554213401255000,6.9682548828125,-3.585774082201719,-3.179019912216067,8.556076522931455
1776554213411293700,6.978293701171875,-3.5625393370866774,-3.181353615860641,8.564909817728399
1776554213421332700,6.988332763671875,-3.5347377224475145,-3.182011787508428,8.576176477152108
1776554213431372800,6.998372802734375,-3.5055446534499524,-3.1824732675403355,8.58797914314866
1776554213441412000,7.008412109375,-3.4786657066136595,-3.1825138918116687,8.59888865969777
1776554213451452000,7.018451904296875,-3.4559520627632736,-3.183190183638036,8.607792097121477
1776554213461491000,7.028490966796875,-3.4365754543811082,-3.1849405344367026,8.614899298778175
1776554213471530000,7.038530029296875,-3.42013197684139,-3.1877605602934955,8.620399065238237
1776554213481569800,7.04856982421875,-3.40631212580353,-3.1912238524898884,8.624587164577841
1776554213491608800,7.05860888671875,-3.39447877240777,-3.1948864666506647,8.627895558473467
1776554213501648000,7.06864794921875,-3.383616602131724,-3.1983652486771343,8.63087428202331
1776554213511687700,7.078687744140625,-3.372636066173017,-3.201346018053591,8.634064602497219
1776554213521726700,7.088726806640625,-3.360986544911563,-3.203729113797843,8.637723709526657
1776554213531766000,7.09876611328125,-3.348427799850702,-3.2055995838448403,8.641907132691145
1776554213541805800,7.108805908203125,-3.335178734438121,-3.207159380507469,8.646450621339678
1776554213551844900,7.118844970703125,-3.3216771555691955,-3.208567786000669,8.651124458369612
1776554213561884000,7.1288837890625,-3.3086449477776885,-3.2094699955374,8.655782513308525
1776554213571924000,7.138924072265625,-3.2961449471667406,-3.210324566540122,8.66023247845471
1776554213581962800,7.148962646484375,-3.284763721452653,-3.211327021580934,8.66418384642899
1776554213592002800,7.1590029296875,-3.2754958346307275,-3.212649794617295,8.667202317467332
1776554213602041600,7.16904150390625,-3.2689614644259213,-3.2141832877948877,8.669100260043145
1776554213612080600,7.17908056640625,-3.2655642232030626,-3.2158921375393867,8.669747325775027
1776554213622120700,7.18912060546875,-3.2645611836403607,-3.2174288455873725,8.669554433551431
1776554213632159700,7.19915966796875,-3.2651512584879994,-3.21859935067147,8.668897430947423
1776554213642198500,7.209198486328125,-3.266718361674249,-3.219308667984605,8.66804402898848
1776554213652238600,7.219238525390625,-3.2679122476339337,-3.2196614269450303,8.66746418327391
1776554213662277600,7.229277587890625,-3.2679256916373967,-3.2197382915735244,8.66742911196053
1776554213672316700,7.239316650390625,-3.265884833459556,-3.219886175611615,8.668143982231616
1776554213682356500,7.2493564453125,-3.2617300518676635,-3.2199472581490873,8.669685950976609
1776554213692395800,7.259395751953125,-3.255929548895359,-3.219695329214632,8.671959741127491
1776554213702434600,7.2694345703125,-3.249230343517661,-3.219612327106297,8.674502411347627
1776554213712474600,7.279474609375,-3.242699480444193,-3.2198671786502002,8.676849851256609
1776554213722513700,7.289513671875,-3.2373414605423805,-3.220660374854505,8.678557824218272
1776554213732552400,7.299552490234375,-3.233589706793427,-3.2218682893395423,8.679507672289013
1776554213742592500,7.309592529296875,-3.231154588600993,-3.223751034346223,8.679715762081742
1776554213752631600,7.319631591796875,-3.229652075083554,-3.2258886308968067,8.679480199760198
1776554213762671600,7.329671630859375,-3.2287147942334413,-3.228266758204996,8.678944777709246
1776554213772710700,7.339710693359375,-3.2281939852297303,-3.2304078618869183,8.678341551119088
1776554213782749700,7.349749755859375,-3.2276386894345284,-3.231798439462483,8.678030585473776
1776554213792789800,7.359789794921875,-3.2266289278700944,-3.2325548107877373,8.678124108976125
1776554213802828500,7.36982861328125,-3.224988467186689,-3.233274941755831,8.678465469759702
1776554213812867600,7.37986767578125,-3.221941939097643,-3.2343560149908064,8.679194953078031
1776554213822907600,7.38990771484375,-3.217722275575995,-3.235884539732337,8.680190393856167
1776554213832946400,7.399946533203125,-3.212596018603444,-3.2379417645230886,8.6813220282346
1776554213842985700,7.40998583984375,-3.206651723246276,-3.2403590547978878,8.682616744220256
1776554213853025800,7.42002587890625,-3.200053347894549,-3.243232272146642,8.683979849267006
1776554213863064600,7.430064697265625,-3.1929119517073032,-3.2462279468312856,8.685487331220507
1776554213873103600,7.440103515625,-3.185373957417905,-3.249153478889167,8.68716257095635
1776554213883143700,7.450143798828125,-3.178043176138401,-3.2522286485508083,8.688695771872997
1776554213893182500,7.460182373046875,-3.171592100302875,-3.2553722072735427,8.689877090612054
1776554213903221500,7.470221435546875,-3.16662191067487,-3.258503198775649,8.690514803993702
1776554213913261600,7.480261474609375,-3.162934454333782,-3.2611893691197036,8.690850904080271
1776554213923300600,7.490300537109375,-3.1596245991334317,-3.263818256318569,8.691067177179455
1776554213933340700,7.500340576171875,-3.1563214659348127,-3.266093507774174,8.69141379866004
1776554213943379700,7.510379638671875,-3.1523230439484116,-3.2682536084175107,8.692052096563577
1776554213953418500,7.52041845703125,-3.1469150474250314,-3.2703640247002244,8.693217048689723
1776554213963458600,7.53045849609375,-3.1399770648553966,-3.2719998092085123,8.695109146046638
1776554213973497600,7.54049755859375,-3.1313606276795265,-3.273473681153357,8.697662922182678
1776554213983536600,7.55053662109375,-3.1214491822570563,-3.274672535549104,8.70077433220148
1776554213993576400,7.560576416015625,-3.1110736264541745,-3.275582636131346,8.704146438983082
1776554214003615700,7.57061572265625,-3.1013308155968784,-3.276139100970328,8.70741333182454
1776554214013654800,7.58065478515625,-3.093608696912229,-3.2761405622750517,8.710160000184178
1776554214023694600,7.590694580078125,-3.0887878526270387,-3.2757588694810864,8.712014688140153
1776554214033733600,7.600733642578125,-3.0867256594002246,-3.2749884696304794,8.713034094315766
1776554214043772700,7.610772705078125,-3.0871859703883526,-3.273646699632704,8.713374870577454
1776554214053812500,7.6208125,-3.0889240462273357,-3.2722339102253315,8.71328953038156
1776554214063851500,7.6308515625,-3.091590050566196,-3.2705291521340607,8.712984409955144
1776554214073890600,7.640890625,-3.0944393025174737,-3.2683550229653715,8.712788010600208
1776554214083930400,7.650930419921875,-3.0970819259807465,-3.2658097223967313,8.71280496173501
1776554214093969700,7.6609697265625,-3.098880792096257,-3.263076205779612,8.713188992616534
1776554214104008700,7.6710087890625,-3.09991890297234,-3.2604391352742907,8.713806247732043
1776554214114048800,7.681048828125,-3.1011285710230467,-3.2582264276608823,8.714203722617029
1776554214124087600,7.691087646484375,-3.102842096942663,-3.256171540957689,8.714360959005356
1776554214134127600,7.701127685546875,-3.1052395134732125,-3.2543399416163563,8.714191447657345
1776554214144166700,7.711166748046875,-3.1077444820314644,-3.2525434135884046,8.713970498383045
1776554214154205400,7.721205322265625,-3.1096298573866483,-3.2511189337432382,8.713828459563851
1776554214164245500,7.73124560546875,-3.1105680150195956,-3.2501585642784834,8.713851840439439
1776554214174284800,7.741284912109375,-3.110764122113585,-3.2496880241572854,8.713957638901471
1776554214184323600,7.751323486328125,-3.1097955693423747,-3.249698837812245,8.714299584206938
1776554214194363600,7.76136376953125,-3.1075828617289663,-3.250374837377667,8.71483734434545
1776554214204402700,7.771402587890625,-3.103722094647586,-3.2517806125223636,8.715687239173054
1776554214214441500,7.78144140625,-3.098480102340877,-3.253301538479328,8.716984877768159
1776554214224481500,7.7914814453125,-3.092278325091302,-3.2545755039379,8.718710970908402
1776554214234520600,7.8015205078125,-3.086051413400471,-3.25527429985702,8.72065625975728
1776554214244559600,7.8115595703125,-3.0809494140863416,-3.255407570847869,8.722412163513898
1776554214254599700,7.821599609375,-3.0780455093383785,-3.255259686809778,8.72349235996604
1776554214264638700,7.831638671875,-3.078211221294105,-3.254985546043515,8.723534445542096
1776554214274677500,7.841677490234375,-3.0820515301093456,-3.2552044494912025,8.722098275259137
1776554214284717600,7.851717529296875,-3.090055096083879,-3.256208950358629,8.718890419128536
1776554214294756600,7.861756591796875,-3.101487759724259,-3.25827698880434,8.714057592144608
1776554214304795400,7.87179541015625,-3.1139117724895478,-3.261586259482801,8.70838714529276
1776554214314835500,7.88183544921875,-3.125910545580089,-3.265636996178329,8.702568229880928
1776554214324874800,7.891874755859375,-3.1363325708732006,-3.2690620021909473,8.697531404757498
1776554214334914600,7.90191455078125,-3.1437524917408823,-3.2710824021026492,8.694091493436694
1776554214344953600,7.91195361328125,-3.146828245924413,-3.272167859251797,8.692570567479729
1776554214354992600,7.92199267578125,-3.1453371305838225,-3.2738249788090585,8.692486396327615
1776554214365032700,7.93203271484375,-3.139211633440852,-3.277355198761821,8.69336960890293
1776554214375071500,7.942071533203125,-3.130143945366144,-3.282865778876841,8.694559110948443
1776554214385110500,7.952110595703125,-3.1199419925644993,-3.2891452975377438,8.695853242412209
1776554214395150600,7.962150634765625,-3.109593032507598,-3.2954517042055724,8.697172508317232
1776554214405189600,7.972189697265625,-3.0998309324279427,-3.3015503133416173,8.698343890184164
1776554214415228700,7.982228759765625,-3.0899741398021576,-3.306956556299329,8.699798765167593
1776554214425268700,7.992268798828125,-3.0808655351951715,-3.311918562620878,8.701140827426315
1776554214435307500,8.0023076171875,-3.07300693064928,-3.3159014947772025,8.702402225664258
1776554214445346600,8.0123466796875,-3.0671134886965152,-3.31875980681777,8.703391236701608
1776554214455386600,8.02238671875,-3.063238693089783,-3.320374256277084,8.704140593764185
1776554214465425400,8.03242529296875,-3.0618203507244584,-3.3217236250594255,8.704124227151274
1776554214475464700,8.042464599609374,-3.062363663820922,-3.3232010041356084,8.703370193913578
1776554214485504500,8.05250439453125,-3.061776803843677,-3.3218297157824037,8.704100261753798
1776554214495543800,8.062543701171874,-3.061005527210235,-3.3187960471749305,8.705528248730301
1776554214505582600,8.07258251953125,-3.063404697306454,-3.320659795220196,8.703972835981846
1776554214515622700,8.08262255859375,-3.065713851031661,-3.324416225144267,8.701726518359779
1776554214525661700,8.09266162109375,-3.0671769093215464,-3.3288214743658897,8.69952696248889
1776554214535700500,8.102700439453125,-3.0671766170606016,-3.333056627717614,8.697903745201229
1776554214545740500,8.112740478515626,-3.0652412650838494,-3.337064694315195,8.697050927764177
1776554214555779600,8.122779541015625,-3.059911302232742,-3.3407185406476256,8.697524975016712
1776554214565818600,8.132818603515625,-3.0511931582480667,-3.3439696513980626,8.699336992874741
1776554214575858700,8.142858642578124,-3.039972676053643,-3.346652899132669,8.702233298838138
1776554214585897700,8.152897705078125,-3.0268387614533303,-3.3491640051707625,8.705843890550732
1776554214595936500,8.1629365234375,-3.0133412742376326,-3.351719827133417,8.709542160546778
1776554214605976600,8.1729765625,-3.0008269528403875,-3.3537709144443273,8.713073257282376
1776554214616015600,8.183015625,-2.9911379179969426,-3.3553242813661694,8.715805897116661
1776554214626055700,8.1930556640625,-2.9849469544023273,-3.356547977942228,8.717456586933135
1776554214636094500,8.203094482421875,-2.981294569374621,-3.3573169164881107,8.718411695700883
1776554214646133800,8.2131337890625,-2.978925502155721,-3.3562878657013178,8.719616979837417
1776554214656173800,8.223173828125,-2.974240851470828,-3.349837958909571,8.723695189061761
1776554214666212600,8.233212646484375,-2.9710803416132925,-3.345192471191287,8.726553501102329
1776554214676251600,8.243251708984374,-2.9662638812422752,-3.3398893963471052,8.730224883091449
1776554214686291700,8.253291748046875,-2.9636282720416784,-3.3395024428561326,8.73126591657698
1776554214696330500,8.26333056640625,-2.961655802924931,-3.3414278579607606,8.731198696559668
1776554214706369500,8.27336962890625,-2.959611729876697,-3.343586205038428,8.731066010090709
1776554214716409600,8.28340966796875,-2.9574469530582426,-3.345544937890768,8.731049058955907
1776554214726448600,8.29344873046875,-2.9551793003872033,-3.34722865319401,8.731171808552741
1776554214736487700,8.30348779296875,-2.952662641391158,-3.3485444119676946,8.731518430033326
1776554214746527700,8.31352783203125,-2.9500550892412662,-3.349602688848972,8.731993646329641
1776554214756566800,8.32356689453125,-2.94700739210844,-3.3503435703441498,8.7327383272171
1776554214766605600,8.33360546875,-2.943259145490825,-3.3509710545927285,8.733762994089721
1776554214776645600,8.343645751953124,-2.93889539732337,-3.351409738270938,8.735064139816165
1776554214786684700,8.3536845703125,-2.934251078648865,-3.351685924863815,8.736517845755815
1776554214796723700,8.3637236328125,-2.9297777326270937,-3.3520340076491233,8.737886796021462
1776554214806763800,8.373763671875,-2.92624137519449,-3.3523864743486045,8.738936012813449
1776554214816802800,8.383802734375,-2.9233789715006946,-3.3525670916125176,8.739824486085771
1776554214826841600,8.393841552734376,-2.921108396220207,-3.352741863657534,8.740515975481271
1776554214836881700,8.403881591796875,-2.9197546435236927,-3.352866659080982,8.740921049150824
1776554214846920700,8.413920654296875,-2.91839855273962,-3.3530244799911975,8.741312678816914
1776554214856959500,8.42395947265625,-2.916611961583793,-3.353036754950881,8.741904214969276
1776554214866999600,8.43399951171875,-2.914483425122499,-3.353099883314967,8.742590443667769
1776554214877038600,8.44403857421875,-2.912063212238252,-3.353047276344895,8.743417542141675
1776554214887077600,8.45407763671875,-2.9096596582278607,-3.352676104944944,8.74436037594974
1776554214897117700,8.46411767578125,-2.9075469038575887,-3.352368646430969,8.745179291117191
1776554214907156700,8.47415673828125,-2.905908196739852,-3.352102104449272,8.745826941370964
1776554214917195500,8.484195556640625,-2.9050477805182338,-3.3519331776231525,8.746177069982886
1776554214927235600,8.494235595703126,-2.9046672567680476,-3.3516178280636666,8.746424322742223
1776554214937274600,8.504274658203125,-2.9044226343572137,-3.351334042686224,8.74661546140015
1776554214947313700,8.514313720703125,-2.9043615518197416,-3.350886591179669,8.746807184579968
1776554214957353500,8.524353515625,-2.9042928704977036,-3.350309960335493,8.747050345686077
1776554214967392800,8.534392822265625,-2.904104946710169,-3.3498052256837485,8.74730636627376
1776554214977431600,8.544431640625,-2.90373085270077,-3.3493545593068004,8.747602718871832
1776554214987471600,8.5544716796875,-2.903522178386152,-3.348988940864801,8.74781197770834
1776554214997510700,8.5645107421875,-2.903668308858573,-3.3487148000985383,8.747868676331638
1776554215007549700,8.5745498046875,-2.904144109676778,-3.3479856090411544,8.747989087840914
1776554215017589500,8.584589599609375,-2.904666964507103,-3.3469647415608166,8.748207114505767
1776554215027628500,8.594628662109375,-2.9051930342078207,-3.3454873624846337,8.748597575128079
1776554215037667800,8.604667724609374,-2.9054768195852634,-3.343705447503924,8.749185019627213
1776554215047707600,8.614707763671875,-2.904882945345342,-3.3415283957257866,8.750213193631172
1776554215057746700,8.62474658203125,-2.9035838454455134,-3.339015243861079,8.751603771206737
1776554215067785700,8.63478564453125,-2.901602316239476,-3.3364570838108656,8.75323634084463
1776554215077825500,8.644825439453125,-2.8997660407230255,-3.3339170439392327,8.754813380903006
1776554215087864600,8.654864501953124,-2.8985253930121657,-3.3316382853522897,8.756089976710081
1776554215097903600,8.664903564453125,-2.8983620191439985,-3.329675753107667,8.75689135622084
1776554215107943400,8.674943359375,-2.8997680865496394,-3.328006066329777,8.75706086756885
1776554215117982700,8.684982666015625,-2.9030469620898365,-3.3266403309345245,8.756492127770185
1776554215128021800,8.695021728515625,-2.9073154331892725,-3.3253719184339046,8.755558061790465
1776554215138061800,8.705061767578124,-2.912210804015398,-3.3239658510282633,8.754464421334863
1776554215148100600,8.7151005859375,-2.9172508440092204,-3.322255832239985,8.753436247330903
1776554215158139600,8.7251396484375,-2.921857753282785,-3.3204896993502975,8.752569985890387
1776554215168179700,8.7351796875,-2.9257161822766062,-3.318491219009459,8.752039824536443
1776554215178218500,8.745218505859375,-2.928730853922665,-3.316619579918682,8.751741133850812
1776554215188257800,8.7552578125,-2.9309429770141837,-3.3150419553384185,8.751598510509728
1776554215198297900,8.7652978515625,-2.932911938999593,-3.3136057850554583,8.751481021609901
1776554215208336600,8.775336669921876,-2.9349066199481486,-3.312582579487562,8.751200451102852
1776554215218375700,8.785375732421874,-2.9371351096525786,-3.3117706785827874,8.750759721598028
1776554215228415700,8.795415771484375,-2.9401357527732848,-3.3113156282916663,8.749925024339555
1776554215238454500,8.80545458984375,-2.944411822657287,-3.3107284760534763,8.748708634287118
1776554215248493600,8.81549365234375,-2.950426552902162,-3.3100434163987633,8.746941624614596
1776554215258533600,8.82553369140625,-2.9587530672207474,-3.309264248719811,8.744423504313826
1776554215268572700,8.83557275390625,-2.968712151177227,-3.3091391610354184,8.741094067630172
1776554215278611700,8.84561181640625,-2.979657908083498,-3.309744725713134,8.737138608002661
1776554215288651800,8.85565185546875,-2.9907229074552655,-3.310725261183083,8.732987333542107
1776554215298690600,8.865690673828125,-3.0013091833993792,-3.3114284410163757,8.72908740349412
1776554215308729600,8.8757294921875,-3.0105197870761153,-3.3115707720965144,8.72586084266305
1776554215318769700,8.885769775390624,-3.0183973885834217,-3.311286694458127,8.72324802981615
1776554215328808400,8.895808349609375,-3.025092210046947,-3.310718246920407,8.72114316649139
1776554215338847700,8.90584765625,-3.030890667192638,-3.310600465759635,8.719173912245035
1776554215348887800,8.9158876953125,-3.0360534567832946,-3.311465558156371,8.717049759697913
1776554215358926600,8.925926513671875,-3.041073038510978,-3.31320158816874,8.714639775946736
1776554215368965600,8.935965576171874,-3.046528381307423,-3.31548619197458,8.711866219580173
1776554215379005700,8.946005615234375,-3.0529931934073566,-3.3176176510453224,8.708789880874752
1776554215389044700,8.956044677734376,-3.061619567455351,-3.319251681987941,8.70513837262988
1776554215399083500,8.96608349609375,-3.0730209591746327,-3.3203272022649646,8.700710034793614
1776554215409123600,8.97612353515625,-3.0868527929112313,-3.3207617942899463,8.69564690618515
1776554215419162600,8.98616259765625,-3.1021660973772405,-3.3205624723255633,8.69027281193137
1776554215429201700,8.99620166015625,-3.1173207041502,-3.319844679445028,8.685120251473784
1776554215439241700,9.00624169921875,-3.130513363200426,-3.3184783595278855,8.680897080820799
1776554215449280800,9.01628076171875,-3.1395255216956137,-3.3158845436424014,8.678633812063932
1776554215459319600,9.026319580078125,-3.1427728330537676,-3.3124656751096246,8.678763575923442
1776554215469359600,9.036359619140624,-3.14025968118906,-3.308307970908284,8.681258315348625
1776554215479398700,9.046398681640625,-3.133700468803942,-3.3041844612374898,8.685197992885112
1776554215489437700,9.056437744140625,-3.1255645086213946,-3.3004499508842824,8.689549173831939
1776554215499477500,9.0664775390625,-3.1176275781422853,-3.297149740295112,8.69365193297565
1776554215509516800,9.076516845703125,-3.1116625322580336,-3.2938015989109872,8.697058526548743
1776554215519555600,9.0865556640625,-3.1103932429745793,-3.2899311872184276,8.698976342868804
1776554215529595600,9.096595703125,-3.116054045215249,-3.285234261573851,8.698726167500018
1776554215539634700,9.106634765625,-3.1299989839375018,-3.2797108219772575,8.695801804485917
1776554215549673500,9.116673583984374,-3.15298852211982,-3.2733868796527386,8.689877090612054
1776554215559713500,9.126713623046875,-3.184420017693937,-3.2666043799057602,8.680964885360002
1776554215569752600,9.136752685546876,-3.2203426872074603,-3.2605650997415183,8.669977042877674
1776554215579791600,9.14679150390625,-3.256324977953732,-3.2556293969050047,8.65838480476141
1776554215589831700,9.156831787109375,-3.2889848462790248,-3.2516534790113565,8.64752731066048
1776554215599875300,9.166875244140625,-3.316010215848684,-3.2485210262045263,8.638378374043107
1776554215609914000,9.1769140625,-3.3370731698825953,-3.2462954591095445,8.631099907472729
1776554215619954200,9.1869541015625,-3.3528891631737348,-3.2447882694169876,8.625535259082913
1776554215629993200,9.1969931640625,-3.36570159073472,-3.243302999295294,8.62110224507153
1776554215640032000,9.207031982421874,-3.3771421454206108,-3.241137930215895,8.617442553520203
1776554215650072000,9.217072021484375,-3.3891099388509986,-3.2375469199866056,8.614093827614187
1776554215660111000,9.227111083984376,-3.4018370262160897,-3.2321792554736137,8.611092892232536
1776554215670150100,9.237150146484375,-3.4155727061018344,-3.2255811723828316,8.608128781729937
1776554215680190200,9.247190185546875,-3.4301173642829057,-3.2185338842198252,8.604982884919643
1776554215690229200,9.257229248046874,-3.445684643509984,-3.211775349870324,8.601288122054934
1776554215700268000,9.26726806640625,-3.461542722377181,-3.205411660057306,8.597292330417037
1776554215710308000,9.27730810546875,-3.477146241961419,-3.199533123412728,8.59318431057632
1776554215720347100,9.28734716796875,-3.491229420110583,-3.194318603634834,8.589413559865951
1776554215730386000,9.297385986328125,-3.502914012685418,-3.189549781797826,8.586427822053432
1776554215740426000,9.307426025390624,-3.511717789126932,-3.185722916986048,8.584251647058128
1776554215750465300,9.31746533203125,-3.517920443159342,-3.183130562405288,8.582674022477864
1776554215760504000,9.327504150390626,-3.5234780772864815,-3.1818443219870325,8.58087194149196
1776554215770544000,9.337544189453125,-3.529419450034201,-3.180551067306101,8.578908532464503
1776554215780583200,9.347583251953125,-3.5359830463334916,-3.1791353552892803,8.576731188425422
1776554215790622000,9.3576220703125,-3.543600827860832,-3.1783135175123807,8.573890412041544
1776554215800662000,9.367662109375,-3.5540193460226055,-3.1780504826620217,8.569675424695015
1776554215810701000,9.377701171875,-3.5690757531180974,-3.1779189652368425,8.563464295095205
1776554215820740000,9.387739990234374,-3.5893019640669226,-3.1777225658819077,8.555078744065762
1776554215830780000,9.39777978515625,-3.6127561971515414,-3.1774221216306087,8.545311967810989
1776554215840819200,9.407819091796876,-3.6356355529576536,-3.1767049132719634,8.53587077024877
1776554215850858200,9.417858154296875,-3.6540608519643545,-3.175921069417894,8.528291274905204
1776554215860898000,9.42789794921875,-3.663893386931717,-3.1754826780006287,8.524234108468889
1776554215870937000,9.43793701171875,-3.6634558722972868,-3.1751100452959538,8.524561440727114
1776554215880976100,9.44797607421875,-3.653670975863933,-3.1748812049761415,8.528844232612848
1776554215891016000,9.458015869140626,-3.639348143739998,-3.1752497460275886,8.534829736763239
1776554215901055000,9.468054931640625,-3.62611252233088,-3.176341925178468,8.540055362457036
1776554215911094300,9.47809423828125,-3.6176138663157817,-3.1774984017372128,8.543229316318035
1776554215921133000,9.488133056640624,-3.614549802570045,-3.1782232088804245,8.544255736756325
1776554215931173000,9.498173095703125,-3.6144977801218627,-3.178393889272213,8.544214235702157
1776554215941212200,9.508212158203126,-3.612938275720179,-3.1779876465588806,8.545024967563151
1776554215951251000,9.5182509765625,-3.6075919462561603,-3.176817433735728,8.547719613474607
1776554215961291000,9.528291015625,-3.5975466453209517,-3.174950763081014,8.552645379438996
1776554215971330000,9.538330078125,-3.584354570792615,-3.1745301995813846,8.558337453600764
1776554215981369000,9.548369140625,-3.5701720239222046,-3.1771070643320676,8.563307643228768
1776554215991409200,9.5584091796875,-3.5558579596266147,-3.182703276903927,8.56718477692306
1776554216001448200,9.5684482421875,-3.541562015509605,-3.1898046333417294,8.570463944724201
1776554216011487000,9.578487060546875,-3.525127598059177,-3.196995713889599,8.574560858649015
1776554216021527000,9.588527099609376,-3.5042294791981576,-3.203076787368953,8.58085440583527
1776554216031566000,9.598566162109375,-3.478478367348015,-3.2071450597211717,8.58980694309771
1776554216041605000,9.608605224609375,-3.448597316086292,-3.2092326796501873,8.601070095390082
1776554216051645000,9.61864501953125,-3.415198612092435,-3.2095755017384886,8.6142574937433
1776554216061684200,9.628684326171875,-3.3792198284775017,-3.20814546893537,8.628967571619153
1776554216071723300,9.63872314453125,-3.341739700388908,-3.204488407732546,8.644907483550906
1776554216081763000,9.64876318359375,-3.3097549548462033,-3.202045690755546,8.658107741385697
1776554216091802000,9.658802001953125,-3.2855352903470396,-3.201654353350401,8.667471197536587
1776554216101841200,9.668841064453124,-3.26860899772644,-3.2038615080058572,8.673053966104984
1776554216111881000,9.678880859375,-3.258055455008149,-3.2096123266175387,8.674898132666945
1776554216121920000,9.688919921875,-3.252500743490457,-3.218060713750124,8.673851838484406
1776554216131959300,9.698959228515625,-3.2503669463321563,-3.2272058509752153,8.67125246964097
1776554216141999000,9.7089990234375,-3.2499548583999274,-3.2348423372030255,8.668563084426522
1776554216152038100,9.7190380859375,-3.250140736360848,-3.239696791496873,8.666679754897952
1776554216162077200,9.7290771484375,-3.250606600306928,-3.2414626321256157,8.66584447311759
1776554216172116000,9.739115966796875,-3.251884657418728,-3.240964034953713,8.665551043128966
1776554216182156000,9.749156005859374,-3.256367648051679,-3.2406311497375366,8.663992707771062
1776554216192195000,9.759195068359375,-3.2667490490734576,-3.241978472693264,8.659579567503929
1776554216202234000,9.769234130859376,-3.283930485498905,-3.2459745565921065,8.651580969965458
1776554216212274200,9.779274169921875,-3.30188115273118,-3.2478181386321783,8.644052912548183
1776554216222313200,9.789313232421875,-3.320943580597639,-3.2510330090254542,8.635538182181119
1776554216232352000,9.79935205078125,-3.3401676287665962,-3.258456144763529,8.625318985983728
1776554216242392000,9.80939208984375,-3.357806745831668,-3.270364316961169,8.613955295926331
1776554216252431000,9.81943115234375,-3.3690283970698713,-3.2815275160104034,8.60532366118133
1776554216262470000,9.829469970703125,-3.3727187760204074,-3.289090644741058,8.600989431369305
1776554216272510000,9.839510009765625,-3.370572703902423,-3.2945214376181364,8.599753752094507
1776554216282549200,9.84954931640625,-3.363748410840332,-3.2988749566525217,8.60075620713532
1776554216292588000,9.859588134765625,-3.352530851255357,-3.303078545822203,8.603523333761096
1776554216302628000,9.869628173828126,-3.3371368827685712,-3.3069998109191654,8.607999017870426
1776554216312667100,9.879667236328125,-3.3173245133176446,-3.3104236478880047,8.614339911329745
1776554216322706200,9.8897060546875,-3.294797916471958,-3.313341873422265,8.621859785440563
1776554216332746000,9.89974609375,-3.275028217118978,-3.3151071295291183,8.6287097974658
1776554216342785000,9.909784912109375,-3.2630753289967775,-3.3154145880430934,8.633118261557817
1776554216352824300,9.91982421875,-3.260558377739787,-3.3145559253871437,8.6344001180619
1776554216362864000,9.929864013671875,-3.266379338978231,-3.3128093739807603,8.63287042427659
1776554216372903200,9.939903076171875,-3.276324686670303,-3.3103719177007673,8.63003549311161
1776554216382942200,9.949942138671876,-3.285792187717557,-3.308354440398514,8.627209329774976
1776554216392981000,9.95998095703125,-3.29402927018702,-3.3085400260984894,8.623996212947368
1776554216403021000,9.97002099609375,-3.3000004535511134,-3.3113492383003233,8.620634627559781
1776554216413060000,9.98006005859375,-3.3011776806369424,-3.315922537565231,8.618426888382434
1776554216423099100,9.99009912109375,-3.295370747923851,-3.321116891337931,8.618648422178625
1776554216433139200,10.00013916015625,-3.282691883614659,-3.3261589771583675,8.621542390054463
1776554216443178200,10.01017822265625,-3.264715789680183,-3.3307948202654716,8.626576292568444
1776554216453217000,10.020217041015625,-3.244880916136503,-3.335065044930577,8.632408067461848
1776554216463257000,10.030257080078124,-3.2272114039331674,-3.3385870815768834,8.637668764469026
1776554216473296100,10.040296142578125,-3.213912946420908,-3.3417657116129993,8.641396845081449
1776554216483335000,10.0503349609375,-3.204162536779046,-3.3449557398259637,8.643783447957038
1776554216493375000,10.060375,-3.1962147926449775,-3.348951823724806,8.6451798707515
1776554216503414300,10.070414306640625,-3.188070941416919,-3.3546380526676773,8.64598125026226
1776554216513453000,10.080453125,-3.174144999656081,-3.356779740871489,8.650273394498228
1776554216523493000,10.0904931640625,-3.1594922049254177,-3.3610885439813134,8.65396348118782
1776554216533532200,10.1005322265625,-3.144895816557109,-3.367273370096087,8.656875569242239
1776554216543571000,10.110571044921874,-3.135207658496499,-3.378564871700108,8.655990018579363
1776554216553610000,10.12060986328125,-3.1276471601143476,-3.391020740908384,8.653854175594448
1776554216563650000,10.130650146484374,-3.1203035193532704,-3.4015511950120327,8.652371243560314
1776554216573689300,10.140689453125,-3.1132290509223934,-3.4091102320894597,8.651943958058952
1776554216583728000,10.15072802734375,-3.1028894432157275,-3.409143257576227,8.655645735186338
1776554216593768200,10.160768310546874,-3.0916970180720087,-3.4023256865158675,8.662331496560572
1776554216603803000,10.170802978515624,-3.081198712672293,-3.388777345895767,8.671378726369142
1776554216613841700,10.180841552734375,-3.075447017277777,-3.375836031258106,8.678464885237812
1776554216623881700,10.1908818359375,-3.0728964560121295,-3.367776935704052,8.68249867079854
1776554216633921000,10.200921142578125,-3.0696663880497215,-3.365204162606597,8.684638020914793
1776554216643959800,10.210959716796875,-3.067790949566662,-3.3707240950718522,8.683159765055775
1776554216653999900,10.220999755859374,-3.066427844519913,-3.3807533216550945,8.679741481044887
1776554216664039000,10.231038818359375,-3.0654698131427165,-3.3896883232608435,8.676594415190815
1776554216674077700,10.24107763671875,-3.0676056561276317,-3.395353509415686,8.673623290425539
1776554216684117800,10.25111767578125,-3.0759175573989745,-3.3986230326056477,8.669397781684994
1776554216694156800,10.26115673828125,-3.089807258802652,-3.3999013819783923,8.663956467413902
1776554216704196000,10.271196044921876,-3.1053043954029675,-3.39832989487797,8.659031285971402
1776554216714235000,10.28123486328125,-3.1113197101697323,-3.3856747037053108,8.661829392257332
1776554216724275000,10.29127490234375,-3.1027237312600016,-3.3598408820077776,8.674961261031031
1776554216734314000,10.30131396484375,-3.078352967852354,-3.3283333985880015,8.695764979606865
1776554216744352800,10.311352783203125,-3.041492725227773,-3.29989523961097,8.719540991991758
1776554216754392800,10.321392822265626,-2.9953999593555927,-3.277033419461548,8.744084481617808
1776554216764432000,10.331431884765625,-2.9528751150980592,-3.2680098627895116,8.761907723078131
1776554216774471000,10.341470947265625,-2.9206083377435803,-3.2709073377966877,8.771635336366295
1776554216784511000,10.351510986328124,-2.894180057284236,-3.2737410999178884,8.779335243219137
1776554216794550000,10.361550048828125,-2.874824491690099,-3.2738308240279554,8.785658601021765
1776554216804588800,10.3715888671875,-2.8650907409220934,-3.2712311629235744,8.789804614785313
1776554216814628900,10.38162890625,-2.8623806051805616,-3.2657369494214654,8.792731315886973
1776554216824668000,10.39166796875,-2.8626339954197406,-3.2592315130501985,8.795062973704933
1776554216834706700,10.401706787109376,-2.8630615731820463,-3.2548522750526665,8.7965441521734
1776554216844746000,10.41174609375,-2.8594875140875575,-3.2541552326992154,8.797965709409118
1776554216854785800,10.421785888671875,-2.847552453882992,-3.254362445709109,8.801759256473183
1776554216864824800,10.431824951171874,-2.8327409614592787,-3.253119167649746,8.806995403560995
1776554216874863900,10.44186376953125,-2.8261408325418826,-3.25143223747611,8.809739733833075
1776554216884904000,10.451904052734376,-2.8305224086269734,-3.2507232124239205,8.80859290188551
1776554216894942700,10.461942626953125,-2.843430990038812,-3.2514877670556306,8.80415228908956
1776554216904981800,10.471981689453125,-2.862294388201833,-3.253770032773912,8.7971958940804
1776554216915021800,10.482021728515624,-2.8826395493552086,-3.256902485580742,8.789389019721746
1776554216925060900,10.492060791015625,-2.900748622019589,-3.2605957871407267,8.782058530703187
1776554216935100000,10.502099853515626,-2.914717233878374,-3.2641251303106547,8.77612154186964
1776554216945140000,10.512139892578125,-2.924383472368121,-3.2673128204360604,8.771718338474631
1776554216955179000,10.522178955078125,-2.9314567717552182,-3.2710426546141504,8.767966292464733
1776554216965217800,10.5322177734375,-2.937300821608305,-3.2753914974734184,8.764386095890401
1776554216975256800,10.5422568359375,-2.9431793582528827,-3.279284997780621,8.7609572904855
1776554216985297000,10.552296875,-2.9481653299719093,-3.2814734477356073,8.75846079749465
1776554216995336000,10.5623359375,-2.951534514144063,-3.2813986289337276,8.757354882079362
1776554217005375000,10.572375,-2.952408666630089,-3.2791201626077293,8.757913100484013
1776554217015415000,10.5824150390625,-2.9498288792699574,-3.275026463553309,8.760314316406845
1776554217025453800,10.592453857421875,-2.9452368753045794,-3.2703041112065314,8.763623294824361
1776554217035492900,10.602492919921875,-2.9362253013312816,-3.2638845995530485,8.769038305610417
1776554217045533000,10.612532958984374,-2.922579930077493,-3.254940830118954,8.776916491639614
1776554217055571700,10.62257177734375,-2.9133699109226465,-3.2512977974414823,8.781329047384858
1776554217065611000,10.632611083984376,-2.9082950918763872,-3.2514579564392565,8.782951095628738
1776554217075650800,10.64265087890625,-2.905691631379723,-3.2522207575052975,8.783529772299527
1776554217085689900,10.65268994140625,-2.905310523107648,-3.251217717942595,8.78402836947143
1776554217095729000,10.66272900390625,-2.9089538480460644,-3.2474469672322273,8.7842171700418
1776554217105768000,10.672767822265625,-2.915656852816045,-3.2418063309967518,8.784078053832054
1776554217115807700,10.682807861328126,-2.923100154559314,-3.236270616440475,8.783644338589907
1776554217125846800,10.6928466796875,-2.9288971504002808,-3.2323677637830373,8.783151586636901
1776554217135886000,10.702885986328125,-2.9310329933851955,-3.2310987667605278,8.782906087443232
1776554217145926000,10.71292578125,-2.9295740267485377,-3.232805570678413,8.782764048624038
1776554217155965000,10.72296484375,-2.924007917053997,-3.236743494649231,8.783169122293591
1776554217166004000,10.73300390625,-2.913253006544709,-3.2416870885312554,8.784919180831313
1776554217176043800,10.743043701171874,-2.8976573780059813,-3.245500217078626,8.788667719709872
1776554217186082800,10.753082763671875,-2.8816370943143963,-3.24787980569154,8.79305514101386
1776554217196121900,10.763121826171876,-2.870026443758607,-3.249271260049939,8.79633723142445
1776554217206161000,10.773160888671875,-2.8641750873818994,-3.2507322725132104,8.797706181690096
1776554217216200700,10.78320068359375,-2.8623423189967867,-3.252781898519397,8.797544853648542
1776554217226240000,10.793239990234374,-2.8609318676769733,-3.2556782044827934,8.79693169018626
1776554217236278800,10.80327880859375,-2.857012063884735,-3.2587259016156196,8.797077820658684
1776554217246318800,10.81331884765625,-2.8497768519341946,-3.2613670637741685,8.79844501735866
1776554217256358000,10.82335791015625,-2.8388398628562688,-3.2635265798956152,8.801179410758614
1776554217266396700,10.833396728515625,-2.8241958359539505,-3.2653280763596295,8.805221379625797
1776554217276436700,10.843436767578124,-2.8068685613170263,-3.266847248750925,8.81019682995081
1776554217286475800,10.853475830078125,-2.7913635336712,-3.267801480735838,8.814768375650047
1776554217296514800,10.863514892578126,-2.78175866997987,-3.2674148195058104,8.817948174729942
1776554217306555000,10.873554931640625,-2.778551106110215,-3.265963743914664,8.819496573215723
1776554217316594000,10.883593994140625,-2.7829727219447493,-3.264028976459801,8.818817943301797
1776554217326633000,10.893633056640626,-2.7950571274921296,-3.262003315851092,8.815745111727715
1776554217336671700,10.903671630859375,-2.808267906720936,-3.2598069748505947,8.81235839189887
1776554217346711800,10.9137119140625,-2.8174349635168907,-3.257380624486506,8.810330685463548
1776554217356750800,10.923750732421874,-2.819812798564136,-3.254275059686601,8.81071705443263
1776554217366790000,10.933789794921875,-2.8138375235468147,-3.2503891581639643,8.814060519641638
1776554217376830000,10.943829833984376,-2.7997230734765526,-3.246324392943084,8.820051869010925
1776554217386869000,10.953868896484375,-2.778851550361514,-3.2420550450608134,8.828218808853626
1776554217396907800,10.96390771484375,-2.754670172046125,-3.2374086805596947,8.837496340286732
1776554217406947800,10.97394775390625,-2.73291426731199,-3.232768161277473,8.84594618872404
1776554217416987000,10.98398681640625,-2.71851690864712,-3.229145879127085,8.851703729337453
1776554217427026000,10.99402587890625,-2.713165903007984,-3.2269179739445444,8.854158721274137
1776554217437065000,11.00406494140625,-2.7161981103107333,-3.226268570125103,8.853465478312968
1776554217447105000,11.01410498046875,-2.724339038929343,-3.2272336157649755,8.85061125792563
1776554217457143800,11.024143798828124,-2.73177678771466,-3.2300036650002,8.84730754020512
1776554217467182800,11.034182861328125,-2.733151583199203,-3.2342496320068834,8.84533185621798
1776554217477223000,11.044222900390626,-2.727761414593458,-3.239703805759549,8.844999263262748
1776554217487261700,11.05426171875,-2.7184961581200358,-3.2450904672339558,8.845877799662947
1776554217497300700,11.06430078125,-2.708453779794276,-3.2494229434803126,8.847368330481649
1776554217507340800,11.0743408203125,-2.7010315208390354,-3.2519223590806123,8.848718576046824
1776554217517379800,11.0843798828125,-2.6989260729923843,-3.2515625858575103,8.849493652072548
1776554217527419000,11.0944189453125,-2.7016213034257293,-3.248030320078134,8.849968868368864
1776554217537458000,11.1044580078125,-2.706014862209558,-3.2429408879846333,8.850493184503913
1776554217547497700,11.114497802734375,-2.7088603147685526,-3.2390105627983807,8.851060170736908
1776554217557536800,11.124536865234376,-2.7088804807737468,-3.2372651804357764,8.85169203889966
1776554217567575800,11.134575927734375,-2.705560396440327,-3.238200999981165,8.852365408116578
1776554217577616000,11.144615966796875,-2.6991528674855827,-3.241590934680402,8.853082031953335
1776554217587655000,11.154655029296874,-2.6915555442243813,-3.245676158167422,8.853897439989447
1776554217597694000,11.16469384765625,-2.686445361603796,-3.2490228382468223,8.854221849638224
1776554217607733200,11.174733154296876,-2.68549639031589,-3.2510797707766295,8.853753647604584
1776554217617772000,11.18477197265625,-2.686441562211513,-3.2520956698209047,8.853094891434907
1776554217627811000,11.19481103515625,-2.68624224024713,-3.2530510708495974,8.852804384055734
1776554217637850000,11.20485009765625,-2.682701206639409,-3.2547070213630795,8.853269663479924
1776554217647890200,11.21489013671875,-2.6765114120885727,-3.2569927942126986,8.854302513659
1776554217657929200,11.22492919921875,-2.6699057302132245,-3.2591300985023377,8.855511304926871
1776554217667968000,11.234968017578124,-2.664227976837754,-3.260305279761553,8.856787900733947
1776554217678008000,11.245008056640625,-2.6596374341771005,-3.2604537483215332,8.858113011857867
1776554217688047000,11.255047119140626,-2.6557024328157306,-3.2598157426789403,8.859527554830908
1776554217698086100,11.265086181640624,-2.6528026197209953,-3.258922885492444,8.860725824704765
1776554217708126000,11.2751259765625,-2.652695359954238,-3.2586320858523248,8.860864356392621
1776554217718165200,11.285165283203124,-2.658060394118726,-3.259027222649753,8.859111959767342
1776554217728204300,11.295204345703125,-2.6703371073678133,-3.2594755509391424,8.85525353077352
1776554217738243000,11.3052431640625,-2.6874092381998893,-3.2595597220912573,8.850055962130426
1776554217748283100,11.315283203125,-2.7049536627188324,-3.2591715995565056,8.844853132790327
1776554217758322200,11.325322265625,-2.718596403624117,-3.25847309589833,8.840926314735412
1776554217768361200,11.335361328125,-2.726756329204142,-3.2587592193633315,8.838306487625836
1776554217778401000,11.345401123046875,-2.730999081340432,-3.2606261822789904,8.836309176328777
1776554217788440300,11.3554404296875,-2.734831499110162,-3.2632118148580194,8.834168072646856
1776554217798479000,11.36547900390625,-2.741045843580365,-3.265431828995049,8.831422573330999
1776554217808519200,11.375519287109375,-2.7504244973003864,-3.2661779711872336,8.82823049929142
1776554217818558200,11.38555810546875,-2.7616090313985944,-3.264944629999995,8.825193908074498
1776554217828597000,11.395596923828125,-2.772210212650895,-3.262055338299274,8.822937653580308
1776554217838636000,11.405635986328125,-2.7803853358000516,-3.258426334147155,8.821707235002517
1776554217848676000,11.415676025390624,-2.78615105971992,-3.2551232009485362,8.821106346499919
1776554217858715100,11.425715087890625,-2.788932214871049,-3.2525545195043084,8.821174735561012
1776554217868754200,11.435754150390625,-2.7912434144228695,-3.2499826231896876,8.821392177703975
1776554217878794200,11.445794189453125,-2.7950091966971753,-3.247148861068487,8.821243709143996
1776554217888833000,11.4558330078125,-2.800878965513408,-3.24398162920922,8.8205463745296
1776554217898872000,11.4658720703125,-2.808145157124102,-3.240795108127594,8.8194071413666
1776554217908912000,11.475912109375,-2.8153619566351176,-3.238232271902263,8.81804754345119
1776554217918951000,11.485950927734375,-2.8207296211481094,-3.236301596100628,8.817041581279039
1776554217928990200,11.495990234375,-2.8238746411755677,-3.2350624096944927,8.816489792615174
1776554217939029200,11.506029296875,-2.8254873370692133,-3.2340313130810854,8.816351845449208
1776554217949069300,11.5160693359375,-2.8272049546420575,-3.2326027415826917,8.816324372920393
1776554217959108000,11.526108154296875,-2.8297780200004574,-3.2304695289462804,8.816281118300557
1776554217969147100,11.536147216796875,-2.831617802648246,-3.2279847263932226,8.816601436296105
1776554217979187200,11.546187255859374,-2.8319249689012764,-3.225762666429579,8.817315722045302
1776554217989226000,11.55622607421875,-2.830679352754354,-3.2240944409564136,8.818324022305012
1776554217999265300,11.566265380859376,-2.8286177440494296,-3.222297620667517,8.819642119166254
1776554218009304000,11.576303955078124,-2.827476172798872,-3.2197114035665986,8.8209543708086
1776554218019344100,11.58634423828125,-2.8294539026126264,-3.216707837836444,8.821414974057674
1776554218029383200,11.596383056640626,-2.8363579829126593,-3.213521024493873,8.82035874300301
1776554218039422000,11.606421875,-2.8473882032319904,-3.2105271033748983,8.817895567759871
1776554218049462000,11.6164619140625,-2.8591332938224077,-3.208156867112219,8.814957176220416
1776554218059501000,11.6265009765625,-2.8689865793168545,-3.2069065747901795,8.812209338817
1776554218069540400,11.636540283203125,-2.8751579614281653,-3.206641201852262,8.810295029628277
1776554218079580200,11.646580078125,-2.877626105107367,-3.2068039911985395,8.80942993723154
1776554218089619200,11.656619140625,-2.878082908964157,-3.2070673183098433,8.809185022559761
1776554218099658200,11.666658203125,-2.878099567838013,-3.207411601702869,8.809054089656472
1776554218109697000,11.676697021484374,-2.8790424016460774,-3.2083149802833795,8.808416960796713
1776554218119737000,11.686737060546875,-2.8804709731444715,-3.209728938734531,8.80743379497826
1776554218129776000,11.696776123046876,-2.8806626963242885,-3.211094674129784,8.80687382300794
1776554218139815200,11.706815185546875,-2.878310287979245,-3.2112367129489776,8.807591615888477
1776554218149855200,11.716855224609375,-2.874121019595861,-3.210016231243312,8.809404802790283
1776554218159894300,11.726894287109374,-2.869341384103894,-3.2077368881344794,8.811793743753432
1776554218169933000,11.73693310546875,-2.865214367301762,-3.2058383610367773,8.813827295407652
1776554218179972000,11.74697216796875,-2.8610043483912944,-3.2057492214486003,8.815226056289672
1776554218190012200,11.75701220703125,-2.8548613155916334,-3.2079458547100423,8.816419065466523
1776554218200051000,11.767051025390625,-2.8465482452765105,-3.2113129930555817,8.817881539234518
1776554218210090200,11.77709033203125,-2.837975354981422,-3.2139845503523943,8.81967017621696
1776554218220130300,11.78713037109375,-2.8318545340135692,-3.2152205218881367,8.821187595042586
1776554218230169000,11.797169189453125,-2.8306510034427044,-3.2148370755285023,8.821713664743303
1776554218240208100,11.8072080078125,-2.832944082815945,-3.2133015365242956,8.821536554610729
1776554218250247200,11.8172470703125,-2.835842726866901,-3.211380213072896,8.821305668464303
1776554218260287000,11.827286865234376,-2.836784391631186,-3.2104204281300306,8.821351845693588
1776554218270326000,11.837325927734375,-2.834663161693513,-3.2112504492133853,8.821731200399995
1776554218280365300,11.847365234375,-2.829775097391009,-3.213718008370697,8.822402816051245
1776554218290405000,11.857405029296874,-2.8234154992312193,-3.2176100473731752,8.823020655688643
1776554218300444200,11.867444091796875,-2.8167332449883222,-3.222163180632889,8.82349470294118
1776554218310483200,11.877483154296876,-2.810090738233924,-3.2260975974723696,8.824175670942664
1776554218320523300,11.887523193359375,-2.8027149487689136,-3.229339940394461,8.825334777849912
1776554218330562000,11.89756201171875,-2.7931156380355358,-3.23159853297621,8.827551869377494
1776554218340601000,11.90760107421875,-2.780429174941778,-3.2333933074384924,8.830899426239728
1776554218350640000,11.91764013671875,-2.7648122113540765,-3.2348461365953085,8.835268727365136
1776554218360680200,11.92768017578125,-2.7487662086993456,-3.23610256639719,8.839814554101228
1776554218370719200,11.93771923828125,-2.735278950616717,-3.2374630410954355,8.843498211050033
1776554218380758000,11.947758056640625,-2.725209976544976,-3.2387609719514843,8.846130897641181
1776554218390798000,11.957798095703126,-2.717791809242964,-3.2398841307625172,8.848001367688179
1776554218400837000,11.967837158203125,-2.7123049022644756,-3.240947960601747,8.849296668195723
1776554218410876200,11.977876220703125,-2.70947084788233,-3.2411502051755785,8.85008986440003
1776554218420915200,11.987915283203124,-2.7098589704170823,-3.2405414256274696,8.850193909296394
1776554218430955300,11.997955322265625,-2.7116476073995233,-3.2391733521446584,8.850147732067107
1776554218440994300,12.007994384765626,-2.712317177224159,-3.237430307869613,8.850580278265475
1776554218451033000,12.018033203125,-2.7117966604813932,-3.2350489656910297,8.851610790356993
1776554218461073200,12.0280732421875,-2.712526143799722,-3.231834972080588,8.852561222949623
1776554218471112200,12.0381123046875,-2.716365868093073,-3.2282138589739797,8.852705015334486
1776554218481151000,12.04815087890625,-2.723729674859345,-3.2249075109049676,8.851647030714155
1776554218491191000,12.05819091796875,-2.734590968352556,-3.222204097165167,8.849281470626591
1776554218501230300,12.068230224609374,-2.748248614566028,-3.219775993235409,8.845934498286248
1776554218511269000,12.07826904296875,-2.7632760878279803,-3.2172353688418864,8.842177191579342
1776554218521308200,12.08830810546875,-2.7771315947011113,-3.213983381308615,8.839019019809365
1776554218531348200,12.09834814453125,-2.786908600088954,-3.2097713165715334,8.837471790367365
1776554218541387000,12.108386962890625,-2.7911206648260354,-3.2045822234958408,8.838024748075007
1776554218551426000,12.118426025390624,-2.790269016432762,-3.1985110868886113,8.840492599493265
1776554218561466000,12.128466064453125,-2.7872216115608808,-3.192339997038245,8.843684673532843
1776554218571505200,12.138505126953126,-2.7863082961082455,-3.186229697464406,8.846175321304798
1776554218581544200,12.148544189453125,-2.791682682622969,-3.1800282124757766,8.84671308144331
1776554218591583200,12.158583251953125,-2.803721787723899,-3.173378399197757,8.845292108729481
1776554218601623000,12.168623046875,-2.820424500721693,-3.166312114073336,8.84251504523158
1776554218611662600,12.17866259765625,-2.838210625042021,-3.1596827590614556,8.83919496089816
1776554218621701600,12.18870166015625,-2.8536472636267542,-3.1541356463283297,8.836205715954303
1776554218631741400,12.198741455078125,-2.8651313651934265,-3.1502216877549887,8.833883995008469
1776554218641780700,12.20878076171875,-2.8732833997279403,-3.147681063361466,8.832141535255312
1776554218651819800,12.21881982421875,-2.8804391167014836,-3.146070413294434,8.830385046976804
1776554218661858600,12.228858642578125,-2.8893723647415634,-3.143933693526685,8.828227576681972
1776554218671898600,12.238898681640626,-2.9028619609117507,-3.140062112790346,8.825178125983475
1776554218681937700,12.248937744140624,-2.9221859623238444,-3.1341002817764876,8.82091929949522
1776554218691976400,12.2589765625,-2.9479370741739865,-3.1261224347651004,8.815180463582276
1776554218702016500,12.2690166015625,-2.9794100708022713,-3.1165903440490363,8.807972724160551
1776554218712055800,12.279055908203125,-3.0153187117904423,-3.1069737899199126,8.799145274582505
1776554218722094600,12.289094482421875,-3.054839405795932,-3.0979519868135452,8.788688177976011
1776554218732133600,12.299133544921874,-3.0971526531293985,-3.08951324429214,8.776842257359624
1776554218742173700,12.309173583984375,-3.141026281647384,-3.0805987009525295,8.764374405452608
1776554218752212500,12.31921240234375,-3.184107590743899,-3.0703306971773503,8.752423855417966
1776554218762251500,12.32925146484375,-3.2237256076440213,-3.0587545334130524,8.741967927855253
1776554218772291600,12.33929150390625,-3.2580928644090887,-3.046383127617836,8.73354204481542
1776554218782330600,12.34933056640625,-3.2875571515634654,-3.035074967139959,8.726435427680611
1776554218792369700,12.35936962890625,-3.3134938491135832,-3.0267700801312922,8.719507674244046
1776554218802408700,12.36940869140625,-3.337793593111634,-3.021738223443925,8.71198195491433
1776554218812448500,12.379448486328124,-3.3603383101359006,-3.0195559109687804,8.704068697571754
1776554218822487600,12.389487548828125,-3.3794267492264507,-3.018758623111248,8.69695155904293
1776554218832526600,12.399526611328126,-3.395297395314276,-3.018018033877015,8.691025091603398
1776554218842566400,12.40956640625,-3.410886886373162,-3.016067192070186,8.6855954677701
1776554218852605700,12.419605712890625,-3.430445573323965,-3.012977409361303,8.678961728844046
1776554218862644700,12.429644775390624,-3.4577398229628797,-3.009459464368224,8.669347512802482
1776554218872683500,12.43968359375,-3.493397411799431,-3.006337825216353,8.65612504313588
1776554218882723600,12.4497236328125,-3.5342110682249066,-3.0039550217330455,8.64036925559938
1776554218892762600,12.4597626953125,-3.5742905651569363,-3.001709873154759,8.624648539376258
1776554218902801400,12.469801513671875,-3.607675240625441,-2.9994805066674948,8.61151491703689
1776554218912841500,12.479841552734374,-3.6311575307607646,-2.997706190471351,8.602258428391814
1776554218922880800,12.489880859375,-3.6433126634567974,-2.9944451428487895,8.59825328440368
1776554218932919600,12.49991943359375,-3.6477597059935327,-2.994108165979385,8.5964839366436
1776554218942959600,12.509959716796875,-3.649237377330661,-2.997681932812929,8.594611128509044
1776554218952998700,12.51999853515625,-3.650698974315822,-3.0013971539437767,8.592693312188983
1776554218963037400,12.530037353515626,-3.653199851220846,-3.0033392279222606,8.590953190523386
1776554218973076500,12.540076416015625,-3.6554759794592857,-3.0024679980456828,8.59028975817859
1776554218983116500,12.550116455078125,-3.6551951166912913,-2.99894859174788,8.591637665656208
1776554218993155800,12.56015576171875,-3.650355859966576,-2.993524813133478,8.595584941977261
1776554219003194600,12.570194580078125,-3.641334056860208,-2.987943213608861,8.60135183494091
1776554219013234700,12.580234619140626,-3.6301100675344466,-2.98392608692199,8.60748873026073
1776554219023273700,12.590273681640625,-3.618833471238613,-2.982060585311055,8.612882113736868
1776554219033312500,12.6003125,-3.608872341455519,-2.9820442186981437,8.617067290467023
1776554219043351600,12.6103515625,-3.6000700263187286,-2.982148555855453,8.620712368971109
1776554219053391600,12.6203916015625,-3.59121773456037,-2.980863484480977,8.624847276818752
1776554219063430700,12.6304306640625,-3.5822824406936764,-2.9770228834047914,8.62988819359541
1776554219073469700,12.6404697265625,-3.5734029686674473,-2.971578938785195,8.63544407415688
1776554219083509800,12.650509765625,-3.5642326970010996,-2.966419071803987,8.641005799937247
1776554219093548500,12.660548583984376,-3.553739067776501,-2.9629718539595604,8.646508489006758
1776554219103587600,12.670587646484375,-3.540909689080715,-2.961566663336754,8.652252585616708
1776554219113626600,12.680626708984375,-3.52486105607748,-2.96176920017153,8.658733179807662
1776554219123666400,12.69066650390625,-3.5050653455004093,-2.9626424758747216,8.666467573451996
1776554219133705700,12.700705810546875,-3.481972346943617,-2.9637811245158314,8.675381532269716
1776554219143744800,12.710744873046876,-3.4568808680459857,-2.96523833758682,8.684912746202945
1776554219153784600,12.72078466796875,-3.4318545633390545,-2.96718742582798,8.694168650326132
1776554219163823600,12.73082373046875,-3.4086221563115715,-2.970418662834167,8.702200565612316
1776554219173862700,12.740862548828124,-3.3879207290664315,-2.9748005311802026,8.708785204699636
1776554219183901400,12.7509013671875,-3.3699496035680174,-2.979105827158689,8.714285555681586
1776554219193941500,12.76094140625,-3.3542657122239468,-2.9818975037038324,8.719379663950205
1776554219203980800,12.770980712890625,-3.3398034716293212,-2.982478810723126,8.724730961850286
1776554219214019600,12.78101953125,-3.324956615631282,-2.980959930592775,8.730918126052618
1776554219224059600,12.7910595703125,-3.3094889973863957,-2.978511660657823,8.73762785282433
1776554219234098700,12.8010986328125,-3.2953809770569205,-2.976388384893536,8.743681161513924
1776554219244137500,12.811137451171875,-3.283775879459083,-2.9752064816325903,8.748449106568097
1776554219254176500,12.821176513671874,-3.274077784526348,-2.975136339005828,8.752105290988087
1776554219264216600,12.831216552734375,-3.2633494697630403,-2.9758143843978644,8.755881886917352
1776554219274255600,12.841255615234376,-3.2487250243440267,-2.97639043072015,8.761122125658392
1776554219284294700,12.851294677734375,-3.2289377893343567,-2.9769021796345707,8.768260306975245
1776554219294334700,12.861334716796875,-3.2065783657491207,-2.9769232224225997,8.77645588839054
1776554219304373500,12.87137353515625,-3.1870518275022506,-2.9760598835915326,8.783857689079642
1776554219314412500,12.88141259765625,-3.175278387600183,-2.974777734826505,8.788554322463273
1776554219324451600,12.89145166015625,-3.174156105571985,-2.9735221818074584,8.789384928068518
1776554219334491400,12.901491455078125,-3.1833734312504527,-2.972603313396871,8.786362365376949
1776554219344530700,12.91153076171875,-3.200651898309588,-2.9715576037362217,8.780437066981197
