time,seconds_elapsed,z,y,x
1776554206514241000,0.081240966796875,-0.004656004719436169,-0.026191657409071922,-0.0033417344093322754
1776554206524280000,0.091280029296875,-0.008168447762727737,-0.011023090220987797,0.0390416756272316
1776554206534320000,0.101320068359375,-0.0038900794461369514,0.0015909724170342088,0.055859535932540894
1776554206544359000,0.11135888671875,-0.004763596225529909,0.009984190575778484,0.04998939856886864
1776554206554398000,0.12139794921875,0.003370230318978429,0.011386877857148647,0.01913081668317318
1776554206564438000,0.13143798828125,0.0036586506757885218,0.020709805190563202,-0.0170330461114645
1776554206574477000,0.14147705078125,0.010899519547820091,0.02454475685954094,-0.038183871656656265
1776554206584517000,0.15151708984375,0.012468387372791767,0.01677871309220791,-0.03593270108103752
1776554206594555400,0.161555419921875,0.01955825462937355,-0.006539125461131334,-0.03591832146048546
1776554206604594400,0.171594482421875,0.02726704068481922,-0.018019480630755424,-0.0284673273563385
1776554206614634200,0.18163427734375,0.04075515270233154,-0.01528814248740673,-0.017471933737397194
1776554206624673300,0.19167333984375,0.047454334795475006,-0.009197759442031384,-0.013362676836550236
1776554206634712600,0.201712646484375,0.043171703815460205,-0.006643787957727909,-0.014664962887763977
1776554206644752400,0.21175244140625,0.0418824702501297,0.000529702752828598,-0.004997954238206148
1776554206654791400,0.22179150390625,0.03897988796234131,0.003299922915175557,0.014312893152236938
1776554206664830500,0.23183056640625,0.031142739579081535,0.0035513252951204777,0.016154201701283455
1776554206674870300,0.241870361328125,0.03346368297934532,0.004734834190458059,0.010164753533899784
1776554206684909300,0.251909423828125,0.034817103296518326,-0.00049108691746369,-0.008375641889870167
1776554206694948400,0.2619482421875,0.0238235741853714,0.006395314820110798,-0.031035946682095528
1776554206704988200,0.27198828125,0.017735853791236877,0.0164780430495739,-0.03443360701203346
1776554206715027500,0.28202734375,0.016640761867165565,-0.001228782464750111,-0.015785621479153633
1776554206725067300,0.2920673828125,0.018004566431045532,-0.015598933212459087,-0.010804977267980576
1776554206735106600,0.3021064453125,0.0182916559278965,-0.015077220275998116,-0.012716594152152538
1776554206745145300,0.312145263671875,0.01762533187866211,-0.021565746515989304,-0.039452601224184036
1776554206755185400,0.322185302734375,0.007791610434651375,-0.01841442659497261,-0.0814242884516716
1776554206765224400,0.332224365234375,-0.001026382320560515,-0.013007943518459797,-0.11691942811012268
1776554206775263200,0.34226318359375,-0.012733105570077896,-0.009424926713109016,-0.13863085210323334
1776554206785303300,0.35230322265625,-0.018692461773753166,-0.029997846111655235,-0.15171043574810028
1776554206795342300,0.36234228515625,-0.015594139695167542,-0.057788196951150894,-0.1553879976272583
1776554206805381400,0.37238134765625,0.011037470772862434,-0.08220778405666351,-0.14475345611572266
1776554206815421400,0.38242138671875,0.03658144548535347,-0.07471631467342377,-0.08706699311733246
1776554206825460500,0.39246044921875,0.06208281219005585,-0.03683391585946083,0.0185257475823164
1776554206835500300,0.402500244140625,0.055393751710653305,0.0026021746452897787,0.1583867073059082
1776554206845539300,0.412539306640625,0.02190663106739521,0.05602678284049034,0.1823919117450714
1776554206855578400,0.422578369140625,-0.007363373879343271,0.07564469426870346,0.10415969043970108
1776554206865618400,0.432618408203125,-0.01420530118048191,0.0873948261141777,0.048047952353954315
1776554206875657200,0.4426572265625,-0.039432093501091,0.058451324701309204,0.05444832891225815
1776554206885696500,0.452696533203125,-0.11216302216053009,0.009695770218968391,0.025659291073679924
1776554206895736600,0.462736572265625,-0.20366151630878448,-0.01824158802628517,-0.044987715780735016
1776554206905775400,0.472775390625,-0.21917389333248138,0.04638560861349106,-0.07806657254695892
1776554206915814400,0.482814453125,-0.148462176322937,0.12470464408397675,0.0073045180179178715
1776554206925854500,0.4928544921875,-0.08906516432762146,0.040659546852111816,0.1212334856390953
1776554206935893200,0.502893310546875,-0.06721978634595871,-0.06228574365377426,0.17025482654571533
1776554206945932300,0.512932373046875,-0.02485501579940319,-0.16850991547107697,0.16738712787628174
1776554206955972400,0.522972412109375,0.01257997378706932,-0.23323139548301697,0.1361123025417328
1776554206966011400,0.533011474609375,0.017974207177758217,-0.21664336323738098,0.11310018599033356
1776554206976051500,0.543051513671875,0.021587584167718887,-0.14226925373077393,0.10040436685085297
1776554206986090500,0.553090576171875,0.03723179176449776,-0.11440034210681915,0.11808083206415176
1776554206996129300,0.56312939453125,0.0010836402652785182,-0.10370535403490067,0.10721593350172043
1776554207006169300,0.57316943359375,-0.01600213535130024,-0.09596753865480423,0.12887808680534363
1776554207016208400,0.58320849609375,-0.023429425433278084,-0.12429878115653992,0.12560799717903137
1776554207026247200,0.5932470703125,-0.020566793158650398,-0.15035435557365417,0.11085327714681625
1776554207036287200,0.603287353515625,-0.02016119472682476,-0.15600211918354034,0.08468852192163467
1776554207046326300,0.613326171875,-0.0033246902748942375,-0.10757919400930405,0.053827811032533646
1776554207056365300,0.623365234375,0.044730186462402344,-0.07130720466375351,0.07507078349590302
1776554207066405400,0.6334052734375,0.11588559299707413,-0.04066407307982445,0.1405366063117981
1776554207076444400,0.6434443359375,0.18494722247123718,-0.013546967878937721,0.18862611055374146
1776554207086484500,0.653484375,0.21798665821552277,0.06088066101074219,0.1952560395002365
1776554207096523300,0.663523193359375,0.25839534401893616,0.16121205687522888,0.17147774994373322
1776554207106562300,0.673562255859375,0.27113109827041626,0.28270572423934937,0.14034566283226013
1776554207116602400,0.683602294921875,0.26828551292419434,0.37836700677871704,0.12837821245193481
1776554207126641200,0.69364111328125,0.23931005597114563,0.3993380665779114,0.09404740482568741
1776554207136680400,0.703680419921875,0.2227177619934082,0.37478959560394287,0.02605903148651123
1776554207146720500,0.713720458984375,0.16567498445510864,0.2558184564113617,-0.06102234125137329
1776554207156759300,0.72375927734375,0.11876872926950455,0.15898992121219635,-0.11944117397069931
1776554207166798300,0.73379833984375,0.05847449600696564,0.08832533657550812,-0.11968139559030533
1776554207176838400,0.74383837890625,0.05199741944670677,0.049368880689144135,-0.09134881943464279
1776554207186877200,0.753877197265625,0.04715792462229729,0.0038184402510523796,-0.04884317144751549
1776554207196917200,0.763917236328125,0.03189481422305107,-0.031155256554484367,-0.032158203423023224
1776554207206956300,0.773956298828125,0.01961364783346653,-0.04927513748407364,-0.035296469926834106
1776554207216995300,0.783995361328125,0.003969974350184202,-0.06984938681125641,-0.04189684987068176
1776554207227035400,0.794035400390625,-0.008310927078127861,-0.05433168262243271,-0.044318728148937225
1776554207237074400,0.804074462890625,-0.010303237475454807,-0.006683468818664551,-0.03822435066103935
1776554207247113500,0.814113525390625,0.008897088468074799,0.00358834327198565,-0.03657585382461548
1776554207257153300,0.8241533203125,0.0393705740571022,0.02672721818089485,-0.05663185566663742
1776554207267192300,0.8341923828125,0.054246727377176285,0.07731928676366806,-0.08071269094944
1776554207277232400,0.844232421875,0.0666368156671524,0.15097352862358093,-0.0816517174243927
1776554207287271200,0.854271240234375,0.05580201372504234,0.18725484609603882,-0.08037339895963669
1776554207297310500,0.864310546875,0.05849713087081909,0.1885664463043213,-0.07379299402236938
1776554207307350300,0.874350341796875,0.03749624267220497,0.10692005604505539,-0.04330246523022652
1776554207317389300,0.884389404296875,0.0033214944414794445,0.06087853014469147,-0.0418422557413578
1776554207327428400,0.894428466796875,0.0003680488734971732,0.05830671638250351,-0.062137674540281296
1776554207337468400,0.904468505859375,0.0005558017292059958,0.059951215982437134,-0.05896212160587311
1776554207347507500,0.914507568359375,0.010632137767970562,0.04073571041226387,-0.06151049956679344
1776554207357546200,0.924546142578125,0.010850250720977783,0.02292369119822979,-0.06697210669517517
1776554207367586300,0.93458642578125,0.013304087333381176,-0.0007432882557623088,-0.05542677268385887
1776554207377625300,0.944625244140625,-0.002418949268758297,-0.003736947663128376,-0.0276862233877182
1776554207387665200,0.9546650390625,-0.02966814674437046,-0.010791927576065063,0.0020836573094129562
1776554207397704400,0.964704345703125,-0.052445895969867706,-0.046011168509721756,0.014150173403322697
1776554207407743500,0.974743408203125,-0.05567125231027603,-0.0432627834379673,0.024575117975473404
1776554207417783300,0.984783203125,-0.0357619933784008,-0.048169661313295364,0.03279469907283783
1776554207427822300,0.994822265625,-0.020324712619185448,-0.062186144292354584,0.04500529170036316
1776554207437861400,1.004861328125,-0.0033811493776738644,-0.07340151071548462,0.044497959315776825
1776554207447901200,1.014901123046875,0.015267902053892612,-0.08683422952890396,0.015662848949432373
1776554207457940200,1.024940185546875,0.023381488397717476,-0.08765528351068497,-0.025441709905862808
1776554207467980300,1.034980224609375,0.03440671041607857,-0.05758100375533104,-0.03875884786248207
1776554207478019600,1.04501953125,0.047441549599170685,0.009957825765013695,-0.027652665972709656
1776554207488058400,1.055058349609375,0.07658106088638306,0.07837070524692535,0.006579339504241943
1776554207498098400,1.065098388671875,0.08790508657693863,0.09242260456085205,0.044798098504543304
1776554207508137500,1.075137451171875,0.08795861899852753,0.10634827613830566,0.06698649376630783
1776554207518176300,1.08517626953125,0.08923853188753128,0.14281414449214935,0.0789579302072525
1776554207528216300,1.09521630859375,0.09294725209474564,0.16439880430698395,0.09151127189397812
1776554207538255400,1.10525537109375,0.08263522386550903,0.1688593327999115,0.09921446442604065
1776554207548295200,1.115295166015625,0.09860859811306,0.1470661461353302,0.08057766407728195
1776554207558334500,1.12533447265625,0.11469835042953491,0.07320524007081985,0.02009221911430359
1776554207568373500,1.13537353515625,0.12295148521661758,0.028778385370969772,-0.04839975759387016
1776554207578413300,1.145413330078125,0.1256767064332962,0.013428989797830582,-0.08572395890951157
1776554207588452400,1.155452392578125,0.13817144930362701,0.06844350695610046,-0.08905104547739029
1776554207598491400,1.165491455078125,0.1310826539993286,0.1747497022151947,-0.08943640440702438
1776554207608531500,1.175531494140625,0.1899406462907791,0.20486606657505035,-0.03175633028149605
1776554207618570500,1.185570556640625,0.1954411417245865,0.24141554534435272,0.0022082931827753782
1776554207628609500,1.195609619140625,0.19714128971099854,0.3077426552772522,0.012631106190383434
1776554207638649300,1.2056494140625,0.19504804909229279,0.29716455936431885,-0.029774939641356468
1776554207648688600,1.215688720703125,0.18429340422153473,0.2684333324432373,-0.09155308455228806
1776554207658728700,1.225728759765625,0.20188865065574646,0.22410234808921814,-0.14410124719142914
1776554207668767500,1.235767578125,0.22108817100524902,0.2088666558265686,-0.10181291401386261
1776554207678806500,1.245806640625,0.22768935561180115,0.424625039100647,-0.09732335805892944
1776554207688846600,1.2558466796875,0.29969245195388794,0.49695438146591187,-0.09543357789516449
1776554207698885400,1.265885498046875,0.3272976875305176,0.5982815027236938,-0.11011265218257904
1776554207708924400,1.27592431640625,0.36080318689346313,0.7474102973937988,-0.13356871902942657
1776554207718964500,1.285964599609375,0.3880113959312439,0.7779977917671204,-0.11057258397340775
1776554207729003500,1.29600341796875,0.404630571603775,0.7047514915466309,0.027962392196059227
1776554207739043600,1.306043701171875,0.42797744274139404,0.9388399124145508,0.2703135013580322
1776554207749082600,1.31608251953125,0.5336577892303467,1.6032397747039795,0.6578162312507629
1776554207759121400,1.326121337890625,0.6018880009651184,2.1449222564697266,0.9028992056846619
1776554207769161500,1.336161376953125,0.5775373578071594,2.394239664077759,1.0261085033416748
1776554207779200500,1.346200439453125,0.5102595090866089,2.368309259414673,1.0725263357162476
1776554207789239300,1.3562392578125,0.4410437047481537,2.2801268100738525,1.0236245393753052
1776554207799279400,1.366279296875,0.444643497467041,1.9711381196975708,1.0119575262069702
1776554207809318700,1.376318603515625,0.5421578288078308,1.596340537071228,1.0967280864715576
1776554207819358500,1.3863583984375,0.6669378280639648,1.409027099609375,1.0916051864624023
1776554207829397500,1.3963974609375,0.7512612342834473,1.1372424364089966,0.8107029795646667
1776554207839436500,1.4064365234375,0.7791171073913574,0.5600196123123169,0.2608901858329773
1776554207849476600,1.4164765625,0.5965733528137207,0.3293483257293701,-0.04234878718852997
1776554207859515400,1.426515380859375,0.36756017804145813,0.41211432218551636,-0.11710958182811737
1776554207869554400,1.436554443359375,0.14605441689491272,0.5886765718460083,-0.1440916657447815
1776554207879594500,1.446594482421875,-0.06306977570056915,0.8486780524253845,-0.21604947745800018
1776554207889633500,1.456633544921875,-0.15968286991119385,0.9856361746788025,-0.3049825429916382
1776554207899673300,1.46667333984375,-0.20339679718017578,0.9744178652763367,-0.3746793270111084
1776554207909712600,1.476712646484375,-0.3115006387233734,1.0196533203125,-0.3730238974094391
1776554207919751400,1.48675146484375,-0.4624967873096466,1.2080285549163818,-0.3016032576560974
1776554207929791500,1.49679150390625,-0.5355774164199829,1.5873292684555054,-0.2090163379907608
1776554207939830500,1.50683056640625,-0.35715731978416443,2.1361663341522217,-0.004397145472466946
1776554207949869600,1.51686962890625,0.004111388232558966,2.373868465423584,0.21647505462169647
1776554207959909400,1.526909423828125,0.2902853488922119,2.4752001762390137,0.3811691999435425
1776554207969948400,1.536948486328125,0.47717800736427307,2.5149378776550293,0.5037278532981873
1776554207979988500,1.546988525390625,0.6712753176689148,2.753430128097534,0.535647451877594
1776554207990027500,1.557027587890625,0.906624436378479,2.990582227706909,0.49202486872673035
1776554208000066600,1.567066650390625,1.112763524055481,3.0644118785858154,0.4019506275653839
1776554208010106600,1.577106689453125,1.163641333580017,2.96209979057312,0.2567257881164551
1776554208020145400,1.5871455078125,1.043642520904541,2.7703206539154053,0.045149900019168854
1776554208030184400,1.597184326171875,0.823678195476532,2.565924644470215,-0.20563705265522003
1776554208040224500,1.607224609375,0.6575901508331299,2.301748514175415,-0.4353163242340088
1776554208050263600,1.617263671875,0.4934914708137512,2.0269463062286377,-0.541629433631897
1776554208060303400,1.627303466796875,0.29697495698928833,1.4633558988571167,-0.5103031992912292
1776554208070342700,1.6373427734375,0.10888706892728806,0.665809690952301,-0.2019413858652115
1776554208080381700,1.647381591796875,-0.027299797162413597,-0.33769041299819946,0.1963261067867279
1776554208090421500,1.65742138671875,-0.0642615407705307,-1.245315432548523,0.37909963726997375
1776554208100460500,1.66746044921875,-0.09424847364425659,-1.4346661567687988,0.13819248974323273
1776554208110500600,1.67750048828125,-0.17297470569610596,-1.3765586614608765,-0.4291377663612366
1776554208120539400,1.687539306640625,-0.3141973316669464,-1.4797630310058594,-1.0935410261154175
1776554208130578400,1.697578369140625,-0.37420767545700073,-1.6534984111785889,-1.6391974687576294
1776554208140618500,1.707618408203125,-0.2803261876106262,-1.7370377779006958,-2.080860137939453
1776554208150657500,1.717657470703125,-0.15971828997135162,-1.4398484230041504,-2.181178092956543
1776554208160696600,1.727696533203125,-0.12377307564020157,-0.9792083501815796,-1.9909400939941406
1776554208170736600,1.737736572265625,-0.2170625478029251,-0.48734381794929504,-1.6342262029647827
1776554208180775700,1.747775634765625,-0.3847239911556244,-0.013874802738428116,-1.3281618356704712
1776554208190815500,1.7578154296875,-0.6148043274879456,0.2720499038696289,-1.0076022148132324
1776554208200854500,1.7678544921875,-0.7673664093017578,0.4533288776874542,-0.59319007396698
1776554208210893600,1.7778935546875,-0.8810051083564758,0.5145203471183777,-0.08901083469390869
1776554208220933400,1.787933349609375,-0.9986976385116577,0.45348864793777466,0.4143447279930115
1776554208230972400,1.797972412109375,-1.0878567695617676,0.3711157441139221,0.8678232431411743
1776554208241011700,1.80801171875,-1.1082481145858765,0.36323386430740356,1.2081276178359985
1776554208251051500,1.818051513671875,-1.0517380237579346,0.3924940228462219,1.3964455127716064
1776554208261090600,1.828090576171875,-0.9993826150894165,0.4580248296260834,1.4817873239517212
1776554208271130600,1.838130615234375,-0.9736950993537903,0.4694085121154785,1.4859517812728882
1776554208281169400,1.84816943359375,-0.943606436252594,0.41705262660980225,1.430092215538025
1776554208291208400,1.85820849609375,-0.8781155943870544,0.39975273609161377,1.3454753160476685
1776554208301248500,1.86824853515625,-0.7506529688835144,0.34662240743637085,1.2538751363754272
1776554208311287600,1.87828759765625,-0.6595246195793152,0.20793162286281586,1.15296471118927
1776554208321327400,1.888327392578125,-0.6443281173706055,-0.045521680265665054,0.9803769588470459
1776554208331366700,1.89836669921875,-0.6997604966163635,-0.2826593816280365,0.7645102143287659
1776554208341405700,1.90840576171875,-0.8296505808830261,-0.4523336589336395,0.5403223633766174
1776554208351445500,1.918445556640625,-1.026323676109314,-0.5814013481140137,0.2995973527431488
1776554208361484500,1.928484619140625,-1.2815355062484741,-0.659766435623169,0.05149035528302193
1776554208371523600,1.938523681640625,-1.5723015069961548,-0.6706518530845642,-0.18973158299922943
1776554208381563400,1.9485634765625,-1.887572169303894,-0.6697520017623901,-0.40397223830223083
1776554208391602400,1.9586025390625,-2.2129697799682617,-0.6727917194366455,-0.6131358742713928
1776554208401642500,1.968642578125,-2.538121223449707,-0.7240208387374878,-0.8486016392707825
1776554208411681500,1.978681640625,-2.7937915325164795,-0.7742384672164917,-1.087428331375122
1776554208421720600,1.988720458984375,-2.9789605140686035,-0.7916568517684937,-1.2842081785202026
1776554208431760600,1.9987607421875,-3.118114948272705,-0.8423078060150146,-1.4734852313995361
1776554208441799700,2.008799560546875,-3.255699396133423,-0.88688725233078,-1.6354809999465942
1776554208451838500,2.01883837890625,-3.4046032428741455,-0.9250242114067078,-1.8023091554641724
1776554208461878500,2.02887841796875,-3.5645337104797363,-1.0433002710342407,-2.0546228885650635
1776554208471917600,2.03891748046875,-3.7727606296539307,-1.1905992031097412,-2.337090253829956
1776554208481957400,2.048957275390625,-3.994849920272827,-1.2955282926559448,-2.5873751640319824
1776554208491996400,2.058996337890625,-4.124588966369629,-1.2840404510498047,-2.738398790359497
1776554208502035700,2.06903564453125,-4.130871772766113,-1.1901941299438477,-2.750478982925415
1776554208512075500,2.079075439453125,-4.090451717376709,-0.9847823977470398,-2.686530113220215
1776554208522114600,2.089114501953125,-4.088769435882568,-0.7602182626724243,-2.6995456218719482
1776554208532154600,2.099154541015625,-4.1246018409729,-0.5095745921134949,-2.853283166885376
1776554208542193400,2.109193359375,-4.1443634033203125,-0.18825379014015198,-3.081908702850342
1776554208552232400,2.119232421875,-4.068778991699219,0.206014946103096,-3.392399787902832
1776554208562272500,2.1292724609375,-3.8139920234680176,0.5093660354614258,-3.767104148864746
1776554208572311600,2.1393115234375,-3.4037885665893555,0.6916658282279968,-4.1600446701049805
1776554208582350600,2.1493505859375,-2.8837528228759766,0.7889567017555237,-4.529711723327637
1776554208592390700,2.159390625,-2.2459254264831543,0.7020635604858398,-4.799651145935059
1776554208602429400,2.169429443359375,-1.534374713897705,0.5060243010520935,-4.9288649559021
1776554208612469500,2.179469482421875,-0.7699939012527466,0.15347877144813538,-4.896844863891602
1776554208622508300,2.18950830078125,0.07829879969358444,-0.22977274656295776,-4.66973352432251
1776554208632547300,2.19954736328125,0.9055740833282471,-0.43603989481925964,-4.296452522277832
1776554208642587400,2.20958740234375,1.5619701147079468,-0.48304495215415955,-4.036314010620117
1776554208652626200,2.219626220703125,2.0583653450012207,-0.13897386193275452,-4.050492286682129
1776554208662665500,2.22966552734375,2.400750160217285,0.5815310478210449,-4.267946243286133
1776554208672705500,2.23970556640625,2.6575417518615723,1.487342119216919,-4.428536891937256
1776554208682744300,2.249744384765625,2.8624398708343506,2.2963709831237793,-4.21173620223999
1776554208692784400,2.259784423828125,3.0155186653137207,2.848005533218384,-3.601407051086426
1776554208702823400,2.269823486328125,3.1253316402435303,3.0543344020843506,-2.712209939956665
1776554208712862200,2.2798623046875,3.229336977005005,3.033050060272217,-1.8198708295822144
1776554208722902300,2.28990234375,2.3719701766967773,4.157083511352539,-0.309366375207901
1776554208732941300,2.29994140625,1.068221926689148,4.893173694610596,1.0733964443206787
1776554208742981400,2.3099814453125,0.4384117126464844,5.1526265144348145,1.6236954927444458
1776554208753020200,2.320020263671875,0.3198853135108948,4.715155601501465,1.9225844144821167
1776554208763059500,2.3300595703125,0.738802433013916,3.6632068157196045,2.34816312789917
1776554208773099500,2.340099609375,1.5074024200439453,2.57185435295105,2.709944248199463
1776554208783138300,2.35013818359375,2.4141669273376465,1.6424518823623657,2.760193109512329
1776554208793177300,2.36017724609375,3.111217975616455,0.7664574980735779,2.5545010566711426
1776554208803217400,2.370217529296875,3.58803391456604,-0.016468189656734467,2.1357247829437256
1776554208813256200,2.380256103515625,3.814945697784424,-0.5900171995162964,1.6481595039367676
1776554208823296300,2.390296142578125,3.428581953048706,-1.0118097066879272,1.2064729928970337
1776554208833335300,2.400335205078125,2.7552013397216797,-1.1448229551315308,0.8296718597412109
1776554208843374300,2.410374267578125,2.3907594680786133,-1.0496807098388672,0.5350013375282288
1776554208853414400,2.420414306640625,2.2507619857788086,-1.1313071250915527,0.3772183954715729
1776554208863453400,2.430453369140625,2.173222541809082,-1.3558440208435059,0.3729919493198395
1776554208873493500,2.440493408203125,2.22935152053833,-1.7169290781021118,0.21844924986362457
1776554208883532300,2.4505322265625,2.5089521408081055,-1.918217420578003,0.21906496584415436
1776554208893571300,2.4605712890625,2.893728733062744,-2.0284085273742676,0.3664621412754059
1776554208903611400,2.470611328125,3.0738234519958496,-1.7993818521499634,0.5125018954277039
1776554208913650200,2.480650146484375,3.027869701385498,-1.2017279863357544,0.6608604788780212
1776554208923689500,2.490689453125,2.6156246662139893,-0.33146795630455017,0.8161118626594543
1776554208933729500,2.5007294921875,2.752040147781372,0.23904187977313995,0.8879924416542053
1776554208943768300,2.510768310546875,2.8513898849487305,0.3358757495880127,0.8260270953178406
1776554208953808400,2.520808349609375,2.859809160232544,0.15698722004890442,0.8407306671142578
1776554208963847400,2.530847412109375,2.7293970584869385,-0.06181409955024719,1.0510207414627075
1776554208973886200,2.54088623046875,2.574559450149536,-0.25054433941841125,1.1976057291030884
1776554208983926300,2.55092626953125,1.9847320318222046,-0.6430500745773315,1.2006217241287231
1776554208993965300,2.56096533203125,1.42135751247406,-1.319968342781067,1.1156748533248901
1776554209004005400,2.57100537109375,0.9259781837463379,-2.0966901779174805,0.9353293180465698
1776554209014044200,2.581044189453125,0.597733199596405,-3.1164896488189697,0.9118277430534363
1776554209024083500,2.59108349609375,0.10000143200159073,-3.653590202331543,0.8458061218261719
1776554209034123500,2.60112353515625,-0.3475340008735657,-3.8457720279693604,0.9282346963882446
1776554209044162300,2.611162353515625,-0.6690995097160339,-3.040330410003662,1.2276113033294678
1776554209054201300,2.621201416015625,-1.051125168800354,-2.287343978881836,1.5132172107696533
1776554209064241400,2.631241455078125,-1.240998387336731,-1.8179794549942017,1.7228585481643677
1776554209074280200,2.6412802734375,-1.2105430364608765,-1.583105444908142,1.7374244928359985
1776554209084320300,2.6513203125,-1.116950511932373,-1.195852279663086,1.3854267597198486
1776554209094359300,2.661359375,-1.046788215637207,-0.888988196849823,0.9022954702377319
1776554209104398300,2.6713984375,-0.6616040468215942,0.06501442193984985,0.33297422528266907
1776554209114438400,2.6814384765625,-0.0502338744699955,0.8763171434402466,-0.06903792172670364
1776554209124477400,2.6914775390625,0.29073596000671387,1.6058562994003296,-0.17850396037101746
1776554209134517500,2.701517578125,0.2072724997997284,1.7119864225387573,-0.21393758058547974
1776554209144556300,2.711556396484375,0.26606816053390503,1.698087215423584,-0.49851393699645996
1776554209154595300,2.72159521484375,0.2971203625202179,1.048047661781311,-0.6415701508522034
1776554209164635400,2.731635498046875,0.22921320796012878,0.39402639865875244,-0.48303458094596863
1776554209174674200,2.741674072265625,0.13075721263885498,-0.2207994908094406,-0.24816586077213287
1776554209184714200,2.75171435546875,-0.0033811493776738644,-0.9091235399246216,-0.2012321799993515
1776554209194753500,2.76175341796875,-0.14181917905807495,-1.265877366065979,-0.14245621860027313
1776554209204792300,2.771792236328125,-0.19743238389492035,-1.4670331478118896,-0.22507013380527496
1776554209214832400,2.781832275390625,-0.12884506583213806,-1.698327660560608,-0.41184133291244507
1776554209224871400,2.791871337890625,0.0017656758427619934,-1.9015127420425415,-0.5344101190567017
1776554209234911500,2.801911376953125,0.22333775460720062,-2.153672695159912,-0.6656155586242676
1776554209244950300,2.8119501953125,0.401531457901001,-2.0649302005767822,-0.7762390375137329
1776554209254989300,2.8219892578125,0.5529417395591736,-1.5583585500717163,-0.8457685708999634
1776554209265029400,2.832029296875,0.7105292677879333,-0.9129971265792847,-0.8094784617424011
1776554209275068200,2.842068115234375,0.7754219770431519,-0.28405967354774475,-0.759130597114563
1776554209285108200,2.852108154296875,0.7233190536499023,-0.09882165491580963,-0.7192689180374146
1776554209295147500,2.8621474609375,0.4832979440689087,-0.4662582576274872,-0.7278589606285095
1776554209305186300,2.872186279296875,0.0031486554071307182,-0.8223380446434021,-0.697861909866333
1776554209315226400,2.882226318359375,-0.4658806025981903,-0.9858574867248535,-0.6094420552253723
1776554209325265400,2.892265380859375,-0.9237632155418396,-0.9778006076812744,-0.49147093296051025
1776554209335304200,2.90230419921875,-1.3305784463882446,-0.9234489798545837,-0.4310954809188843
1776554209345344300,2.91234423828125,-1.5621317625045776,-0.845952033996582,-0.3846416771411896
1776554209355383300,2.92238330078125,-1.8064836263656616,-0.7572988867759705,-0.3384912312030792
1776554209365423400,2.93242333984375,-1.9068070650100708,-0.5722669959068298,-0.23879846930503845
1776554209375462400,2.94246240234375,-1.8558461666107178,-0.7011826038360596,-0.32425743341445923
1776554209385501400,2.95250146484375,-1.5467172861099243,-0.7918336987495422,-0.3728364109992981
1776554209395541500,2.96254150390625,-1.0353055000305176,-0.6880257725715637,-0.27775225043296814
1776554209405580300,2.972580322265625,-0.7124065160751343,0.05094840005040169,-0.15772704780101776
1776554209415620400,2.982620361328125,-0.6189905405044556,0.8625115752220154,0.0009166600648313761
1776554209425659400,2.992659423828125,-0.6386316418647766,1.5106456279754639,0.1217658519744873
1776554209435698200,3.0026982421875,-0.8848845362663269,1.5518900156021118,0.07257833331823349
1776554209445738200,3.01273828125,-1.0842053890228271,1.4837915897369385,0.03442322090268135
1776554209455777300,3.02277734375,-1.2046207189559937,1.4024986028671265,0.09623678773641586
1776554209465817300,3.0328173828125,-1.206010103225708,1.036631464958191,0.11506853252649307
1776554209475856400,3.0428564453125,-1.0290096998214722,0.7495719790458679,0.09551720321178436
1776554209485895400,3.0528955078125,-0.8665462732315063,0.7109052538871765,0.09027156978845596
1776554209495935500,3.062935546875,-0.6642141938209534,0.7147836685180664,0.0804343894124031
1776554209505974300,3.072974365234375,-0.3521263599395752,0.46742498874664307,0.03934607282280922
1776554209516014300,3.083014404296875,0.05696581304073334,0.2283729910850525,0.05754132196307182
1776554209526053400,3.093053466796875,0.18224117159843445,0.20602746307849884,0.09618885070085526
1776554209536092200,3.103092041015625,0.07833528518676758,0.2190260887145996,0.07731742411851883
1776554209546132200,3.11313232421875,-0.009748234413564205,-0.1478310078382492,0.0885932520031929
1776554209556171500,3.123171630859375,-0.0885746031999588,-1.0554310083389282,0.2315051257610321
1776554209566210300,3.133210205078125,-0.047213051468133926,-1.9770026206970215,0.287845641374588
1776554209576250400,3.14325048828125,0.018865033984184265,-2.2374801635742188,0.3821423053741455
1776554209586289400,3.153289306640625,0.027269970625638962,-1.8814550638198853,0.33021971583366394
1776554209596330000,3.163330078125,-0.05138702318072319,-1.0680040121078491,0.13154791295528412
1776554209606369000,3.173369140625,-0.07701701670885086,-0.33741265535354614,0.023962324485182762
1776554209616407800,3.18340771484375,-0.05788140743970871,-0.07596853375434875,-0.0006122607155703008
1776554209626448000,3.19344775390625,-0.04298022389411926,-0.21171358227729797,-0.026974359527230263
1776554209636487000,3.20348681640625,-0.09414008259773254,-0.29055488109588623,-0.15773209929466248
1776554209646527000,3.21352685546875,-0.11498410999774933,0.0445440337061882,-0.306156188249588
1776554209656566000,3.22356591796875,-0.07865513116121292,0.5518109798431396,-0.3637973964214325
1776554209666605000,3.23360498046875,-0.018553709611296654,0.9058800935745239,-0.3450671136379242
1776554209676645000,3.24364501953125,0.0970194935798645,0.9806587100028992,-0.27374207973480225
1776554209686684000,3.253683837890625,0.3227889835834503,0.968119740486145,-0.037572141736745834
1776554209696724000,3.263723876953125,0.5158383250236511,0.9597582221031189,0.16167810559272766
1776554209706763000,3.273762939453125,0.6518102884292603,1.1397360563278198,0.29093942046165466
1776554209716801800,3.2838017578125,0.7459356784820557,1.3744750022888184,0.45533236861228943
1776554209726841900,3.293841796875,0.6754351854324341,0.8716821670532227,0.4352515935897827
1776554209736881000,3.303880859375,0.3175920844078064,-0.597440779209137,0.09977453202009201
1776554209746921000,3.3139208984375,-0.17363037168979645,-1.3612923622131348,-0.11096193641424179
1776554209756960000,3.3239599609375,-0.4295029044151306,-0.719896674156189,-0.04525775834918022
1776554209766999000,3.3339990234375,-0.5154814720153809,-0.23577764630317688,-0.19857141375541687
1776554209777039000,3.3440390625,-0.40211841464042664,0.26424843072891235,-0.2420531064271927
1776554209787078000,3.354077880859375,-0.21505531668663025,0.3642389476299286,-0.212009996175766
1776554209797117000,3.364116943359375,-0.042575690895318985,-0.06583334505558014,-0.10698237270116806
1776554209807157000,3.374156982421875,0.15806899964809418,-0.3171177804470062,-0.01543434988707304
1776554209817195800,3.38419580078125,0.2905857563018799,-0.2847515642642975,0.09169822931289673
1776554209827235800,3.39423583984375,0.3785015046596527,-0.013294766657054424,0.08845449984073639
1776554209837275100,3.404275146484375,0.3473382592201233,0.211116760969162,-0.004268514458090067
1776554209847314000,3.41431396484375,0.1744048297405243,0.2824138402938843,-0.06308602541685104
1776554209857354000,3.42435400390625,0.006067479960620403,0.2928001880645752,-0.13541056215763092
1776554209867393000,3.43439306640625,-0.05013667047023773,0.21065416932106018,-0.14934954047203064
1776554209877433000,3.44443310546875,0.07624656707048416,0.134696826338768,-0.10742925107479095
1776554209887471900,3.454471923828125,0.16029034554958344,0.04123292490839958,-0.045646846294403076
1776554209897511000,3.464510986328125,0.22574470937252045,-0.16553063690662384,0.04764821380376816
1776554209907551000,3.474551025390625,0.25977087020874023,-0.3617613911628723,0.1108333095908165
1776554209917590000,3.484590087890625,0.2344154268503189,-0.32006481289863586,0.129954531788826
1776554209927629800,3.4946298828125,0.12768526375293732,-0.11500541865825653,0.21112875640392303
1776554209937669000,3.504669189453125,-0.00965715479105711,0.20830580592155457,0.26301857829093933
1776554209947708000,3.5147080078125,-0.19195479154586792,0.34917983412742615,0.2870413661003113
1776554209957748000,3.524748046875,-0.4730096161365509,0.3237501084804535,0.2906680405139923
1776554209967787000,3.534787109375,-0.7718493342399597,0.18525028228759766,0.25423094630241394
1776554209977827000,3.5448271484375,-0.8438670635223389,-0.2498772144317627,0.26285266876220703
1776554209987865900,3.554865966796875,-0.7442243695259094,-0.5065057873725891,0.2864091098308563
1776554209997905000,3.56490478515625,-0.6095722913742065,-0.32702338695526123,0.337539941072464
1776554210007945000,3.574945068359375,-0.4911668002605438,0.11484535783529282,0.43694430589675903
1776554210017984000,3.58498388671875,-0.38766250014305115,0.6054587364196777,0.6240931749343872
1776554210028024000,3.595024169921875,-0.27865666151046753,1.0100733041763306,0.7724964618682861
1776554210038063000,3.60506298828125,-0.22122319042682648,1.0802907943725586,0.7684511542320251
1776554210048102000,3.615101806640625,-0.3134729564189911,1.0279593467712402,0.725428581237793
1776554210058142000,3.625141845703125,-0.3738769292831421,1.4214364290237427,0.6856478452682495
1776554210068181000,3.635180908203125,-0.304439514875412,1.5567207336425781,0.6424404978752136
1776554210078219800,3.6452197265625,-0.20020367205142975,1.3972961902618408,0.6183434128761292
1776554210088259800,3.655259765625,-0.14669649302959442,1.2206956148147583,0.6303337216377258
1776554210098299100,3.665299072265625,-0.16510240733623505,0.9197807312011719,0.549996554851532
1776554210108339000,3.6753388671875,-0.22171801328659058,0.6343308687210083,0.39588502049446106
1776554210118378000,3.6853779296875,-0.25912344455718994,0.6346315741539001,0.25425758957862854
1776554210128417000,3.6954169921875,-0.2593007981777191,0.7424480319023132,0.13659246265888214
1776554210138457000,3.70545703125,-0.22244159877300262,0.8109591603279114,0.08929898589849472
1776554210148496000,3.715495849609375,-0.23019884526729584,0.6599387526512146,0.08695913106203079
1776554210158536000,3.725535888671875,-0.17483092844486237,0.5200405120849609,0.09976840764284134
1776554210168575000,3.735574951171875,-0.09142285585403442,0.5331019759178162,0.0895828828215599
1776554210178614000,3.745614013671875,-0.037102628499269485,0.7055922746658325,0.03835324943065643
1776554210188653800,3.75565380859375,0.03202318027615547,0.7223398089408875,0.02197267673909664
1776554210198693000,3.765693115234375,-0.003266899613663554,0.638898491859436,0.012689962051808834
1776554210208733200,3.775733154296875,-0.14220188558101654,0.6303244233131409,0.10382333397865295
1776554210218772000,3.78577197265625,-0.07430512458086014,0.699503481388092,-0.005376123357564211
1776554210228811000,3.79581103515625,-0.16201579570770264,0.5205997824668884,-0.10671553015708923
1776554210238851000,3.80585107421875,-0.30568188428878784,0.535796582698822,-0.15100842714309692
1776554210248889900,3.815889892578125,-0.39092808961868286,0.7506577372550964,-0.09320051968097687
1776554210258930000,3.825929931640625,-0.4035719633102417,0.8153757452964783,-0.022231535986065865
1776554210268969000,3.835968994140625,-0.4032182991504669,0.5048786401748657,0.07847829908132553
1776554210279008000,3.846008056640625,-0.39466768503189087,0.27870434522628784,0.2311304211616516
1776554210289048000,3.856048095703125,-0.405305951833725,0.4265584945678711,0.2770127058029175
1776554210299087000,3.866087158203125,-0.4795471727848053,0.785581111907959,0.1923777014017105
1776554210309127200,3.876127197265625,-0.8203191161155701,1.3070695400238037,0.09425539523363113
1776554210319166000,3.886166015625,-1.2153573036193848,1.839840054512024,-0.08663023263216019
1776554210329205000,3.896205078125,-1.4479025602340698,1.9589589834213257,-0.2437543421983719
1776554210339245000,3.9062451171875,-1.3157144784927368,1.44734525680542,-0.2649837136268616
1776554210349283800,3.916283935546875,-1.0557398796081543,0.7403651475906372,-0.12935346364974976
1776554210359324000,3.926323974609375,-0.8704760074615479,0.42082497477531433,0.01417387556284666
1776554210369363000,3.936363037109375,-0.7505730390548706,0.41265228390693665,-0.010567422956228256
1776554210379402000,3.946402099609375,-0.7512063384056091,0.35746440291404724,-0.08435988426208496
1776554210389442000,3.956442138671875,-0.8169100284576416,0.11079415678977966,-0.18618452548980713
1776554210399481000,3.966481201171875,-0.8146090507507324,0.19003865122795105,-0.3700803220272064
1776554210409519900,3.976519775390625,-0.9091880321502686,0.7686865329742432,-0.6745960116386414
1776554210419560000,3.986559814453125,-1.1544268131256104,1.0928153991699219,-0.7288797497749329
1776554210429599000,3.996598876953125,-1.3151781558990479,1.1056270599365234,-0.5907788872718811
1776554210439639000,4.00663916015625,-1.2392442226409912,0.9667522311210632,-0.4385097026824951
1776554210449677800,4.016677734375,-1.1006666421890259,0.7141109108924866,-0.325619101524353
1776554210459717000,4.026717041015625,-1.133622407913208,0.44658201932907104,-0.25897377729415894
1776554210469757200,4.036757080078125,-1.2176328897476196,0.22230283915996552,-0.14129853248596191
1776554210479796000,4.0467958984375,-1.174572229385376,-0.06783124804496765,0.0329614132642746
1776554210489836000,4.0568359375,-1.159242033958435,-0.3885709047317505,-0.05300063267350197
1776554210499875000,4.066875,-1.1539332866668701,-0.1483607143163681,-0.32089653611183167
1776554210509913900,4.076913818359375,-0.9578985571861267,0.8661526441574097,-0.5900358557701111
1776554210519954000,4.086953857421875,-0.531322717666626,1.6667715311050415,-0.8411831259727478
1776554210529993000,4.096992919921875,-0.2991507649421692,1.3296902179718018,-0.9259395599365234
1776554210540032800,4.10703271484375,-0.0709114596247673,0.6988414525985718,-0.6820717453956604
1776554210550072000,4.117072021484375,0.16408507525920868,0.10676426440477371,-0.3156628906726837
1776554210560111000,4.127111083984375,0.27427974343299866,-0.26838377118110657,-0.07705750316381454
1776554210570151200,4.137151123046875,0.40279778838157654,-0.2896462082862854,0.2301463782787323
1776554210580190000,4.14718994140625,0.6088454723358154,0.6789510846138,0.33457398414611816
1776554210590230000,4.15722998046875,0.7362364530563354,0.8430705070495605,-0.13436312973499298
1776554210600268800,4.167268798828125,0.7250221371650696,0.8722350597381592,-0.5875133275985718
1776554210610307600,4.1773076171875,0.763085663318634,0.5145594477653503,-0.6899792551994324
1776554210620347600,4.18734765625,0.9533288478851318,-0.17800089716911316,-0.43230828642845154
1776554210630387000,4.197386962890625,1.1311897039413452,-0.5641502141952515,-0.07908976078033447
1776554210640426800,4.2074267578125,1.2589068412780762,-0.5507653951644897,0.1711840033531189
1776554210650465800,4.2174658203125,1.2179282903671265,-0.17503200471401215,0.2520045340061188
1776554210660504800,4.2275048828125,1.0636881589889526,0.35431069135665894,0.05559934675693512
1776554210670544600,4.237544677734375,0.8584010004997253,0.6682574152946472,-0.22020374238491058
1776554210680583700,4.247583740234375,0.2687009572982788,0.32170772552490234,-0.12217944115400314
1776554210690623700,4.257623779296875,-0.36852264404296875,-0.362901508808136,-0.01206784788519144
1776554210700662800,4.267662841796875,-0.1710740029811859,-0.5053465366363525,0.05097876116633415
1776554210710701800,4.277701904296875,0.015185077674686909,-0.3555053770542145,0.23008912801742554
1776554210720741600,4.28774169921875,-0.00005832322858623229,-0.15533818304538727,0.42620617151260376
1776554210730781000,4.297781005859375,-0.0866083949804306,-0.06919504702091217,0.45579415559768677
1776554210740819700,4.30781982421875,-0.11132119596004486,0.09779740124940872,0.2668050527572632
1776554210750859800,4.31785986328125,-0.005318332463502884,0.07915394008159637,0.07075086981058121
1776554210760898800,4.32789892578125,0.2106536477804184,-0.0568491667509079,0.07771849632263184
1776554210770938600,4.337938720703125,0.3811308443546295,-0.20502957701683044,0.2113407403230667
1776554210780977700,4.347977783203125,0.39949867129325867,-0.4070897400379181,0.26578161120414734
1776554210791016700,4.3580166015625,0.27266189455986023,-0.3297608494758606,0.21372932195663452
1776554210801056500,4.368056396484375,0.2052903026342392,-0.06741072982549667,0.16865293681621552
1776554210811095800,4.378095703125,0.26685458421707153,0.21210160851478577,0.08011268079280853
1776554210821136000,4.388135986328125,0.3419688045978546,0.14777161180973053,0.03705761954188347
1776554210831175000,4.3981748046875,-0.2866416275501251,-0.6144315004348755,0.195721834897995
1776554210841213700,4.408213623046875,-0.5447336435317993,-0.8395559191703796,0.025918949395418167
1776554210851253800,4.418253662109375,-0.4092532992362976,-0.5154129862785339,-0.061581339687108994
1776554210861292800,4.428292724609375,-0.16252605617046356,-0.3982376456260681,-0.04528678581118584
1776554210871332600,4.43833251953125,0.16312633454799652,-0.30728697776794434,-0.017764616757631302
1776554210881371600,4.44837158203125,0.5558059811592102,-0.037101030349731445,-0.05446883291006088
1776554210891411000,4.458410888671875,0.9157705307006836,-0.053523145616054535,0.08049244433641434
1776554210901450800,4.46845068359375,1.4773528575897217,-0.9594985842704773,0.3010226786136627
1776554210911489800,4.47848974609375,1.6290428638458252,-1.9558025598526,0.4463934600353241
1776554210921528800,4.48852880859375,1.8140590190887451,-1.281388759613037,0.7122552394866943
1776554210931568600,4.498568603515625,1.6882603168487549,-0.6284071803092957,0.6050049662590027
1776554210941607700,4.508607666015625,1.4074302911758423,-0.6756125092506409,0.2457980513572693
1776554210951647700,4.518647705078125,0.9939524531364441,-1.0357584953308105,0.1230018213391304
1776554210961686800,4.528686767578125,0.5270403623580933,-1.6640764474868774,0.2167714536190033
1776554210971725800,4.538725830078125,0.29665058851242065,-1.9808224439620972,0.1830182820558548
1776554210981765600,4.548765625,-0.025042768567800522,-1.7174904346466064,-0.016206933185458183
1776554210991805000,4.558804931640625,-0.18587931990623474,-1.5064671039581299,-0.19871841371059418
1776554211001844700,4.5688447265625,-0.21427901089191437,-1.276326298713684,-0.5026543140411377
1776554211011883800,4.5788837890625,-0.3768244981765747,-1.4095704555511475,-0.546104371547699
1776554211021922800,4.5889228515625,-0.24310852587223053,-1.1769968271255493,-0.6514435410499573
1776554211031962600,4.598962646484375,-0.008241417817771435,-0.69614177942276,-0.9665330648422241
1776554211042001700,4.609001708984375,0.22140829265117645,-0.17953060567378998,-0.899895429611206
1776554211052041700,4.619041748046875,0.5588294863700867,0.8360810279846191,-0.7646441459655762
1776554211062080500,4.62908056640625,0.7989709377288818,1.56817626953125,-0.9852731823921204
1776554211072119800,4.639119873046875,0.8772220611572266,1.4649803638458252,-1.5280629396438599
1776554211082159900,4.649159912109375,1.1979961395263672,1.3722866773605347,-2.123993396759033
1776554211092199000,4.659198974609375,1.81107759475708,1.577592134475708,-2.433403253555298
1776554211102237700,4.66923779296875,1.9655870199203491,1.310104489326477,-2.471078872680664
1776554211112277800,4.67927783203125,1.987394094467163,1.29642915725708,-2.04526686668396
1776554211122316800,4.68931689453125,2.0877933502197266,1.1288537979125977,-1.1420012712478638
1776554211132356600,4.699356689453125,2.0957298278808594,0.35002458095550537,-0.07654723525047302
1776554211142395600,4.709395751953125,2.208258628845215,0.00777536490932107,0.6568087339401245
1776554211152435000,4.71943505859375,1.8863697052001953,0.23883602023124695,1.0167731046676636
1776554211162474800,4.729474853515625,1.2108304500579834,0.3393775224685669,1.0369696617126465
1776554211172513800,4.739513671875,0.7100179195404053,0.2018851786851883,0.7722932696342468
1776554211182553900,4.749553955078125,0.34852176904678345,-0.13258573412895203,0.4537334144115448
1776554211192592600,4.759592529296875,0.16016490757465363,-0.33621397614479065,0.23147183656692505
1776554211202631700,4.769631591796875,0.41272684931755066,-0.2602219879627228,0.38756316900253296
1776554211212671700,4.779671630859375,0.6328938603401184,0.07523403316736221,0.8134087324142456
1776554211222710800,4.789710693359375,0.6903733611106873,0.5151413679122925,1.2614270448684692
1776554211232750600,4.79975048828125,0.7735170125961304,0.8791244029998779,1.6078238487243652
1776554211242789600,4.80978955078125,0.7591977119445801,1.041042447090149,1.57106614112854
1776554211252829000,4.819828857421875,0.6746495366096497,0.9133084416389465,1.0704551935195923
1776554211262868700,4.82986865234375,0.7220359444618225,0.4453950524330139,0.5235843658447266
1776554211272907800,4.83990771484375,0.7767434120178223,0.05684464052319527,0.3546057641506195
1776554211282947800,4.84994775390625,0.6987838745117188,-0.08340221643447876,0.42701256275177
1776554211292986600,4.859986572265625,0.5741849541664124,-0.12515951693058014,0.5112422108650208
1776554211303025700,4.870025634765625,0.579422116279602,-0.15195384621620178,0.5850578546524048
1776554211313065700,4.880065673828125,0.45752841234207153,-0.1616847664117813,0.6324986219406128
1776554211323104500,4.8901044921875,0.3373583257198334,-0.14928188920021057,0.5374594330787659
1776554211333143800,4.900143798828125,0.21796508133411407,-0.1536761075258255,0.502181351184845
1776554211343184000,4.910183837890625,0.12906238436698914,-0.06876974552869797,0.482637494802475
1776554211353223000,4.920222900390625,0.06630019098520279,0.014150439761579037,0.35848623514175415
1776554211363262700,4.9302626953125,0.019147329032421112,-0.023628629744052887,0.30009031295776367
1776554211373301800,4.9403017578125,0.006485329940915108,-0.1449209749698639,0.240611270070076
1776554211383340800,4.9503408203125,-0.012072907760739326,-0.2916949689388275,0.26369714736938477
1776554211393380600,4.960380615234375,-0.03843687102198601,-0.387224942445755,0.33046287298202515
1776554211403419600,4.970419677734375,-0.02883218042552471,-0.4180355966091156,0.3687064051628113
1776554211413459700,4.980459716796875,-0.02111220918595791,-0.38960927724838257,0.41276946663856506
1776554211423498800,4.990498779296875,-0.061459366232156754,-0.261513888835907,0.41141390800476074
1776554211433537800,5.000537841796875,-0.10111569613218307,-0.09974843263626099,0.3112502992153168
1776554211443577900,5.010577880859375,-0.1009332686662674,0.027779433876276016,0.20621149241924286
1776554211453616600,5.02061669921875,-0.17451748251914978,0.1015617772936821,0.1536896973848343
1776554211463655700,5.03065576171875,-0.42534810304641724,0.12287798523902893,0.195443794131279
1776554211473695700,5.04069580078125,-0.5534554719924927,0.10928548127412796,0.1763175129890442
1776554211483734800,5.05073486328125,-0.5621184706687927,0.04824609309434891,0.12560373544692993
1776554211493774600,5.060774658203125,-0.47755005955696106,-0.06838198751211166,0.1608240306377411
1776554211503813600,5.070813720703125,-0.3233884572982788,-0.2541763484477997,0.23346760869026184
1776554211513853000,5.08085302734375,-0.15352430939674377,-0.3942008316516876,0.26960909366607666
1776554211523892700,5.090892822265625,-0.06442718952894211,-0.40451765060424805,0.24692216515541077
1776554211533931800,5.100931884765625,-0.0909581333398819,-0.2775288224220276,0.24610351026058197
1776554211543970800,5.110970703125,-0.15244972705841064,-0.12067608535289764,0.24708569049835205
1776554211554010600,5.1210107421875,-0.08167994767427444,-0.017289774492383003,0.25916633009910583
1776554211564049700,5.131049560546875,0.012871856801211834,-0.017297497019171715,0.2634742558002472
1776554211574089700,5.14108984375,0.017370468005537987,-0.05264749750494957,0.2798806428909302
1776554211584128500,5.15112841796875,0.011833223514258862,-0.08773065358400345,0.2715420424938202
1776554211594167800,5.161167724609375,0.0026322684716433287,-0.0412566252052784,0.257024884223938
1776554211604207900,5.171207763671875,-0.011227088049054146,-0.021469073370099068,0.2515336871147156
1776554211614247000,5.181246826171875,-0.017193634063005447,-0.03157949820160866,0.25159814953804016
1776554211624287000,5.191286865234375,-0.03127243369817734,-0.008917328901588917,0.2504335343837738
1776554211634325800,5.20132568359375,-0.00407383730635047,-0.05193537101149559,0.23580454289913177
1776554211644364800,5.21136474609375,-0.01380822341889143,-0.05696368217468262,0.2233278900384903
1776554211654404900,5.22140478515625,-0.017778996378183365,-0.03791755437850952,0.2045358270406723
1776554211664444000,5.23144384765625,-0.015868179500102997,-0.004714594222605228,0.1873035728931427
1776554211674483000,5.24148291015625,-0.01799098402261734,0.0639004185795784,0.17588022351264954
1776554211684522800,5.251522705078125,-0.0276207085698843,0.17391160130500793,0.17662057280540466
1776554211694562000,5.26156201171875,-0.0016852483386173844,0.2548711597919464,0.18162944912910461
1776554211704601900,5.271601806640625,0.0187236201018095,0.27414608001708984,0.18632087111473083
1776554211714641000,5.281640869140625,0.021520737558603287,0.2985113263130188,0.19514019787311554
1776554211724680000,5.291679931640625,0.03321387991309166,0.2971704304218292,0.19769762456417084
1776554211734719700,5.3017197265625,0.019174760207533836,0.36810025572776794,0.19849976897239685
1776554211744758800,5.3117587890625,0.015050055459141731,0.4590008556842804,0.18127284944057465
1776554211754797800,5.3217978515625,0.03423706442117691,0.4883430600166321,0.1594831347465515
1776554211764837600,5.331837646484375,0.07645323127508163,0.42941901087760925,0.13470961153507233
1776554211774877000,5.341876953125,0.09092138707637787,0.3565003275871277,0.12903760373592377
1776554211784917000,5.3519169921875,0.07257407158613205,0.3450380861759186,0.12629562616348267
1776554211794956000,5.3619560546875,0.06441786885261536,0.3716198801994324,0.12371395528316498
1776554211804994800,5.371994873046875,0.08201950043439865,0.39092329144477844,0.11196115612983704
1776554211815035000,5.382034912109375,0.06904138624668121,0.3931896388530731,0.14269642531871796
1776554211825074000,5.392073974609375,0.054184675216674805,0.3959321677684784,0.15379995107650757
1776554211835113700,5.40211376953125,0.049786996096372604,0.3839079737663269,0.1509767323732376
1776554211845152800,5.41215283203125,0.061828214675188065,0.34794679284095764,0.14510579407215118
1776554211855192000,5.422192138671875,0.08311006426811218,0.3151659369468689,0.13206322491168976
1776554211865232000,5.43223193359375,0.09904216229915619,0.33189457654953003,0.12905891239643097
1776554211875271000,5.44227099609375,0.11777536571025848,0.3709208071231842,0.11357955634593964
1776554211885310000,5.45231005859375,0.0961126834154129,0.4394431412220001,0.09580136090517044
1776554211895349800,5.462349853515625,0.06822432577610016,0.48865196108818054,0.08801001310348511
1776554211905388800,5.472388916015625,0.0639859065413475,0.47770291566848755,0.06750953197479248
1776554211915428900,5.482428955078125,0.06932767480611801,0.4516228437423706,0.05006316676735878
1776554211925468000,5.492468017578125,0.07078096270561218,0.44957834482192993,0.03133128955960274
1776554211935507000,5.5025068359375,0.0687234029173851,0.5078728199005127,0.013510482385754585
1776554211945546800,5.512546630859375,0.05651813745498657,0.6131214499473572,-0.008679241873323917
1776554211955586000,5.5225859375,0.08151429891586304,0.6784530878067017,-0.04160177335143089
1776554211965624800,5.532624755859375,0.2095537632703781,0.7526119947433472,-0.06725120544433594
1776554211975665000,5.542664794921875,0.3471614122390747,0.7849568724632263,-0.07150880247354507
1776554211985704000,5.552703857421875,0.4397406280040741,0.7571657299995422,-0.06223674118518829
1776554211995743700,5.56274365234375,0.5356913805007935,0.693516194820404,-0.05882683023810387
1776554212005782800,5.57278271484375,0.6001492142677307,0.607589840888977,-0.07649717479944229
1776554212015821800,5.58282177734375,0.6253722906112671,0.5437437295913696,-0.09677048772573471
1776554212025861600,5.592861572265625,0.6295806169509888,0.5330138206481934,-0.10826415568590164
1776554212035901000,5.60290087890625,0.6311656832695007,0.5295136570930481,-0.0993308499455452
1776554212045940000,5.61293994140625,0.6261121034622192,0.5477800369262695,-0.09502052515745163
1776554212055980000,5.62297998046875,0.6356925368309021,0.48646417260169983,-0.135502427816391
1776554212066018800,5.633018798828125,0.6698316335678101,0.35407817363739014,-0.17819583415985107
1776554212076059000,5.643058837890625,0.6768117547035217,0.22391964495182037,-0.21463294327259064
1776554212086098000,5.653097900390625,0.614619255065918,0.09936413913965225,-0.23534300923347473
1776554212096136700,5.66313671875,0.49785691499710083,0.0006684534018859267,-0.22421686351299286
1776554212106176800,5.6731767578125,0.34205400943756104,-0.07836724072694778,-0.1940498948097229
1776554212116216000,5.683216064453125,0.24845720827579498,-0.17078958451747894,-0.15974758565425873
1776554212126254800,5.6932548828125,0.20656809210777283,-0.12435896694660187,-0.14552471041679382
1776554212136295000,5.703294921875,0.2514394223690033,-0.12162017077207565,-0.14380057156085968
1776554212146334000,5.713333984375,0.3064691126346588,-0.15585458278656006,-0.15004782378673553
1776554212156373800,5.723373779296875,0.3432771861553192,-0.24606196582317352,-0.15829190611839294
1776554212166412800,5.733412841796875,0.3350642919540405,-0.2260110229253769,-0.15359701216220856
1776554212176451800,5.743451904296875,0.36531034111976624,-0.29811611771583557,-0.1388457715511322
1776554212186492000,5.753491943359375,0.38497963547706604,-0.36597371101379395,-0.13552667200565338
1776554212196531000,5.763531005859375,0.35073697566986084,-0.29964691400527954,-0.13128584623336792
1776554212206570000,5.773570068359375,0.37851428985595703,-0.25809547305107117,-0.0960351824760437
1776554212216610000,5.783610107421875,0.39035284519195557,-0.15953107178211212,-0.023967383429408073
1776554212226648800,5.79364892578125,0.36498144268989563,-0.03686587139964104,0.03092622384428978
1776554212236688000,5.80368798828125,0.3119930624961853,0.0502631701529026,0.02556661330163479
1776554212246728000,5.81372802734375,0.19986703991889954,0.15122254192829132,-0.037998780608177185
1776554212256766700,5.8237666015625,0.09011737257242203,0.18175461888313293,-0.09203112125396729
1776554212266806800,5.833806884765625,-0.017004815861582756,0.2524397075176239,-0.08895596861839294
1776554212276845800,5.843845703125,-0.14354385435581207,0.295657217502594,-0.09759393334388733
1776554212286884900,5.853884765625,-0.14503175020217896,0.22714181244373322,-0.13099104166030884
1776554212296925000,5.863925048828125,-0.12171365320682526,0.21844978630542755,-0.15228700637817383
1776554212306964000,5.8739638671875,-0.027700603008270264,0.2518024146556854,-0.11943771690130234
1776554212317002800,5.884002685546875,0.10710381716489792,0.24228188395500183,-0.030951257795095444
1776554212327042800,5.894042724609375,0.1780158132314682,0.20043589174747467,0.06202368810772896
1776554212337081900,5.904081787109375,0.21302279829978943,0.14998629689216614,0.10533920675516129
1776554212347122000,5.914121826171875,0.20919770002365112,0.14813381433486938,0.16474340856075287
1776554212357160700,5.92416064453125,0.19164879620075226,0.12971697747707367,0.20322901010513306
1776554212367200000,5.934199951171875,0.14548689126968384,0.08235719054937363,0.18317382037639618
1776554212377240000,5.944239990234375,0.1710316687822342,0.03810983523726463,0.10243476182222366
1776554212387278800,5.95427880859375,0.27104029059410095,0.03839878737926483,0.012271047569811344
1776554212397318000,5.96431787109375,0.22955968976020813,0.05462489649653435,-0.04698002710938454
1776554212407358000,5.97435791015625,0.093154177069664,0.052266400307416916,-0.10784151405096054
1776554212417396700,5.984396728515625,-0.04131921008229256,0.06979452818632126,-0.16526725888252258
1776554212427436800,5.994436767578125,-0.037516750395298004,0.0692477822303772,-0.1569475382566452
1776554212437475800,6.004475830078125,0.0581999234855175,0.01757553219795227,-0.1060020700097084
1776554212447515000,6.014514892578125,0.18945568799972534,-0.10115830600261688,-0.03573642671108246
1776554212457555000,6.024554931640625,0.3441629707813263,-0.11537293344736099,0.056903496384620667
1776554212467594000,6.034593994140625,0.474044531583786,0.04067419096827507,0.13950249552726746
1776554212477632800,6.0446328125,0.5572429895401001,0.2739788293838501,0.11045859754085541
1776554212487672800,6.0546728515625,0.5403223633766174,0.4890402555465698,-0.024347949773073196
1776554212497711900,6.0647119140625,0.3961433470249176,0.6576803922653198,-0.23059672117233276
1776554212507750700,6.074750732421875,0.16552478075027466,0.662140429019928,-0.4475141167640686
1776554212517790700,6.084790771484375,0.008275507017970085,0.4046012759208679,-0.5748699307441711
1776554212527829800,6.094829833984375,-0.00806431844830513,-0.019876236096024513,-0.526311993598938
1776554212537869800,6.104869873046875,0.052378784865140915,-0.46613842248916626,-0.31684958934783936
1776554212547908900,6.114908935546875,0.15161588788032532,-0.7652603983879089,-0.05811363831162453
1776554212557948000,6.124947998046875,0.2576099634170532,-0.8441541194915771,0.17932768166065216
1776554212567988000,6.134988037109375,0.3127259612083435,-0.7469080090522766,0.3526501953601837
1776554212578026800,6.14502685546875,0.26053598523139954,-0.5149618983268738,0.43541431427001953
1776554212588065800,6.155065673828125,0.16306722164154053,-0.2994857728481293,0.39113953709602356
1776554212598105900,6.16510595703125,0.06470070034265518,-0.20532625913619995,0.224095419049263
1776554212608144600,6.17514453125,-0.0000045273736759554595,-0.19609840214252472,0.05559002608060837
1776554212618184700,6.185184814453125,0.0008412926108576357,-0.2773437201976776,0.012761867605149746
1776554212628224000,6.19522412109375,0.038899995386600494,-0.359797865152359,0.08689921349287033
1776554212638262800,6.2052626953125,0.10045336931943893,-0.45152831077575684,0.20117439329624176
1776554212648302800,6.215302734375,0.17204900085926056,-0.48644688725471497,0.304139107465744
1776554212658342000,6.225341796875,0.21410882472991943,-0.434479296207428,0.36430710554122925
1776554212668381000,6.235380859375,0.18613311648368835,-0.34434327483177185,0.3510568141937256
1776554212678420700,6.245420654296875,0.09858489781618118,-0.20252887904644012,0.27433088421821594
1776554212688459800,6.255459716796875,0.017615212127566338,-0.10434611141681671,0.17995059490203857
1776554212698499000,6.2654990234375,-0.07676002383232117,-0.062305185943841934,0.16509787738323212
1776554212708539000,6.275538818359375,-0.20907466113567352,-0.0393572598695755,0.26374003291130066
1776554212718578000,6.285577880859375,-0.21206751465797424,-0.057862766087055206,0.4296056926250458
1776554212728618000,6.295617919921875,-0.1617601364850998,-0.016509201377630234,0.5797581672668457
1776554212738656800,6.30565673828125,-0.12133894115686417,0.08801907300949097,0.5924769043922424
1776554212748695800,6.31569580078125,0.03961106017231941,0.10865617543458939,0.39892899990081787
1776554212758736000,6.32573583984375,-0.007310110609978437,0.22399687767028809,0.1532049924135208
1776554212768774700,6.335774658203125,-0.13127253949642181,0.25113317370414734,-0.024118652567267418
1776554212778814000,6.34581396484375,-0.158421590924263,0.10757040232419968,-0.041313882917165756
1776554212788853800,6.355853759765625,-0.1350952386856079,-0.009304552339017391,0.08225465565919876
1776554212798893000,6.36589306640625,-0.08352072536945343,-0.09189716726541519,0.2211318463087082
1776554212808931800,6.375931884765625,0.029201028868556023,-0.17941983044147491,0.26557573676109314
1776554212818972000,6.385971923828125,0.19264960289001465,-0.29602286219596863,0.20866772532463074
1776554212829011000,6.396010986328125,0.18397197127342224,-0.34985068440437317,0.09736117720603943
1776554212839050800,6.40605078125,0.05398387461900711,-0.3264196515083313,-0.02678287774324417
1776554212849089800,6.41608984375,-0.05203124135732651,-0.21180252730846405,-0.07509022206068039
1776554212859128800,6.42612890625,-0.06910903006792068,-0.04532327130436897,-0.023396668955683708
1776554212869168600,6.436168701171875,-0.019035210832953453,0.06996789574623108,0.0786127895116806
1776554212879208000,6.4462080078125,0.03019998036324978,0.10843566060066223,0.16305656731128693
1776554212889247000,6.4562470703125,0.046540603041648865,0.09538191556930542,0.19181284308433533
1776554212899286800,6.466286865234375,0.03572257608175278,0.07587505877017975,0.15939392149448395
1776554212909325800,6.476325927734375,0.012644688598811626,0.04464070498943329,0.09194830060005188
1776554212919364900,6.48636474609375,-0.013488644734025002,-0.0004889564006589353,0.03136032074689865
1776554212929405000,6.496405029296875,-0.03790770098567009,-0.054666440933942795,-0.0025656893849372864
1776554212939443700,6.506443603515625,-0.04338182881474495,-0.09405459463596344,0.002258360618725419
1776554212949483800,6.51648388671875,-0.034261301159858704,-0.08774210512638092,0.02052524872124195
1776554212959523000,6.526523193359375,-0.02034921385347843,-0.06142314523458481,0.0245511494576931
1776554212969561900,6.536561767578125,-0.006027532275766134,-0.023257652297616005,-0.0026114957872778177
1776554212979602000,6.546601806640625,-0.005182511638849974,0.0366421677172184,-0.04421619698405266
1776554212989641000,6.556640869140625,0.009533051401376724,0.09027557075023651,-0.09130088239908218
1776554212999679700,6.5666796875,0.020443489775061607,0.12256959080696106,-0.1109696626663208
1776554213009719800,6.5767197265625,0.026077406480908394,0.11892186105251312,-0.10092954337596893
1776554213019758800,6.5867587890625,0.02742762863636017,0.09332381933927536,-0.07752382010221481
1776554213029798000,6.5967978515625,0.03068627417087555,0.06255099922418594,-0.06095123291015625
1776554213039838000,6.606837890625,0.025931466370821,0.04302150383591652,-0.05249303579330444
1776554213049877000,6.616876953125,0.02321450784802437,0.04716644808650017,-0.047938231378793716
1776554213059917000,6.6269169921875,0.02816026471555233,0.05545580014586449,-0.057621218264102936
1776554213069955800,6.636955810546875,0.04056207463145256,0.056769538670778275,-0.06494490802288055
1776554213079995000,6.646994873046875,0.0495864599943161,0.04296983778476715,-0.07763620465993881
1776554213090035000,6.657034912109375,0.05361049622297287,0.019105518236756325,-0.0827537328004837
1776554213100073700,6.66707373046875,0.05155453830957413,0.0009339706157334149,-0.08206398040056229
1776554213110113000,6.677113037109375,0.051975317299366,-0.022102372720837593,-0.07508436590433121
1776554213120152800,6.68715283203125,0.04652009904384613,-0.04538319259881973,-0.07297354191541672
1776554213130192000,6.69719189453125,0.03503628075122833,-0.06120476871728897,-0.07075539231300354
1776554213140231000,6.70723095703125,0.01678483933210373,-0.05155853182077408,-0.06719208508729935
1776554213150271000,6.71727099609375,0.0020389161072671413,-0.03273531049489975,-0.051525507122278214
1776554213160309800,6.727309814453125,-0.0005928196478635073,-0.015446334145963192,-0.023488281294703484
1776554213170348800,6.737348876953125,-0.0029965888243168592,-0.015672968700528145,0.01979714073240757
1776554213180388900,6.747388916015625,-0.004610464442521334,-0.0312708355486393,0.05517057701945305
1776554213190428000,6.757427978515625,-0.013442838564515114,-0.03380909562110901,0.08509065955877304
1776554213200467700,6.7674677734375,-0.015055648051202297,-0.022877885028719902,0.10294608771800995
1776554213210507000,6.777507080078125,-0.0163576677441597,0.0054573495872318745,0.1165151596069336
1776554213220545800,6.7875458984375,-0.019960658624768257,0.026215093210339546,0.12873214483261108
1776554213230585900,6.7975859375,-0.028053205460309982,0.04844316467642784,0.1487111747264862
1776554213240625000,6.807625,-0.033884197473526,0.06536222994327545,0.16270636022090912
1776554213250663700,6.81766357421875,-0.041318412870168686,0.07473069429397583,0.16888941824436188
1776554213260703700,6.827703857421875,-0.048835448920726776,0.09319093078374863,0.1676206886768341
1776554213270742800,6.83774267578125,-0.05471597611904144,0.1168360710144043,0.1466248631477356
1776554213280781800,6.84778173828125,-0.06087906286120415,0.09578165411949158,0.11071852594614029
1776554213290822000,6.85782177734375,-0.07489128410816193,0.05102483555674553,0.05684836953878403
1776554213300861000,6.86786083984375,-0.08693436533212662,0.006134058814495802,0.027225762605667114
1776554213310901000,6.87790087890625,-0.055152732878923416,-0.11005406826734543,0.01757846027612686
1776554213320939800,6.887939697265625,-0.05266427621245384,-0.2290496975183487,0.0495276041328907
1776554213330978800,6.897978759765625,-0.03529806807637215,-0.31710898876190186,0.1019362211227417
1776554213341019000,6.908018798828125,-0.014874286949634552,-0.364618718624115,0.14541791379451752
1776554213351057700,6.9180576171875,0.004231496714055538,-0.35742098093032837,0.17097467184066772
1776554213361097000,6.928096923828125,0.02406751923263073,-0.3002687394618988,0.1815764456987381
1776554213371137000,6.938136962890625,0.034813906997442245,-0.1952698975801468,0.17781580984592438
1776554213381175800,6.94817578125,0.04051520302891731,-0.0806967094540596,0.1638192981481552
1776554213391214800,6.95821484375,0.03154221177101135,0.054125819355249405,0.14102955162525177
1776554213401255000,6.9682548828125,0.011033742688596249,0.18212772905826569,0.11365865170955658
1776554213411293700,6.978293701171875,-0.012389025650918484,0.2721763849258423,0.08101122826337814
1776554213421332700,6.988332763671875,-0.007734352257102728,0.31040874123573303,0.060209013521671295
1776554213431372800,6.998372802734375,-0.007656321860849857,0.3108265697956085,0.051417652517557144
1776554213441412000,7.008412109375,-0.010037453845143318,0.2642132639884949,0.0511513352394104
1776554213451452000,7.018451904296875,-0.0008868326549418271,0.2153642475605011,0.056418534368276596
1776554213461491000,7.028490966796875,0.009243565611541271,0.1796688288450241,0.06506501883268356
1776554213471530000,7.038530029296875,0.018729746341705322,0.14214035868644714,0.06979745626449585
1776554213481569800,7.04856982421875,0.02233300171792507,0.11899802833795547,0.07098549604415894
1776554213491608800,7.05860888671875,0.026270486414432526,0.09829194843769073,0.06570205092430115
1776554213501648000,7.06864794921875,0.023362314328551292,0.0981673151254654,0.06321865320205688
1776554213511687700,7.078687744140625,0.015634620562195778,0.10472214967012405,0.06077226996421814
1776554213521726700,7.088726806640625,0.01098607201129198,0.11291296780109406,0.05937544256448746
1776554213531766000,7.09876611328125,0.005330849438905716,0.12524767220020294,0.06475289911031723
1776554213541805800,7.108805908203125,0.001520398654974997,0.12453819811344147,0.07006004452705383
1776554213551844900,7.118844970703125,-0.004885036498308182,0.12402820587158203,0.0723801925778389
1776554213561884000,7.1288837890625,-0.007522364612668753,0.11893810331821442,0.07138736546039581
1776554213571924000,7.138924072265625,-0.0057436395436525345,0.10946816951036453,0.0703687071800232
1776554213581962800,7.148962646484375,-0.002889796160161495,0.09386284649372101,0.06764109432697296
1776554213592002800,7.1590029296875,0.0033862092532217503,0.06336911767721176,0.06562827527523041
1776554213602041600,7.16904150390625,0.001957689644768834,0.02972433902323246,0.06492626667022705
1776554213612080600,7.17908056640625,0.004977714270353317,-0.001970472978428006,0.06629113852977753
1776554213622120700,7.18912060546875,0.0017571536591276526,-0.026926156133413315,0.06387032568454742
1776554213632159700,7.19915966796875,-0.002588326344266534,-0.04092639312148094,0.06154565140604973
1776554213642198500,7.209198486328125,-0.0057223341427743435,-0.04344974085688591,0.05687127262353897
1776554213652238600,7.219238525390625,-0.009988718666136265,-0.03193316608667374,0.05451011285185814
1776554213662277600,7.229277587890625,-0.00920255295932293,-0.01366467960178852,0.05180167779326439
1776554213672316700,7.239316650390625,-0.008503473363816738,0.010549579747021198,0.05482170358300209
1776554213682356500,7.2493564453125,-0.014385596849024296,0.0321294404566288,0.060561083257198334
1776554213692395800,7.259395751953125,-0.01691187173128128,0.046364836394786835,0.06479524075984955
1776554213702434600,7.2694345703125,-0.01630866527557373,0.04795501008629799,0.07220016419887543
1776554213712474600,7.279474609375,-0.013026319444179535,0.03603603318333626,0.07840878516435623
1776554213722513700,7.289513671875,-0.007306915242224932,0.019403258338570595,0.07845485955476761
1776554213732552400,7.299552490234375,-0.002653573639690876,-0.0010096043115481734,0.0817614421248436
1776554213742592500,7.309592529296875,0.0027305390685796738,-0.012853480875492096,0.08272550255060196
1776554213752631600,7.319631591796875,0.008422247134149075,-0.022731145843863487,0.07889960706233978
1776554213762671600,7.329671630859375,0.013034309260547161,-0.019957195967435837,0.06719981133937836
1776554213772710700,7.339710693359375,0.012092615477740765,-0.01495524775236845,0.047447677701711655
1776554213782749700,7.349749755859375,0.010135192424058914,-0.008506136015057564,0.032231707125902176
1776554213792789800,7.359789794921875,0.009891512803733349,0.0025779400020837784,0.021700235083699226
1776554213802828500,7.36982861328125,0.015600797720253468,0.017106017097830772,0.014753379859030247
1776554213812867600,7.37986767578125,0.020687434822320938,0.03223942965269089,0.012283298186957836
1776554213822907600,7.38990771484375,0.0287080779671669,0.043364517390728,0.01221405528485775
1776554213832946400,7.399946533203125,0.027352262288331985,0.054323960095644,0.01495338324457407
1776554213842985700,7.40998583984375,0.035581428557634354,0.06485329568386078,0.010981811210513115
1776554213853025800,7.42002587890625,0.039808399975299835,0.07351123541593552,0.005636047571897507
1776554213863064600,7.430064697265625,0.04487346485257149,0.08245199918746948,-0.0012365056900307536
1776554213873103600,7.440103515625,0.048592302948236465,0.08842840045690536,-0.007870972156524658
1776554213883143700,7.450143798828125,0.049610164016485214,0.08331699669361115,-0.01600932702422142
1776554213893182500,7.460182373046875,0.054057907313108444,0.06849197298288345,-0.01794038526713848
1776554213903221500,7.470221435546875,0.05340996012091637,0.05505979061126709,-0.0246073417365551
1776554213913261600,7.480261474609375,0.053703974932432175,0.04906048625707626,-0.033484455198049545
1776554213923300600,7.490300537109375,0.052447229623794556,0.04884583503007889,-0.03827495127916336
1776554213933340700,7.500340576171875,0.05574369058012962,0.05787288770079613,-0.05680549144744873
1776554213943379700,7.510379638671875,0.05790777504444122,0.07419700175523758,-0.06570471078157425
1776554213953418500,7.52041845703125,0.05877756327390671,0.09528949856758118,-0.07213065028190613
1776554213963458600,7.53045849609375,0.054363105446100235,0.11181015521287918,-0.07409446686506271
1776554213973497600,7.54049755859375,0.05067063495516777,0.1312919706106186,-0.07053248584270477
1776554213983536600,7.55053662109375,0.04360926151275635,0.13848437368869781,-0.06649993360042572
1776554213993576400,7.560576416015625,0.04246490076184273,0.13800260424613953,-0.06167987734079361
1776554214003615700,7.57061572265625,0.03524800017476082,0.12260687351226807,-0.06291744858026505
1776554214013654800,7.58065478515625,0.02949131280183792,0.09158477932214737,-0.06271690875291824
1776554214023694600,7.590694580078125,0.0256278645247221,0.05680389329791069,-0.06392252445220947
1776554214033733600,7.600733642578125,0.019104452803730965,0.024283768609166145,-0.05684490501880646
1776554214043772700,7.610772705078125,0.012762133963406086,0.0013409015955403447,-0.05067489668726921
1776554214053812500,7.6208125,0.005176386330276728,-0.01552063599228859,-0.037038978189229965
1776554214063851500,7.6308515625,-0.0005558017292059958,-0.02377723529934883,-0.030887342989444733
1776554214073890600,7.640890625,-0.008623847737908363,-0.028965072706341743,-0.023142337799072266
1776554214083930400,7.650930419921875,-0.012805011123418808,-0.023578563705086708,-0.019290873780846596
1776554214093969700,7.6609697265625,-0.0163629949092865,-0.011773302219808102,-0.018700450658798218
1776554214104008700,7.6710087890625,-0.01296267006546259,-0.010289655067026615,-0.0133275231346488
1776554214114048800,7.681048828125,-0.00965875294059515,-0.018499115481972694,-0.008646751753985882
1776554214124087600,7.691087646484375,-0.009468602947890759,-0.023240873590111732,-0.007225155830383301
1776554214134127600,7.701127685546875,-0.010788998566567898,-0.03561259061098099,0.003213103860616684
1776554214144166700,7.711166748046875,-0.011581022292375565,-0.03253743797540665,0.01095438003540039
1776554214154205400,7.721205322265625,-0.013833790086209774,-0.029878269881010056,0.030062828212976456
1776554214164245500,7.73124560546875,-0.013160277158021927,-0.02520895004272461,0.041851043701171875
1776554214174284800,7.741284912109375,-0.010416155681014061,-0.022108230739831924,0.05688858404755592
1776554214184323600,7.751323486328125,-0.012475578114390373,-0.012833773158490658,0.07357541471719742
1776554214194363600,7.76136376953125,-0.008464857004582882,-0.0036767602432519197,0.08964014053344727
1776554214204402700,7.771402587890625,-0.009457684122025967,0.01121883187443018,0.1032899022102356
1776554214214441500,7.78144140625,-0.011241203173995018,0.022519158199429512,0.10884738713502884
1776554214224481500,7.7914814453125,-0.02136973664164543,0.025949575006961823,0.11650610715150833
1776554214234520600,7.8015205078125,-0.02924843318760395,0.017842113971710205,0.12194055318832397
1776554214244559600,7.8115595703125,-0.03502962365746498,-0.001202150946483016,0.12442368268966675
1776554214254599700,7.821599609375,-0.038059234619140625,-0.03616945445537567,0.12953002750873566
1776554214264638700,7.831638671875,-0.04100016504526138,-0.07702714204788208,0.13912992179393768
1776554214274677500,7.841677490234375,-0.03561259061098099,-0.1252729594707489,0.1481979936361313
1776554214284717600,7.851717529296875,-0.030600786209106445,-0.17631670832633972,0.16055212914943695
1776554214294756600,7.861756591796875,-0.01829138956964016,-0.210589200258255,0.16716821491718292
1776554214304795400,7.87179541015625,-0.006649646908044815,-0.2077646404504776,0.17127162218093872
1776554214314835500,7.88183544921875,-0.002912432886660099,-0.19530078768730164,0.16174229979515076
1776554214324874800,7.891874755859375,-0.010868626646697521,-0.16261793673038483,0.14393693208694458
1776554214334914600,7.90191455078125,-0.022550316527485847,-0.11281682550907135,0.12907302379608154
1776554214344953600,7.91195361328125,-0.02401585318148136,-0.05750830098986626,0.12739284336566925
1776554214354992600,7.92199267578125,-0.011461179703474045,-0.010628409683704376,0.13624411821365356
1776554214365032700,7.93203271484375,0.006555370986461639,0.03021303005516529,0.15408357977867126
1776554214375071500,7.942071533203125,0.019998475909233093,0.04047978296875954,0.17187215387821198
1776554214385110500,7.952110595703125,0.017830928787589073,0.049006424844264984,0.18075034022331238
1776554214395150600,7.962150634765625,0.015192801132798195,0.03951118886470795,0.18569102883338928
1776554214405189600,7.972189697265625,0.007503722794353962,0.03350842371582985,0.19398225843906403
1776554214415228700,7.982228759765625,0.002138518262654543,0.03591752052307129,0.19004742801189423
1776554214425268700,7.992268798828125,-0.0019030949333682656,0.024827584624290466,0.18125315010547638
1776554214435307500,8.0023076171875,-0.01056209672242403,0.010844924487173557,0.17115524411201477
1776554214445346600,8.0123466796875,-0.020617393776774406,-0.009325058199465275,0.15546070039272308
1776554214455386600,8.02238671875,-0.025672340765595436,-0.02509550005197525,0.13943512737751007
1776554214465425400,8.03242529296875,-0.014709437265992165,-0.05176679044961929,0.12707459926605225
1776554214475464700,8.042464599609374,-0.018372083082795143,-0.06010514870285988,0.12216425687074661
1776554214485504500,8.05250439453125,-0.08790082484483719,-0.01751667633652687,0.11594045162200928
1776554214495543800,8.062543701171874,-0.02731657586991787,-0.05841564014554024,0.09643252938985825
1776554214505582600,8.07258251953125,0.010306167416274548,-0.07429607212543488,0.10569021105766296
1776554214515622700,8.08262255859375,0.013969611376523972,-0.0712835043668747,0.12230460345745087
1776554214525661700,8.09266162109375,0.01142842322587967,-0.06570444256067276,0.13768382370471954
1776554214535700500,8.102700439453125,0.006354035809636116,-0.05047888681292534,0.14273370802402496
1776554214545740500,8.112740478515626,0.004019242711365223,-0.01907648891210556,0.14317633211612701
1776554214555779600,8.122779541015625,-0.0037025928031653166,0.021494640037417412,0.14676068723201752
1776554214565818600,8.132818603515625,-0.007597998715937138,0.057746388018131256,0.1466941088438034
1776554214575858700,8.142858642578124,-0.011572499759495258,0.08203308284282684,0.1398199498653412
1776554214585897700,8.152897705078125,-0.006739129312336445,0.09933803975582123,0.13431653380393982
1776554214595936500,8.1629365234375,-0.006675479467958212,0.09916040301322937,0.1266050785779953
1776554214605976600,8.1729765625,-0.01179434172809124,0.08139818906784058,0.11796525120735168
1776554214616015600,8.183015625,-0.012148009613156319,0.04271630570292473,0.11122719198465347
1776554214626055700,8.1930556640625,-0.014976286329329014,0.01504180021584034,0.09987413138151169
1776554214636094500,8.203094482421875,-0.012557603418827057,-0.009866212494671345,0.08996210992336273
1776554214646133800,8.2131337890625,-0.07874274998903275,0.011997806839644909,0.08670639991760254
1776554214656173800,8.223173828125,-0.07551659643650055,0.008290686644613743,0.065181665122509
1776554214666212600,8.233212646484375,-0.0838211327791214,0.03686746954917908,0.059420716017484665
1776554214676251600,8.243251708984374,-0.04481806978583336,0.014188257046043873,0.05802282318472862
1776554214686291700,8.253291748046875,0.004294879734516144,-0.006502107717096806,0.06827892363071442
1776554214696330500,8.26333056640625,0.009702960960566998,-0.012840697541832924,0.0780484601855278
1776554214706369500,8.27336962890625,0.007968710735440254,-0.00968298688530922,0.07783567905426025
1776554214716409600,8.28340966796875,0.0065740132704377174,-0.0043902210891246796,0.06857426464557648
1776554214726448600,8.29344873046875,0.0062158177606761456,0.0011853729374706745,0.05670136213302612
1776554214736487700,8.30348779296875,0.008493886329233646,0.004093278665095568,0.050036270171403885
1776554214746527700,8.31352783203125,0.005546831991523504,0.012601013295352459,0.03971705213189125
1776554214756566800,8.32356689453125,0.005647765472531319,0.02022218145430088,0.036083437502384186
1776554214766605600,8.33360546875,0.006081328261643648,0.02966282144188881,0.030729150399565697
1776554214776645600,8.343645751953124,0.0038655782118439674,0.04181668907403946,0.025081118568778038
1776554214786684700,8.3536845703125,0.004403004422783852,0.03928162530064583,0.024691231548786163
1776554214796723700,8.3637236328125,0.007843009196221828,0.03479313477873802,0.022395320236682892
1776554214806763800,8.373763671875,0.008551943115890026,0.025364745408296585,0.01372380182147026
1776554214816802800,8.383802734375,0.007692540530115366,0.02292369119822979,0.010343184694647789
1776554214826841600,8.393841552734376,0.010014018043875694,0.01387027557939291,0.010188722051680088
1776554214836881700,8.403881591796875,0.008519984781742096,0.008317585103213787,0.005600361619144678
1776554214846920700,8.413920654296875,0.008883772417902946,0.008388424292206764,0.0028210864402353764
1776554214856959500,8.42395947265625,0.010009490884840488,0.017405088990926743,-0.0006079996819607913
1776554214866999600,8.43399951171875,0.012881443835794926,0.025424133986234665,-0.0033928672783076763
1776554214877038600,8.44403857421875,0.009168464690446854,0.028128040954470634,-0.012378904968500137
1776554214887077600,8.45407763671875,0.009792976081371307,0.027719246223568916,-0.016882045194506645
1776554214897117700,8.46411767578125,0.012471317313611507,0.02755120024085045,-0.01561224926263094
1776554214907156700,8.47415673828125,0.014137922786176205,0.017552629113197327,-0.020307933911681175
1776554214917195500,8.484195556640625,0.012197543866932392,0.009438509121537209,-0.022946327924728394
1776554214927235600,8.494235595703126,0.014697985723614693,0.006521282717585564,-0.02365020103752613
1776554214937274600,8.504274658203125,0.011506986804306507,0.007075486239045858,-0.02545475959777832
1776554214947313700,8.514313720703125,0.012835371308028698,0.007202519103884697,-0.025772474706172943
1776554214957353500,8.524353515625,0.010747186839580536,0.007802529260516167,-0.02689020335674286
1776554214967392800,8.534392822265625,0.011267301626503468,0.0081474082544446,-0.025120267644524574
1776554214977431600,8.544431640625,0.011890481226146221,0.005950034596025944,-0.02460920624434948
1776554214987471600,8.5544716796875,0.01128168310970068,0.002516687149181962,-0.025734657421708107
1776554214997510700,8.5645107421875,0.010419084690511227,0.000577107013668865,-0.027399666607379913
1776554215007549700,8.5745498046875,0.010421481914818287,0.001058872789144516,-0.034809112548828125
1776554215017589500,8.584589599609375,0.009476592764258385,0.0018343853298574686,-0.04270964488387108
1776554215027628500,8.594628662109375,0.007962585426867008,0.007448861375451088,-0.05261500924825668
1776554215037667800,8.604667724609374,0.005512743256986141,0.018381670117378235,-0.060016464442014694
1776554215047707600,8.614707763671875,0.002624545246362686,0.03140506148338318,-0.05998291075229645
1776554215057746700,8.62474658203125,0.0011709919199347496,0.03734337538480759,-0.06278828531503677
1776554215067785700,8.63478564453125,0.0026069683954119682,0.042512040585279465,-0.06482826173305511
1776554215077825500,8.644825439453125,0.002335592173039913,0.0386456623673439,-0.05997225642204285
1776554215087864600,8.654864501953124,0.0057502975687384605,0.028686506673693657,-0.058767709881067276
1776554215097903600,8.664903564453125,0.01034744642674923,0.009670737199485302,-0.05949288606643677
1776554215107943400,8.674943359375,0.011964251287281513,-0.009552759118378162,-0.05895492807030678
1776554215117982700,8.684982666015625,0.014733139425516129,-0.029681995511054993,-0.056220393627882004
1776554215128021800,8.695021728515625,0.012968529015779495,-0.03557024523615837,-0.05748166888952255
1776554215138061800,8.705061767578124,0.011012437753379345,-0.038836877793073654,-0.05644489824771881
1776554215148100600,8.7151005859375,0.010279535315930843,-0.03729517385363579,-0.05829313397407532
1776554215158139600,8.7251396484375,0.0059867859818041325,-0.03032222017645836,-0.05435032397508621
1776554215168179700,8.7351796875,0.0057375142350792885,-0.02184857428073883,-0.05401689559221268
1776554215178218500,8.745218505859375,0.006842193193733692,-0.015118499286472797,-0.051772914826869965
1776554215188257800,8.7552578125,0.009244364686310291,-0.005761216394603252,-0.04983493313193321
1776554215198297900,8.7652978515625,0.012397547252476215,-0.006102900020778179,-0.05011270195245743
1776554215208336600,8.775336669921876,0.017182182520627975,-0.007638212293386459,-0.04801785945892334
1776554215218375700,8.785375732421874,0.017956629395484924,-0.015149923972785473,-0.04707323759794235
1776554215228415700,8.795415771484375,0.02262754738330841,-0.02317402884364128,-0.05455858260393143
1776554215238454500,8.80545458984375,0.02285578101873398,-0.038904789835214615,-0.06161276251077652
1776554215248493600,8.81549365234375,0.027186613529920578,-0.0555918887257576,-0.0779736265540123
1776554215258533600,8.82553369140625,0.03447195515036583,-0.0759538859128952,-0.08693516254425049
1776554215268572700,8.83557275390625,0.0475267730653286,-0.0860866829752922,-0.09680643677711487
1776554215278611700,8.84561181640625,0.05451224371790886,-0.09157359600067139,-0.10074871778488159
1776554215288651800,8.85565185546875,0.05451597273349762,-0.09310437738895416,-0.09727542102336884
1776554215298690600,8.865690673828125,0.04685405641794205,-0.08086821436882019,-0.09574170410633087
1776554215308729600,8.8757294921875,0.040765538811683655,-0.06228680908679962,-0.09689778089523315
1776554215318769700,8.885769775390624,0.037759896367788315,-0.047092143446207047,-0.09777289628982544
1776554215328808400,8.895808349609375,0.039015576243400574,-0.03683178499341011,-0.1007860004901886
1776554215338847700,8.90584765625,0.04743356257677078,-0.030855117365717888,-0.09851245582103729
1776554215348887800,8.9158876953125,0.0579325407743454,-0.02371038869023323,-0.09016744047403336
1776554215358926600,8.925926513671875,0.06558114290237427,-0.025429192930459976,-0.09352701902389526
1776554215368965600,8.935965576171874,0.07426916807889938,-0.02930542454123497,-0.10631552338600159
1776554215379005700,8.946005615234375,0.07617758959531784,-0.037207555025815964,-0.12918329238891602
1776554215389044700,8.956044677734376,0.07908949255943298,-0.061585333198308945,-0.14835378527641296
1776554215399083500,8.96608349609375,0.07515759766101837,-0.08975385129451752,-0.15970337390899658
1776554215409123600,8.97612353515625,0.06858678162097931,-0.11213665455579758,-0.16633278131484985
1776554215419162600,8.98616259765625,0.06315287202596664,-0.11995197087526321,-0.1639537811279297
1776554215429201700,8.99620166015625,0.0538717545568943,-0.1100841611623764,-0.15949112176895142
1776554215439241700,9.00624169921875,0.04315546154975891,-0.07940028607845306,-0.14998416602611542
1776554215449280800,9.01628076171875,0.02569124847650528,-0.021155618131160736,-0.1417805701494217
1776554215459319600,9.026319580078125,0.015965649858117104,0.04699227586388588,-0.1360507756471634
1776554215469359600,9.036359619140624,0.009343434125185013,0.1033647358417511,-0.13236762583255768
1776554215479398700,9.046398681640625,0.011833756230771542,0.13597728312015533,-0.1352504938840866
1776554215489437700,9.056437744140625,0.022596655413508415,0.1464512199163437,-0.1438644975423813
1776554215499477500,9.0664775390625,0.02894030511379242,0.13857412338256836,-0.15189898014068604
1776554215509516800,9.076516845703125,0.0289435014128685,0.10626944899559021,-0.16450318694114685
1776554215519555600,9.0865556640625,0.022105569019913673,0.03694416955113411,-0.17225033044815063
1776554215529595600,9.096595703125,0.016648218035697937,-0.043297674506902695,-0.18324971199035645
1776554215539634700,9.106634765625,0.013994645327329636,-0.13915576040744781,-0.19737619161605835
1776554215549673500,9.116673583984374,0.00808881875127554,-0.24137507379055023,-0.20974737405776978
1776554215559713500,9.126713623046875,0.008218514733016491,-0.32232770323753357,-0.20498883724212646
1776554215569752600,9.136752685546876,0.013777331449091434,-0.35825374722480774,-0.1803964078426361
1776554215579791600,9.14679150390625,0.012910738587379456,-0.35164403915405273,-0.1429467648267746
1776554215589831700,9.156831787109375,0.0076057217083871365,-0.3154522180557251,-0.09966347366571426
1776554215599870700,9.16687060546875,0.005076784174889326,-0.2535470426082611,-0.07094820588827133
1776554215609914000,9.1769140625,0.007796403951942921,-0.19525311887264252,-0.04711691290140152
1776554215619954200,9.1869541015625,0.008166050538420677,-0.1491205096244812,-0.037573475390672684
1776554215629993200,9.1969931640625,0.004379302263259888,-0.12461329996585846,-0.04091893881559372
1776554215640032000,9.207031982421874,0.0027531760279089212,-0.11051106452941895,-0.05981592833995819
1776554215650072000,9.217072021484375,-0.0015001586871221662,-0.10672005265951157,-0.09953618049621582
1776554215660111000,9.227111083984376,-0.006172674708068371,-0.10645586997270584,-0.1371232271194458
1776554215670150100,9.237150146484375,-0.009240103885531425,-0.10994593799114227,-0.15866154432296753
1776554215680190200,9.247190185546875,-0.005816876422613859,-0.11580436676740646,-0.1628168821334839
1776554215690229200,9.257229248046874,-0.0019491675775498152,-0.1266801804304123,-0.15642742812633514
1776554215700268000,9.26726806640625,0.0018929748330265284,-0.13165150582790375,-0.15267077088356018
1776554215710308000,9.27730810546875,0.004632302559912205,-0.12537816166877747,-0.14604376256465912
1776554215720347100,9.28734716796875,0.005368932615965605,-0.10580871999263763,-0.13758794963359833
1776554215730386000,9.297385986328125,0.006756439805030823,-0.080544114112854,-0.11445360630750656
1776554215740426000,9.307426025390624,0.005946039687842131,-0.0550541989505291,-0.08735568076372147
1776554215750465300,9.31746533203125,0.013820207677781582,-0.04753103479743004,-0.05765184387564659
1776554215760504000,9.327504150390626,0.01607563905417919,-0.049494050443172455,-0.04891028627753258
1776554215770544000,9.337544189453125,0.01727752387523651,-0.05553383380174637,-0.059666793793439865
1776554215780583200,9.347583251953125,0.03346714749932289,-0.04806659370660782,-0.09138850122690201
1776554215790622000,9.3576220703125,0.0530533641576767,-0.059427905827760696,-0.11626562476158142
1776554215800662000,9.367662109375,0.06016959622502327,-0.1032843068242073,-0.12530438601970673
1776554215810701000,9.377701171875,0.057736534625291824,-0.1641569882631302,-0.12400396913290024
1776554215820740000,9.387739990234374,0.06085376441478729,-0.2217736691236496,-0.12584394216537476
1776554215830780000,9.39777978515625,0.05985720828175545,-0.23159673810005188,-0.1326930671930313
1776554215840819200,9.407819091796876,0.0623275563120842,-0.203343003988266,-0.14499686658382416
1776554215850858200,9.417858154296875,0.06492254137992859,-0.12021322548389435,-0.14516624808311462
1776554215860898000,9.42789794921875,0.06599073112010956,-0.007212106604129076,-0.1393035650253296
1776554215870937000,9.43793701171875,0.06034829467535019,0.10876083374023438,-0.12478134781122208
1776554215880976100,9.44797607421875,0.057622816413640976,0.1895933598279953,-0.11117472499608994
1776554215891016000,9.458015869140626,0.05951685458421707,0.20242100954055786,-0.09426818042993546
1776554215901055000,9.468054931640625,0.059234026819467545,0.15945863723754883,-0.08080589771270752
1776554215911094300,9.47809423828125,0.05229569599032402,0.08721532672643661,-0.0665220320224762
1776554215921133000,9.488133056640624,0.03778199851512909,0.026026008650660515,-0.053518883883953094
1776554215931173000,9.498173095703125,0.03164847195148468,0.01793026365339756,-0.05667766183614731
1776554215941212200,9.508212158203126,0.035600606352090836,0.0637478232383728,-0.07612352818250656
1776554215951251000,9.5182509765625,0.02797197923064232,0.1187325119972229,-0.09007369726896286
1776554215961291000,9.528291015625,0.027727767825126648,0.170988529920578,-0.08769229799509048
1776554215971330000,9.538330078125,0.045829806476831436,0.1782805174589157,-0.05574049428105354
1776554215981369000,9.548369140625,0.06385114789009094,0.16898448765277863,-0.013537912629544735
1776554215991409200,9.5584091796875,0.07734565436840057,0.14824752509593964,0.03159041702747345
1776554216001448200,9.5684482421875,0.06691032648086548,0.14510978758335114,0.06711485236883163
1776554216011487000,9.578487060546875,0.052568402141332626,0.1747361272573471,0.09221594780683517
1776554216021527000,9.588527099609376,0.03154301270842552,0.23116664588451385,0.09695184975862503
1776554216031566000,9.598566162109375,0.0036448021419346333,0.28490203619003296,0.09614890068769455
1776554216041605000,9.608605224609375,-0.017980331555008888,0.32393118739128113,0.10293810069561005
1776554216051645000,9.61864501953125,-0.03960839658975601,0.3595438003540039,0.10877228528261185
1776554216061684200,9.628684326171875,-0.06596703082323074,0.38739219307899475,0.11124876141548157
1776554216071723300,9.63872314453125,-0.06789995729923248,0.37328648567199707,0.09708739817142487
1776554216081763000,9.64876318359375,-0.033005885779857635,0.29225102066993713,0.07444600760936737
1776554216091802000,9.658802001953125,-0.013465741649270058,0.2025350034236908,0.07736776024103165
1776554216101841200,9.668841064453124,0.013688648119568825,0.11023516207933426,0.11254305392503738
1776554216111881000,9.678880859375,0.036973197013139725,0.030902521684765816,0.1564207673072815
1776554216121920000,9.688919921875,0.05073827877640724,-0.029212214052677155,0.17771592736244202
1776554216131959300,9.698959228515625,0.04218580201268196,-0.0589703768491745,0.17625439167022705
1776554216141999000,9.7089990234375,0.022234465926885605,-0.06780195236206055,0.1680060476064682
1776554216152038100,9.7190380859375,-0.012496350333094597,-0.06859850138425827,0.167029470205307
1776554216162077200,9.7290771484375,-0.052025917917490005,-0.07734565436840057,0.17224633693695068
1776554216172116000,9.739115966796875,-0.07392535358667374,-0.10169866681098938,0.1926024705171585
1776554216182156000,9.749156005859374,-0.07109654694795609,-0.1666710078716278,0.22432631254196167
1776554216192195000,9.759195068359375,-0.05697300657629967,-0.25725042819976807,0.25515931844711304
1776554216202234000,9.769234130859376,-0.03411189839243889,-0.34035173058509827,0.281463623046875
1776554216212274200,9.779274169921875,-0.11498437821865082,-0.31069475412368774,0.31067317724227905
1776554216222313200,9.789313232421875,-0.029585588723421097,-0.3440263569355011,0.2888011634349823
1776554216232352000,9.79935205078125,0.028490763157606125,-0.31810420751571655,0.24971263110637665
1776554216242392000,9.80939208984375,0.08121682703495026,-0.25523895025253296,0.19644275307655334
1776554216252431000,9.81943115234375,0.05909048393368721,-0.1437060385942459,0.14668796956539154
1776554216262470000,9.829469970703125,0.037579331547021866,-0.054118361324071884,0.11627308279275894
1776554216272510000,9.839510009765625,0.020110860466957092,0.005694637540727854,0.11100667715072632
1776554216282549200,9.84954931640625,0.0026498453225940466,0.04784581810235977,0.13996775448322296
1776554216292588000,9.859588134765625,-0.014391455799341202,0.07997286319732666,0.18181267380714417
1776554216302628000,9.869628173828126,-0.03701953589916229,0.113299660384655,0.22900868952274323
1776554216312667100,9.879667236328125,-0.04715526103973389,0.15408384799957275,0.24659433960914612
1776554216322706200,9.8897060546875,-0.04752730578184128,0.16985908150672913,0.2225411981344223
1776554216332746000,9.89974609375,-0.0447714664041996,0.11967713385820389,0.17244820296764374
1776554216342785000,9.909784912109375,-0.03646506741642952,0.03659076616168022,0.11422217637300491
1776554216352824300,9.91982421875,-0.024297082796692848,-0.047569118440151215,0.051842425018548965
1776554216362864000,9.929864013671875,-0.013712616637349129,-0.1093166396021843,-0.0007395598222501576
1776554216372903200,9.939903076171875,-0.007841943763196468,-0.10589846968650818,-0.03761475160717964
1776554216382942200,9.949942138671876,0.014646586962044239,-0.08616657555103302,-0.0514562651515007
1776554216392981000,9.95998095703125,0.04067286103963852,-0.07706708461046219,-0.03145059943199158
1776554216403021000,9.97002099609375,0.057856906205415726,-0.05317453667521477,-0.0018943065078929067
1776554216413060000,9.98006005859375,0.06722377985715866,0.019645873457193375,0.005246427375823259
1776554216423099100,9.99009912109375,0.07382176071405411,0.1078585535287857,-0.010831874795258045
1776554216433139200,10.00013916015625,0.07812169939279556,0.19031961262226105,-0.030717166140675545
1776554216443178200,10.01017822265625,0.07903996109962463,0.24353143572807312,-0.05140140652656555
1776554216453217000,10.020217041015625,0.07812729477882385,0.24427498877048492,-0.05902843177318573
1776554216463257000,10.030257080078124,0.07111705094575882,0.20059221982955933,-0.06377311795949936
1776554216473296100,10.040296142578125,0.06648608297109604,0.14751702547073364,-0.05549788102507591
1776554216483335000,10.0503349609375,0.06667649745941162,0.11404933780431747,-0.047619450837373734
1776554216493375000,10.060375,0.07287873327732086,0.09015972167253494,-0.02076573297381401
1776554216503414300,10.070414306640625,0.06883499026298523,0.09680004417896271,0.021828599274158478
1776554216513453000,10.080453125,-0.0007472829893231392,0.15694434940814972,0.07307074964046478
1776554216523493000,10.0904931640625,0.03333638608455658,0.1305396407842636,0.09541653096675873
1776554216533532200,10.1005322265625,0.07139109075069427,0.09440959244966507,0.10856615751981735
1776554216543571000,10.110571044921874,0.1224963515996933,0.04475602135062218,0.10536450892686844
1776554216553610000,10.12060986328125,0.10701513290405273,0.03767148032784462,0.10571204870939255
1776554216563650000,10.130650146484374,0.07463455945253372,0.03437581658363342,0.12123587727546692
1776554216573689300,10.140689453125,0.019522834569215775,0.025958629325032234,0.13968785107135773
1776554216583728000,10.15072802734375,-0.07558424025774002,0.05675782263278961,0.16134734451770782
1776554216593768200,10.160768310546874,-0.18469341099262238,0.06742138415575027,0.17455236613750458
1776554216603803000,10.170802978515624,-0.21603722870349884,0.025891251862049103,0.16474394500255585
1776554216613841700,10.180841552734375,-0.1754503846168518,-0.03062502108514309,0.17283622920513153
1776554216623881700,10.1908818359375,-0.12748631834983826,-0.05034759268164635,0.2007509469985962
1776554216633921000,10.200921142578125,-0.05349571630358696,-0.05862096697092056,0.22885474562644958
1776554216643959800,10.210959716796875,0.02882738783955574,-0.0761759951710701,0.23128221929073334
1776554216653999900,10.220999755859374,0.057860102504491806,-0.0681830495595932,0.19934746623039246
1776554216664039000,10.231038818359375,0.039502136409282684,-0.06173580139875412,0.14913222193717957
1776554216674077700,10.24107763671875,0.027886757627129555,-0.09437736868858337,0.09163111448287964
1776554216684117800,10.25111767578125,0.023733291774988174,-0.15422925353050232,0.03710741922259331
1776554216694156800,10.26115673828125,0.007219030521810055,-0.18734565377235413,0.00914183259010315
1776554216704196000,10.271196044921876,-0.032331839203834534,-0.16223551332950592,0.00045859633246436715
1776554216714235000,10.28123486328125,-0.23079752922058105,0.00586747657507658,0.013377591036260128
1776554216724275000,10.29127490234375,-0.34330329298973083,0.1680009961128235,0.026098977774381638
1776554216734314000,10.30131396484375,-0.3587760031223297,0.3353545665740967,0.051955610513687134
1776554216744352800,10.311352783203125,-0.31658753752708435,0.44249939918518066,0.0809640884399414
1776554216754392800,10.321392822265626,-0.2277524620294571,0.5031419396400452,0.09778248518705368
1776554216764432000,10.331431884765625,-0.016932643949985504,0.38856610655784607,0.06387139111757278
1776554216774471000,10.341470947265625,0.052140433341264725,0.3150482177734375,0.021263476461172104
1776554216784511000,10.351510986328124,0.033365413546562195,0.27577832341194153,-0.022664299234747887
1776554216794550000,10.361550048828125,0.020383302122354507,0.18357248604297638,-0.06902487576007843
1776554216804588800,10.3715888671875,-0.008017180487513542,0.09204071015119553,-0.09327907860279083
1776554216814628900,10.38162890625,-0.0409327857196331,0.0272502638399601,-0.07126006484031677
1776554216824668000,10.39166796875,-0.061115819960832596,-0.013466540724039078,0.007780158892273903
1776554216834706700,10.401706787109376,-0.046785615384578705,-0.03707519546151161,0.09884748607873917
1776554216844746000,10.41174609375,-0.030110232532024384,0.028984513133764267,0.1409888118505478
1776554216854785800,10.421785888671875,-0.03495638445019722,0.12484366446733475,0.12877315282821655
1776554216864824800,10.431824951171874,-0.04595710709691048,0.09815532714128494,0.10799304395914078
1776554216874863900,10.44186376953125,-0.039447806775569916,-0.03730848804116249,0.10933980345726013
1776554216884904000,10.451904052734376,-0.02961035631597042,-0.15146036446094513,0.1254841536283493
1776554216894942700,10.461942626953125,-0.021032048389315605,-0.2510245144367218,0.15584738552570343
1776554216904981800,10.471981689453125,-0.018633339554071426,-0.30287277698516846,0.18264997005462646
1776554216915021800,10.482021728515624,-0.014398912899196148,-0.29912999272346497,0.1905217468738556
1776554216925060900,10.492060791015625,-0.0062275356613099575,-0.25557026267051697,0.18033328652381897
1776554216935100000,10.502099853515626,-0.0049369679763913155,-0.1931643933057785,0.15600824356079102
1776554216945140000,10.512139892578125,0.0012357067316770554,-0.1467207372188568,0.14000611007213593
1776554216955179000,10.522178955078125,0.013277456164360046,-0.12390995770692825,0.13307709991931915
1776554216965217800,10.5322177734375,0.015959259122610092,-0.12081190198659897,0.13495434820652008
1776554216975256800,10.5422568359375,0.0034493261482566595,-0.11567652970552444,0.12821762263774872
1776554216985297000,10.552296875,-0.0176991019397974,-0.09629271179437637,0.11829148977994919
1776554216995336000,10.5623359375,-0.037390515208244324,-0.06714601069688797,0.09891273081302643
1776554217005375000,10.572375,-0.05796609818935394,-0.022401712834835052,0.08400887995958328
1776554217015415000,10.5824150390625,-0.06835588812828064,0.011231082491576672,0.07372003048658371
1776554217025453800,10.592453857421875,-0.0699058473110199,0.029981866478919983,0.07652593404054642
1776554217035492900,10.602492919921875,-0.13460974395275116,0.11118937283754349,0.10181557387113571
1776554217045533000,10.612532958984374,-0.1031639352440834,0.09207320213317871,0.10875098407268524
1776554217055571700,10.62257177734375,-0.03628610074520111,0.03244342654943466,0.11034994572401047
1776554217065611000,10.632611083984376,-0.010747719556093216,0.0012985573848709464,0.09698007255792618
1776554217075650800,10.64265087890625,-0.010720554739236832,-0.008963135071098804,0.0683969035744667
1776554217085689900,10.65268994140625,-0.027234284207224846,-0.03227058798074722,0.03220294415950775
1776554217095729000,10.66272900390625,-0.04667296260595322,-0.06784828752279282,0.003653324441984296
1776554217105768000,10.672767822265625,-0.06084683910012245,-0.08939433097839355,0.007744206115603447
1776554217115807700,10.682807861328126,-0.06283196061849594,-0.10759623348712921,0.057862501591444016
1776554217125846800,10.6928466796875,-0.06757744401693344,-0.1002107560634613,0.13625824451446533
1776554217135886000,10.702885986328125,-0.05254310369491577,-0.08112175017595291,0.19847607612609863
1776554217145926000,10.71292578125,-0.025971412658691406,-0.0415186807513237,0.21116603910923004
1776554217155965000,10.72296484375,0.0031550468411296606,0.01774703897535801,0.18952704966068268
1776554217166004000,10.73300390625,0.01655207946896553,0.09839341789484024,0.14221972227096558
1776554217176043800,10.743043701171874,0.016631973907351494,0.15866288542747498,0.08079498261213303
1776554217186082800,10.753082763671875,0.023983629420399666,0.15304893255233765,0.020650150254368782
1776554217196121900,10.763121826171876,0.02491653524339199,0.09556247293949127,-0.00558225205168128
1776554217206161000,10.773160888671875,0.031630098819732666,0.037577468901872635,-0.01267211977392435
1776554217216200700,10.78320068359375,0.04115702211856842,0.01028592698276043,-0.008552475832402706
1776554217226240000,10.793239990234374,0.05162084847688675,0.029624471440911293,-0.018392855301499367
1776554217236278800,10.80327880859375,0.05523289367556572,0.07508169859647751,-0.03879346698522568
1776554217246318800,10.81331884765625,0.05526085942983627,0.12033998966217041,-0.060802362859249115
1776554217256358000,10.82335791015625,0.059172775596380234,0.1717352718114853,-0.07824074476957321
1776554217266396700,10.833396728515625,0.05631786584854126,0.21539486944675446,-0.08980871737003326
1776554217276436700,10.843436767578124,0.05543902516365051,0.23275068402290344,-0.09682933986186981
1776554217286475800,10.853475830078125,0.05052868649363518,0.18273226916790009,-0.1146155297756195
1776554217296514800,10.863514892578126,0.03802168369293213,0.11727416515350342,-0.1291140466928482
1776554217306555000,10.873554931640625,0.02689739502966404,0.03844006732106209,-0.12358319014310837
1776554217316594000,10.883593994140625,0.018898855894804,-0.07017455995082855,-0.0920628160238266
1776554217326633000,10.893633056640626,0.003224821761250496,-0.14102236926555634,-0.053407564759254456
1776554217336671700,10.903671630859375,-0.01420370303094387,-0.13360652327537537,-0.010934673249721527
1776554217346711800,10.9137119140625,-0.03316541016101837,-0.08597242832183838,0.0419466495513916
1776554217356750800,10.923750732421874,-0.05846890062093735,-0.019359583035111427,0.08797965943813324
1776554217366790000,10.933789794921875,-0.07501725107431412,0.06502320617437363,0.12194934487342834
1776554217376830000,10.943829833984376,-0.07822342962026596,0.14928962290287018,0.1318480372428894
1776554217386869000,10.953868896484375,-0.07432909309864044,0.22093024849891663,0.11358807981014252
1776554217396907800,10.96390771484375,-0.06574172526597977,0.24397191405296326,0.06770181655883789
1776554217406947800,10.97394775390625,-0.041790589690208435,0.20189796388149261,0.013530989177525043
1776554217416987000,10.98398681640625,-0.019152922555804253,0.1129973903298378,-0.014905712567269802
1776554217427026000,10.99402587890625,-0.008083226159214973,0.0004697816038969904,0.004916728008538485
1776554217437065000,11.00406494140625,-0.006049370393157005,-0.09683386981487274,0.05668511614203453
1776554217447105000,11.01410498046875,-0.0031372036319226027,-0.14603203535079956,0.11211588233709335
1776554217457143800,11.024143798828124,0.005495699122548103,-0.11419101804494858,0.15152187645435333
1776554217467182800,11.034182861328125,0.020799554884433746,-0.03345169872045517,0.15346385538578033
1776554217477223000,11.044222900390626,0.03549620881676674,0.04025767371058464,0.12449532002210617
1776554217487261700,11.05426171875,0.045528337359428406,0.09005266427993774,0.06594013422727585
1776554217497300700,11.06430078125,0.048160336911678314,0.09869914501905441,0.001986984396353364
1776554217507340800,11.0743408203125,0.032644763588905334,0.06348416954278946,-0.02726597525179386
1776554217517379800,11.0843798828125,-0.003634682158008218,-0.0019118833588436246,-0.027365578338503838
1776554217527419000,11.0944189453125,-0.03838840126991272,-0.04393763095140457,-0.013919011689722538
1776554217537458000,11.1044580078125,-0.04734248295426369,-0.04924184828996658,-0.0018064221367239952
1776554217547497700,11.114497802734375,-0.02931074984371662,-0.027418307960033417,0.018786471337080002
1776554217557536800,11.124536865234376,-0.008377771824598312,-0.004960403777658939,0.0469917431473732
1776554217567575800,11.134575927734375,0.010791394859552383,0.023626765236258507,0.08284508436918259
1776554217577616000,11.144615966796875,0.020122045651078224,0.03838121145963669,0.11662515252828598
1776554217587655000,11.154655029296874,0.014238856732845306,0.025421736761927605,0.13120462000370026
1776554217597694000,11.16469384765625,0.006164951715618372,-0.014426343142986298,0.12317359447479248
1776554217607733200,11.174733154296876,-0.005179582163691521,-0.04216849058866501,0.09318959712982178
1776554217617772000,11.18477197265625,0.0009680590592324734,-0.03560673072934151,0.05943536385893822
1776554217627811000,11.19481103515625,0.012081430293619633,0.00006684534309897572,0.044073719531297684
1776554217637850000,11.20485009765625,0.020416324958205223,0.04211496189236641,0.04032957926392555
1776554217647890200,11.21489013671875,0.018665030598640442,0.05240914598107338,0.05874613672494888
1776554217657929200,11.22492919921875,0.009495500475168228,0.0400126650929451,0.06832180172204971
1776554217667968000,11.234968017578124,-0.006533000618219376,0.029772276058793068,0.07336928695440292
1776554217678008000,11.245008056640625,-0.00812264159321785,0.024413464590907097,0.05259077250957489
1776554217688047000,11.255047119140626,-0.01137089915573597,0.024657143279910088,0.03160426393151283
1776554217698086100,11.265086181640624,0.00010972223390126601,0.014166419394314289,0.011378088966012001
1776554217708126000,11.2751259765625,0.009821471758186817,-0.02731311321258545,0.00033342777169309556
1776554217718165200,11.285165283203124,0.015740614384412766,-0.10346673429012299,-0.0004040015337523073
1776554217728204300,11.295204345703125,0.014512630179524422,-0.17786720395088196,0.0009046758059412241
1776554217738243000,11.3052431640625,0.01194134820252657,-0.20767515897750854,-0.00824115239083767
1776554217748283100,11.315283203125,0.010953581891953945,-0.17648528516292572,-0.02581322193145752
1776554217758322200,11.325322265625,0.015225824899971485,-0.11322616040706635,-0.037519678473472595
1776554217768361200,11.335361328125,0.03165513277053833,-0.05849313735961914,-0.025261148810386658
1776554217778401000,11.345401123046875,0.04265585169196129,-0.03596599027514458,-0.013000220991671085
1776554217788440300,11.3554404296875,0.04048004746437073,-0.05794505774974823,0.006582268979400396
1776554217798479000,11.36547900390625,0.027579696848988533,-0.09121513366699219,-0.001116130850277841
1776554217808519200,11.375519287109375,0.015909191220998764,-0.11524616181850433,-0.02875441685318947
1776554217818558200,11.38555810546875,0.004808603785932064,-0.10730914771556854,-0.07008294761180878
1776554217828597000,11.395596923828125,0.006792392116039991,-0.06604772806167603,-0.11157473176717758
1776554217838636000,11.405635986328125,0.013821539469063282,-0.0308641716837883,-0.14705948531627655
1776554217848676000,11.415676025390624,0.028414597734808922,0.007199056912213564,-0.15625165402889252
1776554217858715100,11.425715087890625,0.031258851289749146,0.03236273303627968,-0.1585286557674408
1776554217868754200,11.435754150390625,0.03189215436577797,0.02617754228413105,-0.16455912590026855
1776554217878794200,11.445794189453125,0.02894616313278675,0.002499643014743924,-0.16657939553260803
1776554217888833000,11.4558330078125,0.021711153909564018,-0.02558152563869953,-0.15533658862113953
1776554217898872000,11.4658720703125,0.020131899043917656,-0.0424281507730484,-0.13135962188243866
1776554217908912000,11.475912109375,0.01920085959136486,-0.03549274802207947,-0.11054249107837677
1776554217918951000,11.485950927734375,0.023421170189976692,-0.017668476328253746,-0.09407563507556915
1776554217928990200,11.495990234375,0.028490496799349785,0.007268032990396023,-0.09263432770967484
1776554217939029200,11.506029296875,0.031617846339941025,0.02014894410967827,-0.10226219147443771
1776554217949069300,11.5160693359375,0.022428875789046288,0.011272095143795013,-0.1047929897904396
1776554217959108000,11.526108154296875,0.013879063539206982,0.0016178702935576439,-0.09533237665891647
1776554217969147100,11.536147216796875,0.009327455423772335,0.010374876670539379,-0.07523217052221298
1776554217979187200,11.546187255859374,0.007110373582690954,0.023300794884562492,-0.05764918029308319
1776554217989226000,11.55622607421875,0.004245877731591463,0.030555512756109238,-0.04083744436502457
1776554217999265300,11.566265380859376,-0.004185956437140703,0.027046531438827515,-0.024691764265298843
1776554218009304000,11.576303955078124,-0.016289491206407547,0.0036666402593255043,-0.016637831926345825
1776554218019344100,11.58634423828125,-0.021803298965096474,-0.04740426689386368,-0.006219279952347279
1776554218029383200,11.596383056640626,-0.02678474225103855,-0.11251536011695862,0.0014215953415259719
1776554218039422000,11.606421875,-0.02527552843093872,-0.14517690241336823,0.01022440753877163
1776554218049462000,11.6164619140625,-0.019100990146398544,-0.14052222669124603,0.027464380487799644
1776554218059501000,11.6265009765625,-0.010672884061932564,-0.10950199514627457,0.04072559252381325
1776554218069540400,11.636540283203125,-0.004889563657343388,-0.06801366806030273,0.046423159539699554
1776554218079580200,11.646580078125,-0.003367833560332656,-0.03458274528384209,0.050273291766643524
1776554218089619200,11.656619140625,-0.0016916398890316486,-0.01654116064310074,0.03988722711801529
1776554218099658200,11.666658203125,0.009988185949623585,-0.020534569397568703,0.03166338801383972
1776554218109697000,11.676697021484374,0.01848153956234455,-0.024601483717560768,0.015053784474730492
1776554218119737000,11.686737060546875,0.0292377807199955,-0.014362427406013012,-0.00526640098541975
1776554218129776000,11.696776123046876,0.03007800690829754,0.0199287012219429,-0.029756831005215645
1776554218139815200,11.706815185546875,0.02124137245118618,0.055810268968343735,-0.05242778733372688
1776554218149855200,11.716855224609375,0.011001517996191978,0.07643139362335205,-0.0676506832242012
1776554218159894300,11.726894287109374,0.004419249482452869,0.07231840491294861,-0.0680839791893959
1776554218169933000,11.73693310546875,0.013489177450537682,0.05752135068178177,-0.05187598243355751
1776554218179972000,11.74697216796875,0.025117071345448494,0.058165568858385086,-0.018255436792969704
1776554218190012200,11.75701220703125,0.04000440612435341,0.07571154087781906,0.016585368663072586
1776554218200051000,11.767051025390625,0.035713523626327515,0.08270633220672607,0.03488847613334656
1776554218210090200,11.77709033203125,0.02376844547688961,0.07689637690782547,0.028310999274253845
1776554218220130300,11.78713037109375,0.011507784947752953,0.03726508095860481,0.005911152344197035
1776554218230169000,11.797169189453125,0.004197674337774515,-0.008105597458779812,-0.019291672855615616
1776554218240208100,11.8072080078125,-0.0016295883106067777,-0.026253707706928253,-0.037281859666109085
1776554218250247200,11.8172470703125,0.007934089750051498,-0.00999351218342781,-0.04657416045665741
1776554218260287000,11.827286865234376,0.02486114203929901,0.01931963488459587,-0.045336320996284485
1776554218270326000,11.837325927734375,0.03958442807197571,0.04917233809828758,-0.031981103122234344
1776554218280365300,11.847365234375,0.0535508431494236,0.06870582699775696,-0.02262728102505207
1776554218290405000,11.857405029296874,0.06343330442905426,0.07858642190694809,-0.014064952731132507
1776554218300444200,11.867444091796875,0.06797958165407181,0.08075316995382309,-0.025914687663316727
1776554218310483200,11.877483154296876,0.06696252524852753,0.08992616087198257,-0.04760187491774559
1776554218320523300,11.887523193359375,0.0610915832221508,0.11251642554998398,-0.0627581924200058
1776554218330562000,11.89756201171875,0.05397455021739006,0.14800597727298737,-0.07110214233398438
1776554218340601000,11.90760107421875,0.05180061236023903,0.1836814135313034,-0.0759967640042305
1776554218350640000,11.91764013671875,0.04909217730164528,0.20937718451023102,-0.07297913730144501
1776554218360680200,11.92768017578125,0.04905915632843971,0.19605472683906555,-0.07870785892009735
1776554218370719200,11.93771923828125,0.05239636078476906,0.159521222114563,-0.08575378358364105
1776554218380758000,11.947758056640625,0.04996809363365173,0.1248207613825798,-0.09030885994434357
1776554218390798000,11.957798095703126,0.05086371302604675,0.10303690284490585,-0.09382769465446472
1776554218400837000,11.967837158203125,0.04861174523830414,0.08215425908565521,-0.09653212875127792
1776554218410876200,11.977876220703125,0.03849785774946213,0.04739787429571152,-0.09808901697397232
1776554218420915200,11.987915283203124,0.026932282373309135,0.014223410747945309,-0.09963124990463257
1776554218430955300,11.997955322265625,0.016443155705928802,0.007479487918317318,-0.08025649189949036
1776554218440994300,12.007994384765626,0.007484281435608864,0.02287362329661846,-0.05817408859729767
1776554218451033000,12.018033203125,-0.0015757924411445856,0.023130353540182114,-0.06956788897514343
1776554218461073200,12.0280732421875,0.0001691107318038121,0.00809308048337698,-0.09566713869571686
1776554218471112200,12.0381123046875,0.008163387887179852,-0.018501246348023415,-0.13231037557125092
1776554218481151000,12.04815087890625,0.02521028183400631,-0.05193989723920822,-0.15773317217826843
1776554218491191000,12.05819091796875,0.04024329409003258,-0.07823195308446884,-0.1758381426334381
1776554218501230300,12.068230224609374,0.04107632860541344,-0.1000424474477768,-0.1873571127653122
1776554218511269000,12.07826904296875,0.04169897735118866,-0.10111968964338303,-0.19645632803440094
1776554218521308200,12.08830810546875,0.03230414539575577,-0.0626109167933464,-0.2079329639673233
1776554218531348200,12.09834814453125,0.0275618527084589,-0.0038812910206615925,-0.22408396005630493
1776554218541387000,12.108386962890625,0.017621604725718498,0.06586582958698273,-0.23208649456501007
1776554218551426000,12.118426025390624,0.012269982136785984,0.11065567284822464,-0.23083214461803436
1776554218561466000,12.128466064453125,0.011904596351087093,0.10723564028739929,-0.21946977078914642
1776554218571505200,12.138505126953126,0.0067782774567604065,0.05120326578617096,-0.20762483775615692
1776554218581544200,12.148544189453125,0.0013941648649051785,-0.032655682414770126,-0.19695407152175903
1776554218591583200,12.158583251953125,-0.012479306198656559,-0.108126200735569,-0.18208777904510498
1776554218601623000,12.168623046875,-0.01618456281721592,-0.14595480263233185,-0.16054093837738037
1776554218611662600,12.17866259765625,-0.009485380724072456,-0.14165566861629486,-0.15413203835487366
1776554218621701600,12.18870166015625,0.006910636555403471,-0.09814015030860901,-0.1547701358795166
1776554218631741400,12.198741455078125,0.026737604290246964,-0.05463741347193718,-0.1649806946516037
1776554218641780700,12.20878076171875,0.04867858812212944,-0.018879948183894157,-0.18520048260688782
1776554218651819800,12.21881982421875,0.06390547752380371,-0.007638478651642799,-0.2262488454580307
1776554218661858600,12.228858642578125,0.06544505059719086,-0.029939256608486176,-0.26866021752357483
1776554218671898600,12.238898681640626,0.05738819018006325,-0.07473282516002655,-0.3121432363986969
1776554218681937700,12.248937744140624,0.042746398597955704,-0.13864628970623016,-0.336375892162323
1776554218691976400,12.2589765625,0.020535368472337723,-0.2113063782453537,-0.33414068818092346
1776554218702016500,12.2690166015625,0.004927114117890596,-0.27902844548225403,-0.30437666177749634
1776554218712055800,12.279055908203125,-0.004023769870400429,-0.336600124835968,-0.2732997238636017
1776554218722094600,12.289094482421875,-0.004032824654132128,-0.3851301074028015,-0.23821336030960083
1776554218732133600,12.299133544921874,-0.010241452604532242,-0.4210966229438782,-0.21149148046970367
1776554218742173700,12.309173583984375,-0.03051556460559368,-0.4392673671245575,-0.18600767850875854
1776554218752212500,12.31921240234375,-0.061281200498342514,-0.42791005969047546,-0.14766083657741547
1776554218762251500,12.32925146484375,-0.09092458337545395,-0.3903006315231323,-0.10237697511911392
