time,seconds_elapsed,z,y,x
1776554206518616800,0.085616943359375,-259.2736511230469,68.35585021972656,-42.14186096191406
1776554206528735000,0.09573486328125,-258.81256103515625,68.51750183105469,-41.87831115722656
1776554206538852900,0.105852783203125,-259.12506103515625,68.48182678222656,-41.94779968261719
1776554206548970000,0.115969970703125,-259.48919677734375,68.36180114746094,-41.94685363769531
1776554206559087000,0.126087158203125,-259.1613464355469,68.58456420898438,-41.97962951660156
1776554206569205000,0.136205078125,-259.297119140625,68.36135864257812,-41.988525390625
1776554206579322000,0.146322021484375,-259.20477294921875,68.52619934082031,-41.73640441894531
1776554206589439000,0.15643896484375,-258.97711181640625,68.42518615722656,-41.87371826171875
1776554206599556400,0.166556396484375,-259.2696228027344,68.45220947265625,-41.724151611328125
1776554206609673200,0.176673095703125,-259.3625183105469,68.32209777832031,-41.90592956542969
1776554206619791400,0.186791259765625,-259.2963562011719,68.32640075683594,-41.92597961425781
1776554206629909200,0.1969091796875,-259.0748291015625,68.33683776855469,-41.92500305175781
1776554206640027400,0.20702734375,-259.2568359375,68.25271606445312,-41.82481384277344
1776554206650145300,0.217145263671875,-259.6085510253906,68.49032592773438,-42.06950378417969
1776554206660264200,0.22726416015625,-259.3756103515625,68.22108459472656,-41.895904541015625
1776554206670382300,0.23738232421875,-259.3114013671875,67.98042297363281,-41.816802978515625
1776554206680501500,0.24750146484375,-259.5140075683594,68.34619140625,-41.9718017578125
1776554206690619400,0.257619384765625,-259.33807373046875,68.39451599121094,-41.94026184082031
1776554206700738300,0.26773828125,-259.60540771484375,68.19822692871094,-41.89653015136719
1776554206710856400,0.2778564453125,-259.2566833496094,68.26502990722656,-42.015380859375
1776554206720974300,0.287974365234375,-259.26922607421875,68.40084838867188,-41.69517517089844
1776554206731092500,0.298092529296875,-259.31488037109375,68.41691589355469,-42.04588317871094
1776554206741210400,0.30821044921875,-259.857421875,68.28529357910156,-41.94325256347656
1776554206751328500,0.31832861328125,-259.47900390625,68.4200439453125,-42.010650634765625
1776554206761445400,0.3284453125,-259.40924072265625,68.45526123046875,-41.910614013671875
1776554206771563300,0.338563232421875,-259.2667236328125,68.54960632324219,-41.784820556640625
1776554206781682200,0.34868212890625,-259.4969787597656,68.61428833007812,-42.15185546875
1776554206791799300,0.35879931640625,-259.2450256347656,68.58230590820312,-41.920379638671875
1776554206801918200,0.368918212890625,-259.48260498046875,68.48921203613281,-42.017303466796875
1776554206812035300,0.379035400390625,-259.362060546875,68.45521545410156,-41.992645263671875
1776554206822153200,0.3891533203125,-259.58746337890625,68.34999084472656,-41.89265441894531
1776554206832270300,0.399270263671875,-259.54888916015625,68.56825256347656,-41.84812927246094
1776554206842388500,0.409388427734375,-259.4549865722656,68.73197937011719,-42.14314270019531
1776554206852505300,0.41950537109375,-259.633056640625,68.478515625,-42.1375732421875
1776554206862623500,0.42962353515625,-259.12347412109375,68.3753662109375,-41.96986389160156
1776554206872741400,0.439741455078125,-259.7596435546875,68.44097900390625,-42.0806884765625
1776554206882859500,0.449859619140625,-259.5573425292969,68.29281616210938,-42.13963317871094
1776554206892977400,0.459977294921875,-259.7230224609375,68.39492797851562,-42.017120361328125
1776554206903096300,0.470096435546875,-259.65521240234375,68.65830993652344,-41.966644287109375
1776554206913214500,0.48021435546875,-259.18121337890625,68.87229919433594,-42.02398681640625
1776554206923331300,0.490331298828125,-259.32415771484375,68.84288024902344,-42.03436279296875
1776554206933448200,0.5004482421875,-259.66827392578125,68.63577270507812,-42.02665710449219
1776554206943565300,0.5105654296875,-259.0925598144531,68.7425537109375,-42.034027099609375
1776554206953683500,0.520683349609375,-259.44476318359375,68.99803161621094,-42.00184631347656
1776554206963799600,0.530799560546875,-259.7828369140625,68.92974853515625,-42.12615966796875
1776554206973916400,0.54091650390625,-259.57159423828125,68.89590454101562,-41.93922424316406
1776554206984032500,0.551032470703125,-259.8135986328125,68.39607238769531,-41.9202880859375
1776554206994150400,0.561150390625,-259.6893005371094,68.54035949707031,-42.03704833984375
1776554207004267500,0.571267578125,-258.841552734375,68.64753723144531,-41.7822265625
1776554207014385400,0.581385498046875,-259.9853210449219,68.63775634765625,-42.09037780761719
1776554207024500500,0.59150048828125,-259.7833251953125,68.77314758300781,-42.01206970214844
1776554207034614300,0.6016142578125,-259.97802734375,68.67669677734375,-42.05903625488281
1776554207044728300,0.611728271484375,-260.1791687011719,68.59904479980469,-41.96687316894531
1776554207054842400,0.62184228515625,-259.84991455078125,68.77279663085938,-41.74552917480469
1776554207064958200,0.631958251953125,-259.7918701171875,68.55168151855469,-42.04252624511719
1776554207075073300,0.6420732421875,-260.01708984375,68.45248413085938,-41.922271728515625
1776554207085189400,0.652189453125,-260.1080627441406,68.357421875,-42.11180114746094
1776554207095304200,0.66230419921875,-259.5113830566406,68.26344299316406,-42.122955322265625
1776554207105420300,0.672420166015625,-259.3951110839844,68.29081726074219,-41.97454833984375
1776554207115534300,0.682534423828125,-259.6034240722656,68.22929382324219,-42.03410339355469
1776554207125651500,0.6926513671875,-259.5086669921875,68.20382690429688,-41.942626953125
1776554207135765200,0.70276513671875,-259.54266357421875,68.07815551757812,-42.00970458984375
1776554207145880600,0.712880615234375,-259.49542236328125,67.97773742675781,-41.81013488769531
1776554207155996400,0.722996337890625,-259.10296630859375,68.00538635253906,-41.902008056640625
1776554207166112500,0.733112548828125,-259.41192626953125,68.06050109863281,-41.85231018066406
1776554207176228400,0.743228271484375,-259.22528076171875,67.86198425292969,-41.96318054199219
1776554207186344400,0.753344482421875,-259.2833251953125,67.98707580566406,-41.94085693359375
1776554207196459300,0.763459228515625,-259.162109375,67.95079040527344,-41.74565124511719
1776554207206574300,0.77357421875,-259.57440185546875,67.86332702636719,-41.851593017578125
1776554207216690200,0.783690185546875,-259.52764892578125,67.86820983886719,-41.956268310546875
1776554207226806500,0.793806640625,-259.7108154296875,67.93377685546875,-41.84422302246094
1776554207236923400,0.80392333984375,-259.68212890625,67.94949340820312,-41.97052001953125
1776554207247038500,0.81403857421875,-259.16461181640625,68.11924743652344,-42.005462646484375
1776554207257152300,0.82415234375,-259.23126220703125,68.05149841308594,-41.84773254394531
1776554207267267600,0.834267578125,-259.5650634765625,68.02888488769531,-41.918609619140625
1776554207277382400,0.84438232421875,-259.26495361328125,67.96957397460938,-41.884185791015625
1776554207287497200,0.854497314453125,-259.01715087890625,67.958984375,-41.831756591796875
1776554207297612500,0.864612548828125,-259.0308837890625,67.91578674316406,-41.91755676269531
1776554207307726300,0.874726318359375,-259.19427490234375,67.87654113769531,-41.720123291015625
1776554207317841400,0.88484130859375,-259.28753662109375,67.90327453613281,-41.904541015625
1776554207327956500,0.89495654296875,-259.0133056640625,67.83811950683594,-41.85716247558594
1776554207338071300,0.9050712890625,-258.9262390136719,68.0120849609375,-41.65618896484375
1776554207348186400,0.915186279296875,-259.5685119628906,67.79534912109375,-41.8597412109375
1776554207358301400,0.925301513671875,-259.13519287109375,68.03987121582031,-41.845977783203125
1776554207368416300,0.935416259765625,-259.4569396972656,67.97369384765625,-41.94627380371094
1776554207378531300,0.94553125,-258.85382080078125,67.96528625488281,-41.87904357910156
1776554207388645400,0.955645263671875,-258.78594970703125,67.71340942382812,-41.79042053222656
1776554207398759400,0.965759521484375,-258.812744140625,67.83613586425781,-41.99749755859375
1776554207408875500,0.97587548828125,-258.6061706542969,67.92884826660156,-41.86473083496094
1776554207418990300,0.985990234375,-259.1298828125,67.94721984863281,-41.86506652832031
1776554207429106400,0.9961064453125,-259.0802307128906,68.02191162109375,-41.85224914550781
1776554207439221500,1.006221435546875,-258.99530029296875,68.12359619140625,-41.87884521484375
1776554207449337300,1.01633740234375,-259.1768798828125,67.724365234375,-41.96568298339844
1776554207459452400,1.026452392578125,-258.929443359375,67.94033813476562,-41.853668212890625
1776554207469568300,1.036568359375,-259.5133972167969,68.00238037109375,-41.862640380859375
1776554207479683300,1.046683349609375,-258.7586364746094,67.99159240722656,-41.639984130859375
1776554207489799200,1.056799072265625,-259.23284912109375,67.78599548339844,-41.75645446777344
1776554207499915300,1.066915283203125,-259.37127685546875,68.0162353515625,-41.995880126953125
1776554207510030300,1.0770302734375,-259.0260314941406,67.84991455078125,-41.814178466796875
1776554207520145400,1.0871455078125,-259.10089111328125,67.80728149414062,-41.79853820800781
1776554207530259500,1.097259521484375,-258.67767333984375,67.65452575683594,-41.77197265625
1776554207540374300,1.107374267578125,-258.83575439453125,67.52987670898438,-41.63435363769531
1776554207550489300,1.1174892578125,-258.90728759765625,67.75044250488281,-41.72074890136719
1776554207560604400,1.1276044921875,-258.47515869140625,67.62077331542969,-41.66316223144531
1776554207570719200,1.13771923828125,-258.95684814453125,67.70750427246094,-41.799530029296875
1776554207580833500,1.14783349609375,-258.80938720703125,67.79911804199219,-41.93452453613281
1776554207590947300,1.157947265625,-258.7095031738281,67.69296264648438,-41.941986083984375
1776554207601061600,1.1680615234375,-258.76934814453125,67.53298950195312,-41.819854736328125
1776554207611176400,1.178176513671875,-258.6254577636719,67.5120849609375,-41.79432678222656
1776554207621290500,1.18829052734375,-258.08892822265625,67.58564758300781,-41.540863037109375
1776554207631405600,1.198405517578125,-258.5377197265625,67.26045227050781,-41.93736267089844
1776554207641520400,1.208520263671875,-258.3035888671875,67.245849609375,-41.88166809082031
1776554207651636500,1.218636474609375,-258.3766784667969,67.326904296875,-41.913330078125
1776554207661751600,1.22875146484375,-258.32220458984375,67.2196044921875,-41.82423400878906
1776554207671867600,1.23886767578125,-257.88861083984375,67.22074890136719,-41.679443359375
1776554207681982500,1.248982421875,-258.23944091796875,67.02915954589844,-41.72074890136719
1776554207692099600,1.259099609375,-258.1448059082031,66.78778076171875,-41.818878173828125
1776554207702213600,1.269213623046875,-257.9949645996094,66.73243713378906,-41.76080322265625
1776554207712327400,1.279327392578125,-257.664306640625,66.75927734375,-41.701385498046875
1776554207722442800,1.28944287109375,-257.40008544921875,66.49153137207031,-41.609405517578125
1776554207732557600,1.2995576171875,-257.07806396484375,66.47412109375,-41.48602294921875
1776554207742673700,1.309673583984375,-256.79248046875,66.26679992675781,-41.53163146972656
1776554207752789500,1.31978955078125,-256.77783203125,66.23153686523438,-41.66163635253906
1776554207762904300,1.329904296875,-255.3243865966797,66.27583312988281,-41.394195556640625
1776554207773018600,1.3400185546875,-254.16162109375,65.78486633300781,-41.37689208984375
1776554207783133400,1.350133544921875,-253.7168426513672,65.60142517089844,-41.397064208984375
1776554207793248500,1.36024853515625,-252.65078735351562,65.58822631835938,-41.40315246582031
1776554207803362600,1.370362548828125,-252.37681579589844,65.33106994628906,-41.458526611328125
1776554207813477600,1.3804775390625,-251.31431579589844,65.22013854980469,-41.363677978515625
1776554207823594500,1.390594482421875,-250.647216796875,64.96394348144531,-41.53375244140625
1776554207833709600,1.40070947265625,-250.6642608642578,64.46435546875,-41.575439453125
1776554207843825700,1.41082568359375,-250.05967712402344,64.71006774902344,-41.7730712890625
1776554207853940500,1.4209404296875,-250.2600860595703,64.20396423339844,-41.803253173828125
1776554207864056600,1.431056640625,-249.8149871826172,64.35948181152344,-41.73335266113281
1776554207874171400,1.44117138671875,-249.55763244628906,64.08367919921875,-41.71772766113281
1776554207884286700,1.45128662109375,-249.4114227294922,63.94866943359375,-41.80934143066406
1776554207894401500,1.461401611328125,-249.20054626464844,64.35258483886719,-41.822113037109375
1776554207904516400,1.471516357421875,-248.57469177246094,64.05195617675781,-41.561126708984375
1776554207914632400,1.481632568359375,-248.50856018066406,64.17910766601562,-41.77384948730469
1776554207924747500,1.49174755859375,-247.94642639160156,64.41885375976562,-41.7314453125
1776554207934862600,1.501862548828125,-247.56455993652344,64.54573059082031,-41.73619079589844
1776554207944978400,1.511978515625,-246.42710876464844,64.73738098144531,-41.66020202636719
1776554207955094500,1.522094482421875,-246.019287109375,64.65234375,-41.52552795410156
1776554207965210400,1.53221044921875,-245.41444396972656,64.46426391601562,-41.882232666015625
1776554207975328500,1.54232861328125,-244.35899353027344,64.70458984375,-42.1605224609375
1776554207985444600,1.552444580078125,-243.50860595703125,64.17155456542969,-42.312103271484375
1776554207995560400,1.562560546875,-242.44651794433594,64.02409362792969,-42.67793273925781
1776554208005675500,1.572675537109375,-241.1916046142578,63.856781005859375,-42.9481201171875
1776554208015790300,1.582790283203125,-240.37188720703125,63.42893981933594,-43.2510986328125
1776554208025907500,1.592907470703125,-239.47386169433594,63.05940246582031,-43.51268005371094
1776554208036023600,1.6030234375,-238.9141845703125,62.71392822265625,-43.81568908691406
1776554208046139400,1.613139404296875,-237.9759521484375,62.44781494140625,-44.02595520019531
1776554208056254700,1.623254638671875,-237.40966796875,62.4493408203125,-44.401763916015625
1776554208066371300,1.633371337890625,-237.5032501220703,61.97393798828125,-44.47901916503906
1776554208076486700,1.643486572265625,-237.18923950195312,61.936676025390625,-44.62577819824219
1776554208086602500,1.6536025390625,-237.34707641601562,62.32963562011719,-44.49885559082031
1776554208096719600,1.6637197265625,-237.41392517089844,62.22389221191406,-44.006103515625
1776554208106833400,1.67383349609375,-238.02406311035156,62.10734558105469,-43.94012451171875
1776554208116947500,1.683947509765625,-238.70327758789062,62.36866760253906,-43.95927429199219
1776554208127062500,1.6940625,-238.93524169921875,62.182586669921875,-43.49983215332031
1776554208137178400,1.704178466796875,-239.6202392578125,62.149658203125,-43.166290283203125
1776554208147294500,1.71429443359375,-240.40159606933594,61.91912841796875,-42.88299560546875
1776554208157409500,1.724409423828125,-241.2581787109375,61.41050720214844,-42.595306396484375
1776554208167524600,1.734524658203125,-242.11117553710938,61.34690856933594,-42.58489990234375
1776554208177640400,1.744640380859375,-242.36752319335938,61.139190673828125,-42.42109680175781
1776554208187755500,1.754755615234375,-242.20892333984375,61.32679748535156,-42.18840026855469
1776554208197871400,1.764871337890625,-242.4080810546875,61.35545349121094,-42.07386779785156
1776554208207987500,1.774987548828125,-242.17868041992188,61.5760498046875,-41.69190979003906
1776554208218102500,1.7851025390625,-241.9158477783203,62.05534362792969,-41.542083740234375
1776554208228219400,1.795219482421875,-241.7947540283203,62.42121887207031,-41.39106750488281
1776554208238336500,1.80533642578125,-241.6250762939453,62.9154052734375,-40.73908996582031
1776554208248453600,1.81545361328125,-241.8365020751953,63.236480712890625,-40.82073974609375
1776554208258569500,1.825569580078125,-241.42770385742188,63.76054382324219,-40.319854736328125
1776554208268685600,1.835685546875,-241.44659423828125,64.2613525390625,-40.26640319824219
1776554208278800400,1.84580029296875,-241.03128051757812,64.57527160644531,-39.89823913574219
1776554208288915700,1.855915771484375,-241.197265625,65.13134765625,-39.57328796386719
1776554208299028700,1.86602880859375,-240.9338836669922,65.62075805664062,-39.333343505859375
1776554208309142500,1.876142578125,-240.9686737060547,65.88339233398438,-39.028167724609375
1776554208319255600,1.886255615234375,-241.00253295898438,66.32478332519531,-38.735595703125
1776554208329368600,1.89636865234375,-241.05978393554688,66.60565185546875,-38.500152587890625
1776554208339481600,1.906481689453125,-241.0528106689453,67.14942932128906,-38.076904296875
1776554208349594600,1.9165947265625,-241.359619140625,67.46664428710938,-37.74653625488281
1776554208359708700,1.926708740234375,-241.20179748535156,67.6788330078125,-37.53916931152344
1776554208369823500,1.936823486328125,-241.81288146972656,68.65321350097656,-36.995758056640625
1776554208379938600,1.9469384765625,-242.10488891601562,69.17506408691406,-36.57081604003906
1776554208390053600,1.9570537109375,-242.38597106933594,70.09039306640625,-36.48030090332031
1776554208400167400,1.96716748046875,-242.8535919189453,70.87420654296875,-36.00099182128906
1776554208410281500,1.977281494140625,-242.65399169921875,72.07061767578125,-35.69828796386719
1776554208420397600,1.9873974609375,-243.59988403320312,73.02391052246094,-35.25831604003906
1776554208430513700,1.997513671875,-243.78530883789062,74.29829406738281,-34.85057067871094
1776554208440630500,2.007630615234375,-244.00843811035156,75.76866149902344,-34.779510498046875
1776554208450746600,2.01774658203125,-244.6136474609375,77.13200378417969,-34.58015441894531
1776554208460862700,2.02786279296875,-244.47317504882812,78.19680786132812,-34.23469543457031
1776554208470978600,2.037978515625,-245.05796813964844,79.86949157714844,-34.15972900390625
1776554208481094700,2.0480947265625,-245.2682647705078,81.56053161621094,-34.11747741699219
1776554208491210500,2.05821044921875,-245.30250549316406,83.310791015625,-33.98091125488281
1776554208501325600,2.06832568359375,-245.75071716308594,85.09747314453125,-34.07072448730469
1776554208511441400,2.07844140625,-245.33316040039062,87.14358520507812,-34.09515380859375
1776554208521556700,2.088556640625,-245.33157348632812,88.76298522949219,-34.08293151855469
1776554208531672600,2.098672607421875,-244.9938507080078,90.6048583984375,-34.664947509765625
1776554208541787600,2.10878759765625,-244.05116271972656,92.66552734375,-35.26963806152344
1776554208551901700,2.118901611328125,-243.1653594970703,94.43887329101562,-35.795196533203125
1776554208562017500,2.129017578125,-241.5675048828125,96.18495178222656,-36.60125732421875
1776554208572132600,2.139132568359375,-239.98146057128906,97.60649108886719,-37.06776428222656
1776554208582249700,2.149249755859375,-238.5486297607422,98.5372314453125,-38.13264465332031
1776554208592365600,2.159365478515625,-236.6225128173828,99.24412536621094,-39.08927917480469
1776554208602481400,2.1694814453125,-234.7578887939453,99.28573608398438,-39.660247802734375
1776554208612597500,2.179597412109375,-232.74571228027344,99.03700256347656,-40.389739990234375
1776554208622713300,2.18971337890625,-231.52224731445312,97.734619140625,-40.83973693847656
1776554208632829400,2.199829345703125,-230.32652282714844,96.76412963867188,-41.127166748046875
1776554208642944300,2.2099443359375,-229.09388732910156,95.12321472167969,-41.16374206542969
1776554208653060400,2.220060302734375,-228.43002319335938,93.59834289550781,-41.22227478027344
1776554208663177200,2.23017724609375,-227.32058715820312,91.53221130371094,-41.341583251953125
1776554208673294300,2.24029443359375,-226.03433227539062,89.15528869628906,-41.824493408203125
1776554208683410400,2.250410400390625,-224.76901245117188,86.81605529785156,-42.52430725097656
1776554208693526300,2.2605263671875,-223.8152618408203,84.73564147949219,-43.34559631347656
1776554208703642400,2.270642333984375,-222.74246215820312,82.73811340332031,-44.12860107421875
1776554208713759500,2.280759521484375,-222.2052459716797,81.13320922851562,-44.95829772949219
1776554208723875300,2.290875244140625,-221.54229736328125,79.92098999023438,-46.388519287109375
1776554208733992400,2.300992431640625,-220.41232299804688,79.90461730957031,-47.93440246582031
1776554208744109300,2.311109375,-219.482177734375,80.24479675292969,-49.73674011230469
1776554208754225200,2.32122509765625,-218.93699645996094,80.6309814453125,-51.16456604003906
1776554208764342300,2.33134228515625,-218.28468322753906,81.53579711914062,-52.299041748046875
1776554208774459400,2.34145947265625,-217.9886932373047,82.30589294433594,-53.197021484375
1776554208784575500,2.351575439453125,-218.02316284179688,82.83723449707031,-53.62110900878906
1776554208794691300,2.36169140625,-218.1817169189453,82.83757019042969,-53.548858642578125
1776554208804807400,2.371807373046875,-218.40113830566406,83.03880310058594,-52.96061706542969
1776554208814923300,2.38192333984375,-219.03909301757812,82.68717956542969,-52.445343017578125
1776554208825040400,2.392040283203125,-219.50982666015625,82.31524658203125,-51.6712646484375
1776554208835156500,2.402156494140625,-220.09983825683594,81.87837219238281,-51.00665283203125
1776554208845271300,2.412271240234375,-220.2985076904297,81.27348327636719,-50.36102294921875
1776554208855387400,2.422387451171875,-220.80670166015625,80.85191345214844,-49.35429382324219
1776554208865502500,2.43250244140625,-221.53005981445312,80.81338500976562,-49.12176513671875
1776554208875618600,2.44261865234375,-222.26356506347656,80.14668273925781,-48.43682861328125
1776554208885734400,2.452734375,-222.6567840576172,79.71365356445312,-47.68830871582031
1776554208895850500,2.4628505859375,-223.54652404785156,78.78622436523438,-46.83720397949219
1776554208905966300,2.47296630859375,-223.80307006835938,78.15501403808594,-46.05389404296875
1776554208916082400,2.48308251953125,-224.36831665039062,77.49465942382812,-45.699127197265625
1776554208926198300,2.4931982421875,-224.80467224121094,76.98313903808594,-45.2745361328125
1776554208936313300,2.503313232421875,-225.0119171142578,76.08186340332031,-45.217376708984375
1776554208946429200,2.51342919921875,-225.07667541503906,75.51045227050781,-45.19940185546875
1776554208956546300,2.52354638671875,-224.9161834716797,74.74687194824219,-45.34342956542969
1776554208966663400,2.533663330078125,-225.34449768066406,74.30548095703125,-45.15081787109375
1776554208976778200,2.5437783203125,-225.51467895507812,73.81794738769531,-45.01094055175781
1776554208986894300,2.553894287109375,-225.8058319091797,73.26068115234375,-44.66748046875
1776554208997010400,2.564010498046875,-226.21693420410156,73.24180603027344,-44.21940612792969
1776554209007126300,2.574126220703125,-227.06312561035156,72.83207702636719,-44.03289794921875
1776554209017243400,2.584243408203125,-227.88253784179688,72.95790100097656,-43.40672302246094
1776554209027358200,2.594358154296875,-229.11122131347656,73.23530578613281,-42.7447509765625
1776554209037474300,2.604474365234375,-230.45724487304688,73.6434326171875,-41.88621520996094
1776554209047590100,2.614590087890625,-231.0559844970703,73.91227722167969,-41.335174560546875
1776554209057708300,2.624708251953125,-231.84640502929688,74.67897033691406,-41.02423095703125
1776554209067825400,2.634825439453125,-232.17489624023438,75.42060852050781,-40.74034118652344
1776554209077943300,2.644943359375,-233.03372192382812,76.09214782714844,-40.40177917480469
1776554209088060400,2.655060302734375,-233.30067443847656,76.68116760253906,-40.144500732421875
1776554209098176300,2.66517626953125,-233.66494750976562,77.24667358398438,-40.21522521972656
1776554209108293400,2.67529345703125,-233.72572326660156,77.85502624511719,-40.22868347167969
1776554209118410200,2.68541015625,-233.0901336669922,77.72750854492188,-40.49493408203125
1776554209128526300,2.6955263671875,-232.83807373046875,77.47023010253906,-40.812744140625
1776554209138640400,2.705640380859375,-231.84356689453125,77.265869140625,-40.807952880859375
1776554209148755200,2.715755126953125,-231.6508331298828,76.96540832519531,-41.25517272949219
1776554209158871300,2.725871337890625,-231.21414184570312,76.83477783203125,-41.233917236328125
1776554209168986400,2.735986328125,-230.961181640625,76.71412658691406,-41.34318542480469
1776554209179102500,2.7461025390625,-231.51805114746094,76.33486938476562,-41.34403991699219
1776554209189217300,2.75621728515625,-231.53216552734375,76.59857177734375,-40.98912048339844
1776554209199333400,2.76633349609375,-232.11965942382812,76.50996398925781,-40.736785888671875
1776554209209448400,2.776448486328125,-232.52450561523438,76.84646606445312,-40.58929443359375
1776554209219564500,2.786564453125,-232.73553466796875,76.903076171875,-40.30218505859375
1776554209229680400,2.796680419921875,-234.17909240722656,76.59085083007812,-39.99778747558594
1776554209239795500,2.80679541015625,-234.30197143554688,76.11965942382812,-39.57647705078125
1776554209249910300,2.81691015625,-235.4219970703125,75.71171569824219,-39.22935485839844
1776554209260026400,2.8270263671875,-235.29930114746094,75.65830993652344,-39.0130615234375
1776554209270143200,2.837143310546875,-235.93453979492188,75.31625366210938,-38.79193115234375
1776554209280259300,2.84725927734375,-235.80589294433594,74.94465637207031,-38.60955810546875
1776554209290377500,2.85737744140625,-235.68980407714844,74.6607666015625,-38.70115661621094
1776554209300493300,2.867493408203125,-236.17205810546875,74.37835693359375,-38.64738464355469
1776554209310610200,2.877610107421875,-236.42868041992188,74.4036865234375,-38.586029052734375
1776554209320725500,2.8877255859375,-236.84762573242188,74.42034912109375,-38.39251708984375
1776554209330842400,2.89784228515625,-236.88995361328125,74.87815856933594,-38.00218200683594
1776554209340958500,2.90795849609375,-237.58065795898438,75.25282287597656,-38.21171569824219
1776554209351074600,2.918074462890625,-237.5989990234375,75.73428344726562,-38.196868896484375
1776554209361190400,2.9281904296875,-237.7929229736328,76.38308715820312,-38.22761535644531
1776554209371307300,2.938307373046875,-238.29588317871094,77.2843017578125,-38.20072937011719
1776554209381423400,2.94842333984375,-238.79379272460938,77.75309753417969,-38.31404113769531
1776554209391539500,2.95853955078125,-238.9065704345703,78.38995361328125,-38.38604736328125
1776554209401654300,2.968654296875,-239.81105041503906,78.80020141601562,-38.29444885253906
1776554209411769300,2.978769287109375,-239.3062744140625,78.9261474609375,-38.520843505859375
1776554209421884400,2.988884521484375,-238.59523010253906,79.08323669433594,-38.61424255371094
1776554209432000500,2.99900048828125,-238.06854248046875,79.19793701171875,-38.82551574707031
1776554209442115300,3.009115234375,-237.7293701171875,79.77383422851562,-39.2420654296875
1776554209452230400,3.01923046875,-237.20391845703125,80.1771240234375,-39.39195251464844
1776554209462345500,3.029345458984375,-236.78079223632812,80.39242553710938,-39.75849914550781
1776554209472461600,3.039461669921875,-236.16819763183594,80.934326171875,-39.71012878417969
1776554209482576400,3.049576416015625,-236.1893768310547,81.22174072265625,-40.21745300292969
1776554209492693500,3.059693603515625,-235.75978088378906,81.65611267089844,-40.348358154296875
1776554209502809300,3.069809326171875,-235.27650451660156,81.72050476074219,-40.490814208984375
1776554209512924400,3.07992431640625,-235.174560546875,82.02883911132812,-40.53131103515625
1776554209523040300,3.090040283203125,-235.03585815429688,82.0450439453125,-40.51744079589844
1776554209533156400,3.10015625,-235.04884338378906,82.00550842285156,-40.36650085449219
1776554209543272200,3.110272216796875,-235.33241271972656,81.70176696777344,-40.65870666503906
1776554209553387500,3.120387451171875,-235.37579345703125,82.13163757324219,-40.591644287109375
1776554209563502300,3.13050244140625,-236.1876678466797,82.05561828613281,-40.422332763671875
1776554209573618400,3.140618408203125,-236.6626739501953,82.03913879394531,-40.13108825683594
1776554209583732500,3.150732421875,-237.51528930664062,82.00936889648438,-39.982208251953125
1776554209593847300,3.160847412109375,-238.3634033203125,82.04512023925781,-39.69305419921875
1776554209603963000,3.170962890625,-238.54135131835938,82.26934814453125,-39.690155029296875
1776554209614080000,3.181080078125,-238.27976989746094,82.30335998535156,-39.19061279296875
1776554209624193800,3.19119384765625,-238.4498291015625,82.57034301757812,-39.626922607421875
1776554209634311000,3.201310791015625,-238.84341430664062,82.58158874511719,-39.6341552734375
1776554209644427000,3.211427001953125,-238.7284698486328,82.37040710449219,-39.7188720703125
1776554209654542800,3.22154296875,-238.6076202392578,82.35975646972656,-39.629180908203125
1776554209664659000,3.231658935546875,-238.3679656982422,82.46636962890625,-39.73797607421875
1776554209674773000,3.24177294921875,-237.86380004882812,82.35414123535156,-39.82362365722656
1776554209684887000,3.251886962890625,-237.51760864257812,82.1114501953125,-39.958709716796875
1776554209695000800,3.262000732421875,-237.15496826171875,81.99786376953125,-39.926544189453125
1776554209705116200,3.2721162109375,-236.86866760253906,81.97640991210938,-40.029205322265625
1776554209715230000,3.28222998046875,-236.3817901611328,81.93504333496094,-40.276092529296875
1776554209725344000,3.292343994140625,-236.120849609375,81.50588989257812,-40.3367919921875
1776554209735459000,3.302458984375,-235.90048217773438,81.30181884765625,-40.29838562011719
1776554209745573000,3.312572998046875,-236.37835693359375,81.39169311523438,-40.319610595703125
1776554209755688000,3.32268798828125,-236.58323669433594,81.58969116210938,-39.76893615722656
1776554209765803000,3.332802978515625,-236.7252655029297,81.43568420410156,-39.995880126953125
1776554209775917000,3.3429169921875,-236.9099578857422,81.63906860351562,-39.8765869140625
1776554209786033000,3.353032958984375,-236.79116821289062,81.6812744140625,-39.99174499511719
1776554209796148000,3.36314794921875,-236.79510498046875,81.75077819824219,-40.058380126953125
1776554209806263000,3.373262939453125,-236.69822692871094,82.05113220214844,-40.036041259765625
1776554209816380000,3.3833798828125,-236.53956604003906,81.75691223144531,-40.12078857421875
1776554209826494000,3.393493896484375,-236.58900451660156,81.59330749511719,-40.15283203125
1776554209836608800,3.40360888671875,-236.79403686523438,81.57435607910156,-39.91865539550781
1776554209846724000,3.41372412109375,-236.80950927734375,81.50596618652344,-39.8712158203125
1776554209856840000,3.42383984375,-236.58399963378906,81.40762329101562,-40.058990478515625
1776554209866955000,3.433955078125,-236.83314514160156,81.44221496582031,-39.89305114746094
1776554209877072100,3.444072021484375,-236.7391815185547,81.32353210449219,-39.859527587890625
1776554209887187000,3.45418701171875,-236.6483917236328,81.42787170410156,-40.11457824707031
1776554209897301000,3.464301025390625,-236.3378448486328,81.30319213867188,-39.90797424316406
1776554209907415000,3.4744150390625,-236.4949951171875,81.08485412597656,-39.89872741699219
1776554209917530000,3.484530029296875,-236.39646911621094,81.20774841308594,-39.75721740722656
1776554209927644000,3.494643798828125,-236.1410675048828,81.15629577636719,-39.815765380859375
1776554209937760000,3.504760009765625,-236.56556701660156,81.04643249511719,-39.710968017578125
1776554209947876000,3.5148759765625,-236.13185119628906,81.17546081542969,-39.59796142578125
1776554209957991000,3.524990966796875,-236.33970642089844,81.33155822753906,-39.78755187988281
1776554209968106000,3.53510595703125,-236.59217834472656,81.59620666503906,-40.051422119140625
1776554209978221800,3.545221923828125,-236.243408203125,82.03094482421875,-39.99029541015625
1776554209988336000,3.555336181640625,-236.1659698486328,82.20765686035156,-39.75657653808594
1776554209998451000,3.565450927734375,-236.54429626464844,82.66943359375,-39.90519714355469
1776554210008566000,3.57556591796875,-236.45912170410156,83.01596069335938,-40.08192443847656
1776554210018680000,3.58568017578125,-236.116455078125,83.490966796875,-40.200592041015625
1776554210028794000,3.595794189453125,-235.94015502929688,83.57402038574219,-40.29829406738281
1776554210038908000,3.605907958984375,-235.63002014160156,83.73127746582031,-40.27540588378906
1776554210049022000,3.61602197265625,-235.544189453125,84.02288818359375,-40.691558837890625
1776554210059136000,3.626135986328125,-235.2777557373047,84.01263427734375,-40.73265075683594
1776554210069251000,3.6362509765625,-234.84979248046875,84.54808044433594,-41.07087707519531
1776554210079366000,3.646365966796875,-234.08804321289062,84.5687255859375,-41.457550048828125
1776554210089481000,3.65648095703125,-233.26588439941406,84.8848876953125,-41.453338623046875
1776554210099594000,3.666593994140625,-233.3846435546875,84.79373168945312,-41.80354309082031
1776554210109710000,3.6767099609375,-233.21371459960938,85.11329650878906,-41.93345642089844
1776554210119826200,3.686826171875,-233.05934143066406,85.13642883300781,-42.01054382324219
1776554210129940000,3.69693994140625,-232.9660186767578,85.24966430664062,-42.18803405761719
1776554210140055000,3.707054931640625,-232.53244018554688,85.35942077636719,-42.23966979980469
1776554210150170000,3.717170166015625,-232.4034423828125,85.48832702636719,-42.44142150878906
1776554210160285000,3.727284912109375,-232.1127166748047,85.64129638671875,-42.573577880859375
1776554210170400000,3.73739990234375,-231.46324157714844,85.74739074707031,-42.57542419433594
1776554210180516000,3.74751611328125,-231.70457458496094,85.74201965332031,-42.69657897949219
1776554210190631000,3.757630859375,-231.05630493164062,85.78236389160156,-42.728179931640625
1776554210200747000,3.7677470703125,-230.79193115234375,85.67056274414062,-42.85601806640625
1776554210210861000,3.777861083984375,-230.91619873046875,85.99559020996094,-43.04290771484375
1776554210220977200,3.78797705078125,-230.66494750976562,85.7884521484375,-43.03163146972656
1776554210231093000,3.798093017578125,-230.20298767089844,85.82888793945312,-43.15904235839844
1776554210241209000,3.808208984375,-230.171630859375,85.87919616699219,-43.33674621582031
1776554210251324000,3.818323974609375,-229.6697540283203,86.09736633300781,-43.5333251953125
1776554210261440000,3.82843994140625,-229.7893829345703,86.00013732910156,-43.77093505859375
1776554210271555800,3.838555908203125,-229.20428466796875,86.31344604492188,-43.74626159667969
1776554210281672000,3.848671875,-229.30294799804688,86.49343872070312,-43.68940734863281
1776554210291789000,3.8587890625,-229.21119689941406,86.72709655761719,-44.1666259765625
1776554210301905000,3.86890478515625,-229.07113647460938,86.82347106933594,-44.29600524902344
1776554210312021000,3.87902099609375,-228.47247314453125,87.0872802734375,-44.651336669921875
1776554210322138000,3.88913818359375,-227.87843322753906,87.357177734375,-45.03375244140625
1776554210332254000,3.89925390625,-227.2137908935547,87.95326232910156,-45.74476623535156
1776554210342371000,3.90937109375,-226.72581481933594,87.9239501953125,-46.12745666503906
1776554210352486000,3.91948583984375,-226.43365478515625,88.32945251464844,-46.47273254394531
1776554210362602000,3.92960205078125,-226.47799682617188,88.64938354492188,-46.62164306640625
1776554210372718000,3.939718017578125,-226.0139923095703,88.8212890625,-46.59709167480469
1776554210382834000,3.949833984375,-226.17132568359375,88.87205505371094,-47.063812255859375
1776554210392949000,3.959948974609375,-225.75167846679688,89.36036682128906,-47.20086669921875
1776554210403063000,3.97006298828125,-225.6009063720703,89.166015625,-47.283172607421875
1776554210413179000,3.980178955078125,-225.42044067382812,89.30747985839844,-47.570587158203125
1776554210423295000,3.990294921875,-224.3563995361328,89.33906555175781,-47.62060546875
1776554210433410800,4.000410888671875,-224.4447784423828,89.64541625976562,-48.364105224609375
1776554210443526100,4.010526123046875,-224.28994750976562,89.80953979492188,-48.93975830078125
1776554210453642000,4.02064208984375,-223.9772186279297,89.93278503417969,-49.23480224609375
1776554210463758000,4.030758056640625,-223.67623901367188,89.89881896972656,-49.22367858886719
1776554210473873000,4.040872802734375,-223.8748779296875,90.41043090820312,-49.70719909667969
1776554210483989000,4.050989013671875,-224.11448669433594,90.76925659179688,-49.79576110839844
1776554210494103800,4.061103759765625,-224.2627410888672,91.04853820800781,-50.11985778808594
1776554210504219100,4.07121923828125,-224.18115234375,91.43638610839844,-50.40330505371094
1776554210514335000,4.0813349609375,-223.25181579589844,91.08409118652344,-50.41270446777344
1776554210524450000,4.091449951171875,-222.74688720703125,90.90504455566406,-51.01519775390625
1776554210534564900,4.10156494140625,-222.7533416748047,90.85786437988281,-51.55012512207031
1776554210544680000,4.111679931640625,-222.51963806152344,90.63163757324219,-51.51679992675781
1776554210554795000,4.121794921875,-222.58082580566406,90.36151123046875,-51.57489013671875
1776554210564909000,4.131908935546875,-221.93894958496094,90.17781066894531,-51.19499206542969
1776554210575023900,4.14202392578125,-222.33224487304688,90.32135009765625,-51.514007568359375
1776554210585138200,4.15213818359375,-222.51065063476562,90.10696411132812,-51.57344055175781
1776554210595254000,4.16225390625,-222.0711669921875,89.88685607910156,-51.88212585449219
1776554210605368600,4.17236865234375,-221.87852478027344,89.68013000488281,-51.968505859375
1776554210615483000,4.18248291015625,-221.7944793701172,89.25038146972656,-51.98143005371094
1776554210625596700,4.1925966796875,-221.48147583007812,88.92495727539062,-51.64274597167969
1776554210635710700,4.202710693359375,-221.67434692382812,88.40519714355469,-51.256103515625
1776554210645825500,4.212825439453125,-222.28216552734375,88.51780700683594,-51.137847900390625
1776554210655940900,4.22294091796875,-221.88018798828125,88.33151245117188,-50.7791748046875
1776554210666055700,4.2330556640625,-222.0927734375,87.97080993652344,-50.9637451171875
1776554210676171800,4.243171875,-221.84776306152344,87.54927062988281,-50.92414855957031
1776554210686287600,4.25328759765625,-221.8219757080078,87.78146362304688,-50.99554443359375
1776554210696403700,4.26340380859375,-221.90170288085938,87.72921752929688,-51.003570556640625
1776554210706519800,4.273519775390625,-221.89801025390625,87.73301696777344,-50.74505615234375
1776554210716634600,4.283634521484375,-222.4266357421875,87.72431945800781,-50.79698181152344
1776554210726749700,4.293749755859375,-222.56639099121094,87.99223327636719,-50.840118408203125
1776554210736865800,4.30386572265625,-222.82237243652344,88.25778198242188,-50.842315673828125
1776554210746980600,4.313980712890625,-223.03799438476562,88.13031005859375,-50.75114440917969
1776554210757094700,4.3240947265625,-223.11605834960938,88.121826171875,-50.75431823730469
1776554210767209700,4.334209716796875,-223.0418701171875,88.38066101074219,-50.71014404296875
1776554210777324800,4.34432470703125,-223.36643981933594,88.00799560546875,-50.5205078125
1776554210787439900,4.35443994140625,-223.25909423828125,87.85847473144531,-50.309295654296875
1776554210797554700,4.3645546875,-223.10086059570312,88.21795654296875,-50.067840576171875
1776554210807669800,4.374669677734375,-223.09091186523438,87.96722412109375,-50.34989929199219
1776554210817783800,4.38478369140625,-223.75694274902344,87.88496398925781,-50.17866516113281
1776554210827898600,4.394898681640625,-223.5209197998047,87.76171875,-50.15765380859375
1776554210838014700,4.4050146484375,-223.90432739257812,87.94050598144531,-49.75486755371094
1776554210848130800,4.415130859375,-224.19918823242188,88.22108459472656,-49.73439025878906
1776554210858247000,4.425246826171875,-224.23275756835938,87.98051452636719,-49.62406921386719
1776554210868360700,4.435360595703125,-224.44252014160156,87.89752197265625,-49.54400634765625
1776554210878474800,4.445474853515625,-224.87620544433594,87.87840270996094,-49.4619140625
1776554210888589600,4.455589599609375,-224.23004150390625,87.8387451171875,-49.19258117675781
1776554210898704600,4.46570458984375,-224.5896453857422,87.54740905761719,-48.94120788574219
1776554210908819700,4.47581982421875,-225.26861572265625,86.79356384277344,-48.28179931640625
1776554210918933500,4.48593359375,-226.15943908691406,86.56819152832031,-47.53569030761719
1776554210929048800,4.496048828125,-226.8623809814453,85.93711853027344,-47.11968994140625
1776554210939161900,4.506161865234375,-226.87057495117188,85.69798278808594,-46.59837341308594
1776554210949275600,4.516275634765625,-227.72024536132812,85.41078186035156,-46.37738037109375
1776554210959390700,4.526390625,-227.82687377929688,85.10728454589844,-46.075897216796875
1776554210969504800,4.5365048828125,-228.3284454345703,84.9984130859375,-45.700592041015625
1776554210979620600,4.54662060546875,-229.109130859375,84.98037719726562,-45.168731689453125
1776554210989737700,4.55673779296875,-229.5002899169922,84.875,-44.806365966796875
1776554210999852500,4.5668525390625,-230.25706481933594,84.85153198242188,-44.76800537109375
1776554211009967900,4.5769677734375,-230.45361328125,85.02326965332031,-44.54444885253906
1776554211020083700,4.587083740234375,-230.85975646972656,84.8839111328125,-44.37794494628906
1776554211030199800,4.59719970703125,-230.94891357421875,84.81842041015625,-44.14753723144531
1776554211040314600,4.607314697265625,-230.34132385253906,84.6600341796875,-43.959320068359375
1776554211050431700,4.617431640625,-230.28382873535156,84.4852294921875,-43.98573303222656
1776554211060547800,4.6275478515625,-229.5454559326172,83.90440368652344,-44.145538330078125
1776554211070663700,4.63766357421875,-228.75148010253906,83.25262451171875,-44.22785949707031
1776554211080778800,4.64777880859375,-227.8888702392578,82.43553161621094,-44.24378967285156
1776554211090893800,4.657893798828125,-227.34739685058594,81.7470703125,-44.42132568359375
1776554211101010000,4.668010009765625,-226.6951141357422,80.52864074707031,-44.6650390625
1776554211111127600,4.67812744140625,-226.04611206054688,79.41580200195312,-44.684814453125
1776554211121244700,4.68824462890625,-225.06948852539062,78.20738220214844,-44.72328186035156
1776554211131360800,4.69836083984375,-224.86241149902344,77.72227478027344,-44.63134765625
1776554211141476600,4.7084765625,-224.69223022460938,77.33732604980469,-44.894561767578125
1776554211151592700,4.7185927734375,-225.01023864746094,76.769287109375,-44.757049560546875
1776554211161708800,4.728708740234375,-224.78369140625,76.54161071777344,-44.95732116699219
1776554211171825700,4.73882568359375,-224.6861114501953,76.73616027832031,-45.03761291503906
1776554211181941800,4.748941650390625,-224.55694580078125,76.41078186035156,-44.813018798828125
1776554211192059000,4.759058837890625,-224.795166015625,76.6064453125,-44.93006896972656
1776554211202175700,4.76917578125,-225.03700256347656,76.57589721679688,-44.94664001464844
1776554211212291800,4.779291748046875,-225.0017547607422,76.352783203125,-44.88221740722656
1776554211222408000,4.789407958984375,-224.9234619140625,76.50143432617188,-44.9847412109375
1776554211232524500,4.799524658203125,-224.64808654785156,76.68914794921875,-44.92454528808594
1776554211242641700,4.8096416015625,-224.34461975097656,76.76957702636719,-45.55604553222656
1776554211252755700,4.819755615234375,-223.9148712158203,77.12306213378906,-45.88287353515625
1776554211262871800,4.829871826171875,-223.92433166503906,76.9874267578125,-45.72898864746094
1776554211272988000,4.83998779296875,-223.36631774902344,77.11209106445312,-45.64414978027344
1776554211283103700,4.850103759765625,-223.64822387695312,77.08393859863281,-45.92633056640625
1776554211293219800,4.8602197265625,-223.45553588867188,77.05917358398438,-45.82133483886719
1776554211303335700,4.870335693359375,-223.47901916503906,76.87608337402344,-45.59129333496094
1776554211313450800,4.88045068359375,-223.66058349609375,77.12226867675781,-45.702117919921875
1776554211323566600,4.890566650390625,-224.0108184814453,77.08474731445312,-45.57591247558594
1776554211333682700,4.9006826171875,-223.7942657470703,77.28887939453125,-45.58702087402344
1776554211343798500,4.910798583984375,-224.1245574951172,77.33500671386719,-45.692474365234375
1776554211353914600,4.92091455078125,-223.6376190185547,77.55549621582031,-45.814208984375
1776554211364029700,4.93102978515625,-224.1695556640625,77.59988403320312,-45.72941589355469
1776554211374145800,4.941145751953125,-223.81222534179688,77.50273132324219,-45.52101135253906
1776554211384260600,4.951260498046875,-223.83978271484375,77.62565612792969,-45.51741027832031
1776554211394375700,4.961375732421875,-224.24716186523438,78.00630187988281,-45.497833251953125
1776554211404489700,4.97148974609375,-223.90162658691406,78.14176940917969,-45.39521789550781
1776554211414603800,4.981603759765625,-224.3276824951172,78.16983032226562,-45.089141845703125
1776554211424716800,4.991716796875,-224.01536560058594,78.54646301269531,-45.23606872558594
1776554211434833000,5.0018330078125,-224.4403076171875,78.46968078613281,-45.1806640625
1776554211444946700,5.01194677734375,-224.3884735107422,78.53240966796875,-45.116546630859375
1776554211455061800,5.022061767578125,-224.2508544921875,78.62721252441406,-45.037811279296875
1776554211465176800,5.0321767578125,-224.337890625,78.642578125,-44.824371337890625
1776554211475291600,5.042291748046875,-224.2969207763672,78.91781616210938,-45.21284484863281
1776554211485407700,5.05240771484375,-224.4058380126953,79.26300048828125,-45.14949035644531
1776554211495522800,5.062522705078125,-224.51974487304688,79.06417846679688,-45.02850341796875
1776554211505637600,5.0726376953125,-224.5188751220703,79.5584716796875,-45.024932861328125
1776554211515752700,5.082752685546875,-224.55694580078125,79.79939270019531,-45.089080810546875
1776554211525865700,5.09286572265625,-224.28924560546875,79.688232421875,-44.87481689453125
1776554211535981600,5.102981689453125,-224.3198699951172,79.87799072265625,-44.8602294921875
1776554211546097000,5.113096923828125,-224.54183959960938,80.09541320800781,-44.805694580078125
1776554211556211700,5.123211669921875,-224.5107879638672,80.43435668945312,-44.82623291015625
1776554211566326500,5.133326416015625,-224.42840576171875,80.6072998046875,-44.90733337402344
1776554211576440800,5.14344091796875,-224.78128051757812,80.52964782714844,-44.74928283691406
1776554211586555600,5.1535556640625,-224.81080627441406,80.61434936523438,-44.75865173339844
1776554211596670700,5.163670654296875,-224.70860290527344,80.76898193359375,-44.8006591796875
1776554211606785800,5.173785888671875,-224.32920837402344,80.89329528808594,-44.354583740234375
1776554211616900900,5.18390087890625,-224.9152374267578,81.11415100097656,-44.69731140136719
1776554211627016000,5.194015869140625,-224.9800262451172,81.1339111328125,-44.78962707519531
1776554211637129700,5.204129638671875,-224.6575164794922,81.15840148925781,-44.74372863769531
1776554211647244000,5.214244140625,-224.68707275390625,81.15641784667969,-44.76286315917969
1776554211657356800,5.224356689453125,-224.71295166015625,81.26034545898438,-44.82514953613281
1776554211667470800,5.234470947265625,-224.88983154296875,81.41572570800781,-44.73805236816406
1776554211677584000,5.244583984375,-224.3286895751953,81.53839111328125,-44.71626281738281
1776554211687698000,5.254697998046875,-224.6735382080078,81.5089111328125,-44.81663513183594
1776554211697812000,5.26481201171875,-224.41380310058594,81.69502258300781,-44.94886779785156
1776554211707925800,5.27492578125,-224.35223388671875,81.62077331542969,-45.08222961425781
1776554211718041900,5.285041748046875,-224.1575469970703,81.38519287109375,-44.94639587402344
1776554211728157700,5.29515771484375,-224.3520965576172,81.60188293457031,-45.11933898925781
1776554211738273800,5.305273681640625,-224.2635040283203,81.66862487792969,-45.16123962402344
1776554211748390000,5.315389892578125,-223.83958435058594,81.72169494628906,-45.0550537109375
1776554211758505700,5.325505615234375,-224.01327514648438,81.92265319824219,-45.55891418457031
1776554211768621800,5.335621826171875,-223.7873077392578,81.98603820800781,-45.486846923828125
1776554211778737700,5.345737548828125,-223.70974731445312,82.30335998535156,-45.77021789550781
1776554211788853800,5.355853759765625,-223.54270935058594,82.08924865722656,-45.62689208984375
1776554211798969900,5.365969970703125,-223.42977905273438,82.041748046875,-45.704498291015625
1776554211809086700,5.376086669921875,-223.0795135498047,82.08413696289062,-45.78758239746094
1776554211819203800,5.386203857421875,-222.96759033203125,82.13134765625,-46.00831604003906
1776554211829320000,5.39631982421875,-223.21739196777344,82.10324096679688,-46.135498046875
1776554211839434800,5.406434814453125,-222.9748992919922,82.3284912109375,-46.16859436035156
1776554211849549800,5.4165498046875,-223.0528564453125,82.1669921875,-46.22552490234375
1776554211859664000,5.426663818359375,-222.79901123046875,82.30558776855469,-46.474639892578125
1776554211869779700,5.43677978515625,-222.1588897705078,82.41072082519531,-46.407958984375
1776554211879895800,5.446895751953125,-222.31655883789062,82.06600952148438,-46.487091064453125
1776554211890012000,5.457011962890625,-221.97781372070312,82.23213195800781,-46.406158447265625
1776554211900127000,5.467126953125,-221.98387145996094,82.2579345703125,-46.721893310546875
1776554211910241800,5.47724169921875,-221.8176727294922,82.24124145507812,-47.00410461425781
1776554211920356900,5.48735693359375,-222.05616760253906,82.39857482910156,-47.01051330566406
1776554211930473000,5.497472900390625,-221.87179565429688,82.32447814941406,-47.0711669921875
1776554211940589000,5.507589111328125,-221.55828857421875,82.62368774414062,-47.25341796875
1776554211950705700,5.51770556640625,-221.4852752685547,82.28868103027344,-47.4166259765625
1776554211960821000,5.527821044921875,-221.17393493652344,82.55523681640625,-47.85310363769531
1776554211970937900,5.537937744140625,-221.42605590820312,82.205322265625,-47.81028747558594
1776554211981054000,5.548053955078125,-221.0052032470703,82.1773681640625,-48.12828063964844
1776554211991170000,5.558170166015625,-220.68283081054688,82.0826416015625,-48.215301513671875
1776554212001286000,5.568285888671875,-220.42015075683594,82.142822265625,-48.4615478515625
1776554212011402000,5.578402099609375,-220.18911743164062,81.91036987304688,-48.77897644042969
1776554212021518800,5.588518798828125,-220.15975952148438,82.01240539550781,-48.74168395996094
1776554212031635700,5.5986357421875,-219.1646728515625,81.94619750976562,-49.04142761230469
1776554212041750800,5.608750732421875,-219.613037109375,81.66647338867188,-49.24053955078125
1776554212051865900,5.618865966796875,-219.5107421875,81.31056213378906,-49.17396545410156
1776554212061981000,5.62898095703125,-219.3688507080078,81.55819702148438,-49.46281433105469
1776554212072095700,5.639095703125,-219.29827880859375,81.4317626953125,-49.57159423828125
1776554212082212000,5.649212158203125,-219.21157836914062,81.0467529296875,-49.465972900390625
1776554212092328000,5.659327880859375,-218.88604736328125,81.04679870605469,-49.68675231933594
1776554212102444000,5.669444091796875,-219.06617736816406,80.80709838867188,-49.64460754394531
1776554212112558800,5.679558837890625,-218.99720764160156,80.74298095703125,-49.50798034667969
1776554212122673700,5.689673583984375,-218.9122772216797,80.98794555664062,-49.595733642578125
1776554212132789000,5.6997890625,-219.0733184814453,80.5908203125,-49.489654541015625
1776554212142903800,5.70990380859375,-218.86183166503906,81.01426696777344,-49.74891662597656
1776554212153020000,5.72002001953125,-219.06199645996094,80.62925720214844,-49.69865417480469
1776554212163134000,5.730134033203125,-219.3212127685547,80.53919982910156,-49.48701477050781
1776554212173248800,5.740248779296875,-218.82080078125,80.42198181152344,-49.38671875
1776554212183363800,5.75036376953125,-219.45213317871094,80.49580383300781,-49.48353576660156
1776554212193479000,5.76047900390625,-219.49972534179688,80.27073669433594,-49.493743896484375
1776554212203595000,5.770594970703125,-219.3657989501953,80.4608154296875,-49.3192138671875
1776554212213708800,5.780708740234375,-219.66921997070312,80.34608459472656,-49.40287780761719
1776554212223822800,5.79082275390625,-219.28738403320312,80.64031982421875,-49.11961364746094
1776554212233937700,5.800937744140625,-219.55519104003906,80.44969177246094,-49.142059326171875
1776554212244053000,5.811052978515625,-219.81134033203125,80.38397216796875,-49.57817077636719
1776554212254167800,5.821167724609375,-219.57992553710938,80.39176940917969,-49.66534423828125
1776554212264285000,5.831284912109375,-219.58538818359375,80.44589233398438,-49.77540588378906
1776554212274401800,5.84140185546875,-219.1178436279297,80.63035583496094,-49.82328796386719
1776554212284518000,5.851517822265625,-219.24746704101562,80.64701843261719,-50.01353454589844
1776554212294633000,5.861633056640625,-219.31044006347656,80.583984375,-50.09257507324219
1776554212304747800,5.871747802734375,-219.02490234375,80.91508483886719,-50.14097595214844
1776554212314861800,5.88186181640625,-218.90296936035156,80.65603637695312,-50.28672790527344
1776554212324977000,5.891976806640625,-218.76194763183594,80.7225341796875,-50.4434814453125
1776554212335091700,5.902091796875,-218.76641845703125,80.86610412597656,-50.6578369140625
1776554212345207000,5.91220703125,-218.82379150390625,80.64326477050781,-50.59934997558594
1776554212355321900,5.92232177734375,-218.7936248779297,80.83258056640625,-50.606201171875
1776554212365436700,5.932436767578125,-218.11756896972656,80.78208923339844,-50.36659240722656
1776554212375552000,5.942552001953125,-218.02734375,80.91668701171875,-50.77264404296875
1776554212385666800,5.952666748046875,-218.43247985839844,80.77784729003906,-50.727508544921875
1776554212395781600,5.96278173828125,-217.94381713867188,80.75489807128906,-50.76194763183594
1776554212405897000,5.97289697265625,-218.00074768066406,80.75619506835938,-50.69486999511719
1776554212416011800,5.98301171875,-218.14279174804688,80.62074279785156,-50.655426025390625
1776554212426126800,5.993126953125,-218.4000701904297,80.50712585449219,-50.76072692871094
1776554212436242000,6.003241943359375,-218.18240356445312,80.47407531738281,-50.737060546875
1776554212446355700,6.013355712890625,-218.14332580566406,80.58152770996094,-50.73063659667969
1776554212456471800,6.023471923828125,-218.30067443847656,80.42668151855469,-50.68876647949219
1776554212466588000,6.033587890625,-218.45742797851562,80.373291015625,-50.721649169921875
1776554212476704000,6.0437041015625,-218.11927795410156,80.21586608886719,-50.85649108886719
1776554212486819800,6.05381982421875,-218.29803466796875,80.14208984375,-50.872039794921875
1776554212496936000,6.06393603515625,-217.8828125,80.0697021484375,-51.11836242675781
1776554212507052000,6.074052001953125,-217.66026306152344,79.74957275390625,-51.04301452636719
1776554212517166800,6.084166748046875,-217.42323303222656,79.53755187988281,-51.50932312011719
1776554212527281000,6.094281005859375,-217.3277130126953,79.43595886230469,-51.468353271484375
1776554212537394700,6.104394775390625,-217.57933044433594,79.38583374023438,-51.37358093261719
1776554212547510000,6.114510009765625,-218.14602661132812,79.12721252441406,-50.96156311035156
1776554212557625900,6.1246259765625,-217.8988494873047,79.17567443847656,-50.678253173828125
1776554212567741000,6.134740966796875,-218.26321411132812,79.15956115722656,-50.685028076171875
1776554212577856800,6.144856689453125,-218.34617614746094,79.27806091308594,-50.494140625
1776554212587972900,6.154972900390625,-218.4102783203125,79.63006591796875,-50.404205322265625
1776554212598087700,6.165087646484375,-218.5419158935547,79.52667236328125,-50.28248596191406
1776554212608203000,6.175203125,-218.84837341308594,79.74160766601562,-50.25724792480469
1776554212618317800,6.18531787109375,-218.84376525878906,79.6036376953125,-50.11177062988281
1776554212628432000,6.195431884765625,-219.17953491210938,79.56060791015625,-49.986114501953125
1776554212638547000,6.205546875,-219.04345703125,79.58493041992188,-50.01322937011719
1776554212648662800,6.215662841796875,-218.75071716308594,79.76118469238281,-49.531219482421875
1776554212658776800,6.22577685546875,-219.00340270996094,79.72409057617188,-49.50328063964844
1776554212668892000,6.235891845703125,-219.0720672607422,79.90745544433594,-49.44956970214844
1776554212679006700,6.2460068359375,-219.00270080566406,80.04011535644531,-49.28977966308594
1776554212689120800,6.256120849609375,-219.54910278320312,80.28652954101562,-49.23789978027344
1776554212699235800,6.26623583984375,-219.20111083984375,80.06135559082031,-49.12690734863281
1776554212709350000,6.276349853515625,-219.4582061767578,80.30192565917969,-49.39540100097656
1776554212719464700,6.286464599609375,-219.27207946777344,80.35476684570312,-49.36772155761719
1776554212729580000,6.296580078125,-219.14248657226562,80.95326232910156,-49.43302917480469
1776554212739695900,6.30669580078125,-219.31338500976562,81.12809753417969,-49.52494812011719
1776554212749812000,6.31681201171875,-219.5543670654297,81.28218078613281,-49.61231994628906
1776554212759927800,6.326927734375,-219.29705810546875,81.272216796875,-49.61610412597656
1776554212770043000,6.33704296875,-219.38601684570312,81.27418518066406,-49.71159362792969
1776554212780160000,6.347159912109375,-219.5667724609375,81.12062072753906,-49.708770751953125
1776554212790276900,6.35727685546875,-219.39822387695312,81.29652404785156,-49.75160217285156
1776554212800393700,6.367393798828125,-219.5747833251953,81.26322937011719,-49.75567626953125
1776554212810509800,6.377509765625,-219.77830505371094,81.39666748046875,-49.64860534667969
1776554212820627000,6.387626953125,-219.79443359375,81.41888427734375,-49.566650390625
1776554212830741800,6.39774169921875,-219.61846923828125,81.40481567382812,-49.56181335449219
1776554212840857900,6.40785791015625,-219.4058837890625,81.49282836914062,-49.28025817871094
1776554212850974000,6.417973876953125,-219.9224395751953,81.57179260253906,-49.38664245605469
1776554212861088800,6.4280888671875,-219.77593994140625,81.49703979492188,-49.626220703125
1776554212871204900,6.438204833984375,-219.70204162597656,81.60557556152344,-49.41290283203125
1776554212881321000,6.448321044921875,-219.83718872070312,81.50515747070312,-49.429595947265625
1776554212891436800,6.458436767578125,-219.57997131347656,81.70834350585938,-49.557891845703125
1776554212901551900,6.4685517578125,-219.8623046875,81.89105224609375,-49.60444641113281
1776554212911667700,6.478667724609375,-219.6695556640625,81.8485107421875,-49.53932189941406
1776554212921783000,6.488782958984375,-219.7179412841797,81.91375732421875,-49.672760009765625
1776554212931897900,6.49889794921875,-219.49020385742188,81.86766052246094,-49.519439697265625
1776554212942013700,6.509013671875,-219.7061309814453,81.87300109863281,-49.51605224609375
1776554212952128000,6.5191279296875,-220.00755310058594,82.04008483886719,-49.680816650390625
1776554212962242800,6.529242919921875,-219.68125915527344,82.03364562988281,-49.64717102050781
1776554212972357600,6.539357666015625,-219.8477325439453,81.89260864257812,-49.435546875
1776554212982473700,6.5494736328125,-219.8458251953125,81.82615661621094,-49.26557922363281
1776554212992590800,6.5595908203125,-219.94699096679688,81.72685241699219,-49.6026611328125
1776554213002706000,6.569705810546875,-219.86070251464844,81.77947998046875,-49.66337585449219
1776554213012822000,6.579822021484375,-219.78111267089844,81.63304138183594,-49.612701416015625
1776554213022937900,6.589937744140625,-219.90643310546875,81.8448486328125,-49.77882385253906
1776554213033054000,6.600053955078125,-219.4179229736328,81.99295043945312,-49.701507568359375
1776554213043168800,6.610168701171875,-219.8781280517578,81.65478515625,-49.79249572753906
1776554213053283800,6.620283935546875,-219.41818237304688,81.87367248535156,-49.74952697753906
1776554213063398000,6.63039794921875,-219.54391479492188,81.79472351074219,-49.83143615722656
1776554213073512700,6.6405126953125,-219.47555541992188,82.02290344238281,-49.68829345703125
1776554213083626800,6.650626708984375,-219.44760131835938,81.85528564453125,-49.90708923339844
1776554213093741800,6.660741943359375,-219.39012145996094,81.64149475097656,-49.816741943359375
1776554213103857700,6.670857666015625,-219.4606475830078,81.74427795410156,-49.924957275390625
1776554213113973000,6.680972900390625,-219.57460021972656,81.71565246582031,-49.94718933105469
1776554213124088800,6.6910888671875,-219.21302795410156,81.55027770996094,-49.41966247558594
1776554213134205000,6.701204833984375,-219.6300506591797,81.59144592285156,-49.80625915527344
1776554213144321000,6.711321044921875,-219.5489959716797,81.30867004394531,-49.79313659667969
1776554213154435800,6.721435791015625,-219.5289764404297,81.49501037597656,-49.63629150390625
1776554213164552000,6.731552001953125,-219.41175842285156,81.200439453125,-49.677947998046875
1776554213174668800,6.741668701171875,-219.2299346923828,81.41368103027344,-49.52777099609375
1776554213184785000,6.751784912109375,-219.5714111328125,81.30903625488281,-49.60942077636719
1776554213194900700,6.761900634765625,-219.536865234375,81.30894470214844,-49.633544921875
1776554213205015800,6.772015869140625,-219.68251037597656,81.72161865234375,-49.65126037597656
1776554213215129900,6.7821298828125,-219.74777221679688,81.68705749511719,-49.676910400390625
1776554213225244700,6.79224462890625,-219.5004119873047,81.67594909667969,-49.73565673828125
1776554213235360800,6.80236083984375,-219.0247802734375,82.22721862792969,-49.883575439453125
1776554213245475800,6.812475830078125,-219.64561462402344,81.98846435546875,-49.87040710449219
1776554213255591000,6.8225908203125,-219.35720825195312,81.94081115722656,-49.9085693359375
1776554213265706800,6.832706787109375,-219.2504425048828,82.18321228027344,-49.63874816894531
1776554213275821800,6.84282177734375,-219.6788787841797,82.1397705078125,-50.11085510253906
1776554213285938700,6.852938720703125,-219.6077423095703,82.20161437988281,-49.93232727050781
1776554213296054800,6.8630546875,-219.58595275878906,82.63320922851562,-50.14353942871094
1776554213306169900,6.873169921875,-219.61862182617188,82.52400207519531,-50.05918884277344
1776554213316286000,6.883285888671875,-219.46673583984375,82.32301330566406,-49.817962646484375
1776554213326402000,6.893402099609375,-219.5966033935547,82.1754150390625,-49.80943298339844
1776554213336518700,6.9035185546875,-219.71217346191406,82.14414978027344,-49.72145080566406
1776554213346634800,6.913634765625,-220.0033416748047,82.30593872070312,-49.791595458984375
1776554213356750800,6.923750732421875,-219.98916625976562,82.21348571777344,-49.724945068359375
1776554213366866000,6.933865966796875,-219.91310119628906,82.35882568359375,-49.393829345703125
1776554213376982000,6.94398193359375,-220.24574279785156,82.46659851074219,-49.438873291015625
1776554213387099000,6.954098876953125,-220.14111328125,82.38160705566406,-49.45954895019531
1776554213397215000,6.964215087890625,-220.14353942871094,82.64399719238281,-49.509979248046875
1776554213407329800,6.974329833984375,-219.8684844970703,82.77238464355469,-49.47235107421875
1776554213417444900,6.98444482421875,-220.02821350097656,82.69332885742188,-49.848876953125
1776554213427560700,6.994560791015625,-220.1046142578125,82.79731750488281,-49.8594970703125
1776554213437676800,7.0046767578125,-219.9529571533203,82.73542785644531,-49.76629638671875
1776554213447793000,7.01479296875,-219.93759155273438,82.73770141601562,-50.05487060546875
1776554213457909800,7.02490966796875,-219.5149688720703,83.04792785644531,-49.960906982421875
1776554213468025900,7.03502587890625,-219.274169921875,82.96186828613281,-49.94575500488281
1776554213478141700,7.0451416015625,-219.70787048339844,82.79841613769531,-50.06062316894531
1776554213488257800,7.0552578125,-219.30426025390625,83.05931091308594,-50.20872497558594
1776554213498375000,7.065375,-219.46124267578125,82.81008911132812,-50.16383361816406
1776554213508490800,7.07549072265625,-219.6977081298828,83.03054809570312,-50.02619934082031
1776554213518605800,7.085605712890625,-219.51869201660156,82.89888000488281,-50.05780029296875
1776554213528722700,7.09572265625,-219.4036102294922,82.78965759277344,-50.14459228515625
1776554213538838000,7.105838134765625,-219.1605987548828,83.12667846679688,-50.06352233886719
1776554213548952800,7.115952880859375,-219.2601318359375,83.15850830078125,-50.15919494628906
1776554213559068000,7.12606787109375,-219.28427124023438,83.13839721679688,-50.30989074707031
1776554213569182000,7.136181884765625,-219.60276794433594,83.07235717773438,-50.232513427734375
1776554213579296800,7.146296875,-218.86900329589844,83.03587341308594,-50.32319641113281
1776554213589412000,7.156412109375,-219.1304473876953,83.216796875,-50.2216796875
1776554213599528000,7.16652783203125,-219.17730712890625,83.04280090332031,-50.146331787109375
1776554213609642500,7.176642578125,-219.1302490234375,83.21965026855469,-50.284149169921875
1776554213619756800,7.1867568359375,-219.0261688232422,83.23583984375,-50.35328674316406
1776554213629872600,7.19687255859375,-219.3217010498047,83.38883972167969,-50.322845458984375
1776554213639987700,7.20698779296875,-219.09686279296875,83.35514831542969,-50.27105712890625
1776554213650102500,7.2171025390625,-219.2178192138672,83.29946899414062,-50.30177307128906
1776554213660217600,7.227217529296875,-219.06640625,83.54615783691406,-50.3609619140625
1776554213670331600,7.23733154296875,-219.44989013671875,83.138671875,-50.31675720214844
1776554213680446700,7.24744677734375,-219.23284912109375,83.44886779785156,-50.13983154296875
1776554213690561500,7.2575615234375,-218.78915405273438,83.57978820800781,-50.23783874511719
1776554213700675800,7.26767578125,-219.2115936279297,83.57649230957031,-50.23863220214844
1776554213710790700,7.277790771484375,-219.19894409179688,83.38941955566406,-50.37493896484375
1776554213720905500,7.287905517578125,-219.02593994140625,83.28684997558594,-50.2427978515625
1776554213731020800,7.298020751953125,-219.14962768554688,83.48471069335938,-50.270751953125
1776554213741136600,7.30813671875,-219.2016143798828,83.69609069824219,-50.21368408203125
1776554213751251700,7.318251708984375,-218.8963165283203,83.8006591796875,-50.44927978515625
1776554213761367600,7.328367431640625,-218.92303466796875,83.36854553222656,-50.28971862792969
1776554213771483600,7.338483642578125,-218.78683471679688,83.67143249511719,-50.39497375488281
1776554213781598500,7.348598388671875,-219.01222229003906,83.58285522460938,-50.416778564453125
1776554213791712500,7.35871240234375,-218.9039306640625,83.72471618652344,-50.56044006347656
1776554213801828600,7.36882861328125,-218.91448974609375,83.94862365722656,-50.4150390625
1776554213811944700,7.37894482421875,-219.0203399658203,83.75320434570312,-50.37638854980469
1776554213822060500,7.389060546875,-218.6512908935547,83.76513671875,-50.316436767578125
1776554213832177700,7.399177734375,-218.49607849121094,83.89697265625,-50.373382568359375
1776554213842293500,7.40929345703125,-218.5171661376953,83.71009826660156,-50.54045104980469
1776554213852408600,7.41940869140625,-218.99810791015625,83.84524536132812,-50.33662414550781
1776554213862523600,7.429523681640625,-218.58041381835938,83.73922729492188,-50.40678405761719
1776554213872638700,7.439638671875,-218.9842529296875,83.9903564453125,-50.51507568359375
1776554213882753500,7.44975341796875,-218.9604034423828,83.78416442871094,-50.284088134765625
1776554213892868600,7.45986865234375,-218.80874633789062,83.62890625,-50.55183410644531
1776554213902983700,7.469983642578125,-218.96485900878906,83.6165771484375,-50.49870300292969
1776554213913099500,7.480099609375,-218.85971069335938,83.72322082519531,-50.49574279785156
1776554213923215600,7.490215576171875,-218.9638671875,83.87457275390625,-50.523681640625
1776554213933331500,7.50033154296875,-218.8137664794922,83.8375244140625,-50.40476989746094
1776554213943448600,7.510448486328125,-218.50845336914062,83.66844177246094,-50.821014404296875
1776554213953564700,7.520564697265625,-218.78036499023438,83.57582092285156,-50.5958251953125
1776554213963680500,7.530680419921875,-218.3155975341797,83.57049560546875,-50.558685302734375
1776554213973797600,7.540797607421875,-218.51187133789062,83.65609741210938,-50.71369934082031
1776554213983913700,7.550913818359375,-218.55682373046875,83.47898864746094,-50.729217529296875
1776554213994030600,7.561030517578125,-217.9881134033203,83.56291198730469,-50.835723876953125
1776554214004147500,7.5711474609375,-218.0620880126953,83.48866271972656,-50.74571228027344
1776554214014263600,7.581263671875,-218.44947814941406,83.60585021972656,-50.6436767578125
1776554214024379400,7.59137939453125,-218.24844360351562,83.36784362792969,-50.4442138671875
1776554214034495500,7.60149560546875,-218.43612670898438,83.36953735351562,-50.639312744140625
1776554214044611600,7.611611572265625,-218.34657287597656,83.42384338378906,-50.76985168457031
1776554214054728400,7.621728515625,-217.95529174804688,83.11184692382812,-50.585540771484375
1776554214064844500,7.631844482421875,-218.22799682617188,83.16004943847656,-50.713958740234375
1776554214074961700,7.641961669921875,-218.1044158935547,83.41818237304688,-50.48744201660156
1776554214085076500,7.652076416015625,-218.662841796875,83.22103881835938,-50.64068603515625
1776554214095191800,7.66219189453125,-218.43434143066406,83.24403381347656,-50.79646301269531
1776554214105308400,7.672308349609375,-218.03341674804688,83.18304443359375,-50.61390686035156
1776554214115424500,7.682424560546875,-218.5338897705078,83.07872009277344,-50.73408508300781
1776554214125540600,7.69254052734375,-218.5767364501953,83.36021423339844,-50.872100830078125
1776554214135656700,7.70265673828125,-218.84954833984375,83.19024658203125,-50.712554931640625
1776554214145772800,7.712772705078125,-218.7021026611328,83.28488159179688,-50.837005615234375
1776554214155888600,7.722888671875,-218.2321319580078,83.46783447265625,-50.911651611328125
1776554214166004700,7.733004638671875,-218.68312072753906,83.43814086914062,-50.53948974609375
1776554214176121600,7.74312158203125,-218.10971069335938,83.4044189453125,-50.87995910644531
1776554214186237700,7.75323779296875,-218.435302734375,83.31672668457031,-50.66114807128906
1776554214196352800,7.763352783203125,-218.55882263183594,83.67706298828125,-51.00306701660156
1776554214206468600,7.773468505859375,-218.5467987060547,83.61085510253906,-50.837005615234375
1776554214216583400,7.78358349609375,-218.46258544921875,83.57305908203125,-50.724578857421875
1776554214226700500,7.793700439453125,-218.18312072753906,83.60406494140625,-50.8316650390625
1776554214236815600,7.803815673828125,-218.42697143554688,83.828369140625,-50.804290771484375
1776554214246931500,7.813931396484375,-218.63720703125,83.78152465820312,-50.86579895019531
1776554214257047600,7.824047607421875,-218.72381591796875,83.91403198242188,-50.79594421386719
1776554214267162600,7.83416259765625,-218.69424438476562,83.81547546386719,-50.85420227050781
1776554214277278700,7.84427880859375,-218.62942504882812,83.87039184570312,-50.709014892578125
1776554214287393500,7.8543935546875,-218.64637756347656,83.97196960449219,-50.71095275878906
1776554214297509600,7.864509521484375,-218.6536865234375,84.23153686523438,-50.710906982421875
1776554214307623700,7.874623779296875,-218.62586975097656,84.01942443847656,-50.42315673828125
1776554214317738500,7.884738525390625,-218.76272583007812,84.19419860839844,-50.43296813964844
1776554214327854600,7.8948544921875,-219.1571044921875,84.30628967285156,-50.576416015625
1776554214337970400,7.904970458984375,-219.10740661621094,84.3819580078125,-50.56437683105469
1776554214348085800,7.915085693359375,-218.94068908691406,84.44338989257812,-50.42622375488281
1776554214358201600,7.92520166015625,-218.83901977539062,84.54124450683594,-50.156219482421875
1776554214368316700,7.935316650390625,-219.17210388183594,84.50619506835938,-50.37913513183594
1776554214378430700,7.9454306640625,-218.83616638183594,84.51614379882812,-50.35948181152344
1776554214388545500,7.955545654296875,-219.133544921875,84.63053894042969,-50.390380859375
1776554214398660600,7.96566064453125,-218.82034301757812,84.58004760742188,-50.42753601074219
1776554214408775700,7.975775634765625,-218.93675231933594,84.70100402832031,-50.4739990234375
1776554214418890800,7.985890869140625,-219.14212036132812,84.80796813964844,-50.41314697265625
1776554214429004500,7.996004638671875,-218.85328674316406,84.79603576660156,-50.38883972167969
1776554214439119600,8.00611962890625,-219.10430908203125,84.82798767089844,-50.4752197265625
1776554214449234700,8.016234619140626,-218.8863525390625,85.09584045410156,-50.4163818359375
1776554214459349800,8.026349853515624,-218.8445281982422,84.83860778808594,-50.53657531738281
1776554214469464600,8.036464599609374,-218.9546661376953,85.33729553222656,-50.44883728027344
1776554214479580700,8.04658056640625,-219.07151794433594,84.977294921875,-50.3792724609375
1776554214489694700,8.05669482421875,-218.75430297851562,85.25540161132812,-50.426300048828125
1776554214499808500,8.06680859375,-218.6046905517578,85.25775146484375,-50.079132080078125
1776554214509922600,8.076922607421874,-219.08592224121094,85.22621154785156,-50.40284729003906
1776554214520037600,8.08703759765625,-218.98768615722656,85.47073364257812,-50.29693603515625
1776554214530151700,8.097151611328124,-218.81036376953125,85.43112182617188,-50.21934509277344
1776554214540266500,8.1072666015625,-218.94654846191406,85.49571228027344,-50.30128479003906
1776554214550380800,8.117380859375,-218.5265350341797,85.61485290527344,-50.21504211425781
1776554214560494600,8.12749462890625,-218.77023315429688,85.98727416992188,-50.41607666015625
1776554214570609700,8.137609619140624,-218.8909149169922,85.91510009765625,-50.4005126953125
1776554214580723500,8.147723388671874,-218.69483947753906,85.76693725585938,-50.35382080078125
1776554214590837800,8.157837646484374,-218.64520263671875,86.00456237792969,-50.20933532714844
1776554214600951600,8.16795166015625,-218.7394561767578,86.06683349609375,-50.59101867675781
1776554214611067600,8.178067626953125,-218.7235107421875,85.93704223632812,-50.301727294921875
1776554214621181700,8.188181640625,-218.6735382080078,86.11766052246094,-50.43214416503906
1776554214631297500,8.198297607421875,-218.96658325195312,86.14920043945312,-50.5467529296875
1776554214641412600,8.20841259765625,-218.46180725097656,86.20021057128906,-50.40287780761719
1776554214651528700,8.21852880859375,-218.71115112304688,86.42648315429688,-50.410186767578125
1776554214661642500,8.228642578125,-218.4633331298828,86.42286682128906,-50.57142639160156
1776554214671757800,8.2387578125,-218.8888397216797,85.97792053222656,-50.4229736328125
1776554214681869800,8.248869873046875,-218.81698608398438,86.130615234375,-50.42449951171875
1776554214691983600,8.258983642578125,-218.58523559570312,86.27801513671875,-50.250274658203125
1776554214702096600,8.2690966796875,-218.84329223632812,86.47369384765625,-50.458740234375
1776554214712209700,8.279209716796874,-218.6439666748047,86.20465087890625,-50.51210021972656
1776554214722323700,8.28932373046875,-218.73342895507812,86.34988403320312,-50.477569580078125
1776554214732437500,8.2994375,-218.90798950195312,86.39826965332031,-50.62538146972656
1776554214742551600,8.309551513671876,-218.6382293701172,86.35643005371094,-50.54383850097656
1776554214752664600,8.31966455078125,-218.80955505371094,86.37947082519531,-50.328765869140625
1776554214762779600,8.329779541015625,-218.56626892089844,86.59223937988281,-50.60107421875
1776554214772894700,8.339894775390626,-218.53369140625,86.69273376464844,-50.54414367675781
1776554214783009800,8.350009765625,-218.69288635253906,86.60743713378906,-50.34867858886719
1776554214793123800,8.360123779296876,-218.50611877441406,86.35653686523438,-50.51936340332031
1776554214803238700,8.37023876953125,-218.55795288085938,86.63192749023438,-50.63377380371094
1776554214813353500,8.380353515625,-218.67457580566406,86.611328125,-50.557403564453125
1776554214823468800,8.39046875,-218.88099670410156,86.520751953125,-50.584747314453125
1776554214833583600,8.40058349609375,-218.5918731689453,86.44430541992188,-50.39112854003906
1776554214843697700,8.41069775390625,-218.70590209960938,86.67620849609375,-50.54325866699219
1776554214853812700,8.420812744140624,-218.36773681640625,86.61729431152344,-50.56846618652344
1776554214863927600,8.430927490234374,-218.822021484375,86.40956115722656,-50.592498779296875
1776554214874041600,8.44104150390625,-218.68402099609375,86.42088317871094,-50.52732849121094
1776554214884157700,8.45115771484375,-218.59371948242188,86.38148498535156,-50.463836669921875
1776554214894272500,8.4612724609375,-218.6834716796875,86.24195861816406,-50.63832092285156
1776554214904386800,8.47138671875,-218.7847442626953,86.64315795898438,-50.64094543457031
1776554214914501600,8.481501708984375,-218.46409606933594,86.65017700195312,-50.62910461425781
1776554214924616400,8.491616455078125,-218.44464111328125,86.58070373535156,-50.561859130859375
1776554214934731800,8.501731689453125,-217.99537658691406,86.53280639648438,-50.280609130859375
1776554214944845600,8.511845458984375,-218.65660095214844,86.39520263671875,-50.59486389160156
1776554214954959600,8.521959716796875,-218.61288452148438,86.4390869140625,-50.69732666015625
1776554214965074400,8.532074462890625,-218.66387939453125,86.44438171386719,-50.72416687011719
1776554214975188700,8.542188720703125,-218.3521728515625,86.67036437988281,-50.518951416015625
1776554214985304600,8.5523046875,-218.40626525878906,86.51885986328125,-50.88456726074219
1776554214995419600,8.562419677734376,-218.82830810546875,86.45994567871094,-50.718048095703125
1776554215005533700,8.57253369140625,-218.9028778076172,86.49349975585938,-50.69091796875
1776554215015649500,8.5826494140625,-218.26116943359375,86.48625183105469,-50.651885986328125
1776554215025764600,8.5927646484375,-218.10400390625,86.43946838378906,-50.7222900390625
1776554215035879700,8.602879638671874,-218.39218139648438,86.41532897949219,-50.76383972167969
1776554215045994800,8.612994873046874,-218.6888427734375,86.42568969726562,-50.8411865234375
1776554215056109600,8.623109619140624,-218.54031372070312,86.46073913574219,-50.81819152832031
1776554215066224600,8.633224609375,-218.51763916015625,86.45222473144531,-50.65776062011719
1776554215076339700,8.643339599609375,-218.6128692626953,86.25770568847656,-50.76605224609375
1776554215086453800,8.653453857421875,-218.4373779296875,86.18988037109375,-50.75677490234375
1776554215096567600,8.663567626953125,-218.32827758789062,86.30192565917969,-50.85667419433594
1776554215106682600,8.6736826171875,-218.40261840820312,86.34524536132812,-50.732879638671875
1776554215116798700,8.683798828125,-218.7361297607422,86.15496826171875,-50.506744384765625
1776554215126915600,8.69391552734375,-218.40435791015625,86.29013061523438,-50.700164794921875
1776554215137030700,8.70403076171875,-218.26217651367188,86.06135559082031,-50.8516845703125
1776554215147146800,8.714146728515624,-218.50587463378906,86.02275085449219,-50.71600341796875
1776554215157261600,8.724261474609374,-218.47650146484375,86.09666442871094,-50.611053466796875
1776554215167376600,8.734376708984374,-218.4629669189453,86.0645751953125,-50.61189270019531
1776554215177492700,8.74449267578125,-218.6174774169922,86.10774230957031,-50.78190612792969
1776554215187606500,8.7546064453125,-218.54653930664062,86.13333129882812,-50.59617614746094
1776554215197721600,8.7647216796875,-218.23963928222656,85.89892578125,-50.68659973144531
1776554215207835600,8.774835693359375,-218.2040557861328,86.09031677246094,-50.50776672363281
1776554215217948700,8.78494873046875,-218.37876892089844,86.05897521972656,-50.6329345703125
1776554215228062700,8.795062744140624,-218.55067443847656,85.96366882324219,-50.551849365234375
1776554215238176500,8.805176513671874,-218.6630096435547,85.91886901855469,-50.57524108886719
1776554215248290600,8.81529052734375,-218.59176635742188,85.87031555175781,-50.70152282714844
1776554215258403600,8.825403564453126,-218.22068786621094,85.80410766601562,-50.50358581542969
1776554215268518700,8.8355185546875,-218.3813018798828,85.82489013671875,-50.5360107421875
1776554215278633500,8.845633544921874,-218.4495849609375,85.53343200683594,-50.495849609375
1776554215288748800,8.855748779296874,-218.72190856933594,85.68977355957031,-50.503631591796875
1776554215298862600,8.865862548828124,-218.61595153808594,86.02561950683594,-50.53498840332031
1776554215308976600,8.8759765625,-218.24777221679688,85.51454162597656,-50.28228759765625
1776554215319091500,8.886091552734374,-218.58651733398438,85.74893188476562,-50.46405029296875
1776554215329205800,8.896205810546874,-218.39480590820312,85.745849609375,-50.582366943359375
1776554215339320600,8.906320556640624,-218.44825744628906,85.72640991210938,-50.46771240234375
1776554215349436700,8.916436767578125,-218.62255859375,85.55622863769531,-50.4134521484375
1776554215359551700,8.9265517578125,-218.75033569335938,85.51437377929688,-50.48719787597656
1776554215369666600,8.93666650390625,-218.95225524902344,85.07093811035156,-50.253875732421875
1776554215379780600,8.946780517578125,-218.74026489257812,85.16525268554688,-50.298583984375
1776554215389895700,8.956895751953125,-218.23745727539062,85.26998901367188,-50.41178894042969
1776554215400011500,8.967011474609375,-218.55335998535156,85.06025695800781,-50.0780029296875
1776554215410126600,8.977126708984375,-218.6295623779297,84.97224426269531,-50.25642395019531
1776554215420241700,8.98724169921875,-218.75340270996094,84.78976440429688,-50.209136962890625
1776554215430356700,8.997356689453126,-218.47169494628906,84.73768615722656,-50.19691467285156
1776554215440471600,9.007471435546876,-218.98324584960938,84.66641235351562,-50.20326232910156
1776554215450586600,9.017586669921876,-218.70037841796875,84.79991149902344,-50.18580627441406
1776554215460701700,9.02770166015625,-218.72213745117188,84.549560546875,-50.153228759765625
1776554215470817500,9.037817626953125,-218.80650329589844,84.67292785644531,-50.14849853515625
1776554215480933600,9.04793359375,-218.76510620117188,84.89688110351562,-50.244110107421875
1776554215491047700,9.058047607421875,-218.77854919433594,84.63290405273438,-50.435546875
1776554215501163800,9.068163818359375,-218.49755859375,84.41363525390625,-50.30999755859375
1776554215511279600,9.078279541015625,-218.7431182861328,84.44227600097656,-50.56007385253906
1776554215521394700,9.088394775390626,-218.757568359375,84.25431823730469,-50.211700439453125
1776554215531509800,9.098509765625,-218.26576232910156,84.28591918945312,-50.48626708984375
1776554215541624600,9.10862451171875,-218.51712036132812,84.25871276855469,-50.216156005859375
1776554215551739600,9.11873974609375,-218.4998016357422,84.11262512207031,-50.28594970703125
1776554215561855500,9.12885546875,-218.65077209472656,84.03648376464844,-50.155792236328125
1776554215571970800,9.138970703125,-218.97805786132812,83.98870849609375,-50.28428649902344
1776554215582085600,9.149085693359375,-219.22059631347656,83.88432312011719,-50.13938903808594
1776554215592201700,9.15920166015625,-218.7491912841797,83.86653137207031,-49.80079650878906
1776554215602317600,9.169317626953125,-219.41590881347656,83.78291320800781,-49.79168701171875
1776554215612439000,9.17943896484375,-219.70994567871094,83.71766662597656,-49.86491394042969
1776554215622555100,9.18955517578125,-219.2022247314453,83.67562866210938,-49.78382873535156
1776554215632672000,9.199672119140626,-219.66452026367188,83.51626586914062,-49.53755187988281
1776554215642788000,9.2097880859375,-219.49497985839844,83.43833923339844,-49.632049560546875
1776554215652903200,9.219903076171875,-219.8697509765625,83.46827697753906,-49.71748352050781
1776554215663020000,9.23002001953125,-219.8032684326172,83.45379638671875,-49.57295227050781
1776554215673135000,9.240135009765625,-219.70767211914062,83.41502380371094,-49.709442138671875
1776554215683251200,9.250251220703126,-219.8733673095703,83.45831298828125,-49.54325866699219
1776554215693367000,9.260366943359376,-219.6580047607422,83.40512084960938,-49.55876159667969
1776554215703483100,9.270483154296874,-219.65574645996094,83.44761657714844,-49.58734130859375
1776554215713599200,9.28059912109375,-219.88079833984375,83.45405578613281,-49.58148193359375
1776554215723715000,9.290715087890625,-219.7962646484375,83.51547241210938,-49.606781005859375
1776554215733830100,9.300830078125,-219.78952026367188,83.25935363769531,-49.24497985839844
1776554215743945200,9.3109453125,-219.6717529296875,83.1175537109375,-49.44148254394531
1776554215754059000,9.32105908203125,-220.02073669433594,83.39532470703125,-49.53010559082031
1776554215764174300,9.33117431640625,-220.209228515625,83.06028747558594,-49.47953796386719
1776554215774289200,9.3412890625,-220.1570281982422,83.06278991699219,-49.467559814453125
1776554215784403200,9.3514033203125,-219.90687561035156,83.38331604003906,-49.510284423828125
1776554215794519300,9.361519287109376,-220.2589111328125,83.14990234375,-49.495452880859375
1776554215804634000,9.371634033203126,-220.41531372070312,82.87232971191406,-49.26332092285156
1776554215814748200,9.381748046875,-220.19561767578125,83.25355529785156,-49.39463806152344
1776554215824862000,9.391862060546876,-219.9821319580078,82.91021728515625,-49.070892333984375
1776554215834976300,9.401976318359376,-220.38156127929688,82.91047668457031,-49.25001525878906
1776554215845090000,9.412090087890626,-220.44284057617188,82.88618469238281,-49.322265625
1776554215855204000,9.4222041015625,-220.13072204589844,82.4898681640625,-49.16790771484375
1776554215865318100,9.432318115234375,-220.15365600585938,82.56826782226562,-49.12916564941406
1776554215875434200,9.442434326171876,-219.63255310058594,82.69253540039062,-48.901885986328125
1776554215885549000,9.452549072265626,-220.30374145507812,82.71549987792969,-49.22087097167969
1776554215895664000,9.4626640625,-220.31878662109375,82.64205932617188,-49.452606201171875
1776554215905779200,9.472779296875,-220.14877319335938,82.52793884277344,-49.24357604980469
1776554215915894000,9.48289404296875,-219.99163818359375,82.60237121582031,-49.19038391113281
1776554215926009000,9.493009033203125,-219.93467712402344,82.27252197265625,-49.24359130859375
1776554215936124200,9.503124267578125,-219.85972595214844,82.26658630371094,-49.35441589355469
1776554215946238000,9.513238037109375,-219.6026611328125,82.58038330078125,-49.311492919921875
1776554215956352000,9.52335205078125,-220.180419921875,82.25588989257812,-49.41557312011719
1776554215966468000,9.533468017578125,-219.9751739501953,82.47309875488281,-49.33575439453125
1776554215976584200,9.543584228515625,-219.80227661132812,82.24125671386719,-49.36924743652344
1776554215986698200,9.5536982421875,-219.59103393554688,82.32533264160156,-49.45515441894531
1776554215996813000,9.56381298828125,-219.27993774414062,82.39508056640625,-49.53898620605469
1776554216006929200,9.57392919921875,-219.45994567871094,82.48567199707031,-49.70411682128906
1776554216017045000,9.584044921875,-219.6255340576172,82.71235656738281,-49.48663330078125
1776554216027161000,9.5941611328125,-219.277587890625,82.39695739746094,-49.80409240722656
1776554216037275100,9.604275146484374,-219.25543212890625,82.65017700195312,-49.924591064453125
1776554216047391200,9.61439111328125,-219.52139282226562,82.54777526855469,-49.948822021484375
1776554216057505000,9.624505126953125,-219.54452514648438,82.72178649902344,-50.18156433105469
1776554216067621000,9.63462109375,-218.8862762451172,82.70698547363281,-50.02845764160156
1776554216077737200,9.6447373046875,-219.03660583496094,82.81416320800781,-50.54681396484375
1776554216087853300,9.654853271484376,-218.69337463378906,82.828857421875,-50.31871032714844
1776554216097970000,9.664969970703124,-218.9251708984375,82.918212890625,-50.4654541015625
1776554216108085200,9.675085205078124,-218.65728759765625,83.13592529296875,-50.65876770019531
1776554216118201000,9.685201171875,-218.7222900390625,83.24246215820312,-50.715423583984375
1776554216128317200,9.695317138671875,-218.95651245117188,82.93473815917969,-50.62699890136719
1776554216138432000,9.705431884765625,-219.06979370117188,83.12422180175781,-50.59114074707031
1776554216148547000,9.715547119140625,-218.91110229492188,83.20864868164062,-50.28861999511719
1776554216158663000,9.725662841796876,-218.82444763183594,83.19017028808594,-50.09657287597656
1776554216168778200,9.7357783203125,-218.6798858642578,83.43388366699219,-50.50300598144531
1776554216178893000,9.74589306640625,-218.99278259277344,83.35032653808594,-50.29731750488281
1776554216189008000,9.7560078125,-218.93624877929688,83.52664184570312,-50.18876647949219
1776554216199122200,9.7661220703125,-219.1895294189453,83.56396484375,-50.17332458496094
1776554216209237000,9.776237060546874,-218.75189208984375,83.72895812988281,-49.96565246582031
1776554216219352000,9.78635205078125,-219.2139434814453,83.84391784667969,-49.9005126953125
1776554216229466000,9.796466064453124,-219.2377166748047,83.82756042480469,-49.803009033203125
1776554216239580200,9.806580078125,-219.5749969482422,83.93255615234375,-49.65116882324219
1776554216249694200,9.816694091796874,-219.60653686523438,84.12625122070312,-49.6595458984375
1776554216259809000,9.82680908203125,-219.59579467773438,84.06976318359375,-49.57933044433594
1776554216269923300,9.83692333984375,-219.5741729736328,84.17071533203125,-49.53062438964844
1776554216280038100,9.8470380859375,-219.73841857910156,84.01823425292969,-49.594970703125
1776554216290153000,9.857153076171874,-219.406982421875,84.24522399902344,-49.62567138671875
1776554216300269000,9.86726904296875,-219.56344604492188,84.31770324707031,-49.50871276855469
1776554216310384000,9.877384033203125,-219.29214477539062,84.56561279296875,-49.563140869140625
1776554216320500200,9.887500244140625,-219.15557861328125,84.52925109863281,-49.7879638671875
1776554216330614000,9.897614013671875,-219.60647583007812,84.76742553710938,-49.777313232421875
1776554216340730000,9.907730224609375,-219.4798126220703,84.57679748535156,-49.86119079589844
1776554216350847000,9.917846923828124,-219.00775146484375,84.69110107421875,-49.43220520019531
1776554216360965000,9.927965087890625,-219.64605712890625,84.69561767578125,-49.68959045410156
1776554216371081200,9.938081298828125,-219.61178588867188,84.45033264160156,-49.65040588378906
1776554216381195000,9.948195068359375,-219.31549072265625,84.68911743164062,-49.71107482910156
1776554216391310300,9.958310302734375,-219.05982971191406,84.72395324707031,-49.606781005859375
1776554216401424100,9.968424072265625,-219.3374481201172,84.85842895507812,-49.466644287109375
1776554216411538200,9.9785380859375,-219.59246826171875,84.58790588378906,-49.685272216796875
1776554216421654300,9.988654296875,-219.62159729003906,84.86453247070312,-49.65289306640625
1776554216431768000,9.99876806640625,-219.2642059326172,84.52687072753906,-49.72169494628906
1776554216441885000,10.008885009765624,-218.85104370117188,84.69277954101562,-49.74299621582031
1776554216452002000,10.019001953125,-219.02957153320312,84.720947265625,-49.8492431640625
1776554216462117000,10.0291171875,-219.41177368164062,84.55813598632812,-49.893310546875
1776554216472232200,10.039232177734375,-219.13983154296875,84.50778198242188,-49.963348388671875
1776554216482348300,10.049348388671875,-218.9533233642578,84.29000854492188,-49.83514404296875
1776554216492462000,10.059462158203125,-218.7386932373047,84.52468872070312,-49.888336181640625
1776554216502577200,10.0695771484375,-219.40504455566406,84.24139404296875,-49.923370361328125
1776554216512693200,10.079693359375,-218.88052368164062,84.54441833496094,-50.06182861328125
1776554216522810000,10.08981005859375,-219.08047485351562,84.32591247558594,-50.05815124511719
1776554216532926200,10.09992626953125,-218.83265686035156,84.48802185058594,-50.16664123535156
1776554216543041000,10.110041015625,-218.6032257080078,84.37603759765625,-50.05741882324219
1776554216553156000,10.120156005859375,-218.70071411132812,84.57893371582031,-50.17071533203125
1776554216563270100,10.130270263671875,-218.71827697753906,84.62596130371094,-50.18229675292969
1776554216573386200,10.14038623046875,-218.90980529785156,84.32620239257812,-50.06639099121094
1776554216583501000,10.1505009765625,-218.86447143554688,84.58493041992188,-50.0711669921875
1776554216593617200,10.1606171875,-218.8386688232422,84.98948669433594,-50.33769226074219
1776554216603733000,10.17073291015625,-219.05921936035156,84.92788696289062,-50.27476501464844
1776554216613845800,10.180845703125,-218.91676330566406,84.99490356445312,-50.263275146484375
1776554216623961900,10.1909619140625,-219.09014892578125,85.29206848144531,-50.3436279296875
1776554216634077700,10.20107763671875,-218.49766540527344,85.222412109375,-50.07917785644531
1776554216644193800,10.21119384765625,-219.31980895996094,85.47932434082031,-50.30879211425781
1776554216654309600,10.2213095703125,-219.37789916992188,85.2796630859375,-50.283660888671875
1776554216664425700,10.23142578125,-219.3577880859375,85.42428588867188,-50.2296142578125
1776554216674540800,10.241540771484376,-218.9103546142578,85.448974609375,-50.21861267089844
1776554216684655900,10.25165576171875,-219.31898498535156,85.20939636230469,-50.020172119140625
1776554216694771700,10.261771728515624,-219.31268310546875,85.37677001953125,-50.18196105957031
1776554216704888800,10.271888916015625,-219.2812957763672,85.20848083496094,-50.09075927734375
1776554216715006000,10.282005859375,-219.22488403320312,85.27693176269531,-50.064971923828125
1776554216725122000,10.2921220703125,-219.375,85.38217163085938,-50.0738525390625
1776554216735239000,10.302239013671874,-218.5222930908203,85.60025024414062,-50.469635009765625
1776554216745355000,10.31235498046875,-219.0615234375,85.523681640625,-50.444854736328125
1776554216755470800,10.322470947265625,-218.67982482910156,85.81471252441406,-50.62825012207031
1776554216765585000,10.3325849609375,-218.1527862548828,85.65045166015625,-50.58992004394531
1776554216775700000,10.342699951171875,-218.36227416992188,85.99627685546875,-50.7723388671875
1776554216785814800,10.352814697265625,-218.31849670410156,85.80514526367188,-50.99066162109375
1776554216795929900,10.362929931640625,-218.4063262939453,85.76223754882812,-50.937347412109375
1776554216806044000,10.3730439453125,-218.30897521972656,86.04287719726562,-50.95210266113281
1776554216816160000,10.383159912109376,-218.32945251464844,85.8114013671875,-50.95030212402344
1776554216826274800,10.39327490234375,-218.0384063720703,85.89076232910156,-50.84344482421875
1776554216836390000,10.403389892578126,-218.18255615234375,86.01866149902344,-50.90040588378906
1776554216846505000,10.4135048828125,-218.07688903808594,85.89593505859375,-51.01997375488281
1776554216856620800,10.423620849609375,-218.17640686035156,86.199462890625,-51.053009033203125
1776554216866735900,10.43373583984375,-218.39813232421875,86.30947875976562,-50.94740295410156
1776554216876851700,10.443851806640625,-218.23037719726562,86.00669860839844,-51.00135803222656
1776554216886967800,10.4539677734375,-217.93392944335938,86.24368286132812,-50.97425842285156
1776554216897083600,10.464083740234376,-218.0546112060547,86.433837890625,-51.05339050292969
1776554216907199000,10.474198974609376,-218.47007751464844,86.26947021484375,-50.701385498046875
1776554216917313800,10.484313720703126,-218.14053344726562,86.467041015625,-50.48175048828125
1776554216927428900,10.494428955078124,-218.4622802734375,86.36648559570312,-50.70686340332031
1776554216937544000,10.5045439453125,-218.62872314453125,86.65087890625,-50.691436767578125
1776554216947658800,10.51465869140625,-218.8861541748047,86.71723937988281,-50.70393371582031
1776554216957773000,10.52477294921875,-218.79478454589844,86.51893615722656,-50.49479675292969
1776554216967886800,10.534886962890624,-218.6083526611328,86.42259216308594,-50.13032531738281
1776554216978002000,10.545001953125,-218.59970092773438,86.6737060546875,-50.50738525390625
1776554216988116700,10.55511669921875,-218.60536193847656,86.810546875,-50.492889404296875
1776554216998232800,10.56523291015625,-218.583251953125,86.822021484375,-50.40126037597656
1776554217008347600,10.57534765625,-218.78016662597656,86.92695617675781,-50.435791015625
1776554217018463000,10.585462890625,-218.67471313476562,86.915771484375,-50.42430114746094
1776554217028578800,10.595578857421875,-218.74288940429688,86.84585571289062,-50.54241943359375
1776554217038694000,10.60569384765625,-218.62734985351562,87.16090393066406,-50.59423828125
1776554217048808000,10.615807861328125,-218.39019775390625,86.87864685058594,-50.55433654785156
1776554217058922800,10.6259228515625,-218.33352661132812,87.00083923339844,-50.52162170410156
1776554217069037800,10.636037841796876,-218.688232421875,87.13044738769531,-50.59645080566406
1776554217079153700,10.646153564453124,-218.42127990722656,87.06150817871094,-50.586822509765625
1776554217089269000,10.65626904296875,-218.50379943847656,86.87649536132812,-50.51844787597656
1776554217099383800,10.6663837890625,-218.4665985107422,87.12034606933594,-50.444091796875
1776554217109497900,10.676497802734374,-218.07135009765625,87.16131591796875,-50.441680908203125
1776554217119611600,10.686611572265624,-218.62782287597656,87.22856140136719,-50.62855529785156
1776554217129727000,10.69672705078125,-218.46180725097656,87.3963623046875,-50.65315246582031
1776554217139840000,10.706840087890624,-218.4542694091797,87.4761962890625,-50.622955322265625
1776554217149954800,10.716954833984374,-218.74462890625,87.57232666015625,-50.61363220214844
1776554217160068900,10.72706884765625,-218.6516876220703,87.66899108886719,-50.63990783691406
1776554217170181600,10.737181640625,-218.836669921875,87.68818664550781,-50.490325927734375
1776554217180294700,10.747294677734375,-218.1827850341797,87.48439025878906,-50.59710693359375
1776554217190409000,10.757408935546875,-218.44943237304688,87.77487182617188,-50.79534912109375
1776554217200523800,10.767523681640625,-218.7081298828125,87.70350646972656,-50.70243835449219
1776554217210640000,10.777639892578126,-218.11973571777344,87.76878356933594,-50.81959533691406
1776554217220755000,10.7877548828125,-218.18072509765625,87.77870178222656,-50.76737976074219
1776554217230871000,10.79787109375,-218.71060180664062,87.77523803710938,-50.89056396484375
1776554217240985900,10.80798583984375,-218.40077209472656,87.60176086425781,-50.68011474609375
1776554217251102000,10.81810205078125,-217.93251037597656,87.43293762207031,-50.39924621582031
1776554217261216800,10.828216796875,-218.7627716064453,87.33946228027344,-50.84297180175781
1776554217271332900,10.838332763671875,-217.73468017578125,87.63836669921875,-50.917755126953125
1776554217281448000,10.848447998046876,-217.93630981445312,87.50740051269531,-50.939788818359375
1776554217291563800,10.858563720703126,-218.09031677246094,87.58169555664062,-51.09043884277344
1776554217301678800,10.868678955078124,-217.61483764648438,87.33314514160156,-50.756866455078125
1776554217311794000,10.8787939453125,-217.9824676513672,87.3819580078125,-51.06748962402344
1776554217321907700,10.88890771484375,-217.72117614746094,87.29425048828125,-50.93939208984375
1776554217332022800,10.899022705078124,-217.90158081054688,87.45111083984375,-50.90313720703125
1776554217342136800,10.90913671875,-218.14781188964844,87.21243286132812,-50.73158264160156
1776554217352251600,10.919251708984374,-218.32119750976562,87.22097778320312,-50.859954833984375
1776554217362367000,10.929366943359375,-218.13653564453125,87.06294250488281,-50.711578369140625
1776554217372481800,10.939481689453125,-217.67694091796875,87.42073059082031,-50.92631530761719
1776554217382596900,10.949596923828125,-217.7149200439453,87.51152038574219,-51.01530456542969
1776554217392711000,10.9597109375,-217.43031311035156,87.42176818847656,-50.919097900390625
1776554217402824000,10.969823974609374,-217.47976684570312,87.59800720214844,-51.21229553222656
1776554217412938800,10.979938720703124,-217.4793243408203,87.55166625976562,-51.135284423828125
1776554217423053800,10.9900537109375,-217.6538543701172,87.60639953613281,-51.301361083984375
1776554217433168000,11.00016796875,-217.5673370361328,87.67778015136719,-51.228759765625
1776554217443283000,11.010282958984375,-217.18162536621094,87.66850280761719,-51.027496337890625
1776554217453397800,11.020397705078125,-217.40142822265625,87.82304382324219,-51.23014831542969
1776554217463512000,11.030511962890625,-217.64369201660156,87.802734375,-51.342437744140625
1776554217473627000,11.040626953125,-217.39344787597656,87.80101013183594,-51.23240661621094
1776554217483743000,11.050742919921875,-217.28170776367188,87.8594970703125,-51.13117980957031
1776554217493857800,11.06085791015625,-217.19082641601562,87.9195556640625,-51.30169677734375
1776554217503974000,11.070973876953126,-217.3536376953125,87.88557434082031,-51.26258850097656
1776554217514089700,11.08108984375,-217.38661193847656,87.69305419921875,-51.273681640625
1776554217524205000,11.091205078125,-217.34716796875,87.54217529296875,-51.130584716796875
1776554217534318800,11.10131884765625,-216.76390075683594,87.5633544921875,-50.956756591796875
1776554217544433000,11.111432861328124,-217.11944580078125,87.71269226074219,-51.36273193359375
1776554217554546000,11.1215458984375,-217.06564331054688,87.80865478515625,-51.27934265136719
1776554217564660700,11.13166064453125,-217.40919494628906,87.67927551269531,-51.2117919921875
1776554217574774800,11.14177490234375,-217.20123291015625,87.66195678710938,-51.164947509765625
1776554217584891000,11.151890869140624,-216.96986389160156,87.77157592773438,-51.05035400390625
1776554217595005700,11.162005615234374,-217.14808654785156,87.89970397949219,-51.11973571777344
1776554217605118700,11.17211865234375,-216.9303741455078,87.82554626464844,-51.18132019042969
1776554217615233300,11.1822333984375,-217.13259887695312,87.97608947753906,-51.14530944824219
1776554217625348000,11.19234814453125,-217.14231872558594,88.11814880371094,-51.14726257324219
1776554217635462100,11.202462158203126,-216.87510681152344,87.89158630371094,-50.87855529785156
1776554217645576200,11.212576171875,-217.2589111328125,87.82000732421875,-51.40928649902344
1776554217655690200,11.222690185546876,-216.79519653320312,88.11576843261719,-51.40150451660156
1776554217665805000,11.23280517578125,-216.87063598632812,87.88987731933594,-51.31169128417969
1776554217675919000,11.242919189453126,-216.9384765625,88.21986389160156,-51.35057067871094
1776554217686033200,11.253033203125,-217.12083435058594,88.27290344238281,-51.40370178222656
1776554217696148200,11.263148193359376,-217.17755126953125,88.12654113769531,-51.33918762207031
1776554217706261200,11.27326123046875,-216.89144897460938,88.09182739257812,-51.328094482421875
1776554217716377300,11.28337744140625,-216.88320922851562,88.00852966308594,-51.22334289550781
1776554217726493200,11.2934931640625,-216.60546875,88.13211059570312,-51.235076904296875
1776554217736610000,11.303610107421875,-217.0238037109375,88.02615356445312,-51.263214111328125
1776554217746725000,11.31372509765625,-216.97637939453125,87.80909729003906,-51.01835632324219
1776554217756842200,11.32384228515625,-217.32351684570312,87.88336181640625,-51.09379577636719
1776554217766959000,11.333958984375,-216.96359252929688,87.9461669921875,-51.19834899902344
1776554217777075000,11.344074951171875,-217.54196166992188,87.90165710449219,-51.06907653808594
1776554217787192000,11.354192138671875,-217.23342895507812,87.98448181152344,-50.99879455566406
1776554217797309200,11.36430908203125,-217.21875,87.86334228515625,-51.04560852050781
1776554217807425300,11.37442529296875,-217.16773986816406,87.96820068359375,-50.95477294921875
1776554217817541000,11.384541015625,-216.9285888671875,87.65928649902344,-50.90528869628906
1776554217827657200,11.3946572265625,-217.0274200439453,87.83433532714844,-50.8585205078125
1776554217837772000,11.40477197265625,-217.22323608398438,87.90719604492188,-50.752685546875
1776554217847888100,11.41488818359375,-217.0319061279297,87.59098815917969,-50.896820068359375
1776554217858003200,11.425003173828125,-216.96531677246094,87.47660827636719,-50.89471435546875
1776554217868119300,11.435119384765626,-216.7161102294922,87.46763610839844,-50.63029479980469
1776554217878234000,11.445234130859374,-216.8145751953125,87.31854248046875,-50.958892822265625
1776554217888349200,11.45534912109375,-217.07362365722656,87.43565368652344,-50.953460693359375
1776554217898465300,11.46546533203125,-216.98623657226562,87.40103149414062,-50.75672912597656
1776554217908580000,11.475580078125,-216.92848205566406,87.46530151367188,-50.79949951171875
1776554217918697200,11.485697265625,-216.7340545654297,87.20968627929688,-50.74473571777344
1776554217928814000,11.49581396484375,-216.8834686279297,87.27645874023438,-50.86631774902344
1776554217938929200,11.50592919921875,-216.61196899414062,87.277587890625,-50.64056396484375
1776554217949045200,11.516045166015624,-216.94107055664062,87.31221008300781,-50.72900390625
1776554217959160000,11.52616015625,-216.8068389892578,87.09393310546875,-50.6865234375
1776554217969275100,11.536275146484375,-216.7001190185547,86.96511840820312,-50.68121337890625
1776554217979391000,11.546390869140625,-216.86170959472656,87.12098693847656,-50.92144775390625
1776554217989506300,11.55650634765625,-216.72537231445312,86.85185241699219,-50.716400146484375
1776554217999621000,11.56662109375,-216.71295166015625,86.84469604492188,-50.663421630859375
1776554218009737200,11.5767373046875,-216.51058959960938,87.06275939941406,-50.579315185546875
1776554218019853000,11.58685302734375,-216.70863342285156,86.94305419921875,-50.75958251953125
1776554218029968400,11.596968505859374,-217.14166259765625,86.62283325195312,-50.62664794921875
1776554218040084200,11.607084228515625,-216.6085662841797,86.92190551757812,-50.84837341308594
1776554218050201000,11.617201171875,-217.1094512939453,86.57817077636719,-50.539520263671875
1776554218060318200,11.627318115234376,-217.10305786132812,86.56437683105469,-50.443572998046875
1776554218070433000,11.63743310546875,-216.99623107910156,86.92483520507812,-50.58180236816406
1776554218080550100,11.647550048828125,-217.11146545410156,87.09686279296875,-50.71235656738281
1776554218090666000,11.657666015625,-216.8933563232422,87.10627746582031,-50.70906066894531
1776554218100783000,11.667783203125,-217.3394012451172,86.96224975585938,-50.63438415527344
1776554218110900200,11.677900146484374,-216.80023193359375,86.94696044921875,-50.47259521484375
1776554218121015000,11.68801513671875,-217.0610809326172,86.9041748046875,-50.623291015625
1776554218131130000,11.698130126953124,-217.05899047851562,86.81329345703125,-50.584442138671875
1776554218141246200,11.70824609375,-216.91172790527344,87.02432250976562,-50.70338439941406
1776554218151361300,11.718361328125,-216.47421264648438,86.75856018066406,-50.254302978515625
1776554218161476000,11.72847607421875,-216.64907836914062,86.87615966796875,-50.58665466308594
1776554218171591200,11.738591064453125,-216.82473754882812,86.82563781738281,-50.3779296875
1776554218181706200,11.748706298828125,-216.80274963378906,86.84703063964844,-50.688690185546875
1776554218191822000,11.758822021484375,-217.2283935546875,86.74467468261719,-50.58099365234375
1776554218201938200,11.768938232421876,-216.69329833984375,87.13569641113281,-50.54693603515625
1776554218212054300,11.77905419921875,-216.49107360839844,86.95158386230469,-50.71409606933594
1776554218222169000,11.789169189453125,-216.82376098632812,86.87078857421875,-50.722198486328125
1776554218232285200,11.79928515625,-216.61550903320312,86.68894958496094,-50.61061096191406
1776554218242400300,11.809400146484375,-216.69346618652344,86.77272033691406,-50.6605224609375
1776554218252516000,11.81951611328125,-216.6348876953125,86.78028869628906,-50.436431884765625
1776554218262631200,11.829631103515625,-216.56358337402344,86.88690185546875,-50.654510498046875
1776554218272748300,11.839748291015624,-215.98683166503906,86.9259033203125,-50.514129638671875
1776554218282864000,11.849864013671874,-216.4393310546875,86.80003356933594,-50.57514953613281
1776554218292980200,11.859980224609375,-216.0361328125,86.79603576660156,-50.486724853515625
1776554218303096000,11.870095947265625,-216.61460876464844,86.68778991699219,-50.657501220703125
1776554218313213200,11.880213134765626,-215.7965850830078,86.70602416992188,-50.72676086425781
1776554218323328300,11.890328369140626,-216.08529663085938,86.60443115234375,-50.63397216796875
1776554218333443000,11.900443115234374,-216.1537322998047,86.68562316894531,-50.819671630859375
1776554218343557000,11.91055712890625,-215.70281982421875,86.67330932617188,-50.651824951171875
1776554218353672200,11.920672119140624,-215.8427734375,86.64349365234375,-50.86387634277344
1776554218363787300,11.930787353515624,-215.80174255371094,86.51695251464844,-51.004730224609375
1776554218373903000,11.940903076171875,-216.0431365966797,86.43161010742188,-50.76350402832031
1776554218384018200,11.95101806640625,-215.98602294921875,86.74781799316406,-50.916229248046875
1776554218394133000,11.961133056640625,-215.8304443359375,86.59548950195312,-51.10063171386719
1776554218404248300,11.971248291015625,-215.98780822753906,86.50184631347656,-51.07188415527344
1776554218414363100,11.981363037109375,-215.66275024414062,86.61489868164062,-51.09332275390625
1776554218424477200,11.991477294921875,-215.45509338378906,86.49415588378906,-51.15586853027344
1776554218434592300,12.00159228515625,-215.67115783691406,86.57862854003906,-51.116668701171875
1776554218444706300,12.011706298828125,-215.56430053710938,86.23532104492188,-50.98530578613281
1776554218454820000,12.021820068359375,-215.9219207763672,86.28399658203125,-51.24822998046875
1776554218464935200,12.03193505859375,-215.79478454589844,86.41001892089844,-51.21044921875
1776554218475049200,12.04204931640625,-215.99331665039062,86.21810913085938,-51.11610412597656
1776554218485164300,12.052164306640625,-215.77178955078125,86.21250915527344,-50.97882080078125
1776554218495278000,12.062278076171875,-215.9091796875,86.0740966796875,-51.198516845703125
1776554218505392000,12.07239208984375,-215.70399475097656,85.99102783203125,-51.198150634765625
1776554218515506200,12.082506103515625,-216.3602752685547,86.12178039550781,-51.0260009765625
1776554218525620200,12.0926201171875,-216.06837463378906,86.00978088378906,-51.07440185546875
1776554218535734300,12.102734375,-216.10848999023438,85.81492614746094,-51.143707275390625
1776554218545848000,12.11284814453125,-216.34315490722656,85.95625305175781,-51.21778869628906
1776554218555963100,12.122963134765625,-216.47203063964844,86.14584350585938,-51.47050476074219
1776554218566078200,12.133078125,-215.93899536132812,85.58425903320312,-51.199371337890625
1776554218576193000,12.143193115234375,-216.20318603515625,85.65438842773438,-51.083953857421875
1776554218586308400,12.153308349609375,-216.03724670410156,85.67633056640625,-51.3526611328125
1776554218596423200,12.163423095703125,-216.29356384277344,85.34565734863281,-51.218048095703125
1776554218606537500,12.173537353515625,-216.42982482910156,85.58538818359375,-51.16717529296875
1776554218616652500,12.183652587890625,-216.27734375,85.1885986328125,-51.248809814453125
1776554218626767600,12.193767578125,-216.23638916015625,85.2198486328125,-51.00486755371094
1776554218636882400,12.20388232421875,-216.81649780273438,85.22221374511719,-51.271026611328125
1776554218646997800,12.213997802734376,-216.82896423339844,85.08828735351562,-51.186981201171875
1776554218657113600,12.224113525390624,-216.88417053222656,85.26979064941406,-51.39030456542969
1776554218667227400,12.234227294921874,-216.9058380126953,85.08602905273438,-51.44184875488281
1776554218677342700,12.2443427734375,-216.63003540039062,85.00039672851562,-51.176239013671875
1776554218687457500,12.25445751953125,-217.12551879882812,84.76251220703125,-51.28227233886719
1776554218697571600,12.264571533203124,-216.86978149414062,84.70518493652344,-51.177154541015625
1776554218707685600,12.274685546875,-217.1879119873047,84.72393798828125,-51.073333740234375
1776554218717800700,12.28480078125,-217.44351196289062,84.48138427734375,-50.92918395996094
1776554218727916800,12.294916748046875,-217.19851684570312,84.33328247070312,-50.81709289550781
1776554218738033400,12.305033447265625,-217.62762451171875,84.30009460449219,-50.86198425292969
1776554218748148700,12.315148681640625,-217.2923583984375,84.33145141601562,-50.66340637207031
1776554218758265600,12.325265625,-217.492919921875,84.22509765625,-50.43434143066406
1776554218768381700,12.335381591796875,-218.01092529296875,84.51478576660156,-50.17869567871094
1776554218778497800,12.345497802734375,-218.2257080078125,84.36778259277344,-50.43928527832031
1776554218788612600,12.355612548828125,-218.24423217773438,84.34700012207031,-50.133056640625
1776554218798728700,12.365728759765625,-218.26397705078125,84.43620300292969,-50.20149230957031
1776554218808843500,12.375843505859375,-218.52395629882812,84.6868896484375,-50.20579528808594
1776554218818959600,12.385959716796876,-218.6558380126953,84.69854736328125,-49.93815612792969
1776554218829075500,12.396075439453124,-218.75672912597656,84.5001220703125,-50.14794921875
1776554218839190800,12.406190673828124,-218.815673828125,84.8212890625,-49.98954772949219
1776554218849304600,12.4163046875,-218.89915466308594,84.33610534667969,-49.848358154296875
1776554218859418600,12.426418701171874,-219.0330047607422,84.4569091796875,-49.94490051269531
1776554218869533400,12.436533447265624,-219.11846923828125,84.63668823242188,-49.7437744140625
1776554218879646500,12.446646484375,-219.63409423828125,84.60624694824219,-49.67083740234375
1776554218889761800,12.45676171875,-219.63209533691406,84.59677124023438,-49.58872985839844
1776554218899874600,12.46687451171875,-219.5455322265625,84.49031066894531,-49.35966491699219
1776554218909990700,12.47699072265625,-219.6260528564453,84.55094909667969,-49.1329345703125
1776554218920106800,12.487106689453125,-219.74191284179688,84.47219848632812,-49.19496154785156
1776554218930221600,12.4972216796875,-219.83352661132812,84.57295227050781,-49.31523132324219
1776554218940336600,12.507336669921875,-220.29519653320312,84.53598022460938,-49.31996154785156
1776554218950452500,12.517452392578125,-220.15354919433594,84.46492004394531,-49.179840087890625
1776554218960567800,12.52756787109375,-219.65008544921875,84.67855834960938,-48.997772216796875
1776554218970683600,12.53768359375,-220.37014770507812,84.46940612792969,-49.180450439453125
1776554218980797400,12.54779736328125,-220.40945434570312,84.61862182617188,-49.1773681640625
1776554218990912800,12.557912841796876,-219.913818359375,84.39698791503906,-49.24635314941406
1776554219001028600,12.568028564453124,-220.5934295654297,84.59713745117188,-49.29182434082031
1776554219011144700,12.578144775390625,-220.4102783203125,84.37237548828125,-49.35652160644531
1776554219021260500,12.588260498046875,-220.0236053466797,84.45588684082031,-49.39923095703125
1776554219031376600,12.598376708984375,-219.9413299560547,84.17372131347656,-49.53340148925781
1776554219041492700,12.60849267578125,-220.11448669433594,84.05545043945312,-49.39613342285156
1776554219051608600,12.618608642578126,-219.6605682373047,84.3509521484375,-49.20668029785156
1776554219061723600,12.6287236328125,-219.6002655029297,84.3406982421875,-49.51995849609375
1776554219071838700,12.638838623046874,-219.91168212890625,84.12458801269531,-49.35179138183594
1776554219081953500,12.64895361328125,-219.70751953125,84.30796813964844,-49.69761657714844
1776554219092069600,12.659069580078125,-219.59530639648438,84.1142578125,-49.47306823730469
1776554219102186800,12.669186767578125,-219.44198608398438,84.33488464355469,-49.392822265625
1776554219112302600,12.679302490234376,-219.25022888183594,84.25102233886719,-49.717559814453125
1776554219122418700,12.689418701171874,-219.65077209472656,84.497314453125,-49.80751037597656
1776554219132535800,12.699535888671875,-219.42538452148438,84.32148742675781,-49.90922546386719
1776554219142652400,12.70965234375,-219.7155303955078,84.57083129882812,-49.99757385253906
1776554219152767700,12.719767822265625,-219.2343292236328,84.82879638671875,-50.03941345214844
1776554219162882600,12.729882568359375,-219.44732666015625,84.57130432128906,-50.07136535644531
1776554219172998700,12.73999853515625,-219.20106506347656,84.72395324707031,-50.233489990234375
1776554219183115800,12.75011572265625,-219.38461303710938,84.5587158203125,-50.11137390136719
1776554219193230600,12.760230712890625,-219.09130859375,84.65412902832031,-50.02256774902344
1776554219203346400,12.770346435546875,-219.3444366455078,84.54817199707031,-50.25360107421875
1776554219213461800,12.780461669921875,-219.096923828125,84.61314392089844,-50.32127380371094
1776554219223578600,12.79057861328125,-219.30284118652344,84.69511413574219,-50.3121337890625
1776554219233694500,12.800694580078124,-219.4661407470703,84.84593200683594,-50.492431640625
1776554219243811600,12.8108115234375,-218.789306640625,84.62052917480469,-50.14427185058594
1776554219253927700,12.820927734375,-219.0985565185547,84.86932373046875,-50.5784912109375
1776554219264044500,12.83104443359375,-219.23446655273438,84.78010559082031,-50.701751708984375
1776554219274160600,12.84116064453125,-219.2354278564453,84.84788513183594,-50.61927795410156
1776554219284276700,12.85127685546875,-219.23001098632812,84.65245056152344,-50.77095031738281
1776554219294392600,12.861392578125,-219.13095092773438,84.98628234863281,-50.75645446777344
1776554219304507400,12.87150732421875,-219.24951171875,85.17805480957031,-51.034210205078125
1776554219314623500,12.88162353515625,-219.11538696289062,85.10992431640625,-51.07752990722656
1776554219324740600,12.89174072265625,-219.25274658203125,85.09129333496094,-50.87150573730469
1776554219334856400,12.9018564453125,-219.48692321777344,85.36297607421875,-50.90370178222656
1776554219344973600,12.9119736328125,-219.4199676513672,85.27836608886719,-50.90147399902344
1776554219355090700,12.922090576171875,-219.45672607421875,85.42633056640625,-50.82600402832031
1776554219365207600,12.93220751953125,-219.04129028320312,85.57203674316406,-50.69718933105469
1776554219375324700,12.94232470703125,-219.4477996826172,85.80307006835938,-50.67228698730469
1776554219385440500,12.9524404296875,-219.61062622070312,85.73387145996094,-50.40777587890625
1776554219395556600,12.962556640625,-219.75100708007812,85.79930114746094,-50.66876220703125
1776554219405670700,12.972670654296875,-220.0167236328125,85.68701171875,-50.54981994628906
1776554219415786500,12.982786376953126,-219.7271728515625,85.57020568847656,-50.35346984863281
1776554219425902600,12.992902587890624,-220.05845642089844,85.69035339355469,-50.428619384765625
1776554219436018700,13.003018798828125,-219.6477813720703,85.58338928222656,-50.2525634765625
1776554219446135600,13.013135498046875,-220.2158966064453,85.58851623535156,-50.45556640625
1776554219456251600,13.023251708984375,-220.1060791015625,85.91099548339844,-50.50181579589844
1776554219466367700,13.03336767578125,-219.9476776123047,85.75831604003906,-50.34349060058594
1776554219476484600,13.043484619140624,-220.1316375732422,85.998046875,-50.38871765136719
1776554219486599700,13.053599609375,-220.1226348876953,85.89421081542969,-50.331878662109375
