time,seconds_elapsed,z,y,x
1776021874320159700,0.06515966796875,-0.9416046142578125,-0.1630859375,-0.1758880615234375
1776021874330220800,0.075220703125,-0.9294281005859375,-0.1455230712890625,-0.179901123046875
1776021874340281600,0.085281494140625,-0.9098663330078125,-0.1286773681640625,-0.176513671875
1776021874350342400,0.09534228515625,-0.866729736328125,-0.1236114501953125,-0.1752777099609375
1776021874360403500,0.105403564453125,-0.9128875732421875,-0.143402099609375,-0.19622802734375
1776021874370464500,0.115464599609375,-0.91082763671875,-0.1502838134765625,-0.1930694580078125
1776021874380526600,0.125526611328125,-0.8883514404296875,-0.1490631103515625,-0.198577880859375
1776021874390587600,0.135587646484375,-0.8526458740234375,-0.1641693115234375,-0.199920654296875
1776021874400648700,0.145648681640625,-0.8192901611328125,-0.1948394775390625,-0.2403411865234375
1776021874410709500,0.15570947265625,-0.81597900390625,-0.20989990234375,-0.261016845703125
1776021874420770600,0.1657705078125,-0.7999114990234375,-0.1780242919921875,-0.26416015625
1776021874430832600,0.17583251953125,-0.7515716552734375,-0.130462646484375,-0.2718353271484375
1776021874440893700,0.185893798828125,-0.658905029296875,-0.123260498046875,-0.2488250732421875
1776021874450954800,0.195954833984375,-0.478912353515625,-0.1986083984375,-0.2335205078125
1776021874461015800,0.206015869140625,-0.765167236328125,-0.2686614990234375,-0.3028411865234375
1776021874471076600,0.21607666015625,-0.959716796875,-0.2064208984375,-0.156158447265625
1776021874481137400,0.226137451171875,-1.300323486328125,-0.131103515625,-0.1959381103515625
1776021874491199700,0.23619970703125,-1.3397674560546875,-0.0160064697265625,-0.114166259765625
1776021874501260500,0.246260498046875,-1.2437591552734375,0.0201416015625,-0.1870574951171875
1776021874511321600,0.256321533203125,-1.1625518798828125,0.0525054931640625,-0.2604827880859375
1776021874521382700,0.266382568359375,-0.8903656005859375,0.085723876953125,-0.2680206298828125
1776021874531443700,0.276443603515625,-0.6978302001953125,0.0013427734375,-0.2519378662109375
1776021874541504500,0.28650439453125,-0.7216949462890625,-0.0557403564453125,-0.1190948486328125
1776021874551566600,0.296566650390625,-0.9359130859375,-0.08673095703125,0.0247039794921875
1776021874561627600,0.306627685546875,-1.1963348388671875,0.0050506591796875,0.016876220703125
1776021874571688700,0.316688720703125,-1.136871337890625,0.0951385498046875,0.1181793212890625
1776021874581749800,0.326749755859375,-0.9910430908203125,0.00262451171875,0.0745086669921875
1776021874591810800,0.336810791015625,-1.0148773193359375,0.0514068603515625,-0.087493896484375
1776021874601872600,0.34687255859375,-0.9883575439453125,0.1609954833984375,-0.0351715087890625
1776021874611933700,0.35693359375,-0.8055877685546875,0.1436920166015625,0.1214447021484375
1776021874621994800,0.366994873046875,-0.6476593017578125,0.0014190673828125,0.3422698974609375
1776021874632055600,0.3770556640625,-0.6364898681640625,-0.0043182373046875,0.4441680908203125
1776021874642116600,0.38711669921875,-0.9156951904296875,0.0063934326171875,0.0603790283203125
1776021874652177700,0.397177734375,-1.0749969482421875,0.076263427734375,0.168060302734375
1776021874662239500,0.407239501953125,-0.8654937744140625,0.060546875,0.337158203125
1776021874672300500,0.417300537109375,-0.741180419921875,-0.00762939453125,0.196746826171875
1776021874682361600,0.427361572265625,-0.6418914794921875,0.09967041015625,-0.0546112060546875
1776021874692422700,0.437422607421875,-0.663360595703125,0.2072296142578125,-0.2652587890625
1776021874702483700,0.447483642578125,-0.67034912109375,0.34271240234375,-0.1863861083984375
1776021874712545500,0.457545654296875,-0.6368255615234375,0.375,0.1388702392578125
1776021874722606600,0.467606689453125,-0.781982421875,0.404205322265625,0.192840576171875
1776021874732667600,0.477667724609375,-0.69757080078125,0.4763641357421875,-0.0039825439453125
1776021874742728700,0.487728759765625,-0.5775604248046875,0.4856719970703125,-0.0305328369140625
1776021874752789800,0.497789794921875,-0.6244659423828125,0.54833984375,0.048095703125
1776021874762850600,0.5078505859375,-0.82891845703125,0.5911712646484375,0.1365509033203125
1776021874772912600,0.51791259765625,-1.12847900390625,0.6689453125,0.1784210205078125
1776021874782973400,0.527973388671875,-1.22039794921875,0.78277587890625,0.2174072265625
1776021874793034500,0.538034423828125,-1.1357421875,0.70654296875,0.255340576171875
1776021874803095600,0.548095458984375,-1.216400146484375,0.6341552734375,0.2625885009765625
1776021874813156600,0.558156494140625,-1.155426025390625,0.700897216796875,0.353668212890625
1776021874823217700,0.5682177734375,-0.9427337646484375,0.7418212890625,0.5279083251953125
1776021874833279500,0.578279541015625,-0.7461395263671875,0.630523681640625,0.6478424072265625
1776021874843340500,0.588340576171875,-0.6458282470703125,0.5781097412109375,0.696075439453125
1776021874853401600,0.598401611328125,-0.6195831298828125,0.575408935546875,0.699310302734375
1776021874863462700,0.608462646484375,-0.63262939453125,0.6234893798828125,0.6723175048828125
1776021874873523700,0.618523681640625,-0.654632568359375,0.6798553466796875,0.673248291015625
1776021874883585800,0.628585693359375,-0.6602783203125,0.693084716796875,0.717071533203125
1776021874893646600,0.638646484375,-0.6109619140625,0.68341064453125,0.7737274169921875
1776021874903707600,0.648707763671875,-0.5515289306640625,0.689544677734375,0.82781982421875
1776021874913768400,0.6587685546875,-0.51641845703125,0.738189697265625,0.8986968994140625
1776021874923829500,0.66882958984375,-0.4971160888671875,0.8086395263671875,1.0101165771484375
1776021874933890600,0.678890625,-0.474365234375,0.850433349609375,1.1260986328125
1776021874943952600,0.68895263671875,-0.44287109375,0.8700103759765625,1.2169647216796875
1776021874954013700,0.699013671875,-0.48419189453125,0.80029296875,1.226531982421875
1776021874964074500,0.709074462890625,-0.598602294921875,0.77105712890625,1.261138916015625
1776021874974135600,0.719135498046875,-0.6823883056640625,0.769683837890625,1.3485260009765625
1776021874984196600,0.729196533203125,-0.7102508544921875,0.727294921875,1.445159912109375
1776021874994258700,0.7392587890625,-0.70306396484375,0.64532470703125,1.577392578125
1776021875004319700,0.74931982421875,-0.68402099609375,0.531982421875,1.65863037109375
1776021875014380800,0.759380859375,-0.638580322265625,0.4639129638671875,1.658538818359375
1776021875024441600,0.769441650390625,-0.6502838134765625,0.438995361328125,1.6358184814453125
1776021875034502400,0.77950244140625,-0.7736053466796875,0.31976318359375,1.6663818359375
1776021875044563500,0.7895634765625,-0.9922332763671875,0.118988037109375,1.67584228515625
1776021875054625500,0.79962548828125,-1.1301422119140625,-0.0308380126953125,1.6063995361328125
1776021875064686600,0.8096865234375,-1.1225433349609375,-0.047088623046875,1.4947357177734375
1776021875074747600,0.81974755859375,-1.06390380859375,-0.0198516845703125,1.3332061767578125
1776021875084808700,0.82980859375,-0.95263671875,-0.004913330078125,1.1810455322265625
1776021875094869500,0.839869384765625,-0.8594512939453125,0.0112762451171875,1.102264404296875
1776021875104930600,0.8499306640625,-0.7569427490234375,0.0382080078125,1.0206451416015625
1776021875114992600,0.85999267578125,-0.6594390869140625,0.099700927734375,0.9075927734375
1776021875125053700,0.8700537109375,-0.646820068359375,0.1168670654296875,0.7776336669921875
1776021875135114800,0.88011474609375,-0.6375579833984375,0.0711822509765625,0.67724609375
1776021875145175800,0.89017578125,-0.675048828125,0.0533294677734375,0.5361328125
1776021875155236600,0.900236572265625,-0.7121124267578125,0.0596923828125,0.3927001953125
1776021875165298700,0.910298583984375,-0.6622467041015625,-0.0519866943359375,0.5373992919921875
1776021875175359700,0.92035986328125,-0.321990966796875,0.121002197265625,0.831146240234375
1776021875185420500,0.930420654296875,0.209869384765625,0.4235076904296875,0.8993988037109375
1776021875195481600,0.940481689453125,0.4943695068359375,0.670989990234375,0.7400665283203125
1776021875205542700,0.950542724609375,0.536956787109375,0.6845550537109375,0.3651580810546875
1776021875215603700,0.960603759765625,0.0959320068359375,0.6833953857421875,-0.1035919189453125
1776021875225665500,0.97066552734375,-0.6670379638671875,0.5310211181640625,-0.1422271728515625
1776021875235726600,0.9807265625,-0.9996337890625,0.1387481689453125,0.2298583984375
1776021875245787600,0.99078759765625,-0.973724365234375,-0.130950927734375,0.50311279296875
1776021875255848700,1.0008486328125,-1.00677490234375,-0.183197021484375,0.611785888671875
1776021875265909800,1.01090966796875,-0.85699462890625,0.30413818359375,0.718719482421875
1776021875275970800,1.020970703125,-0.513519287109375,0.269378662109375,0.7906341552734375
1776021875286032600,1.03103271484375,-0.4061279296875,0.4701995849609375,0.7444305419921875
1776021875296093700,1.04109375,-0.3154144287109375,0.58013916015625,0.758636474609375
1776021875306154800,1.05115478515625,-0.2229461669921875,0.3276519775390625,0.7278289794921875
1776021875316215600,1.061215576171875,-0.0367889404296875,0.19488525390625,0.557830810546875
1776021875326276600,1.071276611328125,-0.051849365234375,0.4721832275390625,0.4725341796875
1776021875336338400,1.08133837890625,-0.15777587890625,0.535430908203125,0.4548797607421875
1776021875346399500,1.0913994140625,-0.0953521728515625,0.5538787841796875,0.4387664794921875
1776021875356460300,1.101460205078125,-0.122222900390625,0.607666015625,0.590728759765625
1776021875366521300,1.111521240234375,-0.11199951171875,0.652740478515625,0.8152923583984375
1776021875376582400,1.12158251953125,-0.212738037109375,0.8607940673828125,0.879364013671875
1776021875386643500,1.1316435546875,-0.5028228759765625,1.4162750244140625,1.213897705078125
1776021875396705300,1.141705322265625,-0.6188812255859375,1.6116485595703125,1.40582275390625
1776021875406766300,1.151766357421875,-0.5483245849609375,1.33160400390625,1.22265625
1776021875416827400,1.161827392578125,-0.467742919921875,0.8977508544921875,0.99853515625
1776021875426888400,1.171888427734375,-0.4838409423828125,0.74859619140625,0.7440948486328125
1776021875436949500,1.181949462890625,-0.37628173828125,0.9548492431640625,0.5935821533203125
1776021875447010300,1.19201025390625,-0.3602142333984375,0.916168212890625,0.3556365966796875
1776021875457072400,1.202072265625,-0.160614013671875,0.9552764892578125,0.3087615966796875
1776021875467133200,1.21213330078125,-0.0261688232421875,0.9375762939453125,0.130401611328125
1776021875477194200,1.2221943359375,-0.0956268310546875,0.5206146240234375,0.1553497314453125
1776021875487255300,1.23225537109375,-0.110687255859375,0.186004638671875,0.24176025390625
1776021875497316400,1.24231640625,-0.6587066650390625,0.4463653564453125,0.2925567626953125
1776021875507378400,1.25237841796875,-0.8189544677734375,0.918701171875,0.408447265625
1776021875517439500,1.262439453125,-0.2210540771484375,0.8861541748046875,0.36077880859375
1776021875527500300,1.272500244140625,0.1099090576171875,0.6004638671875,0.3353118896484375
1776021875537561300,1.282561279296875,0.15191650390625,0.2928924560546875,0.4034271240234375
1776021875547622400,1.292622314453125,0.1317596435546875,0.2120361328125,0.426361083984375
1776021875557683500,1.302683349609375,0.158782958984375,0.208404541015625,0.3368682861328125
1776021875567745500,1.31274560546875,0.1768646240234375,0.154937744140625,0.233856201171875
1776021875577806600,1.322806640625,0.14215087890625,0.104400634765625,0.1383209228515625
1776021875587867100,1.3328671875,0.071807861328125,0.0794677734375,0.1070404052734375
1776021875597928200,1.34292822265625,0.01983642578125,0.1056060791015625,0.1041107177734375
1776021875607989200,1.3529892578125,-0.023681640625,0.2679443359375,0.153778076171875
1776021875618050300,1.36305029296875,-0.081268310546875,0.5362396240234375,0.1471405029296875
1776021875628112400,1.3731123046875,-0.0716094970703125,1.1457672119140625,0.1502838134765625
1776021875638173400,1.38317333984375,-0.0615386962890625,2.037841796875,0.0749359130859375
1776021875648234200,1.393234130859375,-0.182220458984375,2.988616943359375,-0.2013397216796875
1776021875658295300,1.40329541015625,-0.224761962890625,3.25177001953125,-0.5061187744140625
1776021875668356400,1.4133564453125,-0.45556640625,2.619384765625,-0.7462615966796875
1776021875678418400,1.42341845703125,-0.7287750244140625,1.81561279296875,-0.9431915283203125
1776021875688479500,1.4334794921875,-0.5218963623046875,1.2427825927734375,-1.1276092529296875
1776021875698540500,1.44354052734375,-0.0458831787109375,0.8146209716796875,-1.07659912109375
1776021875708601600,1.4536015625,0.0950775146484375,0.8585052490234375,-0.7547454833984375
1776021875718662100,1.463662109375,0.1110687255859375,0.9668731689453125,-0.5967864990234375
1776021875728723200,1.47372314453125,0.11859130859375,0.94415283203125,-0.533447265625
1776021875738785300,1.483785400390625,0.107147216796875,0.7831878662109375,-0.4874420166015625
1776021875748846300,1.493846435546875,0.029754638671875,0.6315460205078125,-0.4861297607421875
1776021875758907400,1.503907470703125,-0.0895538330078125,0.58294677734375,-0.5153045654296875
1776021875768968400,1.513968505859375,-0.1983642578125,0.6916046142578125,-0.51324462890625
1776021875779029200,1.524029296875,-0.1989593505859375,0.84423828125,-0.4841461181640625
1776021875789090300,1.53409033203125,-0.1275177001953125,0.9207000732421875,-0.4549560546875
1776021875799152400,1.54415234375,-0.0885467529296875,0.939056396484375,-0.424072265625
1776021875809213400,1.55421337890625,-0.0743865966796875,0.9609832763671875,-0.3889312744140625
1776021875819274500,1.5642744140625,-0.0799407958984375,0.983428955078125,-0.3553314208984375
1776021875829335600,1.57433544921875,-0.10321044921875,0.9862518310546875,-0.3256683349609375
1776021875839396400,1.584396240234375,-0.13543701171875,0.981781005859375,-0.305908203125
1776021875849457200,1.59445703125,-0.1652069091796875,0.9713897705078125,-0.297637939453125
1776021875859519500,1.60451953125,-0.1655731201171875,0.972900390625,-0.3007659912109375
1776021875869580300,1.614580322265625,-0.1219940185546875,0.973785400390625,-0.3177947998046875
1776021875879641300,1.624641357421875,-0.06036376953125,0.9538421630859375,-0.337371826171875
1776021875889702400,1.634702392578125,-0.0186920166015625,0.921234130859375,-0.3600311279296875
1776021875899763500,1.644763427734375,-0.0171051025390625,0.8951568603515625,-0.3834075927734375
1776021875909825300,1.6548251953125,-0.03997802734375,0.8809814453125,-0.4019775390625
1776021875919886300,1.66488623046875,-0.0656585693359375,0.8747406005859375,-0.414703369140625
1776021875929947400,1.674947509765625,-0.08929443359375,0.87860107421875,-0.422393798828125
1776021875940008400,1.685008544921875,-0.106201171875,0.88800048828125,-0.4306182861328125
1776021875950069500,1.695069580078125,-0.103363037109375,0.897613525390625,-0.4356536865234375
1776021875960130600,1.705130615234375,-0.0836029052734375,0.902984619140625,-0.4417266845703125
1776021875970192400,1.7151923828125,-0.065582275390625,0.9025115966796875,-0.450592041015625
1776021875980253400,1.72525341796875,-0.059814453125,0.9014434814453125,-0.4533233642578125
1776021875990314500,1.735314453125,-0.069061279296875,0.9008026123046875,-0.454132080078125
1776021876000375300,1.745375244140625,-0.082122802734375,0.896331787109375,-0.449310302734375
1776021876010436400,1.755436279296875,-0.0884857177734375,0.895172119140625,-0.43902587890625
1776021876020498200,1.765498291015625,-0.0799102783203125,0.8954010009765625,-0.427703857421875
1776021876030559200,1.775559326171875,-0.0575103759765625,0.889129638671875,-0.417938232421875
1776021876040620300,1.785620361328125,-0.0376739501953125,0.88427734375,-0.410186767578125
1776021876050681300,1.795681396484375,-0.0335235595703125,0.8854827880859375,-0.40673828125
1776021876060742400,1.805742431640625,-0.0426483154296875,0.8838348388671875,-0.402496337890625
1776021876070803500,1.815803466796875,-0.055023193359375,0.884307861328125,-0.3991546630859375
1776021876080865300,1.825865234375,-0.0634307861328125,0.8979949951171875,-0.40118408203125
1776021876090926300,1.83592626953125,-0.059967041015625,0.9113006591796875,-0.408050537109375
1776021876100987400,1.8459873046875,-0.05316162109375,0.92144775390625,-0.41265869140625
1776021876111048400,1.85604833984375,-0.042205810546875,0.9293060302734375,-0.4160614013671875
1776021876121109500,1.866109619140625,-0.0302276611328125,0.93511962890625,-0.4141082763671875
1776021876131170300,1.87617041015625,-0.0225830078125,0.9425201416015625,-0.40618896484375
1776021876141232400,1.886232421875,-0.0199432373046875,0.9421539306640625,-0.3948516845703125
1776021876151293200,1.896293212890625,-0.0296478271484375,0.935516357421875,-0.379486083984375
1776021876161354200,1.906354248046875,-0.0376739501953125,0.9355926513671875,-0.365509033203125
1776021876171415300,1.916415283203125,-0.047698974609375,0.9373779296875,-0.3518524169921875
1776021876181476400,1.926476318359375,-0.05291748046875,0.9395904541015625,-0.337432861328125
1776021876191538400,1.936538330078125,-0.0560760498046875,0.94439697265625,-0.328369140625
1776021876201599200,1.94659912109375,-0.051300048828125,0.9552001953125,-0.326995849609375
1776021876211660300,1.956660400390625,-0.047393798828125,0.9701690673828125,-0.3255767822265625
1776021876221721300,1.966721435546875,-0.05084228515625,0.9755096435546875,-0.3191680908203125
1776021876231782400,1.976782470703125,-0.0555877685546875,0.961944580078125,-0.30364990234375
1776021876241843500,1.986843505859375,-0.06414794921875,0.9361114501953125,-0.28509521484375
1776021876251905500,1.996905517578125,-0.0768280029296875,0.9210968017578125,-0.269866943359375
1776021876261966600,2.006966552734375,-0.0810546875,0.9135284423828125,-0.2578125
1776021876272027400,2.01702734375,-0.079071044921875,0.916351318359375,-0.254852294921875
1776021876282088200,2.027088134765625,-0.075347900390625,0.9395599365234375,-0.25482177734375
1776021876292149200,2.037149169921875,-0.0759735107421875,0.9716644287109375,-0.251068115234375
1776021876302210300,2.047210205078125,-0.0784454345703125,0.9927215576171875,-0.250152587890625
1776021876312272400,2.0572724609375,-0.0792236328125,0.9966888427734375,-0.24981689453125
1776021876322333400,2.06733349609375,-0.0813446044921875,0.988922119140625,-0.26702880859375
1776021876332394200,2.077394287109375,-0.0798187255859375,0.9743499755859375,-0.2920989990234375
1776021876342455300,2.087455322265625,-0.07916259765625,0.956817626953125,-0.3248443603515625
1776021876352516400,2.097516357421875,-0.0780029296875,0.9421234130859375,-0.3609619140625
1776021876362577700,2.10757763671875,-0.0672607421875,0.932220458984375,-0.39288330078125
1776021876372639700,2.1176396484375,-0.0491485595703125,0.925537109375,-0.42010498046875
1776021876382700800,2.12770068359375,-0.0318145751953125,0.9132843017578125,-0.443450927734375
1776021876392761600,2.13776171875,-0.0216064453125,0.897064208984375,-0.463775634765625
1776021876402822700,2.14782275390625,-0.02716064453125,0.8806915283203125,-0.477569580078125
1776021876412883500,2.157883544921875,-0.0366363525390625,0.8678436279296875,-0.4883880615234375
1776021876422944500,2.167944580078125,-0.041534423828125,0.8576812744140625,-0.49664306640625
1776021876433006600,2.178006591796875,-0.042327880859375,0.8578948974609375,-0.505462646484375
1776021876443067600,2.188067626953125,-0.038787841796875,0.8603668212890625,-0.5103607177734375
1776021876453128700,2.198128662109375,-0.0287017822265625,0.8568878173828125,-0.5045318603515625
1776021876463189500,2.208189453125,-0.02374267578125,0.8497161865234375,-0.4932708740234375
1776021876473250600,2.21825048828125,-0.0284271240234375,0.8416748046875,-0.4799957275390625
1776021876483312600,2.228312744140625,-0.03863525390625,0.8441009521484375,-0.4727630615234375
1776021876493373700,2.238373779296875,-0.0431976318359375,0.8601226806640625,-0.47216796875
1776021876503434800,2.248434814453125,-0.0464935302734375,0.8829193115234375,-0.4743499755859375
1776021876513495800,2.258495849609375,-0.0541229248046875,0.898773193359375,-0.47528076171875
1776021876523556600,2.268556640625,-0.0595855712890625,0.905853271484375,-0.47216796875
1776021876533617700,2.27861767578125,-0.0656890869140625,0.905120849609375,-0.4615325927734375
1776021876543679700,2.2886796875,-0.076019287109375,0.894439697265625,-0.4534149169921875
1776021876553740800,2.29874072265625,-0.0809478759765625,0.8869781494140625,-0.4458160400390625
1776021876563801600,2.308801513671875,-0.0767059326171875,0.886444091796875,-0.4440765380859375
1776021876573862700,2.318862548828125,-0.0702972412109375,0.886749267578125,-0.44427490234375
1776021876583923500,2.32892333984375,-0.062774658203125,0.883880615234375,-0.443145751953125
1776021876593984500,2.338984619140625,-0.0581817626953125,0.8753662109375,-0.4417572021484375
1776021876604046600,2.349046630859375,-0.060089111328125,0.8708648681640625,-0.4388427734375
1776021876614107600,2.359107666015625,-0.0705108642578125,0.870361328125,-0.436737060546875
1776021876624168700,2.369168701171875,-0.0731658935546875,0.8759002685546875,-0.4354400634765625
1776021876634229800,2.379229736328125,-0.071624755859375,0.8847503662109375,-0.43017578125
1776021876644290600,2.38929052734375,-0.0650787353515625,0.8954010009765625,-0.423980712890625
1776021876654352600,2.3993525390625,-0.0622406005859375,0.899322509765625,-0.4139404296875
1776021876664413700,2.40941357421875,-0.0612335205078125,0.8947906494140625,-0.4030914306640625
1776021876674474800,2.419474853515625,-0.0689697265625,0.889129638671875,-0.3933563232421875
1776021876684535800,2.429535888671875,-0.0795135498046875,0.8880767822265625,-0.388671875
1776021876694596600,2.4395966796875,-0.0930633544921875,0.8926849365234375,-0.38592529296875
1776021876704657700,2.44965771484375,-0.1052093505859375,0.9019775390625,-0.3782806396484375
1776021876714719500,2.459719482421875,-0.1132049560546875,0.9176177978515625,-0.3670501708984375
1776021876724780500,2.469780517578125,-0.1181640625,0.9400634765625,-0.351837158203125
1776021876734841600,2.479841552734375,-0.1199493408203125,0.9622344970703125,-0.3263702392578125
1776021876744902700,2.489902587890625,-0.121673583984375,0.986572265625,-0.29638671875
1776021876754963700,2.499963623046875,-0.1324005126953125,1.009552001953125,-0.266632080078125
1776021876765024800,2.510024658203125,-0.14483642578125,1.029388427734375,-0.2421722412109375
1776021876775086600,2.520086669921875,-0.1627044677734375,1.0580596923828125,-0.2223052978515625
1776021876785147600,2.530147705078125,-0.1842498779296875,1.09698486328125,-0.2077484130859375
1776021876795208700,2.540208740234375,-0.2014923095703125,1.145263671875,-0.207672119140625
1776021876805269800,2.550269775390625,-0.2115631103515625,1.178436279296875,-0.2134246826171875
1776021876815330600,2.56033056640625,-0.22174072265625,1.1799468994140625,-0.223785400390625
1776021876825392600,2.570392578125,-0.2347412109375,1.1559906005859375,-0.235931396484375
1776021876835453400,2.580453369140625,-0.25445556640625,1.1226043701171875,-0.250946044921875
1776021876845514500,2.590514404296875,-0.2725982666015625,1.104644775390625,-0.274017333984375
1776021876855575600,2.600575439453125,-0.2734222412109375,1.0854034423828125,-0.2990875244140625
1776021876865636600,2.61063671875,-0.2582550048828125,1.0416412353515625,-0.3190460205078125
1776021876875697700,2.62069775390625,-0.2366943359375,0.98046875,-0.3367767333984375
1776021876885759500,2.630759521484375,-0.22161865234375,0.909454345703125,-0.341583251953125
1776021876895820500,2.640820556640625,-0.2047882080078125,0.8401641845703125,-0.338043212890625
1776021876905881600,2.650881591796875,-0.172698974609375,0.78790283203125,-0.32379150390625
1776021876915942700,2.660942626953125,-0.130279541015625,0.761810302734375,-0.3041534423828125
1776021876926003700,2.671003662109375,-0.0965423583984375,0.7568206787109375,-0.279571533203125
1776021876936064800,2.681064697265625,-0.086029052734375,0.7726593017578125,-0.25823974609375
1776021876946126600,2.691126708984375,-0.08837890625,0.7972869873046875,-0.2485198974609375
1776021876956187600,2.701187744140625,-0.098724365234375,0.8204498291015625,-0.258087158203125
1776021876966248400,2.71124853515625,-0.106292724609375,0.8464813232421875,-0.2690582275390625
1776021876976309500,2.7213095703125,-0.111328125,0.8619537353515625,-0.2759552001953125
1776021876986370600,2.73137060546875,-0.1073760986328125,0.858642578125,-0.277557373046875
1776021876996431600,2.741431640625,-0.092926025390625,0.835784912109375,-0.2735137939453125
1776021877006493700,2.75149365234375,-0.0821990966796875,0.8040924072265625,-0.2686004638671875
1776021877016554500,2.761554443359375,-0.0755157470703125,0.7727813720703125,-0.264495849609375
1776021877026615600,2.771615478515625,-0.07818603515625,0.75372314453125,-0.263427734375
1776021877036676600,2.781676513671875,-0.101043701171875,0.75494384765625,-0.2677764892578125
1776021877046737700,2.791737548828125,-0.1412506103515625,0.7664337158203125,-0.2800750732421875
1776021877056799700,2.8017998046875,-0.19927978515625,0.7820892333984375,-0.29901123046875
1776021877066860800,2.81186083984375,-0.26953125,0.7988128662109375,-0.316986083984375
1776021877076921600,2.821921630859375,-0.333038330078125,0.8206634521484375,-0.3315887451171875
1776021877086982700,2.831982666015625,-0.3744964599609375,0.84613037109375,-0.3432464599609375
1776021877097043500,2.84204345703125,-0.378326416015625,0.86602783203125,-0.3481597900390625
1776021877107104500,2.8521044921875,-0.3552093505859375,0.8721923828125,-0.3457183837890625
1776021877117166600,2.86216650390625,-0.320343017578125,0.8665771484375,-0.34381103515625
1776021877127227600,2.8722275390625,-0.2888641357421875,0.845977783203125,-0.342864990234375
1776021877137288400,2.882288330078125,-0.2713623046875,0.8123779296875,-0.3462066650390625
1776021877147349500,2.892349609375,-0.2683258056640625,0.780853271484375,-0.3549346923828125
1776021877157410600,2.90241064453125,-0.2757568359375,0.7550048828125,-0.363372802734375
1776021877167471600,2.9124716796875,-0.2833404541015625,0.74365234375,-0.3651123046875
1776021877177533700,2.92253369140625,-0.27716064453125,0.7494964599609375,-0.3736114501953125
1776021877187594800,2.9325947265625,-0.2586669921875,0.7756195068359375,-0.3761444091796875
1776021877197655600,2.942655517578125,-0.2382659912109375,0.8269195556640625,-0.3764190673828125
1776021877207716600,2.952716552734375,-0.2119598388671875,0.8951263427734375,-0.363250732421875
1776021877217777700,2.962777587890625,-0.1804351806640625,0.963623046875,-0.3306427001953125
1776021877227838500,2.97283837890625,-0.151611328125,1.0429840087890625,-0.297821044921875
1776021877237900800,2.98290087890625,-0.1375274658203125,1.1382904052734375,-0.2629852294921875
1776021877247961600,2.992961669921875,-0.1293182373046875,1.237945556640625,-0.237060546875
1776021877258022700,3.003022705078125,-0.11016845703125,1.331573486328125,-0.229339599609375
1776021877268083500,3.01308349609375,-0.07281494140625,1.3679656982421875,-0.2280731201171875
1776021877278144500,3.02314453125,-0.0420989990234375,1.3160400390625,-0.20819091796875
1776021877288206600,3.03320654296875,-0.0412139892578125,1.198455810546875,-0.159637451171875
1776021877298267600,3.043267578125,-0.07781982421875,1.0413665771484375,-0.1100006103515625
1776021877308328700,3.05332861328125,-0.1641387939453125,0.950531005859375,-0.0903472900390625
1776021877318389800,3.0633896484375,-0.2945404052734375,0.930145263671875,-0.115081787109375
1776021877328450600,3.073450439453125,-0.415435791015625,0.97674560546875,-0.16064453125
1776021877338511600,3.08351171875,-0.476226806640625,1.0559844970703125,-0.2093505859375
1776021877348573700,3.09357373046875,-0.453582763671875,1.119354248046875,-0.2545928955078125
1776021877358635000,3.103635009765625,-0.3618621826171875,1.1434173583984375,-0.29461669921875
1776021877368696000,3.113696044921875,-0.237213134765625,1.1328887939453125,-0.323272705078125
1776021877378757000,3.123757080078125,-0.1170806884765625,1.105560302734375,-0.3480682373046875
1776021877388818000,3.13381787109375,-0.0258026123046875,1.0793304443359375,-0.3701019287109375
1776021877398879000,3.14387890625,0.0262603759765625,1.047454833984375,-0.3937225341796875
1776021877408941000,3.153941162109375,0.0373382568359375,1.0033721923828125,-0.4172515869140625
1776021877419002000,3.164002197265625,0.0377655029296875,0.9369659423828125,-0.4446258544921875
1776021877429063200,3.174063232421875,0.043304443359375,0.8643035888671875,-0.479278564453125
1776021877439124200,3.184124267578125,0.04339599609375,0.7877197265625,-0.5044708251953125
1776021877449184800,3.194184814453125,0.0289154052734375,0.725494384765625,-0.5200042724609375
1776021877459247000,3.2042470703125,0.0079345703125,0.6807708740234375,-0.530059814453125
1776021877469308000,3.214307861328125,-0.0252685546875,0.65716552734375,-0.5478515625
1776021877479369000,3.224368896484375,-0.0858154296875,0.6575469970703125,-0.576751708984375
1776021877489430000,3.234429931640625,-0.150390625,0.666046142578125,-0.6246337890625
1776021877499491000,3.244490966796875,-0.19830322265625,0.7281646728515625,-0.6397705078125
1776021877509552000,3.25455224609375,-0.2056884765625,0.7987823486328125,-0.625732421875
1776021877519614000,3.264614013671875,-0.1776275634765625,0.8549346923828125,-0.58013916015625
1776021877529675000,3.274675048828125,-0.1427459716796875,0.8961029052734375,-0.5288238525390625
1776021877539736000,3.284736083984375,-0.1063232421875,0.920654296875,-0.4778289794921875
1776021877549797000,3.294797119140625,-0.0650787353515625,0.9237823486328125,-0.4298095703125
1776021877559858200,3.304858154296875,-0.016754150390625,0.9243621826171875,-0.39349365234375
1776021877569919200,3.314919189453125,0.0271453857421875,0.931243896484375,-0.366241455078125
1776021877579981000,3.32498095703125,0.05340576171875,0.9368133544921875,-0.354705810546875
1776021877590042000,3.3350419921875,0.0564727783203125,0.940032958984375,-0.3516998291015625
1776021877600103000,3.34510302734375,0.04254150390625,0.9285888671875,-0.3548583984375
1776021877610164000,3.3551640625,0.026275634765625,0.895477294921875,-0.358642578125
1776021877620225000,3.36522509765625,0.016357421875,0.86102294921875,-0.3621826171875
1776021877630286000,3.3752861328125,-0.003143310546875,0.8479766845703125,-0.376800537109375
1776021877640348000,3.385347900390625,-0.0296478271484375,0.838287353515625,-0.4041290283203125
1776021877650409000,3.395408935546875,-0.06005859375,0.8410797119140625,-0.442901611328125
1776021877660470000,3.405469970703125,-0.0875091552734375,0.8499755859375,-0.4868316650390625
1776021877670531000,3.415531005859375,-0.0902252197265625,0.84735107421875,-0.522796630859375
1776021877680592100,3.425592041015625,-0.06494140625,0.835662841796875,-0.5465545654296875
1776021877690654000,3.435654052734375,-0.0306243896484375,0.8286285400390625,-0.56365966796875
1776021877700715000,3.445715087890625,-0.0035858154296875,0.8209991455078125,-0.5755462646484375
1776021877710776000,3.455776123046875,0.0149688720703125,0.8206787109375,-0.57733154296875
1776021877720837000,3.465837158203125,0.0214996337890625,0.824432373046875,-0.5815887451171875
1776021877730898000,3.47589794921875,0.023834228515625,0.81988525390625,-0.5940093994140625
1776021877740959000,3.485958984375,0.018951416015625,0.81939697265625,-0.5984039306640625
1776021877751020800,3.496020751953125,0.0125579833984375,0.81353759765625,-0.5981903076171875
1776021877761081900,3.506081787109375,0.0070037841796875,0.809356689453125,-0.5926666259765625
1776021877771143000,3.516142822265625,0.007537841796875,0.80908203125,-0.576690673828125
1776021877781204000,3.526203857421875,0.0134735107421875,0.808807373046875,-0.5580596923828125
1776021877791265000,3.53626513671875,0.019256591796875,0.8124847412109375,-0.5427093505859375
1776021877801326000,3.546326171875,0.02850341796875,0.826934814453125,-0.53973388671875
1776021877811388000,3.556387939453125,0.04083251953125,0.8469085693359375,-0.540008544921875
1776021877821449000,3.566448974609375,0.047271728515625,0.8620452880859375,-0.542877197265625
1776021877831510000,3.576510009765625,0.0512542724609375,0.8659210205078125,-0.5403594970703125
1776021877841571000,3.586571044921875,0.055572509765625,0.8653717041015625,-0.526641845703125
1776021877851632000,3.596632080078125,0.067230224609375,0.8517303466796875,-0.49664306640625
1776021877861694200,3.606694091796875,0.0719146728515625,0.8496551513671875,-0.4608001708984375
1776021877871755000,3.616755126953125,0.05706787109375,0.865447998046875,-0.437835693359375
1776021877881815800,3.62681591796875,0.0299530029296875,0.896636962890625,-0.428497314453125
1776021877891876900,3.636876953125,0.002197265625,0.9239044189453125,-0.43035888671875
1776021877901938000,3.64693798828125,-0.0239715576171875,0.93426513671875,-0.44293212890625
1776021877911999000,3.6569990234375,-0.03857421875,0.92144775390625,-0.4515533447265625
1776021877922061000,3.66706103515625,-0.0292816162109375,0.885711669921875,-0.4548187255859375
1776021877932122000,3.6771220703125,-0.0019073486328125,0.8480072021484375,-0.459564208984375
1776021877942183000,3.687182861328125,0.0339202880859375,0.8216705322265625,-0.4628448486328125
1776021877952244000,3.697243896484375,0.0654449462890625,0.8023223876953125,-0.4612884521484375
1776021877962305000,3.707304931640625,0.0921783447265625,0.79656982421875,-0.465179443359375
1776021877972366000,3.717365966796875,0.1107177734375,0.8121185302734375,-0.487945556640625
1776021877982428200,3.72742822265625,0.114654541015625,0.835357666015625,-0.5198822021484375
1776021877992489200,3.7374892578125,0.10479736328125,0.8631744384765625,-0.55499267578125
1776021878002549800,3.7475498046875,0.082122802734375,0.873321533203125,-0.59124755859375
1776021878012610800,3.75761083984375,0.054351806640625,0.86175537109375,-0.62249755859375
1776021878022672000,3.767671875,0.0288238525390625,0.8361968994140625,-0.64495849609375
1776021878032734000,3.77773388671875,0.01971435546875,0.81158447265625,-0.6520843505859375
1776021878042795000,3.787794921875,0.026641845703125,0.7902374267578125,-0.6455841064453125
1776021878052856000,3.79785595703125,0.04205322265625,0.774200439453125,-0.62408447265625
1776021878062917000,3.807917236328125,0.0637054443359375,0.771270751953125,-0.5844268798828125
1776021878072978000,3.81797802734375,0.0736083984375,0.7764739990234375,-0.5375823974609375
1776021878083039000,3.8280390625,0.06494140625,0.77655029296875,-0.479034423828125
1776021878093101000,3.83810107421875,0.049896240234375,0.775787353515625,-0.4165802001953125
1776021878103162000,3.848162109375,0.034942626953125,0.785797119140625,-0.38079833984375
1776021878113223200,3.85822314453125,0.02960205078125,0.8179931640625,-0.3621063232421875
1776021878123284200,3.8682841796875,0.0274810791015625,0.8779144287109375,-0.36578369140625
1776021878133344800,3.8783447265625,0.0240020751953125,0.957855224609375,-0.389404296875
1776021878143405800,3.88840576171875,0.013427734375,1.0551300048828125,-0.4289398193359375
1776021878153468000,3.898468017578125,-0.00909423828125,1.15325927734375,-0.4793548583984375
1776021878163529000,3.908529052734375,-0.03472900390625,1.222381591796875,-0.537109375
1776021878173590000,3.918590087890625,-0.0546417236328125,1.2303466796875,-0.578887939453125
1776021878183651000,3.928651123046875,-0.0643310546875,1.12628173828125,-0.585357666015625
1776021878193711900,3.9387119140625,-0.0699310302734375,0.93951416015625,-0.55078125
1776021878203773000,3.94877294921875,-0.0711669921875,0.786712646484375,-0.518463134765625
1776021878213835000,3.9588349609375,-0.073974609375,0.694000244140625,-0.510223388671875
1776021878223896000,3.96889599609375,-0.0757293701171875,0.6539764404296875,-0.528900146484375
1776021878233957000,3.97895703125,-0.0616912841796875,0.6595458984375,-0.568084716796875
1776021878244018200,3.98901806640625,-0.0334625244140625,0.707489013671875,-0.6157684326171875
1776021878254079000,3.999078857421875,0.0016021728515625,0.7783203125,-0.65948486328125
1776021878264141000,4.00914111328125,0.036346435546875,0.8347930908203125,-0.6854705810546875
1776021878274202000,4.0192021484375,0.0562591552734375,0.8596954345703125,-0.6891021728515625
1776021878284263000,4.029262939453125,0.066925048828125,0.8561248779296875,-0.64117431640625
1776021878294324000,4.039323974609375,0.070770263671875,0.834625244140625,-0.5508880615234375
1776021878304385000,4.049385009765625,0.0684356689453125,0.83099365234375,-0.4691162109375
1776021878314446000,4.059446044921875,0.0611724853515625,0.841705322265625,-0.4207305908203125
1776021878324508000,4.0695078125,0.05145263671875,0.875244140625,-0.3926544189453125
1776021878334569000,4.07956884765625,0.0385894775390625,0.912841796875,-0.3797454833984375
1776021878344630000,4.089630126953125,0.0218048095703125,0.927093505859375,-0.396759033203125
1776021878354691000,4.099691162109375,0.002716064453125,0.9053497314453125,-0.4423828125
1776021878364752000,4.109751953125,-0.0047149658203125,0.876129150390625,-0.4854278564453125
1776021878374813000,4.11981298828125,-0.0066986083984375,0.859466552734375,-0.5262603759765625
1776021878384874800,4.129874755859375,0.0018310546875,0.8424530029296875,-0.55523681640625
1776021878394935800,4.139935791015625,0.0192718505859375,0.8336181640625,-0.5751953125
1776021878404996900,4.149996826171875,0.038818359375,0.8245849609375,-0.58831787109375
1776021878415058000,4.160057861328125,0.053680419921875,0.8100738525390625,-0.6010589599609375
1776021878425119000,4.170118896484375,0.066650390625,0.7865447998046875,-0.607452392578125
1776021878435180000,4.180179931640625,0.0797271728515625,0.7601776123046875,-0.609588623046875
1776021878445241900,4.190241943359375,0.09197998046875,0.73858642578125,-0.606048583984375
1776021878455303000,4.200302978515625,0.1007080078125,0.7248687744140625,-0.604827880859375
1776021878465364000,4.210364013671875,0.10601806640625,0.72406005859375,-0.6038055419921875
1776021878475424800,4.2204248046875,0.1014556884765625,0.7273101806640625,-0.6090087890625
1776021878485485800,4.23048583984375,0.081817626953125,0.7473297119140625,-0.6233978271484375
1776021878495547600,4.240547607421875,0.0555877685546875,0.775115966796875,-0.641632080078125
1776021878505608700,4.250608642578125,0.0343780517578125,0.7934417724609375,-0.64715576171875
1776021878515669800,4.260669677734375,0.0338592529296875,0.794525146484375,-0.628631591796875
1776021878525730800,4.270730712890625,0.0576934814453125,0.78924560546875,-0.5937652587890625
1776021878535791900,4.2807919921875,0.084136962890625,0.791168212890625,-0.5694732666015625
1776021878545853000,4.29085302734375,0.10455322265625,0.8094940185546875,-0.5695037841796875
1776021878555914800,4.300914794921875,0.1153717041015625,0.8397064208984375,-0.5859527587890625
1776021878565975800,4.310975830078125,0.115264892578125,0.874969482421875,-0.61468505859375
1776021878576036900,4.321036865234375,0.104034423828125,0.8968658447265625,-0.6468963623046875
1776021878586098000,4.331097900390625,0.0930328369140625,0.893798828125,-0.6712493896484375
1776021878596159000,4.341158935546875,0.08489990234375,0.8657989501953125,-0.6748809814453125
1776021878606219800,4.3512197265625,0.0930328369140625,0.819854736328125,-0.658905029296875
1776021878616282000,4.3612822265625,0.1095428466796875,0.7775115966796875,-0.63336181640625
1776021878626342700,4.3713427734375,0.1297149658203125,0.7509002685546875,-0.6097869873046875
1776021878636403700,4.38140380859375,0.142852783203125,0.7348175048828125,-0.5970611572265625
1776021878646464800,4.39146484375,0.14300537109375,0.724853515625,-0.5986480712890625
1776021878656525800,4.40152587890625,0.120941162109375,0.7141571044921875,-0.6080474853515625
1776021878666587000,4.4115869140625,0.0835723876953125,0.7007293701171875,-0.61871337890625
1776021878676649000,4.42164892578125,0.05340576171875,0.697509765625,-0.61578369140625
1776021878686709800,4.431709716796875,0.0571746826171875,0.71240234375,-0.581787109375
1776021878696770800,4.441770751953125,0.0881500244140625,0.746551513671875,-0.5406036376953125
1776021878706832000,4.451831787109375,0.1082000732421875,0.786956787109375,-0.5045166015625
1776021878716893000,4.461892822265625,0.1087646484375,0.82861328125,-0.4769287109375
1776021878726955000,4.471955078125,0.095550537109375,0.8648223876953125,-0.45257568359375
1776021878737016000,4.48201611328125,0.0837554931640625,0.8860015869140625,-0.4386138916015625
1776021878747076900,4.492076904296875,0.0734405517578125,0.9019012451171875,-0.4273834228515625
1776021878757137700,4.5021376953125,0.0665740966796875,0.9119110107421875,-0.4269866943359375
1776021878767198700,4.51219873046875,0.075836181640625,0.9070587158203125,-0.4376068115234375
1776021878777259800,4.522259765625,0.10028076171875,0.8841552734375,-0.45867919921875
1776021878787321900,4.53232177734375,0.1225433349609375,0.8476409912109375,-0.49041748046875
1776021878797383000,4.5423828125,0.1385040283203125,0.8053436279296875,-0.5282745361328125
1776021878807444000,4.55244384765625,0.1444549560546875,0.7653350830078125,-0.5621795654296875
1776021878817504800,4.5625048828125,0.14971923828125,0.74114990234375,-0.5867462158203125
1776021878827565800,4.57256591796875,0.1488189697265625,0.7321624755859375,-0.6090850830078125
1776021878837627000,4.582626953125,0.1110076904296875,0.7156219482421875,-0.6376800537109375
1776021878847689000,4.59268896484375,0.043731689453125,0.70458984375,-0.676849365234375
1776021878857750000,4.60275,-0.036285400390625,0.7134552001953125,-0.7128753662109375
1776021878867811000,4.61281103515625,-0.1021728515625,0.762115478515625,-0.730560302734375
1776021878877871900,4.622871826171875,-0.1261138916015625,0.83758544921875,-0.724395751953125
1776021878887932700,4.6329326171875,-0.1192169189453125,0.9162750244140625,-0.6708984375
1776021878897994800,4.642994873046875,-0.095916748046875,0.9899139404296875,-0.5920257568359375
1776021878908055800,4.653055908203125,-0.059295654296875,1.0512847900390625,-0.5237884521484375
1776021878918116900,4.663116943359375,-0.0177154541015625,1.04998779296875,-0.4843902587890625
1776021878928178000,4.673177978515625,0.03436279296875,0.99188232421875,-0.4643096923828125
1776021878938239000,4.683239013671875,0.087860107421875,0.88507080078125,-0.454315185546875
1776021878948299800,4.6932998046875,0.1205291748046875,0.7975616455078125,-0.4618377685546875
1776021878958361900,4.70336181640625,0.1237640380859375,0.765380859375,-0.466827392578125
1776021878968423000,4.7134228515625,0.1129608154296875,0.746612548828125,-0.47283935546875
1776021878978484000,4.72348388671875,0.0882110595703125,0.7348175048828125,-0.498565673828125
1776021878988545000,4.733544921875,0.060821533203125,0.709808349609375,-0.5565185546875
1776021878998606000,4.743606201171875,0.0489654541015625,0.6942596435546875,-0.6224212646484375
1776021879008667000,4.7536669921875,0.0610504150390625,0.70245361328125,-0.6873626708984375
1776021879018729000,4.76372900390625,0.0921173095703125,0.72601318359375,-0.7369384765625
1776021879028789800,4.773789794921875,0.1194305419921875,0.7486419677734375,-0.76910400390625
1776021879038850800,4.783850830078125,0.1315765380859375,0.7606353759765625,-0.77606201171875
1776021879048912000,4.793911865234375,0.126190185546875,0.7646026611328125,-0.7311859130859375
1776021879058973000,4.803972900390625,0.1164703369140625,0.7703399658203125,-0.6403350830078125
1776021879069034800,4.81403466796875,0.113525390625,0.77130126953125,-0.5540924072265625
1776021879079095800,4.824095703125,0.1139373779296875,0.7794189453125,-0.511688232421875
1776021879089156900,4.834156982421875,0.1266937255859375,0.792724609375,-0.5071868896484375
1776021879099218000,4.844218017578125,0.145416259765625,0.7996978759765625,-0.523101806640625
1776021879109279000,4.854279052734375,0.1565399169921875,0.8184356689453125,-0.5628204345703125
1776021879119340000,4.864340087890625,0.1455841064453125,0.8606719970703125,-0.6167755126953125
1776021879129401900,4.87440185546875,0.10791015625,0.8963470458984375,-0.6630401611328125
1776021879139463000,4.884462890625,0.057708740234375,0.90380859375,-0.69537353515625
1776021879149524000,4.89452392578125,0.021087646484375,0.8748931884765625,-0.69512939453125
1776021879159584800,4.904584716796875,0.022064208984375,0.811370849609375,-0.6618804931640625
1776021879169645800,4.914645751953125,0.0560302734375,0.740325927734375,-0.6084442138671875
1776021879179707000,4.924706787109375,0.09259033203125,0.6863250732421875,-0.555084228515625
1776021879189768700,4.934768798828125,0.1142425537109375,0.6535186767578125,-0.514129638671875
1776021879199829800,4.944829833984375,0.117034912109375,0.64996337890625,-0.491668701171875
1776021879209890800,4.954890869140625,0.1016693115234375,0.6879119873046875,-0.48828125
1776021879219951900,4.964951904296875,0.061798095703125,0.761688232421875,-0.4979248046875
1776021879230013000,4.975012939453125,-0.0056610107421875,0.8467559814453125,-0.5145416259765625
1776021879240074000,4.985073974609375,-0.076019287109375,0.915985107421875,-0.5212554931640625
1776021879250135800,4.9951357421875,-0.1063385009765625,0.9671173095703125,-0.5276947021484375
1776021879260196900,5.00519677734375,-0.08209228515625,1.0177764892578125,-0.5475006103515625
1776021879270258000,5.0152578125,-0.0332489013671875,1.0585784912109375,-0.5820770263671875
1776021879280319000,5.025319091796875,0.0191802978515625,1.06732177734375,-0.61700439453125
1776021879290379800,5.0353798828125,0.0681915283203125,1.02978515625,-0.64068603515625
1776021879300440800,5.04544091796875,0.0735321044921875,0.92718505859375,-0.6339263916015625
1776021879310502700,5.055502685546875,0.04559326171875,0.81591796875,-0.607025146484375
1776021879320563700,5.065563720703125,0.00506591796875,0.7271881103515625,-0.5708465576171875
1776021879330624800,5.075624755859375,-0.0262451171875,0.6721343994140625,-0.5407257080078125
1776021879340685800,5.085685791015625,-0.0171051025390625,0.6656951904296875,-0.51617431640625
1776021879350747000,5.095746826171875,0.033782958984375,0.7128448486328125,-0.4952850341796875
1776021879360809000,5.10580908203125,0.0530853271484375,0.788330078125,-0.4923095703125
1776021879370869800,5.115869873046875,0.0517578125,0.8670654296875,-0.5046234130859375
1776021879380930800,5.125930908203125,0.0833587646484375,0.9385528564453125,-0.5134124755859375
1776021879390991600,5.13599169921875,0.105712890625,0.9800262451171875,-0.509674072265625
1776021879401052700,5.146052734375,0.11724853515625,0.9753570556640625,-0.505157470703125
1776021879411113700,5.15611376953125,0.14007568359375,0.9299163818359375,-0.491607666015625
1776021879421175800,5.16617578125,0.163360595703125,0.8511810302734375,-0.4733123779296875
1776021879431236900,5.17623681640625,0.1669464111328125,0.7724456787109375,-0.467742919921875
1776021879441297700,5.186297607421875,0.1541595458984375,0.727783203125,-0.4730987548828125
1776021879451358700,5.196358642578125,0.1104888916015625,0.71124267578125,-0.4910736083984375
1776021879461419800,5.206419677734375,0.0438995361328125,0.7287139892578125,-0.5124969482421875
1776021879471480800,5.216480712890625,-0.013916015625,0.787109375,-0.52191162109375
1776021879481543000,5.22654296875,-0.0345611572265625,0.871490478515625,-0.5113525390625
1776021879491604000,5.23660400390625,-0.035247802734375,0.9568328857421875,-0.486053466796875
1776021879501664800,5.246664794921875,-0.0076751708984375,1.0055999755859375,-0.4596710205078125
1776021879511725800,5.256725830078125,0.0257110595703125,1.0061798095703125,-0.4427947998046875
1776021879521786600,5.26678662109375,0.0592193603515625,0.9864654541015625,-0.4252166748046875
1776021879531847700,5.27684765625,0.082061767578125,0.9470977783203125,-0.43914794921875
1776021879541909800,5.28690966796875,0.0798797607421875,0.878997802734375,-0.4830474853515625
1776021879551970800,5.296970703125,0.0312957763671875,0.82025146484375,-0.52801513671875
1776021879562031900,5.307031982421875,-0.0221099853515625,0.7886199951171875,-0.562530517578125
1776021879572092700,5.3170927734375,-0.0382080078125,0.7631378173828125,-0.5838775634765625
1776021879582153700,5.32715380859375,-0.03173828125,0.7442779541015625,-0.5852813720703125
1776021879592214800,5.33721484375,-0.0044403076171875,0.735198974609375,-0.5753631591796875
1776021879602276900,5.34727685546875,0.0259552001953125,0.75360107421875,-0.55596923828125
1776021879612338000,5.357337890625,0.0614166259765625,0.78387451171875,-0.5384368896484375
1776021879622399000,5.36739892578125,0.108642578125,0.80908203125,-0.523956298828125
1776021879632459800,5.377459716796875,0.1357574462890625,0.831817626953125,-0.5077972412109375
1776021879642520800,5.387520751953125,0.1380157470703125,0.8520965576171875,-0.49554443359375
1776021879652583000,5.3975830078125,0.123626708984375,0.8722076416015625,-0.482757568359375
1776021879662644000,5.40764404296875,0.0856475830078125,0.89019775390625,-0.4572906494140625
1776021879672704800,5.417704833984375,0.0406951904296875,0.89495849609375,-0.4503173828125
1776021879682765800,5.427765869140625,0.004364013671875,0.9019622802734375,-0.4405670166015625
1776021879692826600,5.43782666015625,-0.010467529296875,0.9037017822265625,-0.421112060546875
1776021879702887700,5.4478876953125,-0.0186920166015625,0.915069580078125,-0.3933258056640625
1776021879712949800,5.45794970703125,-0.0311431884765625,0.9429168701171875,-0.3593292236328125
1776021879723010800,5.4680107421875,-0.03448486328125,0.9839630126953125,-0.3118743896484375
1776021879733072000,5.47807177734375,-0.0185546875,1.03106689453125,-0.268035888671875
1776021879743133000,5.4881328125,-0.0032196044921875,1.084014892578125,-0.2039794921875
1776021879753193700,5.49819384765625,-0.0282440185546875,1.1396942138671875,-0.0948638916015625
1776021879763254800,5.5082548828125,-0.0257568359375,1.176727294921875,0.0179443359375
1776021879773316900,5.51831689453125,0.0756378173828125,1.1779022216796875,0.120391845703125
1776021879783378000,5.5283779296875,0.197601318359375,1.11474609375,0.2104339599609375
1776021879793438700,5.538438720703125,0.2539215087890625,1.0077972412109375,0.294036865234375
1776021879803499800,5.548499755859375,0.232452392578125,1.001739501953125,0.436187744140625
1776021879813560800,5.558560791015625,0.085784912109375,1.0029144287109375,0.567626953125
1776021879823621600,5.56862158203125,-0.30438232421875,0.9103240966796875,0.38037109375
1776021879833683700,5.57868359375,-0.7716827392578125,0.76666259765625,0.000030517578125
1776021879843744800,5.588744873046875,-0.566925048828125,0.623016357421875,-0.2745513916015625
1776021879853805800,5.598805908203125,0.035125732421875,0.563720703125,-0.436676025390625
1776021879863867000,5.608866943359375,0.2826995849609375,0.5460662841796875,-0.5664520263671875
1776021879873928000,5.618927978515625,0.3062591552734375,0.5444793701171875,-0.748626708984375
1776021879883989800,5.62898974609375,0.2870635986328125,0.6186370849609375,-0.93804931640625
1776021879894050800,5.63905078125,0.2308349609375,0.72113037109375,-1.124237060546875
1776021879904111900,5.64911181640625,0.0946044921875,0.8504791259765625,-1.36883544921875
1776021879914173000,5.6591728515625,-0.2413177490234375,0.98614501953125,-1.6826171875
1776021879924233700,5.669233642578125,-0.43988037109375,1.075653076171875,-1.8677520751953125
1776021879934294800,5.679294677734375,-0.09490966796875,1.041412353515625,-1.6262054443359375
1776021879944356600,5.689356689453125,0.2615203857421875,0.8628387451171875,-1.116302490234375
1776021879954417700,5.699417724609375,0.3371124267578125,0.705230712890625,-0.7299957275390625
1776021879964478700,5.709478759765625,0.2949066162109375,0.631256103515625,-0.5133209228515625
1776021879974539800,5.719539794921875,0.2053070068359375,0.639984130859375,-0.4163818359375
1776021879984600800,5.729600830078125,0.1181182861328125,0.7427978515625,-0.3989105224609375
1776021879994662000,5.739661865234375,0.1484832763671875,0.8833160400390625,-0.4204559326171875
1776021880004723700,5.7497236328125,0.1901397705078125,1.0243072509765625,-0.435150146484375
1776021880014784800,5.75978466796875,0.1254425048828125,1.1630096435546875,-0.4270172119140625
1776021880024845800,5.769845703125,-0.041778564453125,1.241851806640625,-0.419219970703125
1776021880034907000,5.779906982421875,-0.172576904296875,1.2164459228515625,-0.4299774169921875
1776021880044968000,5.789968017578125,-0.149627685546875,1.13714599609375,-0.4212799072265625
1776021880055028700,5.80002880859375,-0.0473480224609375,1.07232666015625,-0.38140869140625
1776021880065090800,5.8100908203125,0.011810302734375,1.0439453125,-0.33477783203125
1776021880075151600,5.820151611328125,0.0361328125,1.04974365234375,-0.2931060791015625
1776021880085212700,5.830212646484375,0.0601043701171875,1.049835205078125,-0.27239990234375
1776021880095273700,5.840273681640625,0.0037994384765625,1.0295867919921875,-0.2713623046875
1776021880105334800,5.850334716796875,-0.118408203125,0.99798583984375,-0.2914886474609375
1776021880115395800,5.860395751953125,-0.1492156982421875,0.9683685302734375,-0.3401336669921875
1776021880125457700,5.870457763671875,-0.05853271484375,0.938629150390625,-0.410675048828125
1776021880135518700,5.880518798828125,0.021636962890625,0.8960723876953125,-0.4703826904296875
1776021880145579800,5.890579833984375,0.0473480224609375,0.84039306640625,-0.465484619140625
1776021880155640800,5.900640869140625,0.012969970703125,0.784698486328125,-0.404876708984375
1776021880165702000,5.910701904296875,0.00982666015625,0.7706146240234375,-0.314544677734375
1776021880175764000,5.920763916015625,0.0155181884765625,0.80023193359375,-0.217041015625
1776021880185824800,5.93082470703125,-0.0780792236328125,0.8481597900390625,-0.1512908935546875
1776021880195885800,5.9408857421875,-0.1795501708984375,0.8997955322265625,-0.1118011474609375
1776021880205946600,5.950946533203125,-0.124481201171875,0.955169677734375,-0.0865631103515625
1776021880216007700,5.961007568359375,-0.0018310546875,1.0010528564453125,-0.0649871826171875
1776021880226068700,5.97106884765625,0.0240631103515625,1.0286407470703125,-0.024688720703125
1776021880236130800,5.981130859375,-0.050445556640625,1.0224761962890625,-0.0026397705078125
1776021880246191600,5.991191650390625,-0.1453399658203125,0.9985809326171875,-0.0036773681640625
1776021880256252700,6.001252685546875,-0.121337890625,0.9860687255859375,-0.036376953125
1776021880266313700,6.011313720703125,0.02777099609375,0.94903564453125,-0.105255126953125
1776021880276374800,6.021374755859375,0.0852203369140625,0.8872222900390625,-0.144012451171875
1776021880286435800,6.031435791015625,0.0053863525390625,0.854217529296875,-0.12738037109375
1776021880296498000,6.041497802734375,-0.030487060546875,0.86749267578125,-0.0886383056640625
1776021880306558700,6.051558837890625,-0.0762481689453125,0.90277099609375,-0.0555877685546875
1776021880316619800,6.061619873046875,-0.17462158203125,0.9410552978515625,-0.0368194580078125
1776021880326680800,6.071680908203125,-0.2059783935546875,0.97015380859375,-0.022430419921875
1776021880336741600,6.08174169921875,-0.12603759765625,1.010009765625,0.01513671875
1776021880346802700,6.091802734375,-0.0861358642578125,1.054595947265625,0.0867462158203125
1776021880356864800,6.10186474609375,-0.147216796875,1.075103759765625,0.14312744140625
1776021880366926000,6.111926025390625,-0.1533050537109375,1.061065673828125,0.1414031982421875
1776021880376987000,6.12198681640625,-0.1013031005859375,0.9807281494140625,0.0804901123046875
1776021880387048000,6.1320478515625,-0.14642333984375,0.8351898193359375,-0.016204833984375
1776021880397109000,6.14210888671875,-0.2000732421875,0.70391845703125,-0.123779296875
1776021880407170000,6.152170166015625,-0.0912017822265625,0.705078125,-0.17633056640625
1776021880417232100,6.162232177734375,0.036834716796875,0.8160552978515625,-0.1334381103515625
1776021880427293200,6.172293212890625,-0.0764312744140625,0.924285888671875,-0.042572021484375
1776021880437354000,6.18235400390625,-0.26885986328125,1.004241943359375,0.033050537109375
1776021880447415000,6.1924150390625,-0.2874755859375,1.0480804443359375,0.0916900634765625
1776021880457476000,6.20247607421875,-0.2230987548828125,1.0822601318359375,0.1513671875
1776021880467537000,6.212536865234375,-0.2070465087890625,1.1146240234375,0.20550537109375
1776021880477599200,6.22259912109375,-0.2595367431640625,1.122406005859375,0.21435546875
1776021880487660000,6.232659912109375,-0.22698974609375,1.088714599609375,0.1292724609375
1776021880497720800,6.242720947265625,-0.198974609375,0.969696044921875,0.0114593505859375
1776021880507782000,6.252781982421875,-0.21929931640625,0.8623504638671875,-0.0442657470703125
1776021880517843000,6.262843017578125,-0.1903839111328125,0.8050689697265625,-0.0414886474609375
1776021880527904000,6.272904052734375,-0.2103118896484375,0.8078460693359375,0.04351806640625
1776021880537966000,6.282966064453125,-0.2376556396484375,0.878509521484375,0.14251708984375
1776021880548027100,6.293027099609375,-0.237335205078125,0.97369384765625,0.22509765625
1776021880558088200,6.303088134765625,-0.2577667236328125,1.0673675537109375,0.2837066650390625
1776021880568149000,6.31314892578125,-0.364959716796875,1.0722198486328125,0.2970123291015625
1776021880578210000,6.3232099609375,-0.354339599609375,1.04510498046875,0.3031768798828125
1776021880588272000,6.333272216796875,-0.298248291015625,1.001312255859375,0.3078460693359375
1776021880598333200,6.343333251953125,-0.3558502197265625,0.9944305419921875,0.34832763671875
1776021880608394200,6.353394287109375,-0.338592529296875,0.9702301025390625,0.3107452392578125
1776021880618455000,6.363455078125,-0.3512420654296875,0.8602447509765625,0.165985107421875
1776021880628515800,6.373515869140625,-0.3701324462890625,0.77728271484375,0.045196533203125
1776021880638577000,6.383576904296875,-0.36260986328125,0.746826171875,-0.0205841064453125
1776021880648639000,6.393638916015625,-0.35968017578125,0.79931640625,0.0162506103515625
1776021880658700000,6.403699951171875,-0.358551025390625,0.86651611328125,0.089630126953125
1776021880668761000,6.413760986328125,-0.4332275390625,0.9117431640625,0.1564178466796875
1776021880678822100,6.423822265625,-0.4218597412109375,0.9852142333984375,0.2544097900390625
1776021880688883000,6.433883056640625,-0.4773101806640625,0.971893310546875,0.2423095703125
1776021880698944000,6.443944091796875,-0.51104736328125,0.90948486328125,0.2070159912109375
1776021880709006000,6.454006103515625,-0.4550018310546875,0.8194732666015625,0.2379608154296875
1776021880719067100,6.464067138671875,-0.4669036865234375,0.7400054931640625,0.2889251708984375
1776021880729128200,6.474128173828125,-0.5329132080078125,0.7739410400390625,0.3675689697265625
1776021880739189200,6.484189208984375,-0.527374267578125,0.8459014892578125,0.3785247802734375
1776021880749250000,6.49425,-0.59991455078125,0.958099365234375,0.3222198486328125
1776021880759310800,6.504310791015625,-0.58575439453125,0.99835205078125,0.2229461669921875
1776021880769372000,6.514371826171875,-0.510650634765625,0.98291015625,0.2062835693359375
1776021880779434000,6.52443408203125,-0.497772216796875,0.950347900390625,0.256378173828125
1776021880789495000,6.5344951171875,-0.4289093017578125,0.921478271484375,0.3296051025390625
1776021880799556000,6.54455615234375,-0.5163116455078125,0.8838958740234375,0.34521484375
1776021880809617200,6.5546171875,-0.4737548828125,0.8225555419921875,0.29071044921875
1776021880819678000,6.564677978515625,-0.5041961669921875,0.7963714599609375,0.30035400390625
1776021880829740000,6.574739990234375,-0.4063568115234375,0.901214599609375,0.35394287109375
1776021880839801000,6.584801025390625,-0.6650543212890625,0.861358642578125,0.3110809326171875
1776021880849862100,6.594862060546875,-0.6559906005859375,0.90423583984375,0.410797119140625
1776021880859923200,6.604923095703125,-0.6985626220703125,0.8925323486328125,0.428131103515625
1776021880869984300,6.614984375,-0.699981689453125,0.87945556640625,0.41619873046875
1776021880880045000,6.625045166015625,-0.6227874755859375,0.8809967041015625,0.4047088623046875
1776021880890105900,6.63510595703125,-0.6130828857421875,0.7991180419921875,0.369781494140625
1776021880900168000,6.64516796875,-0.3375244140625,0.7562408447265625,0.5112762451171875
1776021880910229000,6.65522900390625,-0.7054443359375,0.794921875,0.5043487548828125
1776021880920290000,6.6652900390625,-0.5316314697265625,0.785308837890625,0.565399169921875
1776021880930351000,6.67535107421875,-0.58038330078125,0.7806243896484375,0.563568115234375
1776021880940412200,6.685412109375,-0.618316650390625,0.846588134765625,0.5272369384765625
1776021880950473000,6.695472900390625,-0.6076202392578125,0.8800201416015625,0.5270843505859375
1776021880960535000,6.70553515625,-0.5621337890625,0.8418121337890625,0.5480194091796875
1776021880970596000,6.71559619140625,-0.554351806640625,0.7733001708984375,0.5880889892578125
1776021880980657200,6.7256572265625,-0.6046142578125,0.6912689208984375,0.5814208984375
1776021880990718200,6.73571826171875,-0.5840911865234375,0.681365966796875,0.5810394287109375
1776021881000779300,6.745779296875,-0.6163787841796875,0.683441162109375,0.6474609375
1776021881010840000,6.755840087890625,-0.6689300537109375,0.7184906005859375,0.65032958984375
1776021881020902100,6.765902099609375,-0.70709228515625,0.7762603759765625,0.5514373779296875
1776021881030963000,6.775962890625,-0.7076416015625,0.8213043212890625,0.6025848388671875
1776021881041024000,6.78602392578125,-0.732574462890625,0.8092041015625,0.735107421875
1776021881051085000,6.7960849609375,-0.7156524658203125,0.8232269287109375,0.809722900390625
1776021881061146000,6.80614599609375,-0.736083984375,0.8807830810546875,0.7205810546875
1776021881071207200,6.816207275390625,-0.84930419921875,0.9647369384765625,0.6426239013671875
1776021881081269000,6.82626904296875,-1.0592193603515625,1.0822296142578125,0.7039031982421875
1776021881091330000,6.836330078125,-1.2120513916015625,1.2316436767578125,0.774993896484375
1776021881101391000,6.84639111328125,-0.9503326416015625,1.370025634765625,0.501220703125
1776021881111452200,6.8564521484375,-0.8412933349609375,1.2496795654296875,-0.13287353515625
1776021881121513200,6.86651318359375,-0.3945465087890625,1.1446075439453125,-0.2857513427734375
1776021881131574300,6.87657421875,-0.381195068359375,0.674163818359375,-0.1591339111328125
1776021881141636000,6.886635986328125,-0.3368072509765625,0.376495361328125,-0.037445068359375
1776021881151697200,6.896697265625,-0.18048095703125,0.067535400390625,0.137908935546875
1776021881161758000,6.906758056640625,-0.0513763427734375,-0.2791595458984375,0.1596221923828125
1776021881171819000,6.916819091796875,-0.0512237548828125,-0.5926055908203125,0.034423828125
1776021881181880000,6.926880126953125,-0.1045684814453125,-0.7079620361328125,-0.1320037841796875
1776021881191941000,6.936941162109375,-0.124053955078125,-0.7975311279296875,-0.2989959716796875
1776021881202003000,6.9470029296875,-0.0390472412109375,-0.6047821044921875,-0.3153228759765625
1776021881212064000,6.95706396484375,0.12548828125,-0.2565765380859375,-0.2169647216796875
1776021881222125000,6.967125,0.26922607421875,-0.1542816162109375,-0.284210205078125
1776021881232186000,6.97718603515625,0.20526123046875,-0.127899169921875,-0.2563323974609375
1776021881242247200,6.9872470703125,-0.5316925048828125,-0.04779052734375,0.148040771484375
1776021881252308200,6.99730810546875,-3.124603271484375,1.357391357421875,1.5877532958984375
1776021881262370000,7.0073701171875,-2.69000244140625,4.251617431640625,2.0186920166015625
1776021881272431000,7.01743115234375,1.924346923828125,4.63079833984375,0.0118255615234375
1776021881282492000,7.027491943359375,1.638885498046875,3.0359954833984375,-0.232696533203125
1776021881292553000,7.037552978515625,-1.060333251953125,1.8905487060546875,0.2190399169921875
1776021881302614000,7.047614013671875,-1.4971160888671875,0.61553955078125,0.5673980712890625
1776021881312675000,7.057675048828125,-0.036712646484375,-0.1936187744140625,0.7631378173828125
1776021881322737000,7.06773681640625,-0.0651092529296875,-0.886199951171875,1.2830047607421875
1776021881332798000,7.0777978515625,-0.4829864501953125,-1.19427490234375,1.4258575439453125
1776021881342859000,7.08785888671875,-0.52716064453125,-0.3137969970703125,0.77734375
1776021881352920000,7.097920166015625,-0.1900177001953125,0.744873046875,0.388519287109375
1776021881362980000,7.10797998046875,-0.2691650390625,1.3359222412109375,0.4805450439453125
1776021881373041200,7.118041259765625,-0.5959625244140625,1.5160064697265625,0.229644775390625
1776021881383103200,7.128103271484375,-0.7215728759765625,1.211944580078125,-0.247894287109375
1776021881393164000,7.1381640625,-0.580657958984375,0.7683258056640625,-0.332122802734375
1776021881403225000,7.14822509765625,-0.53936767578125,0.5239715576171875,-0.066864013671875
1776021881413286100,7.1582861328125,-0.559295654296875,0.6544189453125,0.4072418212890625
1776021881423347200,7.16834716796875,-0.5563201904296875,0.8657989501953125,0.7562103271484375
1776021881433408000,7.178407958984375,-0.754974365234375,1.017608642578125,0.9274749755859375
1776021881443470300,7.18847021484375,-0.8714752197265625,1.0226593017578125,1.0589141845703125
1776021881453531100,7.19853125,-0.7803955078125,0.9851837158203125,0.9360809326171875
1776021881463592000,7.208592041015625,-0.9508514404296875,1.1382904052734375,0.7743377685546875
1776021881473653000,7.218653076171875,-1.0283203125,1.24725341796875,0.6350555419921875
1776021881483714000,7.228714111328125,-1.035308837890625,1.2728424072265625,0.394500732421875
1776021881493775000,7.238775146484375,-1.1169586181640625,1.332733154296875,0.3695220947265625
1776021881503837200,7.248837158203125,-1.2923431396484375,1.4150238037109375,0.385040283203125
1776021881513898200,7.258898193359375,-1.1795501708984375,1.6800994873046875,0.34063720703125
1776021881523959000,7.268958984375,-0.945556640625,1.9489898681640625,0.1435699462890625
1776021881534020000,7.27902001953125,-0.9027862548828125,1.8650054931640625,-0.1807403564453125
1776021881544081200,7.2890810546875,-0.6039886474609375,1.4881744384765625,-0.4898681640625
1776021881554142200,7.29914208984375,0.00653076171875,0.835845947265625,-0.802764892578125
1776021881564203000,7.309203125,0.7142486572265625,0.0106048583984375,-0.9476318359375
1776021881574265300,7.319265380859375,0.953887939453125,-0.6930694580078125,-0.605072021484375
1776021881584326100,7.329326171875,0.752349853515625,-1.0340576171875,0.071044921875
1776021881594387000,7.339386962890625,0.497467041015625,-1.4056854248046875,0.380706787109375
1776021881604448000,7.349447998046875,0.2516326904296875,-1.683135986328125,0.064849853515625
1776021881614509000,7.359509033203125,0.050018310546875,-1.3864898681640625,-0.5019989013671875
1776021881624570000,7.369570068359375,0.06866455078125,-0.3981781005859375,-0.6214447021484375
1776021881634632200,7.379632080078125,0.2080230712890625,-0.079193115234375,-0.6178436279296875
1776021881644693200,7.389693359375,0.285797119140625,-0.208984375,-0.4791107177734375
1776021881654754000,7.399754150390625,0.26324462890625,-0.4039306640625,-0.2938385009765625
1776021881664815000,7.409815185546875,-0.0228424072265625,-0.597686767578125,-0.095916748046875
1776021881674876200,7.419876220703125,-2.0008087158203125,-1.3466033935546875,0.7905426025390625
1776021881684937200,7.429937255859375,-7.7308349609375,2.806884765625,3.72332763671875
1776021881694999300,7.439999267578125,-1.680145263671875,8.055282592773438,0.8034210205078125
1776021881705060400,7.450060302734375,3.117431640625,6.1274261474609375,-0.9376220703125
1776021881715121200,7.46012109375,0.0787353515625,3.2959442138671875,0.13482666015625
1776021881725182000,7.470181884765625,-0.9659881591796875,0.770843505859375,0.0646209716796875
1776021881735243000,7.480242919921875,-0.8951873779296875,-1.389068603515625,0.438385009765625
1776021881745304000,7.490303955078125,0.51336669921875,-2.0505828857421875,1.9463348388671875
1776021881755366100,7.5003662109375,0.511505126953125,-2.4156494140625,2.6628265380859375
1776021881765427200,7.51042724609375,-0.8563232421875,-1.65325927734375,1.0353851318359375
1776021881775488300,7.52048828125,-1.9531707763671875,0.5880279541015625,-0.2533721923828125
1776021881785549000,7.530549072265625,-0.716064453125,1.6811370849609375,-0.525115966796875
1776021881795610000,7.540610107421875,-0.4276580810546875,1.898040771484375,-0.463836669921875
1776021881805671200,7.550671142578125,-1.4714813232421875,1.550689697265625,-0.281890869140625
1776021881815733200,7.560733154296875,-1.208831787109375,0.79998779296875,-0.1875762939453125
1776021881825794300,7.570794189453125,-0.688079833984375,0.0652923583984375,0.134674072265625
1776021881835855000,7.580855224609375,-0.55194091796875,-0.224151611328125,0.4686737060546875
1776021881845916200,7.590916259765625,-0.686126708984375,-0.0070037841796875,0.5146484375
1776021881855977000,7.60097705078125,-0.8744964599609375,0.4016265869140625,0.3289947509765625
1776021881866038000,7.6110380859375,-0.9565887451171875,0.7510528564453125,0.12091064453125
1776021881876100000,7.62110009765625,-1.001312255859375,0.8485870361328125,-0.0127410888671875
1776021881886161200,7.6311611328125,-0.971282958984375,0.803497314453125,0.0169677734375
1776021881896222200,7.64122216796875,-0.765350341796875,0.54791259765625,0.145599365234375
1776021881906283300,7.651283203125,-0.8614349365234375,0.30621337890625,0.2639312744140625
1776021881916344000,7.661343994140625,-0.8842926025390625,0.338653564453125,0.23687744140625
1776021881926405000,7.671405029296875,-0.841217041015625,0.4051361083984375,0.2154541015625
1776021881936466200,7.681466064453125,-0.7807159423828125,0.4394378662109375,0.19293212890625
1776021881946528300,7.6915283203125,-0.7664642333984375,0.468475341796875,0.182647705078125
1776021881956589300,7.70158935546875,-0.784210205078125,0.5374908447265625,0.2776336669921875
1776021881966650000,7.711650146484375,-0.7989501953125,0.6294708251953125,0.2908782958984375
1776021881976711000,7.7217109375,-0.8419647216796875,0.660186767578125,0.3137359619140625
1776021881986772000,7.73177197265625,-0.848907470703125,0.6646881103515625,0.357208251953125
1776021881996833000,7.7418330078125,-0.850433349609375,0.612335205078125,0.3699798583984375
1776021882006895000,7.75189501953125,-0.8424835205078125,0.5164642333984375,0.334869384765625
1776021882016956200,7.7619560546875,-0.781219482421875,0.4661102294921875,0.3229522705078125
1776021882027017200,7.772017333984375,-0.780670166015625,0.466278076171875,0.345855712890625
1776021882037078000,7.782078125,-0.8075408935546875,0.4988250732421875,0.3673095703125
1776021882047139000,7.79213916015625,-0.7796478271484375,0.5289154052734375,0.4029541015625
1776021882057200000,7.8022001953125,-0.724884033203125,0.52728271484375,0.44500732421875
1776021882067261200,7.81226123046875,-0.72882080078125,0.493560791015625,0.4274749755859375
1776021882077323300,7.8223232421875,-0.78765869140625,0.4832305908203125,0.3926849365234375
1776021882087384300,7.83238427734375,-0.791473388671875,0.538360595703125,0.3676300048828125
1776021882097445000,7.842445068359375,-0.7694549560546875,0.5475311279296875,0.324615478515625
1776021882107506000,7.852505859375,-0.7468719482421875,0.4568634033203125,0.3122406005859375
1776021882117567000,7.86256689453125,-0.7892608642578125,0.4312744140625,0.3475341796875
1776021882127628000,7.8726279296875,-0.8025054931640625,0.50799560546875,0.3804931640625
1776021882137690000,7.882690185546875,-0.784149169921875,0.561065673828125,0.3725128173828125
1776021882147751200,7.892751220703125,-0.80853271484375,0.5876617431640625,0.361663818359375
1776021882157812200,7.902812255859375,-0.8198394775390625,0.5858154296875,0.3637847900390625
1776021882167873000,7.912873046875,-0.7957763671875,0.533294677734375,0.3626708984375
1776021882177934000,7.92293408203125,-0.81756591796875,0.5043487548828125,0.369140625
1776021882187995100,7.9329951171875,-0.8729705810546875,0.53314208984375,0.360260009765625
1776021882198056200,7.94305615234375,-0.826995849609375,0.5738983154296875,0.321868896484375
1776021882208118300,7.9531181640625,-0.732421875,0.5446624755859375,0.283416748046875
1776021882218179300,7.963179443359375,-0.6707611083984375,0.48443603515625,0.2928924560546875
1776021882228240100,7.973240234375,-0.70782470703125,0.4876556396484375,0.30975341796875
1776021882238301000,7.983301025390625,-0.7562255859375,0.5193634033203125,0.3087158203125
1776021882248362000,7.993362060546875,-0.744903564453125,0.529876708984375,0.3049468994140625
1776021882258423000,8.003423095703125,-0.727325439453125,0.5330963134765625,0.3056488037109375
1776021882268485000,8.013485107421875,-0.721649169921875,0.501861572265625,0.307525634765625
1776021882278546200,8.023546142578125,-0.7391357421875,0.48931884765625,0.32147216796875
1776021882288607200,8.033607177734375,-0.8128509521484375,0.54425048828125,0.33795166015625
1776021882298668000,8.04366796875,-0.8515472412109375,0.590118408203125,0.3252716064453125
1776021882308729000,8.05372900390625,-0.8218536376953125,0.6114959716796875,0.297607421875
1776021882318790100,8.0637900390625,-0.7528076171875,0.5435333251953125,0.3203125
1776021882328852200,8.073852294921876,-0.7005462646484375,0.4517364501953125,0.330047607421875
1776021882338913300,8.083913330078126,-0.681884765625,0.437286376953125,0.3644561767578125
1776021882348974300,8.093974365234375,-0.6905517578125,0.4267730712890625,0.357666015625
1776021882359035100,8.10403515625,-0.685394287109375,0.4274749755859375,0.39990234375
1776021882369096400,8.114096435546875,-0.767852783203125,0.5019989013671875,0.3929290771484375
1776021882379157200,8.1241572265625,-0.8210601806640625,0.4849700927734375,0.3665924072265625
1776021882389218300,8.13421826171875,-0.8222808837890625,0.4276275634765625,0.38165283203125
1776021882399280400,8.1442802734375,-0.8066253662109375,0.452301025390625,0.417388916015625
1776021882409341400,8.154341552734374,-0.8040008544921875,0.2949981689453125,0.287353515625
1776021882419402200,8.16440234375,-0.7465362548828125,0.6367950439453125,0.5945892333984375
1776021882429463300,8.17446337890625,-0.7174835205078125,0.568572998046875,0.436798095703125
1776021882439524400,8.1845244140625,-0.6885223388671875,0.5465545654296875,0.424652099609375
1776021882449585400,8.19458544921875,-0.7127685546875,0.5911712646484375,0.393646240234375
1776021882459647500,8.2046474609375,-0.74078369140625,0.4183349609375,0.2253265380859375
1776021882469708500,8.21470849609375,-0.777374267578125,0.6349334716796875,0.4491729736328125
1776021882479769300,8.224769287109375,-0.7358551025390625,0.5841827392578125,0.3867340087890625
1776021882489830400,8.234830322265625,-0.8003387451171875,0.485260009765625,0.1610870361328125
1776021882499891500,8.244891357421874,-0.83447265625,0.7787322998046875,0.40826416015625
1776021882509952300,8.2549521484375,-0.75604248046875,0.7265472412109375,0.38018798828125
1776021882520013300,8.265013427734376,-0.769195556640625,0.495452880859375,0.1181793212890625
1776021882530075400,8.275075439453126,-0.804046630859375,0.67156982421875,0.34033203125
1776021882540136400,8.285136474609375,-0.763092041015625,0.6400604248046875,0.3970794677734375
1776021882550197200,8.295197265625,-0.7877197265625,0.5408935546875,0.269866943359375
1776021882560258300,8.30525830078125,-0.8265838623046875,0.5892486572265625,0.29315185546875
1776021882570319400,8.3153193359375,-0.826690673828125,0.5107421875,0.2429962158203125
1776021882580380400,8.32538037109375,-0.9006195068359375,0.6132965087890625,0.2565155029296875
1776021882590441500,8.33544140625,-0.8074951171875,0.6882171630859375,0.4575042724609375
1776021882600503600,8.345503662109374,-0.8614654541015625,0.56158447265625,0.2928009033203125
1776021882610564400,8.355564453125,-0.8823394775390625,0.523193359375,0.2752532958984375
1776021882620625400,8.36562548828125,-0.855926513671875,0.4698333740234375,0.2874755859375
1776021882630686500,8.3756865234375,-0.8726043701171875,0.455535888671875,0.2875213623046875
1776021882640747300,8.385747314453125,-0.8715362548828125,0.4427642822265625,0.2830963134765625
1776021882650808300,8.395808349609375,-0.896514892578125,0.445098876953125,0.2877197265625
1776021882660870400,8.405870361328125,-0.913726806640625,0.4686126708984375,0.288787841796875
1776021882670931500,8.415931396484375,-0.9189605712890625,0.4691009521484375,0.292083740234375
1776021882680992300,8.4259921875,-0.9258575439453125,0.4425048828125,0.289337158203125
1776021882691053300,8.43605322265625,-0.928497314453125,0.4529571533203125,0.298187255859375
1776021882701114400,8.4461142578125,-0.8986968994140625,0.4182891845703125,0.2847442626953125
1776021882711175400,8.456175537109376,-0.8630828857421875,0.3862152099609375,0.2938385009765625
1776021882721236500,8.466236572265625,-0.8363037109375,0.371612548828125,0.3054656982421875
1776021882731298600,8.476298583984375,-0.8577117919921875,0.359405517578125,0.3007354736328125
1776021882741359400,8.486359375,-0.8687591552734375,0.384765625,0.293701171875
1776021882751420400,8.49642041015625,-0.8521575927734375,0.378509521484375,0.2904815673828125
1776021882761481500,8.5064814453125,-0.81890869140625,0.3544464111328125,0.3079833984375
1776021882771542300,8.516542236328124,-0.772613525390625,0.356536865234375,0.312408447265625
1776021882781603300,8.526603271484374,-0.77203369140625,0.3310699462890625,0.318511962890625
1776021882791664400,8.536664306640626,-0.7997894287109375,0.3216705322265625,0.3604888916015625
1776021882801726500,8.5467265625,-0.816131591796875,0.3527984619140625,0.39056396484375
1776021882811787300,8.556787353515626,-0.8326416015625,0.361541748046875,0.3980560302734375
1776021882821848300,8.566848388671875,-0.8424224853515625,0.3537139892578125,0.3991546630859375
1776021882831909400,8.576909423828125,-0.8428497314453125,0.3669891357421875,0.3971710205078125
1776021882841970400,8.586970458984375,-0.8452301025390625,0.384063720703125,0.366729736328125
1776021882852031500,8.597031494140625,-0.8276519775390625,0.4156341552734375,0.3709716796875
1776021882862092500,8.607092529296875,-0.8158416748046875,0.4379730224609375,0.364715576171875
1776021882872154400,8.617154296875,-0.7947540283203125,0.4297332763671875,0.3513336181640625
1776021882882215400,8.62721533203125,-0.7817535400390625,0.4127044677734375,0.3355560302734375
1776021882892276500,8.6372763671875,-0.7512054443359375,0.3773040771484375,0.32794189453125
1776021882902337300,8.647337158203126,-0.7763824462890625,0.375885009765625,0.30267333984375
1776021882912398300,8.6573984375,-0.846588134765625,0.461669921875,0.2740478515625
1776021882922459400,8.66745947265625,-0.902099609375,0.5060577392578125,0.28729248046875
1776021882932521200,8.677521240234375,-0.92816162109375,0.525726318359375,0.3336181640625
1776021882942582300,8.687582275390625,-0.9195098876953125,0.5087432861328125,0.35186767578125
1776021882952643300,8.697643310546875,-0.8653564453125,0.469970703125,0.4053955078125
1776021882962704400,8.707704345703124,-0.8881683349609375,0.493896484375,0.401763916015625
1776021882972765400,8.717765380859374,-0.9491424560546875,0.4921112060546875,0.370880126953125
1776021882982826500,8.727826416015626,-0.9433135986328125,0.48291015625,0.3909759521484375
1776021882992887600,8.737887451171876,-0.906585693359375,0.5072784423828125,0.3878021240234375
1776021883002949400,8.747949462890626,-0.8811798095703125,0.5179443359375,0.373443603515625
1776021883013010400,8.758010498046875,-0.8787994384765625,0.5230255126953125,0.38836669921875
1776021883023071500,8.768071533203125,-0.8812713623046875,0.5600738525390625,0.3683013916015625
1776021883033132300,8.77813232421875,-0.896026611328125,0.54315185546875,0.3440093994140625
1776021883043193300,8.788193359375,-0.8226470947265625,0.5179290771484375,0.3627777099609375
1776021883053254400,8.79825439453125,-0.830596923828125,0.5435333251953125,0.3629150390625
1776021883063316200,8.808316162109374,-0.8244171142578125,0.5776824951171875,0.3575286865234375
1776021883073377300,8.818377197265624,-0.83905029296875,0.5868377685546875,0.361053466796875
1776021883083438300,8.828438232421876,-0.8974609375,0.601104736328125,0.3621063232421875
1776021883093499400,8.83849951171875,-0.90814208984375,0.6273956298828125,0.3643646240234375
1776021883103560400,8.848560546875,-0.8522796630859375,0.6111907958984375,0.346099853515625
1776021883113621500,8.85862158203125,-0.792266845703125,0.604278564453125,0.3519439697265625
1776021883123682600,8.8686826171875,-0.7655487060546875,0.6172637939453125,0.3409881591796875
1776021883133744400,8.878744384765625,-0.683013916015625,0.58807373046875,0.2957000732421875
1776021883143805400,8.888805419921875,-0.574798583984375,0.5591278076171875,0.276397705078125
1776021883153866500,8.898866455078124,-0.5795135498046875,0.619293212890625,0.2371063232421875
1776021883163927300,8.90892724609375,-0.5979461669921875,0.6602783203125,0.1777191162109375
1776021883173988400,8.91898828125,-0.6351318359375,0.68658447265625,0.1689910888671875
1776021883184049400,8.92904931640625,-0.676544189453125,0.711761474609375,0.2010040283203125
1776021883194111200,8.939111328125,-0.7105712890625,0.707000732421875,0.2220306396484375
1776021883204172300,8.94917236328125,-0.74456787109375,0.72509765625,0.2395172119140625
1776021883214233300,8.9592333984375,-0.7107696533203125,0.69781494140625,0.2542266845703125
1776021883224294400,8.96929443359375,-0.6973419189453125,0.6184539794921875,0.248138427734375
1776021883234355500,8.97935546875,-0.632720947265625,0.57440185546875,0.2414398193359375
1776021883244416500,8.98941650390625,-0.6057586669921875,0.532562255859375,0.173095703125
1776021883254477600,8.9994775390625,-0.6136932373046875,0.5071868896484375,0.127685546875
1776021883264539400,9.009539306640624,-0.5903472900390625,0.5145263671875,0.1505584716796875
1776021883274600400,9.019600341796876,-0.60467529296875,0.5363311767578125,0.170989990234375
1776021883284661500,9.02966162109375,-0.6229095458984375,0.5776519775390625,0.198455810546875
1776021883294722300,9.039722412109375,-0.61181640625,0.5651702880859375,0.215087890625
1776021883304783400,9.049783447265625,-0.59423828125,0.55450439453125,0.2170867919921875
1776021883314844400,9.059844482421875,-0.5913848876953125,0.5531768798828125,0.1949920654296875
1776021883324906200,9.06990625,-0.5959320068359375,0.5565948486328125,0.17535400390625
1776021883334967300,9.07996728515625,-0.6090240478515625,0.572113037109375,0.17315673828125
1776021883345028400,9.0900283203125,-0.65374755859375,0.5966644287109375,0.1705780029296875
1776021883355089400,9.10008935546875,-0.6573638916015625,0.6064605712890625,0.1714935302734375
1776021883365150500,9.110150390625,-0.6444091796875,0.5944061279296875,0.186767578125
1776021883375211500,9.12021142578125,-0.6462860107421875,0.5564117431640625,0.1964111328125
1776021883385272300,9.130272216796875,-0.676666259765625,0.5355224609375,0.2223663330078125
1776021883395334400,9.14033447265625,-0.66986083984375,0.551116943359375,0.2343902587890625
1776021883405395200,9.150395263671875,-0.6956787109375,0.5740966796875,0.2356414794921875
1776021883415456300,9.160456298828125,-0.741912841796875,0.6083526611328125,0.2554473876953125
1776021883425517300,9.170517333984375,-0.756134033203125,0.6483917236328125,0.2788848876953125
1776021883435578400,9.180578369140624,-0.7682342529296875,0.640533447265625,0.282623291015625
1776021883445639400,9.190639404296874,-0.7730712890625,0.6315765380859375,0.277679443359375
1776021883455701200,9.200701171875,-0.791229248046875,0.638580322265625,0.2611083984375
1776021883465762300,9.21076220703125,-0.802276611328125,0.6353302001953125,0.25433349609375
1776021883475823400,9.2208232421875,-0.799072265625,0.61749267578125,0.270233154296875
1776021883485884400,9.230884521484375,-0.7772216796875,0.6131439208984375,0.295745849609375
1776021883495945500,9.240945556640625,-0.8166046142578125,0.620361328125,0.3033447265625
1776021883506006500,9.251006591796875,-0.8005523681640625,0.615264892578125,0.2813873291015625
1776021883516067300,9.2610673828125,-0.774200439453125,0.6056976318359375,0.273040771484375
1776021883526129400,9.27112939453125,-0.7863922119140625,0.5699462890625,0.2575836181640625
1776021883536190200,9.281190185546874,-0.7925262451171875,0.569671630859375,0.276702880859375
1776021883546251300,9.291251220703124,-0.7952423095703125,0.6038360595703125,0.299560546875
1776021883556312300,9.301312255859376,-0.8090972900390625,0.59674072265625,0.2987213134765625
1776021883566373400,9.311373291015625,-0.8214111328125,0.6098175048828125,0.3183135986328125
1776021883576434400,9.321434326171875,-0.8161468505859375,0.6016845703125,0.330780029296875
1776021883586496300,9.331496337890625,-0.8048248291015625,0.567413330078125,0.326934814453125
1776021883596557300,9.341557373046875,-0.753662109375,0.5590972900390625,0.3193206787109375
1776021883606618400,9.351618408203125,-0.724456787109375,0.5342559814453125,0.3069000244140625
1776021883616679400,9.361679443359375,-0.7533111572265625,0.5302581787109375,0.3080291748046875
1776021883626740500,9.371740478515624,-0.7635040283203125,0.5522918701171875,0.3266143798828125
1776021883636801500,9.381801513671874,-0.763519287109375,0.5300445556640625,0.3502197265625
1776021883646862300,9.3918623046875,-0.785400390625,0.4927978515625,0.3599090576171875
1776021883656924400,9.40192431640625,-0.809539794921875,0.509613037109375,0.3734130859375
1776021883666985200,9.411985107421875,-0.81317138671875,0.521331787109375,0.3744659423828125
1776021883677046300,9.42204638671875,-0.8196563720703125,0.5131683349609375,0.38519287109375
1776021883687107300,9.432107421875,-0.8005523681640625,0.537200927734375,0.4157562255859375
1776021883697168400,9.44216845703125,-0.762359619140625,0.50164794921875,0.3921966552734375
1776021883707229400,9.4522294921875,-0.7355804443359375,0.4570159912109375,0.3727874755859375
1776021883717290500,9.46229052734375,-0.75396728515625,0.4588165283203125,0.3968963623046875
1776021883727352300,9.472352294921874,-0.7515411376953125,0.453643798828125,0.396392822265625
1776021883737413400,9.482413330078124,-0.769256591796875,0.447601318359375,0.38531494140625
1776021883747474400,9.492474365234376,-0.7792816162109375,0.45916748046875,0.381500244140625
1776021883757535500,9.502535400390625,-0.7755126953125,0.435211181640625,0.393798828125
1776021883767596500,9.512596435546875,-0.776702880859375,0.424652099609375,0.4131927490234375
1776021883777657300,9.5226572265625,-0.8048248291015625,0.4395599365234375,0.41876220703125
1776021883787719400,9.532719482421875,-0.8130035400390625,0.4430084228515625,0.4152374267578125
1776021883797780200,9.5427802734375,-0.8039703369140625,0.45068359375,0.4039459228515625
1776021883807841300,9.55284130859375,-0.8008270263671875,0.4443511962890625,0.4077301025390625
1776021883817902300,9.56290234375,-0.7951507568359375,0.4494171142578125,0.4387054443359375
1776021883827963400,9.57296337890625,-0.8018951416015625,0.44830322265625,0.4481048583984375
1776021883838024400,9.5830244140625,-0.8210296630859375,0.443695068359375,0.450439453125
1776021883848085500,9.59308544921875,-0.8251495361328125,0.4384307861328125,0.45294189453125
1776021883858147300,9.603147216796875,-0.818634033203125,0.4447784423828125,0.4353179931640625
1776021883868208400,9.61320849609375,-0.8093719482421875,0.4361724853515625,0.4194183349609375
1776021883878269400,9.62326953125,-0.81195068359375,0.427520751953125,0.4450225830078125
1776021883888330500,9.63333056640625,-0.818145751953125,0.426971435546875,0.45989990234375
1776021883898391600,9.6433916015625,-0.8272552490234375,0.4102020263671875,0.4460906982421875
1776021883908452400,9.653452392578124,-0.8506011962890625,0.4376678466796875,0.46966552734375
1776021883918513400,9.663513427734374,-0.839752197265625,0.4480743408203125,0.4814300537109375
1776021883928575200,9.6735751953125,-0.813018798828125,0.4305877685546875,0.4827117919921875
1776021883938636300,9.68363623046875,-0.7996978759765625,0.4219207763671875,0.5037841796875
1776021883948697300,9.693697265625,-0.798736572265625,0.4006805419921875,0.509246826171875
1776021883958758400,9.70375830078125,-0.81134033203125,0.43487548828125,0.5272369384765625
1776021883968819500,9.7138193359375,-0.8217620849609375,0.46038818359375,0.5091094970703125
1776021883978880500,9.723880615234375,-0.7974700927734375,0.4432830810546875,0.465972900390625
1776021883988941300,9.73394140625,-0.7718963623046875,0.47406005859375,0.4758148193359375
1776021883999003400,9.74400341796875,-0.777496337890625,0.4847869873046875,0.5015869140625
1776021884009064400,9.754064453125,-0.7711029052734375,0.455322265625,0.49359130859375
1776021884019125500,9.76412548828125,-0.7826080322265625,0.4727630615234375,0.5078582763671875
1776021884029186600,9.7741865234375,-0.809600830078125,0.48529052734375,0.5158843994140625
1776021884039247400,9.784247314453125,-0.7947540283203125,0.4753570556640625,0.4951324462890625
1776021884049308400,9.794308349609375,-0.773101806640625,0.4694671630859375,0.477081298828125
1776021884059369200,9.804369140625,-0.73175048828125,0.460968017578125,0.4734649658203125
1776021884069431300,9.814431396484375,-0.7207183837890625,0.4432830810546875,0.4798583984375
1776021884079492400,9.824492431640625,-0.74359130859375,0.458404541015625,0.5092315673828125
1776021884089553400,9.834553466796875,-0.7645263671875,0.476593017578125,0.4942626953125
1776021884099614500,9.844614501953124,-0.768829345703125,0.4795379638671875,0.4674072265625
1776021884109675500,9.854675537109374,-0.7563934326171875,0.4899139404296875,0.5005035400390625
1776021884119736300,9.864736328125,-0.750335693359375,0.4764556884765625,0.514862060546875
1776021884129798400,9.87479833984375,-0.7603302001953125,0.4953765869140625,0.5304107666015625
1776021884139859500,9.884859375,-0.792510986328125,0.49151611328125,0.5142822265625
1776021884149920500,9.89492041015625,-0.7916717529296875,0.5976715087890625,0.552093505859375
1776021884159981600,9.904981689453125,-0.8062286376953125,0.5708770751953125,0.4691162109375
1776021884170042400,9.91504248046875,-0.774993896484375,0.677886962890625,0.60748291015625
1776021884180103400,9.925103515625,-0.7723846435546875,0.5547332763671875,0.524566650390625
1776021884190164200,9.935164306640624,-0.8030242919921875,0.669586181640625,0.5813751220703125
1776021884200226300,9.945226318359374,-0.759857177734375,0.5960845947265625,0.4934539794921875
1776021884210287400,9.955287353515626,-0.7887420654296875,0.718414306640625,0.5533599853515625
1776021884220348400,9.965348388671876,-0.8253326416015625,0.7064056396484375,0.5554656982421875
1776021884230409500,9.975409423828125,-0.8470306396484375,0.730865478515625,0.4456329345703125
1776021884240470500,9.985470458984375,-0.8962249755859375,0.7294769287109375,0.5381317138671875
1776021884250531300,9.99553125,-0.8551025390625,0.73883056640625,0.4922332763671875
1776021884260593400,10.005593505859375,-0.8973846435546875,0.8035888671875,0.5182952880859375
1776021884270654500,10.015654541015625,-0.9496612548828125,0.7073974609375,0.5701751708984375
1776021884280715500,10.025715576171875,-0.9201507568359375,0.7393341064453125,0.3753814697265625
1776021884290776600,10.035776611328124,-0.8274078369140625,0.71661376953125,0.5424041748046875
1776021884300837400,10.04583740234375,-0.607452392578125,0.5086212158203125,0.51715087890625
1776021884310898200,10.055898193359376,-0.392333984375,0.2808685302734375,0.6941375732421875
1776021884320959200,10.065959228515625,-0.1841888427734375,-0.0160980224609375,0.76983642578125
1776021884331021300,10.076021240234375,-0.05096435546875,-0.2171173095703125,0.7474365234375
1776021884341082400,10.086082275390625,-0.2708892822265625,0.4225616455078125,0.5496368408203125
1776021884351143400,10.096143310546875,-1.2606353759765625,1.802978515625,0.0239715576171875
1776021884361204500,10.10620458984375,-1.5655670166015625,2.0571746826171875,-0.3718109130859375
1776021884371265500,10.116265625,-0.502197265625,1.2004852294921875,0.018524169921875
1776021884381326300,10.126326416015624,-0.38995361328125,0.48370361328125,0.3185272216796875
1776021884391388400,10.136388427734374,-0.766387939453125,0.36309814453125,0.3280487060546875
1776021884401449500,10.146449462890626,-0.656280517578125,0.47003173828125,0.3315582275390625
1776021884411510500,10.156510498046876,-0.5531463623046875,0.5665740966796875,0.281219482421875
1776021884421571600,10.166571533203125,-0.62139892578125,0.722412109375,0.263336181640625
1776021884431632400,10.17663232421875,-0.6190643310546875,0.9002838134765625,0.1925506591796875
1776021884441693200,10.186693115234375,-0.7336273193359375,1.016448974609375,0.0698089599609375
1776021884451754200,10.196754150390625,-0.87310791015625,1.0825042724609375,-0.0645751953125
1776021884461816300,10.20681640625,-0.7675018310546875,1.0467376708984375,-0.188995361328125
1776021884471877400,10.21687744140625,-0.6338653564453125,0.8704071044921875,-0.2441253662109375
1776021884481938400,10.2269384765625,-0.6379241943359375,0.6427764892578125,-0.22454833984375
1776021884491999500,10.23699951171875,-0.632843017578125,0.4885711669921875,-0.1457672119140625
1776021884502060300,10.247060302734376,-0.4923248291015625,0.493560791015625,0.0415802001953125
1776021884512121300,10.257121337890625,-0.4329071044921875,0.6136932373046875,0.1681365966796875
1776021884522183400,10.267183349609375,-0.476715087890625,0.7199554443359375,0.128631591796875
1776021884532244500,10.277244384765625,-0.575592041015625,0.7581939697265625,0.1010284423828125
1776021884542305500,10.287305419921875,-0.70703125,0.7609100341796875,0.1097259521484375
1776021884552366300,10.297366455078125,-0.6486358642578125,0.76336669921875,0.0879058837890625
1776021884562427400,10.307427490234375,-0.4597930908203125,0.76629638671875,0.0530548095703125
1776021884572488200,10.31748828125,-0.3626251220703125,0.7645416259765625,0.0032196044921875
1776021884582550300,10.32755029296875,-0.4354248046875,0.76318359375,-0.0479888916015625
1776021884592611300,10.337611328125,-0.56097412109375,0.7795562744140625,-0.07037353515625
1776021884602672400,10.34767236328125,-0.6261444091796875,0.816986083984375,-0.0699310302734375
1776021884612733400,10.3577333984375,-0.58538818359375,0.869140625,-0.0820465087890625
1776021884622794500,10.36779443359375,-0.4979248046875,0.9456329345703125,-0.0691375732421875
1776021884632855300,10.377855224609375,-0.3915863037109375,1.026275634765625,-0.1168212890625
1776021884642916400,10.387916259765625,-0.2228546142578125,1.0642242431640625,-0.2402191162109375
1776021884652978400,10.397978515625,-0.188720703125,1.0544586181640625,-0.306915283203125
1776021884663039500,10.40803955078125,-0.3251953125,1.022308349609375,-0.3195343017578125
1776021884673100500,10.4181005859375,-0.389801025390625,0.963653564453125,-0.3108978271484375
1776021884683161300,10.428161376953126,-0.308868408203125,0.90704345703125,-0.2824859619140625
1776021884693222400,10.438222412109376,-0.173065185546875,0.884368896484375,-0.237823486328125
1776021884703283200,10.448283203125,-0.031402587890625,0.886871337890625,-0.2081756591796875
1776021884713345300,10.45834521484375,0.048980712890625,0.9048309326171875,-0.20147705078125
1776021884723406300,10.46840625,0.059539794921875,0.924591064453125,-0.1882171630859375
1776021884733467400,10.47846728515625,0.0455780029296875,0.94580078125,-0.2208099365234375
1776021884743528400,10.488528564453125,0.0177154541015625,0.9104766845703125,-0.268402099609375
1776021884753589500,10.498589599609375,-0.1367645263671875,0.883026123046875,-0.155029296875
1776021884763650300,10.508650390625,-0.2387847900390625,0.8931427001953125,-0.0861968994140625
1776021884773712400,10.51871240234375,-0.2027587890625,0.8901824951171875,-0.10211181640625
1776021884783773400,10.5287734375,-0.0961456298828125,0.893463134765625,-0.131011962890625
1776021884793834500,10.53883447265625,-0.0001678466796875,0.885528564453125,-0.1468963623046875
1776021884803895600,10.5488955078125,0.0546417236328125,0.868377685546875,-0.150482177734375
1776021884813956400,10.558956298828125,0.0673980712890625,0.859466552734375,-0.1387481689453125
1776021884824017400,10.569017333984375,0.062255859375,0.8706207275390625,-0.138885498046875
1776021884834078200,10.579078125,0.03765869140625,0.8969573974609375,-0.1509246826171875
1776021884844140300,10.589140380859375,-0.0117645263671875,0.926513671875,-0.1845245361328125
1776021884854201300,10.599201416015624,-0.088409423828125,0.9644775390625,-0.2144012451171875
1776021884864262400,10.609262451171874,-0.1912689208984375,1.0075836181640625,-0.22479248046875
1776021884874323500,10.619323486328126,-0.2752838134765625,1.0587310791015625,-0.2401123046875
1776021884884384500,10.629384521484376,-0.316650390625,1.091094970703125,-0.251312255859375
1776021884894445300,10.6394453125,-0.2089080810546875,1.3746795654296875,-0.3130340576171875
1776021884904507400,10.64950732421875,-0.098114013671875,1.455352783203125,-0.2824249267578125
1776021884914568400,10.659568359375,-0.0188446044921875,1.062530517578125,-0.1897125244140625
1776021884924629500,10.66962939453125,0.01202392578125,0.7777252197265625,-0.10784912109375
1776021884934690600,10.679690673828125,0.02032470703125,0.3227081298828125,0.03546142578125
1776021884944751400,10.68975146484375,0.041412353515625,0.26629638671875,0.0441436767578125
1776021884954812400,10.6998125,0.1097869873046875,0.466064453125,-0.1238555908203125
1776021884964873200,10.709873291015626,0.1456298828125,0.6440582275390625,-0.2530364990234375
1776021884974935300,10.719935302734376,0.1504669189453125,0.749725341796875,-0.2764739990234375
1776021884984996400,10.729996337890626,0.1080474853515625,0.881072998046875,-0.304443359375
1776021884995057400,10.740057373046875,-0.027313232421875,1.0075531005859375,-0.426055908203125
1776021885005118500,10.750118408203125,-0.160858154296875,1.0596923828125,-0.5669403076171875
1776021885015179500,10.760179443359375,-0.1563873291015625,1.054473876953125,-0.644012451171875
1776021885025240300,10.770240234375,-0.028564453125,1.033782958984375,-0.6763763427734375
1776021885035302400,10.780302490234375,0.116241455078125,0.9933624267578125,-0.68487548828125
1776021885045363500,10.790363525390624,0.19512939453125,0.9373626708984375,-0.668212890625
1776021885055424500,10.800424560546874,0.2074737548828125,0.8756103515625,-0.6310272216796875
1776021885065485600,10.810485595703126,0.19049072265625,0.7703399658203125,-0.5740814208984375
1776021885075546400,10.82054638671875,0.1629180908203125,0.658660888671875,-0.4914398193359375
1776021885085607200,10.830607177734375,0.1370086669921875,0.5847625732421875,-0.4227142333984375
1776021885095669200,10.840669189453125,0.1078643798828125,0.5513763427734375,-0.4027252197265625
1776021885105730300,10.850730224609375,0.0843963623046875,0.576690673828125,-0.41632080078125
1776021885115791400,10.860791259765625,0.071075439453125,0.646453857421875,-0.466583251953125
1776021885125852400,10.870852294921875,0.071624755859375,0.7521514892578125,-0.5420684814453125
1776021885135913500,10.88091357421875,0.0725250244140625,0.8730926513671875,-0.584808349609375
1776021885145974300,10.890974365234374,0.0612335205078125,0.96966552734375,-0.5997314453125
1776021885156035300,10.901035400390626,0.0428619384765625,1.0377044677734375,-0.5968475341796875
1776021885166097400,10.911097412109376,0.002227783203125,1.0920867919921875,-0.579681396484375
1776021885176158500,10.921158447265626,-0.0366973876953125,1.1146697998046875,-0.5704193115234375
1776021885186219500,10.931219482421875,-0.0538330078125,1.05718994140625,-0.536712646484375
1776021885196280600,10.941280517578125,-0.03656005859375,0.939849853515625,-0.4831390380859375
1776021885206341400,10.95134130859375,-0.0157012939453125,0.8607330322265625,-0.4386138916015625
1776021885216402200,10.961402099609375,0.004669189453125,0.843719482421875,-0.417236328125
1776021885226464300,10.97146435546875,0.035736083984375,0.8583831787109375,-0.4121246337890625
1776021885236525300,10.981525390625,0.0441436767578125,0.86639404296875,-0.415771484375
1776021885246586400,10.99158642578125,-0.0007781982421875,0.859771728515625,-0.4492340087890625
1776021885256647400,11.0016474609375,-0.0542449951171875,0.8491363525390625,-0.5164642333984375
1776021885266708500,11.01170849609375,-0.055389404296875,0.8527984619140625,-0.5664215087890625
1776021885276769300,11.021769287109375,-0.004058837890625,0.8535919189453125,-0.587738037109375
1776021885286830300,11.031830322265625,0.0669097900390625,0.823822021484375,-0.57257080078125
1776021885296892400,11.041892333984375,0.1248016357421875,0.7679443359375,-0.52197265625
1776021885306953500,11.051953369140625,0.1605072021484375,0.71893310546875,-0.4682464599609375
1776021885317014500,11.0620146484375,0.17724609375,0.699737548828125,-0.427215576171875
1776021885327075600,11.07207568359375,0.186126708984375,0.71527099609375,-0.412750244140625
1776021885337136400,11.082136474609374,0.1872406005859375,0.750274658203125,-0.4280853271484375
1776021885347197200,11.092197265625,0.1781768798828125,0.7732086181640625,-0.454559326171875
1776021885357259300,11.10225927734375,0.1688690185546875,0.786773681640625,-0.4916839599609375
1776021885367320300,11.1123203125,0.161529541015625,0.8012847900390625,-0.5439453125
1776021885377381400,11.12238134765625,0.1555328369140625,0.8298187255859375,-0.608673095703125
1776021885387442400,11.1324423828125,0.1344451904296875,0.86553955078125,-0.6790924072265625
1776021885397503500,11.14250341796875,0.0357208251953125,0.88525390625,-0.7525787353515625
1776021885407564300,11.152564208984375,-0.1511993408203125,0.8587188720703125,-0.8392181396484375
1776021885417625300,11.162625244140624,-0.2204132080078125,0.842437744140625,-0.8505859375
1776021885427687400,11.1726875,-0.17071533203125,0.8616790771484375,-0.766815185546875
1776021885437748500,11.18274853515625,-0.0773162841796875,0.8577423095703125,-0.675994873046875
1776021885447809500,11.1928095703125,0.0152587890625,0.81982421875,-0.5826263427734375
1776021885457870600,11.20287060546875,0.087127685546875,0.7807464599609375,-0.5226898193359375
1776021885467931400,11.212931396484375,0.1249542236328125,0.76025390625,-0.5054473876953125
1776021885477992400,11.222992431640625,0.1291046142578125,0.7580718994140625,-0.5033111572265625
1776021885488054500,11.233054443359375,0.1161346435546875,0.7774658203125,-0.509674072265625
1776021885498115300,11.243115234375,0.0858917236328125,0.8320465087890625,-0.53326416015625
1776021885508176400,11.25317626953125,0.0364837646484375,0.8937225341796875,-0.5457611083984375
1776021885518237400,11.263237548828124,-0.013214111328125,0.91705322265625,-0.5310211181640625
1776021885528298500,11.273298583984374,-0.037353515625,0.9214324951171875,-0.500640869140625
1776021885538359300,11.283359375,-0.02801513671875,0.913421630859375,-0.46044921875
1776021885548420400,11.29342041015625,0.0037841796875,0.89813232421875,-0.4255828857421875
1776021885558482400,11.303482421875,0.0431976318359375,0.878570556640625,-0.4105682373046875
1776021885568543500,11.31354345703125,0.077117919921875,0.8611602783203125,-0.40283203125
1776021885578604500,11.3236044921875,0.103363037109375,0.8470916748046875,-0.4044036865234375
1776021885588665600,11.33366552734375,0.1240997314453125,0.8384552001953125,-0.421783447265625
1776021885598726400,11.343726318359375,0.132659912109375,0.8276519775390625,-0.4544830322265625
1776021885608787200,11.353787109375,0.1262664794921875,0.82904052734375,-0.500244140625
1776021885618849500,11.363849609375,0.1087493896484375,0.8404541015625,-0.5485076904296875
1776021885628910300,11.373910400390624,0.0841827392578125,0.85614013671875,-0.5880889892578125
1776021885638971400,11.383971435546876,0.056396484375,0.8707275390625,-0.607452392578125
1776021885649032400,11.394032470703126,0.025848388671875,0.873870849609375,-0.5913543701171875
1776021885659093500,11.404093505859375,0.0141448974609375,0.862762451171875,-0.5354461669921875
1776021885669154300,11.414154296875,0.0355377197265625,0.856414794921875,-0.483795166015625
1776021885679216400,11.42421630859375,0.067108154296875,0.8489837646484375,-0.458038330078125
1776021885689277400,11.43427734375,0.09515380859375,0.83526611328125,-0.455535888671875
1776021885699338500,11.44433837890625,0.116485595703125,0.8284149169921875,-0.4907989501953125
1776021885709399600,11.454399658203124,0.1278839111328125,0.831451416015625,-0.545379638671875
1776021885719460600,11.464460693359374,0.121795654296875,0.83111572265625,-0.5876312255859375
1776021885729521400,11.474521484375,0.104400634765625,0.8263397216796875,-0.61297607421875
1776021885739582200,11.484582275390625,0.074981689453125,0.8197479248046875,-0.6182708740234375
1776021885749644500,11.49464453125,0.0462646484375,0.80462646484375,-0.5926513671875
1776021885759705300,11.504705322265625,0.0373077392578125,0.78656005859375,-0.5492401123046875
1776021885769766400,11.514766357421875,0.04620361328125,0.779937744140625,-0.51629638671875
1776021885779827500,11.524827392578125,0.0666046142578125,0.775299072265625,-0.502410888671875
1776021885789888300,11.53488818359375,0.08056640625,0.7837371826171875,-0.5108184814453125
1776021885799949300,11.54494921875,0.075408935546875,0.8093414306640625,-0.538360595703125
1776021885810010400,11.55501025390625,0.0581207275390625,0.834320068359375,-0.5682220458984375
1776021885820072400,11.565072509765624,0.0356292724609375,0.8657684326171875,-0.5955810546875
1776021885830133500,11.575133544921876,0.0130157470703125,0.8872222900390625,-0.6064910888671875
1776021885840194600,11.585194580078126,0.0019073486328125,0.887176513671875,-0.599578857421875
1776021885850255600,11.595255615234375,-0.002899169921875,0.8677520751953125,-0.5848388671875
1776021885860316400,11.60531640625,-0.001678466796875,0.833831787109375,-0.56396484375
1776021885870377200,11.615377197265625,0.008453369140625,0.792266845703125,-0.53948974609375
1776021885880439600,11.625439453125,0.0256805419921875,0.764923095703125,-0.5233306884765625
1776021885890500400,11.635500244140625,0.039642333984375,0.7649078369140625,-0.5250091552734375
1776021885900561400,11.6455615234375,0.048553466796875,0.7960205078125,-0.54302978515625
1776021885910622500,11.65562255859375,0.0537109375,0.8303070068359375,-0.557373046875
1776021885920683300,11.665683349609376,0.0540771484375,0.845611572265625,-0.54345703125
1776021885930744300,11.675744384765625,0.055694580078125,0.854217529296875,-0.50714111328125
1776021885940805400,11.685805419921875,0.0538330078125,0.8767547607421875,-0.465118408203125
1776021885950867500,11.695867431640625,0.05853271484375,0.9112701416015625,-0.4320220947265625
1776021885960928500,11.705928466796875,0.066497802734375,0.9456939697265625,-0.4124603271484375
1776021885970989600,11.715989501953125,0.0655517578125,0.9823455810546875,-0.4036712646484375
1776021885981050400,11.72605029296875,0.0661163330078125,1.0118560791015625,-0.3933563232421875
1776021885991111400,11.736111328125,0.0655364990234375,1.018463134765625,-0.36785888671875
1776021886001172200,11.746172119140626,0.0606536865234375,1.0001373291015625,-0.3389129638671875
1776021886011234600,11.756234619140624,0.0615234375,0.968048095703125,-0.3121490478515625
1776021886021295400,11.76629541015625,0.062164306640625,0.9369049072265625,-0.2986907958984375
1776021886031356400,11.7763564453125,0.0615692138671875,0.915283203125,-0.321502685546875
1776021886041417500,11.78641748046875,0.06024169921875,0.89935302734375,-0.3811492919921875
1776021886051478300,11.796478271484375,0.0549468994140625,0.8808746337890625,-0.442779541015625
1776021886061539300,11.806539306640625,0.046905517578125,0.8506011962890625,-0.488311767578125
1776021886071600400,11.816600341796875,0.0364837646484375,0.8178558349609375,-0.5184326171875
1776021886081662500,11.826662353515625,0.0311126708984375,0.7990264892578125,-0.5481109619140625
1776021886091723500,11.8367236328125,0.0393829345703125,0.7930755615234375,-0.5785675048828125
1776021886101784600,11.84678466796875,0.297119140625,0.7363433837890625,-0.5885009765625
1776021886111845400,11.856845458984376,0.6165008544921875,0.656829833984375,-0.60723876953125
1776021886121906400,11.866906494140625,-0.320098876953125,0.824493408203125,-0.744781494140625
1776021886131967200,11.87696728515625,0.0920257568359375,0.6286163330078125,-0.66156005859375
1776021886142029600,11.887029541015625,-0.0493316650390625,0.65478515625,-0.618377685546875
1776021886152090400,11.89709033203125,-0.0290679931640625,0.7339324951171875,-0.52960205078125
1776021886162151400,11.9071513671875,0.0129241943359375,0.9326629638671875,-0.5288543701171875
1776021886172212500,11.91721240234375,0.02069091796875,0.9338226318359375,-0.5496673583984375
1776021886182273300,11.927273193359374,0.00775146484375,0.8953094482421875,-0.5432586669921875
1776021886192334300,11.937334228515626,-0.0163726806640625,0.9129791259765625,-0.5370330810546875
1776021886202395400,11.9473955078125,-0.021881103515625,0.922027587890625,-0.5329742431640625
1776021886212457500,11.95745751953125,-0.0263824462890625,0.942413330078125,-0.52655029296875
1776021886222518500,11.9675185546875,-0.0348052978515625,0.9482879638671875,-0.5160369873046875
1776021886232579600,11.97757958984375,-0.0530853271484375,0.9372406005859375,-0.4978790283203125
1776021886242640400,11.987640380859375,-0.07366943359375,0.9155426025390625,-0.47857666015625
1776021886252701400,11.997701416015625,-0.0812835693359375,0.893524169921875,-0.46405029296875
1776021886262762200,12.00776220703125,-0.0730438232421875,0.878082275390625,-0.4566802978515625
1776021886272824600,12.017824462890625,-0.0557708740234375,0.8649444580078125,-0.4543304443359375
1776021886282885400,12.027885498046874,-0.0366363525390625,0.8589935302734375,-0.4590301513671875
1776021886292946400,12.037946533203124,-0.02642822265625,0.8544158935546875,-0.46734619140625
1776021886303007500,12.048007568359376,-0.0195770263671875,0.8514404296875,-0.4746246337890625
1776021886313068300,12.058068359375,-0.018768310546875,0.85015869140625,-0.4821014404296875
1776021886323129300,12.06812939453125,-0.0150909423828125,0.847808837890625,-0.493621826171875
1776021886333190400,12.0781904296875,-0.0124359130859375,0.8397369384765625,-0.4988555908203125
1776021886343252500,12.08825244140625,-0.0064697265625,0.8305511474609375,-0.4880828857421875
1776021886353313500,12.0983134765625,-0.005584716796875,0.8255462646484375,-0.4979400634765625
1776021886363374600,12.10837451171875,0.0218963623046875,0.810089111328125,-0.5460968017578125
1776021886373435100,12.11843505859375,0.047210693359375,0.80926513671875,-0.600433349609375
1776021886383496200,12.12849609375,0.0512237548828125,0.8239593505859375,-0.6490936279296875
1776021886393557000,12.138556884765626,0.0520477294921875,0.8482208251953125,-0.6306304931640625
1776021886403618000,12.1486181640625,0.0457611083984375,0.8690643310546875,-0.5932464599609375
1776021886413680000,12.15868017578125,0.028594970703125,0.8637847900390625,-0.5576171875
1776021886423741200,12.1687412109375,0.0179595947265625,0.8518524169921875,-0.517425537109375
1776021886433802200,12.17880224609375,0.0301971435546875,0.8324737548828125,-0.472747802734375
1776021886443863000,12.188863037109375,0.0561370849609375,0.819854736328125,-0.451873779296875
1776021886453924000,12.198924072265624,0.079193115234375,0.83575439453125,-0.4411468505859375
1776021886463985200,12.208985107421874,0.09454345703125,0.8660125732421875,-0.4385833740234375
1776021886474047200,12.219047119140624,0.0975341796875,0.8886871337890625,-0.4343414306640625
1776021886484108300,12.2291083984375,0.0910491943359375,0.8904876708984375,-0.427337646484375
1776021886494169300,12.23916943359375,0.0786895751953125,0.8971710205078125,-0.431060791015625
1776021886504230100,12.249230224609375,0.0605010986328125,0.9079437255859375,-0.45343017578125
1776021886514291000,12.259291015625,0.0400238037109375,0.9086151123046875,-0.483673095703125
1776021886524352000,12.26935205078125,0.0113983154296875,0.8970184326171875,-0.5164947509765625
1776021886534413000,12.2794130859375,-0.019317626953125,0.87139892578125,-0.5376434326171875
1776021886544475100,12.28947509765625,-0.0329132080078125,0.842987060546875,-0.53997802734375
1776021886554536200,12.2995361328125,-0.02191162109375,0.830230712890625,-0.528594970703125
1776021886564597200,12.30959716796875,0.00311279296875,0.838226318359375,-0.5125732421875
1776021886574658000,12.319657958984376,0.0209197998046875,0.8584442138671875,-0.4996185302734375
1776021886584719000,12.329718994140626,0.0199737548828125,0.87322998046875,-0.493804931640625
1776021886594780200,12.3397802734375,-0.0003204345703125,0.8706817626953125,-0.4995880126953125
1776021886604842200,12.34984228515625,-0.0217437744140625,0.8560333251953125,-0.510772705078125
1776021886614903300,12.3599033203125,-0.025390625,0.8299560546875,-0.516387939453125
1776021886624964400,12.36996435546875,-0.0168609619140625,0.804107666015625,-0.5190887451171875
1776021886635025200,12.380025146484375,-0.0016326904296875,0.797393798828125,-0.53125
1776021886645086000,12.3900859375,0.0068817138671875,0.8057708740234375,-0.545623779296875
1776021886655147000,12.40014697265625,0.013214111328125,0.8209228515625,-0.557586669921875
1776021886665208000,12.4102080078125,0.020416259765625,0.838104248046875,-0.5619659423828125
1776021886675270100,12.420270263671876,0.0270843505859375,0.8462066650390625,-0.548248291015625
1776021886685331200,12.430331298828126,0.04486083984375,0.8435516357421875,-0.5165557861328125
1776021886695392300,12.440392333984375,0.072113037109375,0.8502349853515625,-0.4774322509765625
1776021886705453000,12.450453125,0.0922393798828125,0.87255859375,-0.4519500732421875
1776021886715514000,12.46051416015625,0.097808837890625,0.9034271240234375,-0.4358062744140625
1776021886725575200,12.4705751953125,0.0904998779296875,0.9300537109375,-0.4282073974609375
1776021886735636200,12.48063623046875,0.074951171875,0.9449920654296875,-0.422393798828125
1776021886745698300,12.4906982421875,0.059814453125,0.9560089111328125,-0.412445068359375
1776021886755759400,12.50075927734375,0.034271240234375,0.962646484375,-0.4143829345703125
1776021886765820200,12.510820068359376,-0.0018310546875,0.9611663818359375,-0.4310302734375
1776021886775881000,12.520880859375,-0.04229736328125,0.9413909912109375,-0.4524383544921875
1776021886785942000,12.53094189453125,-0.066680908203125,0.9102020263671875,-0.4779205322265625
1776021886796003000,12.541003173828125,-0.0606536865234375,0.8781280517578125,-0.4987945556640625
1776021886806064000,12.551064208984375,-0.023834228515625,0.8505401611328125,-0.513671875
1776021886816126200,12.561126220703125,0.0269012451171875,0.83355712890625,-0.522247314453125
1776021886826187000,12.57118701171875,0.0623321533203125,0.8262939453125,-0.5321044921875
1776021886836248000,12.581248046875,0.0920257568359375,0.8251800537109375,-0.543914794921875
1776021886846309000,12.59130908203125,0.247039794921875,0.792999267578125,-0.547332763671875
1776021886856370200,12.6013701171875,0.2410736083984375,0.7928009033203125,-0.559600830078125
1776021886866431200,12.61143115234375,-0.1331024169921875,0.882171630859375,-0.57086181640625
1776021886876493300,12.621493408203126,0.0867919921875,0.780426025390625,-0.522491455078125
1776021886886554400,12.631554443359375,-0.018829345703125,0.8202362060546875,-0.510345458984375
1776021886896615200,12.641615234375,0.012115478515625,0.8371124267578125,-0.5113983154296875
1776021886906676000,12.651676025390625,0.0113677978515625,0.8354949951171875,-0.5198211669921875
1776021886916737000,12.661737060546875,0.0218505859375,0.8299102783203125,-0.5245819091796875
1776021886926798000,12.671798095703124,0.017730712890625,0.82769775390625,-0.532989501953125
1776021886936859100,12.681859130859374,0.009368896484375,0.8170318603515625,-0.5294952392578125
1776021886946921200,12.691921142578124,0.0085296630859375,0.8271636962890625,-0.5274200439453125
1776021886956982000,12.70198193359375,0.00604248046875,0.8311767578125,-0.523590087890625
1776021886967043000,12.71204296875,0.001983642578125,0.8371124267578125,-0.5259857177734375
1776021886977104100,12.722104248046875,0.0002899169921875,0.853271484375,-0.5254058837890625
1776021886987165200,12.732165283203125,0.0067901611328125,0.8751373291015625,-0.51409912109375
1776021886997226200,12.742226318359375,0.0045928955078125,0.8846282958984375,-0.50909423828125
1776021887007288300,12.752288330078125,-0.0024566650390625,0.8858642578125,-0.50543212890625
1776021887017349000,12.76234912109375,-0.0020751953125,0.8897857666015625,-0.5055084228515625
1776021887027410200,12.77241015625,0.003570556640625,0.892364501953125,-0.5096435546875
1776021887037471000,12.782470947265624,0.0107421875,0.8896331787109375,-0.511962890625
1776021887047532000,12.792531982421876,0.0183563232421875,0.8825225830078125,-0.51702880859375
1776021887057593000,12.802593017578126,0.027069091796875,0.87493896484375,-0.5306854248046875
1776021887067654100,12.812654052734375,0.02490234375,0.8710784912109375,-0.5522613525390625
1776021887077716200,12.82271630859375,0.041107177734375,0.8705902099609375,-0.5784454345703125
1776021887087777000,12.832777099609375,0.0604248046875,0.8335113525390625,-0.56768798828125
1776021887097838000,12.842838134765625,0.0709381103515625,0.8272857666015625,-0.5631561279296875
1776021887107899100,12.852899169921875,0.083221435546875,0.821868896484375,-0.58343505859375
1776021887117960200,12.862960205078124,0.100738525390625,0.78753662109375,-0.5929107666015625
1776021887128021200,12.873021240234374,0.1021270751953125,0.7612457275390625,-0.573150634765625
1776021887138082300,12.883082275390626,0.099609375,0.7766265869140625,-0.5185546875
1776021887148144000,12.89314404296875,0.1020050048828125,0.8137359619140625,-0.4667510986328125
1776021887158205200,12.903205078125,0.08563232421875,0.849578857421875,-0.4398345947265625
1776021887168266000,12.913265869140625,0.068206787109375,0.88983154296875,-0.433135986328125
1776021887178327000,12.9233271484375,0.061248779296875,0.928253173828125,-0.43341064453125
1776021887188388000,12.93338818359375,0.0655059814453125,0.945587158203125,-0.438690185546875
1776021887198449200,12.94344921875,0.0753326416015625,0.9299774169921875,-0.446197509765625
1776021887208511200,12.95351123046875,0.0773162841796875,0.9009552001953125,-0.461944580078125
1776021887218572000,12.963572021484374,0.0633392333984375,0.88165283203125,-0.4698333740234375
1776021887228633000,12.973633056640624,0.0536651611328125,0.8648681640625,-0.45245361328125
1776021887238694100,12.983694091796876,0.0655364990234375,0.8427886962890625,-0.416717529296875
1776021887248755200,12.993755126953126,0.0952911376953125,0.81817626953125,-0.38421630859375
1776021887258816300,13.003816162109375,0.12286376953125,0.7879180908203125,-0.374786376953125
1776021887268877300,13.013877197265625,0.1337890625,0.766510009765625,-0.3922271728515625
1776021887278939100,13.023939208984375,0.1235198974609375,0.7820892333984375,-0.417449951171875
1776021887289000200,13.034000244140625,0.0984344482421875,0.8309783935546875,-0.4286346435546875
1776021887299061000,13.04406103515625,0.0626678466796875,0.8836517333984375,-0.422943115234375
1776021887309122000,13.0541220703125,0.03472900390625,0.91900634765625,-0.4232330322265625
1776021887319183000,13.06418310546875,0.0066070556640625,0.9287872314453125,-0.4345703125
1776021887329244200,13.074244140625,-0.0245361328125,0.91729736328125,-0.455169677734375
1776021887339305200,13.08430517578125,-0.0783843994140625,0.8957061767578125,-0.4867401123046875
