time,seconds_elapsed,z,y,x
1776021874339023600,0.084023681640625,0.5258990203261376,0.2813222021996975,-0.6498308857474475
1776021874349084700,0.094084716796875,0.9183341575801371,0.4372396168813109,-0.5196896442919969
1776021874359145700,0.104145751953125,0.9080039022237062,0.3919096520751714,-0.6523186839751899
1776021874369206800,0.114206787109375,0.6107803665369749,0.21032880382686853,-0.6766856479905545
1776021874379267600,0.124267578125,0.7112935816437006,0.21699103819504378,-0.6267699628293514
1776021874389329700,0.13432958984375,0.9745148944854736,0.16858166594356297,-0.6411430638357997
1776021874399390700,0.144390625,1.3644763351023197,-0.02828662167713046,-0.6869236950188875
1776021874409451800,0.15445166015625,1.5512807632178067,-0.3484565870568156,-1.0516279447823762
1776021874419512600,0.1645126953125,1.5718185243338345,-0.32492943486645814,-1.121813387773186
1776021874429573600,0.17457373046875,1.8717437201946974,0.064577686111629,-1.1637791368432342
1776021874439634700,0.184634765625,2.401388941311836,0.42864992158189413,-1.2753713798470794
1776021874449696500,0.194696533203125,4.0880391289621585,0.08374693535342811,-0.9576943272616714
1776021874459757600,0.204757568359375,4.244395811843872,-0.7820975949242711,-1.7447797205358742
1776021874469818600,0.214818603515625,1.2589414924412965,-1.0868737379476427,-1.6217155047945677
1776021874479879700,0.224879638671875,-0.7517045024871826,-0.4339063808053732,-1.1194162635035811
1776021874489940700,0.234940673828125,-3.843564602166414,0.4401519971966743,-1.446309984180331
1776021874500001800,0.245001708984375,-2.704861015999317,1.4399464404977858,-0.7623165704596787
1776021874510063600,0.255063720703125,-2.5538562155395743,1.5020736647173762,-2.2934172268927098
1776021874520124700,0.265124755859375,-0.7071306167453527,2.098264657148719,-2.451926411633193
1776021874530185700,0.275185791015625,1.9031798919439316,1.8242951557993887,-2.7612656247884035
1776021874540246800,0.285246826171875,3.0199627382040024,1.011906613638252,-2.4488842674583196
1776021874550307600,0.2953076171875,2.0842297020554543,0.4357948979657143,-0.8450196227833628
1776021874560369700,0.30536962890625,-0.5724158568292856,0.4359736885987222,-0.3138234093645587
1776021874570430500,0.315430419921875,-2.198501977923512,1.6564219303861258,-0.19596973134577272
1776021874580491500,0.325491455078125,-0.7252034490525722,1.6545669501692055,0.5054924843743444
1776021874590552600,0.335552490234375,0.021620880177617072,0.9251924990423023,-1.0488017083805055
1776021874600613600,0.345613525390625,-0.37137539809048176,1.8093997844845056,-2.277228747027367
1776021874610674700,0.3556748046875,0.49518940928578375,2.5460475876152513,-1.6904592245444654
1776021874620736500,0.365736572265625,2.314974394184351,1.490169291912019,-0.07584902171045542
1776021874630797600,0.375797607421875,3.40641470939517,0.2599154396967962,1.3890849989190697
1776021874640858600,0.385858642578125,2.4619191055983305,0.6768352855943143,0.8664642696112393
1776021874650919700,0.395919677734375,-0.6690016693592071,0.39872075686212627,-3.02124430244714
1776021874660980700,0.405980712890625,-0.5491676677107811,1.4459917120113968,0.16118980212658643
1776021874671042600,0.41604248046875,1.5693325527369975,0.6455278547912836,0.3276613440483808
1776021874681103600,0.426103515625,2.5163299102216956,0.7077225912891328,-1.5553256546944378
1776021874691164700,0.43616455078125,3.3308693468064066,1.7730017525441943,-3.887679345963895
1776021874701225500,0.4462255859375,2.712020824626088,2.9497093445435163,-5.24458290772438
1776021874711286500,0.45628662109375,3.34233357462883,3.84492449234277,-3.1571707762405277
1776021874721347600,0.46634765625,2.5249896020174023,3.759561792355776,-0.43691433044970035
1776021874731409700,0.47640966796875,1.8937521383851765,4.23360933715254,-1.463334184217453
1776021874741470500,0.486470458984375,3.1343565946251153,4.261094433188438,-3.0362226758703588
1776021874751531500,0.496531494140625,3.7521991546332836,4.0227988872885705,-2.816580977036059
1776021874761592600,0.506592529296875,2.4893174001336096,4.23763055549264,-2.096423997718096
1776021874771653600,0.516653564453125,0.013121931901574135,4.031275331471861,-1.450989666429162
1776021874781714700,0.526714599609375,-2.8946400760114193,4.781825403226912,-1.1920704346954822
1776021874791776800,0.53677685546875,-2.5695570580184457,4.962695472857356,-0.7587889077901839
1776021874801837600,0.546837646484375,-2.5445932971537113,3.575938332363963,-0.6002461130410432
1776021874811898600,0.556898681640625,-3.2143419854879376,3.222304634930193,-0.3209782130226493
1776021874821959700,0.566959716796875,-1.946922587558627,3.8735137502282857,0.9176099349588155
1776021874832020500,0.5770205078125,0.12580138562023638,3.4185265874713657,2.5051924301356077
1776021874842082800,0.587082763671875,1.5733008718460797,2.153269043751061,3.220326028333604
1776021874852143600,0.5971435546875,2.130131621530652,1.709761014124751,3.4166748221248384
1776021874862204700,0.60720458984375,2.004206317269802,1.626999436546862,3.102942634707689
1776021874872265500,0.617265380859375,1.6420248639822006,2.036447960183024,2.728779359464347
1776021874882326500,0.627326416015625,1.2532681229799985,2.202035412746668,2.7519872165724633
1776021874892387600,0.6373876953125,1.156699261584878,2.021904763306677,3.098503775477409
1776021874902449700,0.64744970703125,1.5176841985642908,1.7095330505877733,3.471656704634428
1776021874912510700,0.6575107421875,1.760207591292262,1.7048820099115372,3.818304488703608
1776021874922571800,0.66757177734375,1.7161866632580756,2.1576187633931636,4.457595787192881
1776021874932632600,0.677632568359375,1.5275170257925987,2.5112165127307176,5.351408959239721
1776021874942693600,0.687693603515625,1.4285171378582715,2.7129361859053374,6.2238657472640275
1776021874952754700,0.697754638671875,1.1583388454854489,2.3274966066271063,6.584587064871192
1776021874962816800,0.707816650390625,-0.09803425777256489,1.3914379917860031,6.452628325664997
1776021874972877800,0.7178779296875,-1.6085568941444157,1.1824737543106079,6.906341815224289
1776021874982938600,0.727938720703125,-2.585815534380078,0.8129349239975213,7.640806429097056
1776021874992999700,0.737999755859375,-3.1072365325093267,0.1964192286789417,8.639462077626586
1776021875003060500,0.748060546875,-3.3705870246887204,-0.8813497040539979,9.729704707485437
1776021875013122600,0.75812255859375,-3.4271406865596767,-1.9878250913113356,10.051894342124461
1776021875023183600,0.76818359375,-3.44724005625844,-2.409802549391985,9.749982940882443
1776021875033244700,0.77824462890625,-4.3088542554900044,-2.8644319847524162,9.53385538764894
1776021875043305700,0.7883056640625,-6.281401990431547,-4.442869050443172,9.779858439186215
1776021875053366800,0.79836669921875,-8.698980434522031,-6.285288476476073,9.368494145056605
1776021875063427600,0.808427490234375,-9.654863693773747,-7.16848585422337,8.354345743840932
1776021875073489700,0.81848974609375,-9.569137128910421,-6.825451584476232,6.866636996823549
1776021875083550700,0.82855078125,-8.928441516581177,-6.456411935856938,5.029655962452292
1776021875093611800,0.83861181640625,-7.9644380792379375,-6.101849140879511,3.6188884162962434
1776021875103672800,0.8486728515625,-7.1994865571647875,-5.756543419069051,2.8132746289670467
1776021875113733600,0.858733642578125,-6.14191110215485,-5.150152811923623,1.7142577410221098
1776021875123795500,0.86879541015625,-5.553604433232546,-4.397634654965996,0.3642892392218113
1776021875133856500,0.8788564453125,-5.482006346964836,-4.390663062387705,-0.9208242208302021
1776021875143917600,0.88891748046875,-5.453188248759508,-4.6689042497068645,-2.040741857984662
1776021875153978600,0.898978515625,-5.904298277822137,-4.55596585279107,-3.686754914820194
1776021875164039700,0.909039794921875,-5.838123385646939,-4.7238843786507845,-4.461732156345248
1776021875174100700,0.919100830078125,-4.890779991203546,-5.289276035931706,-1.989036220666766
1776021875184162600,0.92916259765625,0.4037717931739986,-2.3503119572862983,0.28303134420514103
1776021875194223600,0.9392236328125,4.606577265131473,0.5887438912957906,-0.16165245120227337
1776021875204284700,0.94928466796875,6.780709356430172,2.4907740286827087,-2.5013375082731244
1776021875214345700,0.959345703125,5.68940581934154,2.073213218000531,-6.822626005661487
1776021875224406800,0.96940673828125,-0.5428654988266527,2.2039733950719236,-10.579349359720945
1776021875234467600,0.979467529296875,-6.943346727016568,-0.7862465312972664,-8.728637321639061
1776021875244529700,0.98952978515625,-8.292891450446843,-3.9139404531627893,-5.2076101446360346
1776021875254590500,0.999590576171875,-7.7608631335854525,-6.8736652880251405,-3.080159140491485
1776021875264651500,1.009651611328125,-8.041385709840059,-3.8551381355822083,-2.381569557598233
1776021875274712600,1.019712646484375,-4.887041389197111,-1.324796066620946,-1.0559411318063736
1776021875284773600,1.029773681640625,-2.403415917094797,-0.9706284084409474,-1.0542717372894286
1776021875294835500,1.03983544921875,-1.4864990789666772,0.8704010245382785,-1.2649018621504307
1776021875304896500,1.049896484375,-0.5708507994696498,1.273411039559543,-1.1582996825188399
1776021875314957600,1.05995751953125,0.9445259989351034,-2.564025727376342,-1.8099217625319957
1776021875325018600,1.0700185546875,2.268035532876849,-1.2051458971068263,-3.5599130802363157
1776021875335079700,1.08007958984375,1.8925605905130505,0.45441871521919963,-3.549375319609046
1776021875345140700,1.090140625,1.4662836816728113,0.7219692894369364,-3.8598751009762284
1776021875355202600,1.10020263671875,2.61683640332669,0.6682073041111231,-3.1507565252840517
1776021875365263400,1.110263427734375,2.273186924290657,1.1957307107686996,-0.9852893864780664
1776021875375324400,1.120324462890625,2.8787501407012344,1.3876689946413039,1.2472943092674016
1776021875385385200,1.13038525390625,1.1257076187327504,5.034138076302409,2.293224919191003
1776021875395446300,1.1404462890625,-1.4591501765310764,9.530744562152028,6.490535739254951
1776021875405507300,1.15050732421875,-1.7687182300060986,9.507029340043664,6.4982239556699986
1776021875415569400,1.1605693359375,-0.8874585423231124,5.4174248614609235,4.493931129160523
1776021875425630200,1.170630126953125,-0.7343298815771937,1.8324065660625695,2.142317149364948
1776021875435691300,1.180691162109375,-0.5748176572740078,1.9056021506547927,0.058985857453942296
1776021875445752300,1.19075244140625,0.0017196633994579313,3.2512562963873144,-1.6526099708825348
1776021875455813400,1.2008134765625,0.44513621535003184,2.332827446261048,-3.4148324091285467
1776021875465875500,1.21087548828125,2.3436028150364754,3.130386521950364,-3.974357804724574
1776021875475936500,1.2209365234375,2.1032482907801864,1.1592483615458011,-5.354906738227606
1776021875485997300,1.230997314453125,1.6643115145921705,-4.031981726175546,-4.253844023668766
1776021875496058400,1.241058349609375,-0.5367493540339171,-5.23544390797913,-3.6315421461641786
1776021875506119400,1.251119384765625,-6.596614187273382,-1.4630495220571755,-2.279786760947108
1776021875516180200,1.26118017578125,-4.47083023955822,1.342759593334794,-1.2020219198673963
1776021875526242300,1.2712421875,0.7120535331655293,-0.94145492092669,-1.283907299132645
1776021875536303400,1.281303466796875,2.3616765241265294,-4.155070345705747,-0.47810967966914175
1776021875546364400,1.291364501953125,1.999698484456539,-6.953377122643589,0.8090539909109473
1776021875556425200,1.30142529296875,1.7878613218933344,-7.260601243340969,1.183145077700913
1776021875566486300,1.311486328125,1.9190882396936415,-7.695655625137686,0.769246004396677
1776021875576547300,1.32154736328125,1.8971371046483516,-8.368835456964373,0.39661476102620363
1776021875586609400,1.331609375,1.3521475994050502,-8.85510564673543,0.285515196910128
1776021875596670500,1.34167041015625,0.7531132002413272,-9.058341569691896,0.6272905526373534
1776021875606731500,1.3517314453125,0.49434883027579635,-8.272838842499256,1.4219235848121343
1776021875616792300,1.361792236328125,0.1534802506625652,-6.331441740363836,2.227841469654441
1776021875626853400,1.371853271484375,-0.04752922841608524,-2.6766742014348504,2.552456285613775
1776021875636915500,1.38191552734375,0.5553143537722528,4.691250521549582,3.1358500480532645
1776021875646976500,1.3919765625,0.1999842276841402,14.261242221462727,2.291354887535423
1776021875657037300,1.402037353515625,-0.6694318774700164,22.297504012417793,0.09962766444385052
1776021875667098400,1.412098388671875,-1.4386708676040172,21.50245838085413,-1.8394658369243144
1776021875677159400,1.422159423828125,-4.985044082787633,13.797987581098079,-3.5696769338816403
1776021875687220200,1.43222021484375,-6.624764176958799,6.967332582759857,-5.252008673810958
1776021875697282300,1.4422822265625,-2.8470652548879385,1.4957482610881327,-6.936094563931226
1776021875707343400,1.45234326171875,0.8365349952936172,-1.1439876640498639,-5.107015680986643
1776021875717404400,1.462404296875,1.55478088029325,0.06614274347126484,-2.541887837587297
1776021875727465500,1.472465576171875,1.8106009769678115,0.628989976966381,-1.5997566248342394
1776021875737526500,1.482526611328125,1.9556993298627434,-0.15080489397346972,-1.0720096385538578
1776021875747587300,1.49258740234375,1.7424848875969647,-1.9045505957752464,-0.7621276968240738
1776021875757649400,1.5026494140625,0.7909090432155876,-3.0692788500368593,-0.935399274149537
1776021875767710500,1.51271044921875,-0.390116338917613,-3.004316256260872,-1.1843813414976
1776021875777771500,1.522771484375,-1.2317945423185825,-1.5588532442986964,-1.0414999339997768
1776021875787832300,1.532832275390625,-0.89143562926054,-0.3099035690397024,-0.7391936882212757
1776021875797893400,1.542893310546875,-0.3398521325796842,0.17135083839595316,-0.46050797200500965
1776021875807955200,1.552955078125,-0.10138364126570522,0.2870417488902807,-0.14202362162470816
1776021875818016300,1.563016357421875,-0.053303647099062795,0.5609966371923685,0.2043669728130102
1776021875828077300,1.573077392578125,-0.1632230615198612,0.6872597951054573,0.5243588051468133
1776021875838138400,1.583138427734375,-0.40163310064487157,0.6980500691890716,0.8006082341268658
1776021875848199400,1.593199462890625,-0.7028202062003314,0.6224655436336993,0.9622907882064581
1776021875858260500,1.603260498046875,-0.9132487440746277,0.5621300251364708,1.0051453028097748
1776021875868322300,1.613322265625,-0.7709533928364515,0.6093412736445665,0.9226748171329497
1776021875878383400,1.62338330078125,-0.22984803555011749,0.5464923110216856,0.7395815184950828
1776021875888444400,1.6334443359375,0.32678390362672505,0.28074820170402526,0.5383709638863802
1776021875898505500,1.64350537109375,0.5883714777868241,-0.03189209882318973,0.30812837606072424
1776021875908566500,1.65356640625,0.4632249758787453,-0.23458909259736538,0.1018655064985156
1776021875918627300,1.66362744140625,0.21118147513344881,-0.3378203344911337,-0.05205635045170784
1776021875928689400,1.673689453125,-0.055152562901377676,-0.36315702032148833,-0.15104542473107577
1776021875938750200,1.683750244140625,-0.28980193431861695,-0.3035270197451114,-0.2262695925414562
1776021875948811300,1.693811279296875,-0.4066203144729137,-0.2102542772859335,-0.2948983076095581
1776021875958872300,1.703872314453125,-0.32302849661596117,-0.11932780569195747,-0.3347267523899674
1776021875968933400,1.713933349609375,-0.10885551151633262,-0.09528174419403075,-0.41333500968068837
1776021875978995200,1.7239951171875,0.019952727769687772,-0.1024555813461542,-0.4778136193320155
1776021875989056300,1.73405615234375,0.018919804525375367,-0.11560498577654361,-0.5009127553686499
1776021875999117300,1.744117431640625,-0.10076740906350314,-0.13663842145502567,-0.4886714056938886
1776021876009178400,1.754178466796875,-0.22594978600256144,-0.17750526937246322,-0.42036213183850046
1776021876019239400,1.764239501953125,-0.2493306981226429,-0.16991408359110355,-0.3163324330434203
1776021876029300500,1.774300537109375,-0.10550444752275943,-0.18365151704251764,-0.2027656750962138
1776021876039362300,1.7843623046875,0.11818090067915618,-0.2680897956609726,-0.11226035152375698
1776021876049423400,1.79442333984375,0.2589519649595022,-0.2807815194517374,-0.04979074360728263
1776021876059484400,1.804484375,0.2519802262507379,-0.2850257328927517,-0.030598844142258167
1776021876069545200,1.814545166015625,0.13381868785917758,-0.30181963130533696,0.005598550659418106
1776021876079606300,1.824606201171875,0.028484372738935053,-0.25444471666812896,0.02733662747591734
1776021876089667300,1.834667236328125,-0.03127257868535817,-0.10912029993236064,-0.028043898962438106
1776021876099729400,1.8447294921875,0.02276420499384403,0.010135025045275688,-0.09578121814876794
1776021876109790200,1.854790283203125,0.08258066805303096,0.08856441863775252,-0.14907996987700461
1776021876119851300,1.864851318359375,0.19694471385776996,0.16042787784337997,-0.17017624165862796
1776021876129912300,1.874912353515625,0.2901829695254564,0.22799393211603164,-0.13236878131181
1776021876139973400,1.884973388671875,0.3642489072114229,0.2707628142625093,-0.04535772959589958
1776021876150034400,1.895034423828125,0.326971023696661,0.23464169956743716,0.08701981954425572
1776021876160096500,1.905096435546875,0.233206150338985,0.18705752609372137,0.231932148347795
1776021876170157300,1.9151572265625,0.1396266434855759,0.21395137823820112,0.3748728848174214
1776021876180218400,1.92521826171875,0.05663611599002033,0.22849954355061053,0.517742309616506
1776021876190279400,1.935279541015625,0.004790814473107457,0.25688626460134983,0.6595666092768311
1776021876200340200,1.94534033203125,-0.009640519526600838,0.3183475722581148,0.7197425532981753
1776021876210402600,1.955402587890625,0.041121735993959005,0.4645961181014776,0.7337918291777372
1776021876220463400,1.96546337890625,0.042678938840702174,0.5906184529960156,0.7849816259279847
1776021876230524400,1.9755244140625,-0.004172280715964734,0.5820066919952631,0.8851675087764859
1776021876240585200,1.985585205078125,-0.06391461909301578,0.39681203716397284,1.0828399523869157
1776021876250646300,1.995646240234375,-0.17082882381584494,0.17398410950899124,1.2699275813579558
1776021876260707300,2.005707275390625,-0.28663079346921294,0.06225391933917999,1.4397349897041916
1776021876270769400,2.015769287109375,-0.30153025643732395,0.0278197348177433,1.5308596142187714
1776021876280830500,2.02583056640625,-0.2766238152503967,0.1267073945492506,1.5673904787585138
1776021876290891500,2.0358916015625,-0.2500614600826055,0.4250549658298492,1.5932079338431357
1776021876300952300,2.045952392578125,-0.2838620228756219,0.7224258010327815,1.6374997877731918
1776021876311013400,2.056013427734375,-0.28909583187587556,0.8703028248608112,1.6609049210190772
1776021876321074400,2.066074462890625,-0.3149182553965598,0.8615957867920399,1.6113982550501822
1776021876331136500,2.076136474609375,-0.31755145344436164,0.7670686603575945,1.40022803196311
1776021876341197600,2.086197509765625,-0.302421652319096,0.5900795238137245,1.1379977759853004
1776021876351258400,2.09625830078125,-0.28113515519499777,0.43822541304826734,0.7965709414348006
1776021876361319400,2.1063193359375,-0.23826339719593523,0.30294308237731454,0.4456619927898049
1776021876371380500,2.11638037109375,-0.09001403292417526,0.2248497888714075,0.14389759880304337
1776021876381441500,2.126441650390625,0.09420450688395648,0.14435177231132984,-0.09814970084577798
1776021876391503600,2.136503662109375,0.2631500011712313,0.008543956461548805,-0.3210416336476803
1776021876401564700,2.146564697265625,0.31817981447577476,-0.15586276188492773,-0.5011678991734981
1776021876411625700,2.156625732421875,0.23889058918356895,-0.29969255614876744,-0.6229550807163119
1776021876421686500,2.1666865234375,0.1609013771066442,-0.42353287082910535,-0.7186196867480874
1776021876431747600,2.17674755859375,0.14286357958018778,-0.48742462050318713,-0.7855085724115372
1776021876441809700,2.1868095703125,0.13936514300517738,-0.455363594853878,-0.8712237390980124
1776021876451870700,2.19687060546875,0.21859251857493073,-0.45052083099782464,-0.8721037368029355
1776021876461931800,2.206931884765625,0.3084668142348528,-0.4987696058601141,-0.7785898790642619
1776021876471992800,2.216992919921875,0.32361287237517533,-0.5671300253808498,-0.649011020731926
1776021876482053600,2.2270537109375,0.26352939241025597,-0.6253472365498542,-0.5150131769135594
1776021876492114400,2.237114501953125,0.17033552387356757,-0.53389527977705,-0.47345162473022934
1776021876502176500,2.247176513671875,0.14397771483454852,-0.34404373905062674,-0.4694026416003704
1776021876512237600,2.257237548828125,0.09051087653040886,-0.13180267186164854,-0.49134676238298414
1776021876522298600,2.267298583984375,0.020134441012144087,-0.007316460493206977,-0.47864597850292917
1776021876532359700,2.277359619140625,-0.02439041795618832,0.03957563906311989,-0.4125333379089832
1776021876542420700,2.287420654296875,-0.10184475597143172,-0.010762801554799079,-0.3181187319383025
1776021876552481500,2.2974814453125,-0.17798340827822684,-0.12310147901177405,-0.22931816645711658
1776021876562543600,2.307543701171875,-0.18928568700458853,-0.15379823057055472,-0.17583178320229054
1776021876572604700,2.317604736328125,-0.13309968940224498,-0.15235153889358044,-0.1701081448584795
1776021876582665700,2.327665771484375,-0.06273962049689144,-0.15495733747780321,-0.17732611341327428
1776021876592726800,2.337726806640625,0.017786928037926555,-0.22290976071953772,-0.1626794561624527
1776021876602787800,2.347787841796875,0.04334522072970867,-0.28984570039510726,-0.14409195233136415
1776021876612849700,2.357849609375,-0.010703107256814837,-0.3294716083407402,-0.13238923957794904
1776021876622910700,2.36791064453125,-0.08386778525412082,-0.2968938653409481,-0.11406856998950242
1776021876632971500,2.377971435546875,-0.07381985397040844,-0.23973230070471763,-0.10097060348540544
1776021876643032600,2.388032470703125,-0.02143500221669674,-0.13928864370286465,-0.054264674150943756
1776021876653093600,2.39809375,0.05265307423584163,-0.06120645611286163,-0.00005874444991350174
1776021876663154700,2.40815478515625,0.0945178471494466,-0.06726794810891151,0.09533347438126802
1776021876673216500,2.418216552734375,0.09964994934089481,-0.13410276549756525,0.1845902591973543
1776021876683277600,2.428277587890625,0.05163089158125221,-0.1913525929391384,0.23106325655877588
1776021876693338600,2.438338623046875,-0.03489778344519436,-0.17910627482831476,0.2268804179161787
1776021876703399700,2.448399658203125,-0.13283552204072474,-0.13873860860466955,0.23187194259315727
1776021876713460700,2.458460693359375,-0.1924766285330057,-0.04031272116601467,0.27758038532286883
1776021876723521800,2.468521728515625,-0.22260398270599543,0.12356032869517802,0.35025808352082966
1776021876733583600,2.47858349609375,-0.22380919377729294,0.3250736656427383,0.4756052956327796
1776021876743644700,2.488644775390625,-0.1801461392700672,0.5391331804305315,0.686836893518269
1776021876753705700,2.498705810546875,-0.17445070410743355,0.7537614350169897,0.9150608349978924
1776021876763766500,2.5087666015625,-0.22937917592935264,0.9336842869251966,1.108645424772799
1776021876773827600,2.51882763671875,-0.3114209878653288,1.1125777957856655,1.245353988854587
1776021876783889400,2.528889404296875,-0.433566335196048,1.4040093040674924,1.3220564125239849
1776021876793950500,2.538950439453125,-0.5715184695981442,1.8075164549559353,1.2995263085469604
1776021876804011500,2.549011474609375,-0.6344042571000754,2.2281822459161282,1.1373714607805012
1776021876814072600,2.559072509765625,-0.6507147559098899,2.3909528874933716,0.9485422488391398
1776021876824133600,2.569133544921875,-0.7040845270477235,2.2723808686047793,0.7074263848215341
1776021876834194700,2.579194580078125,-0.7954466135799885,1.9434400061398744,0.42623949943929906
1776021876844256500,2.589256591796875,-0.9516805468648671,1.6310346834123133,0.1343541099101305
1776021876854317600,2.599317626953125,-1.001195834531635,1.4587041863292456,-0.2506640290856361
1776021876864378600,2.609378662109375,-0.9049502137415111,1.1678782427251337,-0.6190481364056467
1776021876874439700,2.619439697265625,-0.6502209810435772,0.626218758687377,-0.9257210529610514
1776021876884500700,2.629500732421875,-0.4217252368852496,-0.023592472511529922,-1.1665953633077442
1776021876894561500,2.6395615234375,-0.22061200517117976,-0.7302455348730087,-1.2713272190228104
1776021876904623600,2.64962353515625,0.05323942275643349,-1.38596043715775,-1.2701323101498185
1776021876914684400,2.659684326171875,0.47081075483262536,-1.7927070083588361,-1.1496245008930563
1776021876924745500,2.669745361328125,0.9650131989076733,-1.957972973883152,-0.9654169574029743
1776021876934806500,2.679806640625,1.271159315109998,-1.916153939807415,-0.7508548999205231
1776021876944867600,2.68986767578125,1.3936942462801933,-1.6909937698125839,-0.5619271960407495
1776021876954928600,2.6999287109375,1.3744129149660467,-1.4424842884123326,-0.5517088766261935
1776021876964990700,2.70999072265625,1.3137982872664928,-1.1938526419371365,-0.6686416038751601
1776021876975051500,2.720051513671875,1.260583998951316,-0.9579776011824608,-0.7428922504782677
1776021876985112600,2.730112548828125,1.2216390590071677,-0.8660913446456193,-0.784498956977576
1776021876995173600,2.740173583984375,1.2924199836730956,-0.9723346278369426,-0.7410271872587502
1776021877005234700,2.750234619140625,1.3859914168179035,-1.2475357168078423,-0.6760889972716569
1776021877015296800,2.760296875,1.4290426230370998,-1.5738865627795458,-0.594863397089392
1776021877025357800,2.77035791015625,1.4281841065116225,-1.8513912525177,-0.5180893694885075
1776021877035418600,2.780418701171875,1.2737785576976834,-1.972874190416932,-0.49596112431064243
1776021877045479400,2.7904794921875,0.9228016583830118,-1.9060440492033957,-0.5313699990831315
1776021877055540500,2.80054052734375,0.4038024805732071,-1.7857851001411675,-0.6560847585104406
1776021877065601500,2.8106015625,-0.2968845129907131,-1.6284797382324934,-0.8091231106244027
1776021877075663600,2.82066357421875,-1.0369085145562886,-1.4529109898805617,-0.9226282015122472
1776021877085724700,2.830724609375,-1.6701428510941565,-1.2195581610798836,-1.0022774922885
1776021877095785700,2.84078564453125,-2.0010743028543887,-0.9806862765967845,-1.0305759505338967
1776021877105846500,2.850846435546875,-1.9656850095652043,-0.8222650624006986,-0.9713982237696647
1776021877115907600,2.860907470703125,-1.721795735311508,-0.7908376584798097,-0.8620651578694581
1776021877125968600,2.87096875,-1.4091038507275282,-0.8657686885625123,-0.7616980732351541
1776021877136030700,2.88103076171875,-1.1721451063893735,-1.1153753175497054,-0.6704249801605939
1776021877146091800,2.891091796875,-1.0736369474947451,-1.4204454750835895,-0.6251362241476773
1776021877156152800,2.90115283203125,-1.1241840624272823,-1.6983020469993353,-0.613762304957211
1776021877166213600,2.911213623046875,-1.238451662120223,-1.8652216249495743,-0.5606868405908346
1776021877176274400,2.9212744140625,-1.322212479868531,-1.9060276825904845,-0.500910709542036
1776021877186335500,2.93133544921875,-1.2581763532876968,-1.7355331687629223,-0.45955432454198597
1776021877196397600,2.9413974609375,-1.1239705658070742,-1.3636428068876265,-0.36991438562721013
1776021877206458600,2.951458740234375,-0.9718165953122079,-0.7417582780122757,-0.23976503393054008
1776021877216519700,2.961519775390625,-0.7681727491419762,-0.04424012374281883,0.06478869851380586
1776021877226580700,2.971580810546875,-0.513029601880908,0.666545508378744,0.47966713824421164
1776021877236641500,2.9816416015625,-0.36953181605041024,1.5280857655912636,0.8764806367129087
1776021877246703600,2.99170361328125,-0.33760756852328777,2.508286889019608,1.2645707304999232
1776021877256764700,3.0017646484375,-0.3285539089739323,3.5191163749456402,1.5181816266924142
1776021877266825700,3.01182568359375,-0.12566519201993942,4.294626700434089,1.590251422125101
1776021877276886800,3.02188671875,0.18660218354165553,4.3608080223500725,1.6800228784650564
1776021877286947800,3.03194775390625,0.3626158261168748,3.582159983357787,2.045132201898098
1776021877297008600,3.042008544921875,0.23272914394438265,2.2382132260650396,2.609432556810975
1776021877307070700,3.05207080078125,-0.2880043833773583,0.8616086462736129,3.0557614890769123
1776021877317131500,3.062131591796875,-1.319013976088166,0.26902678425014015,3.1075510052859783
1776021877327192600,3.072192626953125,-2.603642867493629,0.32734570222795006,2.7690254451349374
1776021877337253600,3.082253662109375,-3.6020395728260275,0.9624462710291146,2.2875553491219875
1776021877347314700,3.092314697265625,-3.864252000886202,1.7180168012946844,1.8135910986945032
1776021877357375700,3.102375732421875,-3.3455291557997464,2.2117262011557814,1.3812106122821568
1776021877367438000,3.11243798828125,-2.2623159861862656,2.302698265457153,1.021898284690082
1776021877377499100,3.1224990234375,-1.0340817666977644,2.1028046386659143,0.7695715830892323
1776021877387560000,3.132559814453125,0.06899871742427349,1.842435792645812,0.5159299994975328
1776021877397621000,3.14262109375,0.8342360707014799,1.5696639766484497,0.3097659141346812
1776021877407682000,3.15268212890625,1.2075525929223745,1.2343033102691172,0.06828238584846258
1776021877417744000,3.162743896484375,1.2582120091229676,0.7085346383243799,-0.17065321152061222
1776021877427805000,3.172804931640625,1.3084995963364838,0.024403204372525213,-0.4845455579355359
1776021877437866000,3.182865966796875,1.3663824609845876,-0.7157102290421724,-0.8055430601805448
1776021877447927000,3.192927001953125,1.313432376563549,-1.43027304161489,-1.01718353112787
1776021877457988000,3.202988037109375,1.112560333194211,-1.9715823970407247,-1.1309382128626106
1776021877468049200,3.213049072265625,0.8472926092166453,-2.343265838167071,-1.2323349328055977
1776021877478111000,3.223111083984375,0.3712631698876619,-2.473812957009673,-1.4232026648372411
1776021877488172000,3.233172119140625,-0.3517681227575987,-2.465204118618369,-1.7748419735834002
1776021877498233000,3.243233154296875,-1.0266693715494126,-2.1799597745388746,-2.1472510986357927
1776021877508294100,3.253294189453125,-1.4382435821026562,-1.4700924263060091,-2.1354732748195526
1776021877518355000,3.26335498046875,-1.4089771556079387,-0.7983452576309442,-1.8389511654004453
1776021877528416000,3.273416015625,-1.1013760182917118,-0.3020107699632644,-1.3045242629647253
1776021877538477800,3.283477783203125,-0.7709889756064862,0.0650070174396038,-0.7657748211547732
1776021877548539000,3.293538818359375,-0.3784194713830948,0.24101591077446935,-0.23391309303194283
1776021877558600000,3.303599853515625,0.06508826598227024,0.26393092241585253,0.24086714995354414
1776021877568661000,3.313660888671875,0.5544400916883722,0.3112836252212524,0.6035708735495805
1776021877578722000,3.32372216796875,0.9270756093751639,0.4035802161246538,0.8513865274667739
1776021877588783000,3.333783203125,1.107384245730564,0.4643693236082792,0.9520397355660796
1776021877598845000,3.343844970703125,1.0243775342851877,0.4686357488811016,0.984963807785511
1776021877608906000,3.353906005859375,0.8313800967484712,0.27925357923209665,0.974351812878251
1776021877618967000,3.363967041015625,0.6596025573730468,-0.07749532761275768,0.9533157468512654
1776021877629028000,3.374028076171875,0.5016203191161155,-0.3246002029120922,0.9133011318489909
1776021877639089200,3.384089111328125,0.23725622944738714,-0.4340718005001545,0.717626291796565
1776021877649151000,3.39415087890625,-0.055509157786704594,-0.4830892216473818,0.42254327526986596
1776021877659212000,3.4042119140625,-0.403562607402727,-0.42085809866189955,-0.0013876549661159514
1776021877669272800,3.41427294921875,-0.6277437762975693,-0.3639350189566612,-0.4062488508120179
1776021877679334000,3.424333984375,-0.585016979727149,-0.4217658611565828,-0.6899377821430563
1776021877689395000,3.43439501953125,-0.31642391071915626,-0.5264677601248026,-0.8846496223822236
1776021877699456000,3.4444560546875,-0.03434533719420433,-0.587150484624505,-1.025303709219396
1776021877709518000,3.45451806640625,0.17633796089245005,-0.6285626914650202,-1.0847104224339126
1776021877719579000,3.464578857421875,0.2886924387067556,-0.6013976211637259,-1.072808972238004
1776021877729640000,3.474639892578125,0.3165659495383501,-0.5807996542930602,-1.141546116116643
1776021877739701000,3.484700927734375,0.3088181118905544,-0.6014215865612029,-1.21275724889338
1776021877749762000,3.494761962890625,0.21868659006655214,-0.6047989540398121,-1.2121873400509358
1776021877759823000,3.504822998046875,0.1510854644805193,-0.6688128687888384,-1.1796975675955415
1776021877769885200,3.51488525390625,0.11040975522100925,-0.66774670086205,-1.0520812415078282
1776021877779946000,3.524946044921875,0.12198971837759018,-0.6587322042793035,-0.8629109610438347
1776021877790007000,3.535007080078125,0.16755203063488006,-0.6483160242050886,-0.6476183973297477
1776021877800067800,3.54506787109375,0.20955343554019926,-0.5494704500496387,-0.5285188474357128
1776021877810129000,3.55512890625,0.2867535795986652,-0.37295126910507675,-0.4888838794007897
1776021877820191000,3.56519091796875,0.375011708766222,-0.16486907516121863,-0.4775733808353543
1776021877830252000,3.575251953125,0.3999591030180454,-0.045425534135103224,-0.47212242195308207
1776021877840312800,3.585312744140625,0.418328287923336,-0.004391512957215309,-0.3935755394607782
1776021877850374000,3.595373779296875,0.46357378931641574,-0.048640989050269125,-0.16177987697422502
1776021877860435000,3.60543505859375,0.5663643017053603,-0.15517068796753883,0.1817588351637125
1776021877870496000,3.61549609375,0.5210720385611057,-0.09250935687124728,0.5321154106229543
1776021877880558000,3.62555810546875,0.30066052439808844,0.13325520875751973,0.7284609895437956
1776021877890619100,3.635619140625,0.00757774177789688,0.4736117837280035,0.8086766820311546
1776021877900680200,3.64568017578125,-0.27391044637216255,0.7055524076431989,0.773179252192378
1776021877910741000,3.655740966796875,-0.5080091433703899,0.7471323722660541,0.6621615942060947
1776021877920802000,3.665802001953125,-0.598097995096445,0.5234837758779526,0.625155513370037
1776021877930862800,3.67586279296875,-0.4298094668805599,0.1555506271958351,0.5999041677355766
1776021877940925000,3.685925048828125,-0.12779285169839857,-0.1664139665156603,0.5730892260462045
1776021877950986000,3.695986083984375,0.21493571310043333,-0.38023791898190973,0.5788707320570945
1776021877961047000,3.706047119140625,0.49786071085426953,-0.5314712675005198,0.6113233873724937
1776021877971107800,3.71610791015625,0.7582862189650535,-0.49887774240970606,0.5107780235618352
1776021877981169000,3.7261689453125,0.9065431820213794,-0.28912498490512367,0.26385201196074487
1776021877991231000,3.73623095703125,0.9141092333614825,-0.03217734550535679,-0.05898001223504543
1776021878001292000,3.7462919921875,0.7840496057748794,0.19794541533291338,-0.3930757732450962
1776021878011353000,3.75635302734375,0.5717080008208751,0.22884791859686374,-0.731888041383028
1776021878021414100,3.7664140625,0.30587212156653404,0.042374914392828936,-0.9984323611676692
1776021878031475000,3.776474853515625,0.11387655454874038,-0.19739011953771113,-1.1658154649764298
1776021878041536000,3.786535888671875,0.08707387868589721,-0.4350941292852163,-1.1809785473167895
1776021878051598000,3.79659814453125,0.19006547573804855,-0.6276046600878238,-1.0639783077895641
1776021878061659100,3.8066591796875,0.3591863631248474,-0.7357260121107101,-0.7791594956457615
1776021878071720000,3.816719970703125,0.5331564441084862,-0.7270218966513872,-0.36442543282210826
1776021878081781000,3.826781005859375,0.5434124651849269,-0.6851110926389694,0.14255027584731578
1776021878091842000,3.836842041015625,0.41847091126441954,-0.6992424938440323,0.7568015333652496
1776021878101902800,3.84690283203125,0.24738719937205314,-0.6785878283500671,1.2971347372353077
1776021878111965000,3.85696484375,0.11503856579912826,-0.5150198989152908,1.56664199847877
1776021878122026000,3.86702587890625,0.06426816350473091,-0.08700491423606872,1.6783026305437088
1776021878132087000,3.877087158203125,0.007126490879058837,0.5887281092047691,1.5585434476971625
1776021878142148000,3.887148193359375,-0.08852116401791572,1.4420517422139645,1.2684656921118498
1776021878152209200,3.897209228515625,-0.2831715929260477,2.425566520234942,0.8407605040341615
1776021878162270000,3.90727001953125,-0.5888251763710752,3.3222873964220283,0.2993289835333824
1776021878172332000,3.91733203125,-0.8817232135415076,3.815749543523788,-0.24228841492831707
1776021878182393000,3.92739306640625,-1.0831038640201092,3.5276515635788437,-0.5472217943400144
1776021878192454100,3.9374541015625,-1.1841911526877433,2.0962135698378086,-0.4492600172817707
1776021878202515000,3.947514892578125,-1.2087434832073747,0.27169746476411816,-0.06515607052147387
1776021878212576000,3.957575927734375,-1.2093161685287952,-0.9955798943459987,0.15845044029057026
1776021878222637800,3.967637939453125,-1.202476166440919,-1.7187480381786822,0.14008885416984557
1776021878232699000,3.977698974609375,-1.150824232071638,-1.9288585230797528,-0.13554887265264987
1776021878242760000,3.987760009765625,-0.9140402597784996,-1.7183838810414074,-0.5601783065468072
1776021878252821000,3.997821044921875,-0.6067395667135715,-1.128395542642474,-1.0318851334363222
1776021878262882000,4.007882080078125,-0.2356067086746916,-0.43167876788377757,-1.385899062359333
1776021878272943000,4.017943115234375,0.04140990528557449,0.010486322700977324,-1.5646388419628143
1776021878283005000,4.0280048828125,0.1825473551928997,0.1679547662168741,-1.433676712578535
1776021878293066000,4.03806591796875,0.24482114827632903,0.03209609696269035,-0.7319330495685339
1776021878303127000,4.048126953125,0.2516144251456484,-0.11908055293262004,0.1853057139903307
1776021878313188000,4.05818798828125,0.201038084118627,-0.1023731637597084,0.8795634051591157
1776021878323249200,4.068249267578125,0.1230862449100241,0.10194295564889908,1.269580375355482
1776021878333310000,4.07831005859375,0.020246632682345805,0.48268356345593927,1.4889748214304446
1776021878343372000,4.0883720703125,-0.1247989305794239,0.782414698049426,1.528152401086688
1776021878353432800,4.098432861328125,-0.3182698308467865,0.7852063745945692,1.2261439692109823
1776021878363494000,4.108493896484375,-0.480409261848405,0.4988391639649868,0.7578332145005464
1776021878373555000,4.118554931640625,-0.5367231966793536,0.255336112549901,0.33753625685274596
1776021878383616000,4.128615966796875,-0.5479938746910542,0.09566109890043735,-0.02701017200052738
1776021878393676800,4.1386767578125,-0.4338425948541611,-0.05070552036464214,-0.2760714420646429
1776021878403739000,4.14873876953125,-0.2613970200240612,-0.12372341030240058,-0.43596915855407714
1776021878413799700,4.158799560546875,-0.08260806751661003,-0.22067922518849373,-0.5732575683504343
1776021878423860700,4.16886083984375,0.051144423238560555,-0.397930812060833,-0.6705991676837205
1776021878433921800,4.178921875,0.19957323573045432,-0.6541343550950288,-0.7190677227765321
1776021878443982800,4.18898291015625,0.35773316864185034,-0.8843085538595914,-0.7014975792944431
1776021878454045000,4.199044921875,0.4890027930727228,-1.0785977847725152,-0.6670283234596251
1776021878464105700,4.209105712890625,0.5929530334234238,-1.1518541596412657,-0.6467804852008819
1776021878474166800,4.219166748046875,0.6437549998998642,-1.1373393120765685,-0.6400058764994144
1776021878484227800,4.229227783203125,0.5590215377271175,-1.0647919622600077,-0.7072416759043931
1776021878494289000,4.239288818359375,0.3345043052783236,-0.800773946082592,-0.8860317243903875
1776021878504350000,4.249349853515625,0.06954060574863105,-0.5408855770558119,-1.0145096357434988
1776021878514412000,4.259412109375,-0.09919340121243149,-0.42422962092161176,-0.9827385329514742
1776021878524472800,4.269472900390625,-0.030335553563572464,-0.45007542531788347,-0.7062362982541323
1776021878534534000,4.279533935546875,0.21635255762841551,-0.48394028551876545,-0.35125849273502824
1776021878544594700,4.2895947265625,0.44057752913236614,-0.3896627499312162,-0.19740531710684298
1776021878554655700,4.29965576171875,0.6038766880957409,-0.15604805532395838,-0.2619575765162706
1776021878564716800,4.309716796875,0.6791103909194469,0.18617372899651527,-0.44863633242547507
1776021878574779000,4.31977880859375,0.6217921013515443,0.5152513695836067,-0.7518745983570814
1776021878584840000,4.32983984375,0.5165992039959877,0.6471440578162669,-1.034990698236227
1776021878594900700,4.339900634765625,0.4218458675902337,0.5337544100016355,-1.1927303599089383
1776021878604961800,4.3499619140625,0.38115616633798927,0.19291794255971909,-1.1335679768443108
1776021878615022800,4.36002294921875,0.5160709058055654,-0.2650456056594849,-0.9213649035781621
1776021878625085000,4.3700849609375,0.7103893262803554,-0.6157178229391574,-0.653278030526638
1776021878635146000,4.38014599609375,0.904581453494355,-0.8270452824145555,-0.4332698364675045
1776021878645207000,4.39020703125,1.0001274746477604,-0.950039793920517,-0.3532639873385429
1776021878655267800,4.400267822265625,0.9315396761119366,-1.022737365862727,-0.3849900819450617
1776021878665329000,4.410328857421875,0.6357330214858055,-1.1260194611608982,-0.4806073417037725
1776021878675389700,4.4203896484375,0.25606150421500207,-1.235913083553314,-0.5461965429455041
1776021878685452000,4.4304521484375,0.04947740334179252,-1.1944593756586313,-0.3849976807296276
1776021878695512800,4.440512939453125,0.20207265133075414,-0.952244025966525,0.02183189257979393
1776021878705574000,4.450573974609375,0.4695324054598808,-0.5736866074174642,0.435935840806365
1776021878715635000,4.460635009765625,0.5720668607285246,-0.15797463947236537,0.7754600566059351
1776021878725695700,4.47069580078125,0.4979962834000587,0.26895488805770873,1.0567582934081554
1776021878735756800,4.4807568359375,0.3299543503563851,0.575587472602725,1.2705056735068558
1776021878745819000,4.49081884765625,0.20929620937611906,0.7589139954745769,1.4093413127452135
1776021878755880000,4.5008798828125,0.0822176434269175,0.92011928743124,1.505751768708229
1776021878765941000,4.51094091796875,0.050839229746907945,0.9767407538414001,1.4715151525855064
1776021878776002000,4.521001953125,0.1965502346474677,0.8704185601949691,1.3410241478443146
1776021878786062800,4.531062744140625,0.43211255619116123,0.599778495529294,1.0952034671366213
1776021878796125000,4.541125,0.619645736972615,0.21143150437176225,0.751394121363759
1776021878806186000,4.55118603515625,0.7416355284154414,-0.20243512796759605,0.38842005639374255
1776021878816247000,4.5612470703125,0.7595629609026014,-0.5478764588564634,0.11262333961725235
1776021878826307800,4.571307861328125,0.8217313208501785,-0.6960609411984682,-0.1043944404542446
1776021878836369000,4.581368896484375,0.6748562406063079,-0.7969809835404157,-0.3244651783555746
1776021878846430000,4.591429931640625,0.1503119958899915,-0.9439549210488796,-0.6308277137875556
1776021878856491800,4.60149169921875,-0.6168295835733413,-0.997250457906723,-1.022441013264656
1776021878866552800,4.611552734375,-1.4427847326636314,-0.7548696885198354,-1.3024077092021702
1776021878876614000,4.62161376953125,-2.0123931308567524,-0.13815993193387985,-1.4012018454313278
1776021878886675000,4.631675048828125,-2.1185282774984837,0.6388958694308996,-1.1784130807429551
1776021878896736000,4.641736083984375,-2.013034935891628,1.4031716841995716,-0.510506220883131
1776021878906797000,4.651797119140625,-1.6911983524739742,2.100683408728242,0.26553309691548344
1776021878916859000,4.66185888671875,-1.2749977242290973,2.5338901168316603,0.8338941253960133
1776021878926920000,4.671919921875,-0.7821453065235168,2.260584632349014,1.106951772597432
1776021878936981000,4.68198095703125,-0.22163674510903655,1.4931079757124184,1.2897089711487293
1776021878947042000,4.6920419921875,0.3008112579803914,0.3880652516067028,1.2921259691625833
1776021878957102800,4.702102783203125,0.5136719183724373,-0.24044132575690744,1.2113865450620651
1776021878967164000,4.712163818359375,0.49215099143795665,-0.48223114351332186,1.157952476516366
1776021878977225700,4.722225830078125,0.35589433584213254,-0.6328074894279241,1.0527163245409727
1776021878987286800,4.732286865234375,0.05761281553506851,-0.8043868758827447,0.6616086364984511
1776021878997347800,4.742347900390625,-0.17339271948710083,-1.0464537570148706,0.026520927178859708
1776021879007409000,4.752408935546875,-0.19695355475135146,-1.1206757620453833,-0.6387573377430439
1776021879017470000,4.762469970703125,0.0007411006908863782,-0.98138478025496,-1.2216641934484243
1776021879027531800,4.77253173828125,0.3282850289046764,-0.7286644031614065,-1.6653624849498272
1776021879037592800,4.7825927734375,0.5551379742920398,-0.5338718989014625,-1.8967080655813215
1776021879047654000,4.79265380859375,0.6231868436455726,-0.4750929621964693,-1.8097323774397371
1776021879057715000,4.80271484375,0.5445943684458733,-0.4284504534870386,-1.1485679775774478
1776021879067776000,4.81277587890625,0.48518115242533383,-0.38574528422653676,-0.2150637233942747
1776021879077837000,4.822837158203125,0.47143327064514157,-0.3511509407073259,0.5059440275341273
1776021879087899000,4.83289892578125,0.5160182623028755,-0.26179683299660683,0.7416916425168514
1776021879097959700,4.842959716796875,0.6636264060616492,-0.12941957611739635,0.7185691256046295
1776021879108020700,4.853020751953125,0.831490571385622,-0.06257540637850761,0.47240182341635223
1776021879118081800,4.863081787109375,0.8824385952692478,0.22875614866018293,0.009137246179580689
1776021879128142800,4.873142822265625,0.6701590957660227,0.6478162579894066,-0.514212089663744
1776021879138204000,4.883203857421875,0.23889058918356895,0.9177011203736066,-0.9336743500530719
1776021879148265700,4.893265625,-0.2440729602575302,0.851690478849411,-1.1621814923882483
1776021879158326800,4.903326904296875,-0.47640061072893436,0.4235954146713018,-1.0404933873057365
1776021879168387800,4.913387939453125,-0.32756372889280316,-0.2847153517693281,-0.6285282046735287
1776021879178449000,4.923448974609375,0.04302322223372757,-0.9443301841020584,-0.09408405884206295
1776021879188510000,4.933510009765625,0.33994624060392375,-1.4066577727496623,0.38131285473704335
1776021879198571000,4.943571044921875,0.45993696718402205,-1.6319786862641572,0.7051368125796318
1776021879208632800,4.9536328125,0.38321255087852474,-1.5300088426083325,0.8408277240514754
1776021879218694000,4.96369384765625,0.10633271504044532,-1.0234972443193198,0.8081745777279138
1776021879228754700,4.973754638671875,-0.4365116679329425,-0.2237216616243124,0.6479957062095403
1776021879238815700,4.983815673828125,-1.20139246285744,0.5780266824483871,0.5031096808910369
1776021879248876800,4.993876708984375,-1.8176023801624774,1.16087274787724,0.43831601394116876
1776021879258937900,5.003937744140625,-1.9104957679152488,1.6293834090739487,0.3127443454235792
1776021879269000000,5.014,-1.5262661489486693,2.1069594202578066,0.036734862679243085
1776021879279060700,5.024060791015625,-1.026456751712039,2.376952419191599,-0.3443196333825588
1776021879289121800,5.034121826171875,-0.4482745133757591,2.3197885164678094,-0.6987152550995349
1776021879299182800,5.044182861328125,-0.06371047482304275,1.6675784074336288,-0.8373883972525596
1776021879309244000,5.054243896484375,-0.11334683158621191,0.5334001897364854,-0.6965595383703709
1776021879319306000,5.064305908203125,-0.41288054391145707,-0.5130629196286202,-0.4193085311323404
1776021879329367000,5.074366943359375,-0.7852420304298401,-1.2874831117928027,-0.10248013126552104
1776021879339427800,5.084427734375,-0.9666812051851302,-1.6788965047836302,0.1388625272452831
1776021879349489000,5.094489013671875,-0.6778572490531951,-1.5665519821077585,0.3446691774725914
1776021879359549700,5.1045498046875,-0.2380734275817871,-0.9653098437666893,0.4718196396142244
1776021879369610800,5.11461083984375,-0.22509704163074493,-0.22556173653304576,0.408898780798912
1776021879379672800,5.1246728515625,-0.137822078281641,0.5366016161262989,0.23976328036487102
1776021879389734000,5.13473388671875,0.16247487350106238,1.1425748746424913,0.18879297158420086
1776021879399795000,5.144794921875,0.2928945665717125,1.3643331272393464,0.20926994242370128
1776021879409855700,5.154855712890625,0.4261619772236794,1.152439266052842,0.2526987497836351
1776021879419916800,5.164916748046875,0.6777192288219929,0.5430629210948944,0.38824119269549845
1776021879429977900,5.174977783203125,0.8359540536005049,-0.2808206824183464,0.5199187768727541
1776021879440040000,5.1850400390625,0.8293347815912216,-0.9697036948114633,0.5104682269603014
1776021879450101000,5.19510107421875,0.6113116238694638,-1.2943611808687447,0.40138241381943224
1776021879460161800,5.205161865234375,0.09126841689944266,-1.3542992244809866,0.18562544746398923
1776021879470222600,5.21522265625,-0.5766063673216849,-1.0388672474086285,-0.007434533914923667
1776021879480283600,5.22528369140625,-1.012700613560155,-0.337888723552227,-0.01798983019888401
1776021879490345700,5.235345703125,-1.127355751265958,0.5187409652650355,0.13384206873476504
1776021879500406800,5.24540673828125,-1.03947288515158,1.2696984487771987,0.4156792347192764
1776021879510467800,5.2554677734375,-0.7175310147285461,1.546253874966502,0.6182184075832367
1776021879520529000,5.26552880859375,-0.41509938900470733,1.44940795019567,0.8052940538555383
1776021879530589700,5.275589599609375,-0.11739194225855171,1.2059662735790013,0.8986287556350231
1776021879540650800,5.285650634765625,0.04195347411036491,0.7088911966770887,0.6298749431073665
1776021879550712800,5.295712890625,-0.13297405372858045,0.024290391647815702,0.1808563333660364
1776021879560774000,5.30577392578125,-0.6807189220946281,-0.4355781134098768,-0.22411621389985084
1776021879570835000,5.3158349609375,-1.0486755247175692,-0.714399730965495,-0.5192126744300126
1776021879580896000,5.32589599609375,-1.0732838232081383,-0.9296540084958076,-0.6424427482575178
1776021879590956800,5.335956787109375,-0.9305717809278518,-1.0915379303663968,-0.5918447799205779
1776021879601017600,5.346017578125,-0.5990601181268692,-1.0897346803367138,-0.46083413521945477
1776021879611079700,5.35607958984375,-0.31966216198801994,-0.8292091824501753,-0.24848902313411234
1776021879621140700,5.366140625,0.0818201320093125,-0.5500906277745962,-0.09085223731398583
1776021879631201800,5.376201904296875,0.5020364987015724,-0.30057693776786326,0.0737953040510416
1776021879641262800,5.386262939453125,0.6549941137295215,-0.0701046328395605,0.22653028930425642
1776021879651324000,5.396323974609375,0.6088683223705739,0.12309446474909781,0.3453296872079372
1776021879661384700,5.406384765625,0.3784743433754891,0.3377852631777525,0.5398357757419348
1776021879671446800,5.41644677734375,-0.036604002841189504,0.45542263156473634,0.7403741301774979
1776021879681507800,5.4265078125,-0.46261057030744845,0.5192237803459168,0.807847829991579
1776021879691569000,5.43656884765625,-0.7162591681618243,0.5584802704572678,0.930643604055047
1776021879701630000,5.4466298828125,-0.7980628604929894,0.5889695167452097,1.1515993080973626
1776021879711691000,5.45669091796875,-0.8765175346571952,0.7461147196561098,1.4214333170771598
1776021879721752800,5.4667529296875,-0.9879016878683119,1.054293364599347,1.7765484852403401
1776021879731814000,5.47681396484375,-0.9752315913874655,1.4648188698172568,2.202842052954435
1776021879741874700,5.486874755859375,-0.7843418667197227,1.9059791672736406,2.5810943510770796
1776021879751935700,5.496935791015625,-0.786360732261464,2.4129180510640142,3.3208418737888334
1776021879761996800,5.506996826171875,-1.11172329784818,2.849660532078147,4.341254596096277
1776021879772057900,5.517057861328125,-0.7464496506989001,3.034633068591356,5.294487048578262
1776021879782119000,5.527118896484375,0.4151356293618679,2.766496511179209,6.085600601390004
1776021879792180700,5.5371806640625,1.3846166213333606,1.7595225316375493,6.7084104284167285
1776021879802241800,5.54724169921875,1.6205378393173218,0.8742541928350925,7.435444600027799
1776021879812302800,5.557302734375,1.0946305626194923,0.9355682009756564,8.737381769108772
1776021879822364000,5.567364013671875,-1.0032522556047887,0.5004197111546993,9.035296794191002
1776021879832425000,5.577425048828125,-5.574276634383201,-0.7142471707522868,5.734123497468233
1776021879842486800,5.58748681640625,-8.354363279497623,-2.247171608546376,2.236552307115495
1776021879852547800,5.5975478515625,-3.571051144844293,-3.4620904193878173,-0.13821926090568304
1776021879862609000,5.60760888671875,1.4922668487131594,-3.7791362613976,-1.4738330741390584
1776021879872669700,5.617669677734375,2.90247150028944,-3.969941741847992,-2.968693738737702
1776021879882730800,5.627730712890625,3.057119041165709,-3.7632448647826906,-4.84042722979933
1776021879892791800,5.637791748046875,2.9514047502845524,-2.778073551726341,-6.7053872812032695
1776021879902853600,5.647853515625,2.3265976119607688,-1.8278093014001846,-8.631476924091578
1776021879912914700,5.657914794921875,0.46747781101763247,-0.3840408183962106,-11.44697975050211
1776021879922975700,5.667975830078125,-3.0835084509193895,0.7710346413791179,-14.435136314600705
1776021879933036800,5.678036865234375,-2.9954332771033045,1.3195067280411719,-14.958825842183828
1776021879943097900,5.688097900390625,1.2373726347118614,0.309490312063694,-11.117353828382491
1776021879953159000,5.698158935546875,3.5928801148146388,-1.544668651601672,-6.353546604666113
1776021879963220700,5.708220703125,3.723087626439333,-2.794221553450823,-3.294064926022291
1776021879973281800,5.71828173828125,3.0743443167328834,-3.255791601729393,-1.715902585619688
1776021879983342800,5.7283427734375,2.0628040521889925,-2.822319520688057,-1.1200111606568097
1776021879993403600,5.738403564453125,1.535299350231886,-1.5915677654206752,-1.181949145914614
1776021880003464700,5.748464599609375,2.072446325281262,-0.22707506370544434,-1.4375944705441592
1776021880013525800,5.75852587890625,2.096497647476196,1.15596802470088,-1.530785672199726
1776021880023587600,5.768587646484375,1.0243559069752692,2.374764553758502,-1.4637263984054325
1776021880033648600,5.778648681640625,-0.7382680978089571,2.767659709739685,-1.500301978869736
1776021880043709700,5.788709716796875,-1.4817413630455731,2.1999434089034793,-1.632185899274051
1776021880053770800,5.798770751953125,-0.7953811471283435,1.4144751685023307,-1.4268971354410052
1776021880063831800,5.808831787109375,0.18404665383994578,0.9034493076592683,-1.0430158915206789
1776021880073894000,5.818893798828125,0.5959101661959663,0.7575602427780628,-0.6085702892720699
1776021880083954700,5.82895458984375,0.9415811776548624,0.842475491258502,-0.30694764184355733
1776021880094015700,5.839015625,1.0175069909285754,0.7628647789269686,-0.20610928643569348
1776021880104076800,5.849076904296875,0.15895955885648727,0.4939689275801182,-0.30951486198306083
1776021880114137900,5.859137939453125,-0.8477344347000122,0.18088322137296198,-0.6222615454941988
1776021880124198700,5.86919873046875,-0.5297528462100773,-0.11724398515522479,-1.2374326943360268
1776021880134261000,5.879260986328125,0.47517771787047386,-0.43003743041753767,-1.9832170129939912
1776021880144321800,5.88932177734375,1.1404647506207226,-0.9213742559283972,-2.4077714819557965
1776021880154382600,5.899382568359375,1.1608757435519248,-1.4985738399028776,-2.1506825343891975
1776021880164443600,5.909443603515625,0.8452893796354531,-1.9556214423209428,-1.4960827537395058
1776021880174504700,5.919504638671875,1.016118824505806,-1.912891723141074,-0.6018300212316214
1776021880184565800,5.929565673828125,0.7705448120355606,-1.5392343515932558,0.18151538179665802
1776021880194627800,5.9396279296875,-0.3767103293776512,-1.0708224745959043,0.6550690055966377
1776021880204689000,5.94968896484375,-0.8889841444551945,-0.5484615652680397,0.9278796922996639
1776021880214749700,5.959749755859375,0.16603285824358463,-0.028376784178614615,1.0732364038698374
1776021880224810800,5.969810791015625,1.1482927408326415,0.3548597320973873,1.307005558386445
1776021880234871800,5.979871826171875,1.0084990702170877,0.5102297420293093,1.640556544995308
1776021880244932900,5.989932861328125,0.12287234643101691,0.32896775047183036,1.6815176470674573
1776021880254995000,5.999994873046875,-0.4621031322419643,0.1314478670746088,1.5280547859311102
1776021880265056000,6.010055908203125,0.4253955959610641,-0.03370119407176971,0.9657045421727001
1776021880275116800,6.02011669921875,1.8805530495941638,-0.5341922168970108,0.24002426938861607
1776021880285177600,6.030177490234375,1.8218897020928562,-1.1148246979296206,-0.024764731161296367
1776021880295238700,6.04023876953125,1.1355769785791634,-1.2466437364041805,0.18018398706242442
1776021880305299700,6.0502998046875,0.9691302788376808,-1.02435473793149,0.43235827458053827
1776021880315361800,6.06036181640625,0.29961379182413217,-0.6390671343445777,0.6139652071181685
1776021880325422800,6.0704228515625,-0.544327095811814,-0.31813714437782764,0.6470403051808477
1776021880335484000,6.08048388671875,-0.33205227248370645,-0.012934884896874428,0.7658431371506303
1776021880345544700,6.090544677734375,0.5371073736913502,0.42297056077122686,1.1746990286558865
1776021880355605800,6.100605712890625,0.5264421872921288,0.8004442757368088,1.8229082314856349
1776021880365667000,6.1106669921875,0.012706482968479394,0.8891776212006807,2.0852470624044535
1776021880375729200,6.120729248046875,0.4498457082152366,0.5701660320758819,1.7569773771993815
1776021880385790200,6.130790283203125,0.8162754665970802,-0.4915718033105135,0.9150885267224163
1776021880395851000,6.14085107421875,0.21832126388549802,-1.9783692807018756,-0.2132246713988483
1776021880405911800,6.150911865234375,0.28668694410324097,-2.8638275891184803,-1.2647408263698219
1776021880415972900,6.160972900390625,1.8238073722824453,-2.309522558519244,-1.5651782095365225
1776021880426035000,6.171034912109375,2.391368774817884,-1.1369418371915816,-1.0238932578995823
1776021880436096000,6.181095947265625,0.593713496401906,-0.17390169192254543,-0.27640949664628134
1776021880446157000,6.191156982421875,-0.6987713692009448,0.500207529708743,0.25525051662568
1776021880456218000,6.201218017578125,-0.36635961575508114,0.8487374742627143,0.709631932041794
1776021880466279000,6.21127880859375,0.253903741659224,1.2198065828830003,1.161758883062005
1776021880476340000,6.221340087890625,0.10461334390193223,1.4814467640131712,1.5281509397819637
1776021880486402000,6.231402099609375,-0.13293299106582998,1.4794003528773785,1.1938393440641462
1776021880496463000,6.241463134765625,0.5240063384473324,0.8729115460544824,0.003189370625838637
1776021880506524200,6.251524169921875,0.6193056182980538,-0.3537204989343881,-1.070052659267187
1776021880516585200,6.261585205078125,0.7137056112214922,-1.1394693098425865,-1.5065449649125338
1776021880526646000,6.27164599609375,1.01957071852535,-1.5073890145212412,-1.3176762977436185
1776021880536706800,6.281706787109375,0.7143310496434568,-1.1293810465484857,-0.4421729816302657
1776021880546769200,6.29176904296875,0.6121510703682899,-0.3362900561839342,0.31601343022212386
1776021880556830000,6.301829833984375,0.6062406772807241,0.7289864747226238,0.9813777659922838
1776021880566891000,6.31189111328125,0.13429215058982372,1.3745271889954804,1.2387889312505722
1776021880576952000,6.3219521484375,-0.7582792047023773,1.269428984186053,1.234814036270231
1776021880587013000,6.33201318359375,0.03084580464065075,0.9742349085003137,1.18588268597126
1776021880597074000,6.342073974609375,0.14206599946171045,0.6796060654819012,1.270915715612471
1776021880607136000,6.352135986328125,-0.1067477255821228,0.7801952684342861,1.5109098821237683
1776021880617197000,6.362197021484375,0.3032598932415247,0.24961715038120746,0.5381215191699564
1776021880627258000,6.372258056640625,0.07149111876189708,-0.791776985156536,-0.9806735632456839
1776021880637319200,6.382319091796875,0.2135521497875452,-1.338013275590539,-2.0763034391008315
1776021880647380200,6.392380126953125,0.2604106393352151,-1.301408761292696,-2.48506500338614
1776021880657441000,6.40244091796875,0.43524756628125905,-0.5341776038497686,-1.9114337794177234
1776021880667503000,6.412503173828125,0.17443945206105707,-0.004381576085090637,-1.4251678274303674
1776021880677564200,6.422564208984375,-0.3139575206056237,0.6619435675412416,-0.6489432161927223
1776021880687625000,6.432625,-0.10639175175130366,1.2079162386029958,-0.08224486022740601
1776021880697686000,6.44268603515625,-0.8725111485600471,0.858734552142024,-0.5985223579883575
1776021880707747000,6.4527470703125,-0.6735477883562445,0.23543898742496966,-0.7310980600491166
1776021880717808000,6.46280810546875,-0.1655737162992358,-0.7205617607265711,-0.44788960571140046
1776021880727870000,6.472869873046875,-0.6097288116574288,-1.047717493340373,0.12002250995784997
1776021880737931000,6.482930908203125,-1.0865689097821711,-0.4820581250339746,0.6453247334346175
1776021880747992000,6.492991943359375,-1.0483651435941457,0.4338450060069561,0.3988397435992956
1776021880758053000,6.50305322265625,-1.7506071115151047,1.5015923109412193,-0.4230801586255431
1776021880768114200,6.5131142578125,-1.0275666857153176,1.5807593711584806,-1.3048448732212186
1776021880778175200,6.52317529296875,-0.41642157751917835,1.4760948815912007,-1.1495721861839294
1776021880788237000,6.533237060546875,-0.21246903072595594,1.1500731214433908,-0.6090317693039774
1776021880798298000,6.543298095703125,0.20053397052139044,0.9655641107887029,0.025982290257513523
1776021880808359200,6.553359130859375,-0.4856529346555471,0.5229559526115656,-0.2621604056119919
1776021880818420000,6.563419921875,-0.17390519905388355,-0.10013152231276035,-0.7916475135579705
1776021880828481000,6.57348095703125,0.43774552057683463,0.39003976655006406,-0.25081337442845103
1776021880838542000,6.5835419921875,-0.2368839255362749,0.9644938512086868,-0.3690966395035386
1776021880848604000,6.59360400390625,-1.943157097545266,0.7255348729640245,-0.26642186244875193
1776021880858665000,6.6036650390625,-1.6420476603358982,1.2423352255553006,0.5805433414444326
1776021880868726000,6.61372607421875,-2.0974404812842606,0.9450000461876392,0.4619374202862382
1776021880878787000,6.623787109375,-1.7059709741920233,1.040778049466014,0.39322365728318687
1776021880888848100,6.63384814453125,-1.0598720415145158,0.9183522777587175,0.09730828158557414
1776021880898909200,6.6439091796875,0.23846447272598742,-0.09571253682672977,0.37455782751888034
1776021880908970200,6.65397021484375,0.4567869056552648,-0.028838556471467016,1.4115309317439795
1776021880919032000,6.664031982421875,-1.5501041206538677,0.306243292966485,1.4799404511034489
1776021880929093000,6.674093017578125,0.11773322997689246,0.09377426224052905,1.9994658447444438
1776021880939154200,6.684154296875,-0.7066308505296707,0.3041343379884958,1.7720532196477055
1776021880949215000,6.694215087890625,-0.9023504065066575,1.0887883393973112,1.6348121561244129
1776021880959276000,6.704276123046875,-0.5161369202464818,0.9634317749351262,1.6644664128929376
1776021880969337000,6.714337158203125,-0.15201076263189314,0.582014290779829,2.0744018432632085
1776021880979399000,6.72439892578125,-0.3954103536725044,-0.3358142553657293,2.337216621130705
1776021880989460000,6.7344599609375,-0.7142524314492941,-0.8607792097121476,2.1953145800590512
1776021880999521000,6.74452099609375,-0.5850637414783239,-0.9377420378834008,2.412812544862926
1776021881009582000,6.75458203125,-1.1867337498426436,-0.859752789273858,3.061837886381149
1776021881019643100,6.76464306640625,-1.7181430580228567,-0.4055108919262886,2.5089129119634626
1776021881029704200,6.7747041015625,-1.9695038372009992,0.16766250527203083,1.8399375460892915
1776021881039766000,6.78476611328125,-2.124679785865545,0.352445072171092,2.7821324717283247
1776021881049827000,6.7948271484375,-2.2698738542199135,0.22721827156841753,4.062784276196361
1776021881059888000,6.80488818359375,-2.168072937390208,0.5119277781188488,4.021806369119882
1776021881069949200,6.81494921875,-2.7569714347258207,1.2368155853509901,3.0006852062821388
1776021881080010000,6.825010009765625,-4.089710277044773,2.1640730540990827,2.608882813973725
1776021881090071000,6.835071044921875,-6.585568477123975,3.4926556535214184,3.490576509159803
1776021881100132900,6.8451328125,-6.067801909849047,5.195673623126745,3.416108420413732
1776021881110194000,6.85519384765625,-4.1610523427248,5.567624190756678,-1.30132634370625
1776021881120255000,6.8652548828125,-1.6753747603982685,4.529256125041842,-6.485439877420664
1776021881130316000,6.87531591796875,1.8210317700892686,2.3507032946914435,-6.120101421406865
1776021881140377000,6.885377197265625,1.2689923463344572,-2.2715368189960716,-5.0585062093615525
1776021881150438100,6.895438232421875,2.6091782897889613,-4.539114671233296,-3.4564708259403703
1776021881160500000,6.9055,4.1591012086570265,-7.924793466591835,-2.146436859643459
1776021881170561000,6.91556103515625,5.228143229576945,-11.135618968391418,-2.497114045359194
1776021881180622000,6.9256220703125,4.870839611458778,-13.624284042096138,-3.946076589874923
1776021881190683100,6.93568310546875,4.499485840678215,-14.464858083647488,-5.445754299366474
1776021881200744200,6.945744140625,4.736096794492006,-14.897753826105594,-6.626420127472281
1776021881210805000,6.955804931640625,5.8608098492294545,-11.75492926286459,-5.716248233559727
1776021881220867000,6.9658671875,7.605380310928821,-9.349842051556706,-5.176089801734686
1776021881230928000,6.975927978515625,8.304581888240575,-8.98759454729557,-5.661165813285112
1776021881240989000,6.985989013671875,6.188905493041872,-8.861544739872217,-4.2873701534345745
1776021881251050000,6.996050048828125,-7.557481080156564,-6.056083999526501,2.3204005108863113
1776021881261111000,7.006111083984375,-32.840639902985096,16.433284647005795,18.31926322878003
1776021881271172000,7.016172119140625,-3.114313923549652,39.144037452125545,9.357332699573039
1776021881281234000,7.02623388671875,28.59464483925104,31.46558021454811,-6.2838160658359525
1776021881291295000,7.036294921875,11.25398582009673,17.806729885983465,-3.694122228717804
1776021881301356000,7.04635595703125,-11.31961593787074,6.254170284634828,-0.03733692022562027
1776021881311417000,7.0564169921875,-3.110953507205844,-5.174020594245195,2.9176375052392483
1776021881321478100,7.06647802734375,6.480294915747642,-11.5190209043622,5.719145708566904
1776021881331539200,7.076539306640625,3.4524756188243626,-18.407154278200863,10.999650993543863
1776021881341601000,7.08660107421875,-0.19285072254240512,-17.0549166624248,8.987616759127379
1776021881351662000,7.096662109375,1.7196815196365116,-6.231791864088177,2.273578553956747
1776021881361723000,7.106722900390625,3.7925352566748853,2.3527976366221903,0.9952540233924985
1776021881371783000,7.116782958984375,1.5643138477921485,6.692856885454058,1.345752929931879
1776021881381844000,7.126843994140625,-1.3798609512388706,6.590160481089353,-2.741649946953356
1776021881391905000,7.136905029296875,-1.4590952314734458,2.5139450609117744,-6.379508144396543
1776021881401967000,7.146967041015625,0.017002572727203367,-1.4160481169074772,-5.717105727171898
1776021881412028200,7.157028076171875,-0.2964443680077791,-2.4008920977056025,-2.178539678607881
1776021881422089200,7.167089111328125,-0.08236381043195724,-0.37939328485131263,2.360088670413196
1776021881432150000,7.17714990234375,-0.8105629341691732,1.4703993002980946,4.895447983014583
1776021881442211000,7.187211181640625,-2.784018139344454,2.731241657924652,6.334509311240911
1776021881452272000,7.197272216796875,-2.9289883358150717,2.1056717185348273,7.032970883840322
1776021881462334200,7.207334228515625,-2.549046769431233,2.6367034255743027,5.067037890863419
1776021881472395300,7.217395263671875,-4.482211465272307,4.239071986472607,3.966281758035719
1776021881482456300,7.227456298828125,-4.387317843613029,5.013022807559371,2.0254332296937703
1776021881492517000,7.23751708984375,-4.663898988765478,5.38358279761374,0.23497166217416524
1776021881502578000,7.247577880859375,-5.615196089270711,6.220888192757964,0.5445759560063481
1776021881512639000,7.257638916015625,-6.723228642842173,7.610856696513295,0.35610154885202644
1776021881522701000,7.267701171875,-4.060859445613622,11.045431916987896,-0.34976737739443775
1776021881532762000,7.27776220703125,-2.5301573600441216,12.759510794311762,-3.0860967138469215
1776021881542823200,7.2878232421875,-1.1303396624475717,11.160447120177745,-6.0440492783397435
1776021881552884200,7.29788427734375,3.4119156448990107,6.800633954083919,-9.03289499374628
1776021881562945000,7.307945068359375,10.692705689787864,0.12114274615943431,-11.527445033836363
1776021881573006000,7.318006103515625,16.727714168059826,-7.811264118045568,-11.351928307932615
1776021881583068200,7.328068115234375,17.150784097552297,-12.787329360085725,-5.973876840960979
1776021881593129200,7.338129150390625,14.80253521027565,-15.870279008078574,0.05753448960185051
1776021881603190300,7.348190185546875,12.339507266652584,-19.630468576943873,0.7979561121828853
1776021881613251300,7.358251220703125,9.88495956660509,-21.1164120678544,-4.064611783884465
1776021881623312100,7.36831201171875,8.48732447374463,-14.729227982002495,-8.177607367187738
1776021881633373000,7.378373046875,9.25988530177772,-6.823857593283057,-8.51864023398459
1776021881643434000,7.38843408203125,10.379414816397428,-6.313309286823868,-8.031674463164807
1776021881653496000,7.39849609375,10.565520740854739,-8.395238895243406,-6.261573838889598
1776021881663557000,7.40855712890625,9.660679102054237,-10.34062009857893,-4.483594444063305
1776021881673618200,7.4186181640625,3.2149078026771543,-14.924964489114284,-1.9833464845925568
1776021881683679000,7.428678955078125,-32.9325337583065,-13.59011289242506,14.975331571304798
1776021881693740000,7.438739990234375,-65.76808832085132,47.36069438867569,31.345037772369384
1776021881703801000,7.448801025390625,23.21007361512184,71.0772024451971,-9.191490979987382
1776021881713863200,7.45886328125,26.982612962472437,42.285646209836,-7.366410226768255
1776021881723924200,7.46892431640625,2.5589719511181115,17.578682177853583,-1.2816928379535675
1776021881733985300,7.4789853515625,-3.6310610846489664,-7.20804161954224,-2.1905732307508585
1776021881744046300,7.48904638671875,4.724671729636192,-22.137943565058706,6.877362973499298
1776021881754107100,7.499107177734375,15.044056147962808,-26.703812387704847,21.236664587175845
1776021881764168000,7.50916796875,9.085081692579388,-28.30228335664272,19.825717592799663
1776021881774230300,7.519230224609375,-6.444990962654352,-13.253904084783791,0.6162000534981489
1776021881784291000,7.529291015625,-8.9234584674716,6.2040972169548265,-6.543844135594368
1776021881794352000,7.53935205078125,5.133835298851132,12.755822461187838,-8.140362801420688
1776021881804413200,7.5494130859375,-0.7205565000295638,12.82495503412485,-6.4791340552747245
1776021881814474000,7.559473876953125,-6.9305901212960475,7.687375872570276,-5.258132125127315
1776021881824535000,7.56953515625,-1.5006442164361475,-0.10768705225884914,-3.656302785672247
1776021881834597000,7.57959716796875,2.1278350350260733,-6.029533846253156,0.051906420587003226
1776021881844658200,7.589658203125,2.3792992745786905,-6.783283006310462,2.4256910233974454
1776021881854719200,7.59971923828125,0.46365562238097185,-3.5897587679237124,1.7348600918069481
1776021881864780300,7.6097802734375,-0.9730717099398374,0.4707259991586208,-0.34128888738453383
1776021881874841000,7.619841064453125,-1.5878718335121869,3.0621359925448894,-2.2904323658630252
1776021881884902100,7.629902099609375,-1.8642559947878121,3.3323762442380187,-2.9970968264013527
1776021881894964200,7.639964111328125,-0.8413847734123467,2.3306448415249585,-2.3232366110950706
1776021881905025000,7.65002490234375,0.34141923576593397,-0.7917202865332365,-0.8193842462673783
1776021881915086000,7.660086181640625,-0.6779571292310953,-1.9984569599628448,-0.354509603485465
1776021881925147100,7.670147216796875,-0.6730494834452867,-1.3712316545814276,-0.6920885304361581
1776021881935208200,7.680208251953125,-0.06818447843194007,-0.8545277481019496,-0.9590022680550813
1776021881945269000,7.69026904296875,0.35577567789852615,-0.6524433332681655,-1.2471774048894644
1776021881955330000,7.700330078125,0.014983049598336219,-0.3463946860909462,-0.9825555776000022
1776021881965392100,7.71039208984375,0.18986030855476854,0.5518120447397231,-0.2828086413651705
1776021881975453200,7.720453125,-0.3858078280687332,1.1419716480523348,-0.2983884878128767
1776021881985514200,7.73051416015625,-0.6006137773096561,1.3422399533748626,0.034440322001278396
1776021881995575300,7.7405751953125,-0.6918336788922548,1.1815163074553012,0.3934446065574884
1776021882005636000,7.750635986328125,-0.7051970183342695,0.43529695838093757,0.2816334601059556
1776021882015697200,7.760697265625,-0.45233226433396334,-0.4470668911516666,-0.04603460594415664
1776021882025759200,7.77075927734375,0.09266191708445548,-0.7232651744663715,-0.01905073742866516
1776021882035820000,7.780820068359375,-0.16265549076497554,-0.5923018760383129,0.2487856679931283
1776021882045881000,7.790881103515625,-0.274116800865531,-0.21326690310537813,0.4381269211098551
1776021882055942100,7.800942138671875,0.1872013184785843,-0.03339198199212551,0.9075012133985757
1776021882066003200,7.811003173828125,0.6000678338646889,-0.176912564176321,1.1200348337933421
1776021882076064000,7.82106396484375,0.24794892490804193,-0.5272527730226516,0.7920660312309861
1776021882086126000,7.8311259765625,-0.20582477040588854,-0.37881577722430226,0.5034671160265803
1776021882096187100,7.841187255859375,-0.1049175875455141,0.162160400724411,0.18163754687160252
1776021882106248200,7.851248291015625,0.13974281721115112,-0.18532091155946254,-0.22087679358720777
1776021882116309200,7.861309326171875,0.1616723249465227,-1.0767881050020456,-0.15987550465762615
1776021882126370300,7.871370361328125,-0.3462660912752151,-0.8530009769260882,0.22948797006607055
1776021882136431000,7.88143115234375,-0.2530880413621664,-0.08533844232857227,0.4100970506727695
1776021882146492200,7.8914921875,-0.22901801446676254,0.2499193481981754,0.2306400627106428
1776021882156554200,7.90155419921875,-0.5000619837582111,0.4800993921816349,0.20346271744966507
1776021882166615000,7.911614990234375,-0.48241819051802154,0.2145925987511873,0.20569296071976423
1776021882176676000,7.921676025390625,-0.263847920307517,-0.2740828985959291,0.24018004447221755
1776021882186737200,7.931737060546875,-0.7800842092752456,-0.36367490671575065,0.2726519890099764
1776021882196798200,7.941798095703125,-0.9719652100026607,0.07233926002383231,0.09526157818883657
1776021882206859000,7.95185888671875,-0.2783136680334806,0.274001065531373,-0.3620291853353381
1776021882216921000,7.961921142578125,0.6809317611277103,-0.24542262130081652,-0.5595429312527179
1776021882226982100,7.971982177734375,0.896416924804449,-0.6677542996466159,-0.3568932837516069
1776021882237043200,7.982043212890625,0.33697570036053653,-0.4399275407910347,-0.2704772753193974
1776021882247104300,7.992104248046875,0.07115092702209949,-0.22066344309747218,-0.3148325498744845
1776021882257165300,8.002165283203125,0.2838695485949516,-0.16596622274816036,-0.3389505075648427
1776021882267226000,8.01222607421875,0.3513420793652534,-0.2275993798404932,-0.31434944253265856
1776021882277287000,8.022286865234374,0.40713352469205855,-0.6533534338504076,-0.29228607928454875
1776021882287349200,8.032349365234374,-0.03208791365623474,-0.41262160071432585,-0.07341361125707625
1776021882297410000,8.04241015625,-0.7207096447646617,0.06444178477227687,-0.04843815995454788
1776021882307471000,8.05247119140625,-0.8198971642255782,0.6056845047026872,-0.18830284997969865
1776021882317532200,8.0625322265625,-0.32013737828433514,0.3599263678371906,-0.3815048701778054
1776021882327593200,8.07259326171875,0.36382337527573105,-0.2713169410139322,-0.06766396168917417
1776021882337654000,8.082654052734375,0.7912024001389741,-1.2524398554623126,-0.09193243376612663
1776021882347716000,8.092716064453125,0.8045026112169027,-0.8712164325743913,0.3919643048718571
1776021882357777200,8.102777099609375,0.8144961819648742,-1.411339208564162,0.19167992519736288
1776021882367838500,8.11283837890625,0.5659393542915583,-0.7119026534527539,0.7263543726533651
1776021882377899500,8.1228994140625,-0.23711247359514234,-0.434244234457612,0.39217940892726183
1776021882387960300,8.132960205078126,-0.6249778187155723,-0.6952467022061347,0.1868666796967387
1776021882398021400,8.143021484375,-0.3281061652064323,-1.1339660362511872,0.693504242452979
1776021882408082400,8.15308251953125,-0.47257191928625103,-1.1498328829467297,0.33276714275479313
1776021882418144500,8.16314453125,0.06747194624841213,-1.6761474983364342,0.41283202859461304
1776021882428205600,8.17320556640625,0.2357370935887098,1.325642454317212,2.291677982009947
1776021882438266600,8.1832666015625,0.7866472210526466,-0.08295651562809944,0.7094684120431543
1776021882448327400,8.193327392578125,0.7628431516170501,0.5085737915158272,0.9113213562086224
1776021882458388200,8.20338818359375,0.5832967318058013,-0.013781272593140602,0.07605944959074258
1776021882468449300,8.21344921875,0.11306640720963478,-0.8982891484171152,-1.1405834085643292
1776021882478511400,8.223511474609374,0.19318390001952648,1.5402408982872962,1.7296283286333083
1776021882488572400,8.233572509765626,0.44530631121993064,-0.02872983539998531,-0.2828121484965086
1776021882498633500,8.243633544921876,-0.5097627090394496,0.24955577558279035,-1.8123691556841135
1776021882508694500,8.253694580078125,-0.14208148929178713,3.0890742683529853,1.663103892368078
1776021882518755300,8.26375537109375,0.5015805716276168,1.3526508727520703,-0.4071884697496891
1776021882528816400,8.27381640625,0.045213352689146995,-0.5278448936969041,-2.5375278888121247
1776021882538877400,8.28387744140625,0.04133680351674557,2.5061469543814656,1.5415569493219254
1776021882548939500,8.293939453125,0.4869599256008863,0.6256950270742178,-0.10324527041912078
1776021882559000600,8.30400048828125,-0.030945757883787152,0.7032549443557858,-0.38750615641921754
1776021882569061600,8.3140615234375,-0.10913140584826468,0.8605950853168964,-0.2768026789486408
1776021882579122400,8.324122314453126,-0.39779987915754317,-0.32951135582923885,-1.7026289702877402
1776021882589183200,8.334183349609376,-0.6319786373883486,2.666977275545895,1.3125082474559544
1776021882599244300,8.344244384765625,0.18007891925275324,1.1915873273536561,0.523065258204937
1776021882609305300,8.354305419921875,-0.6799632083564996,0.8613850666508078,-0.3081760145947337
1776021882619367400,8.364367431640625,-0.3757084588587284,0.2181461995795369,-0.37726036447584627
1776021882629428500,8.374428466796875,-0.3879974470674991,-0.02582943778336048,-0.20859189703166484
1776021882639489500,8.384489501953125,-0.4386012606233358,-0.1947045337155461,-0.30474077944904565
1776021882649550300,8.39455029296875,-0.5003033912986516,-0.2128486776933074,-0.2585112354546785
1776021882659611400,8.404611328125,-0.759630034789443,-0.1371995624691248,-0.24569296267479657
1776021882669672400,8.41467236328125,-0.8483376612901687,0.12773527629226444,-0.19544804555922746
1776021882679734500,8.424734619140626,-0.8879659073233603,-0.06058744743168354,-0.20795243008434772
1776021882689795600,8.434795654296876,-0.9597942952156067,-0.16380115366876125,-0.153542209982872
1776021882699856600,8.444856689453125,-0.8642541923463344,-0.1350818396627903,-0.12213175719678401
1776021882709917200,8.454917236328125,-0.5190320571660996,-0.5878562948063015,-0.21333675347119568
1776021882719978200,8.464978271484375,-0.14384090017974377,-0.7904480746403336,-0.028085692277550697
1776021882730039300,8.475039306640625,-0.06613923633992672,-0.9631602645173668,0.01631809759438038
1776021882740100400,8.485100341796874,-0.3282213160187006,-0.952493909074366,-0.02395019990801811
1776021882750162400,8.495162353515624,-0.2869663455665111,-0.7194160978227854,-0.09015724078714847
1776021882760223500,8.505223388671874,-0.09565525368154049,-0.967341349594295,-0.031712650603055954
1776021882770284300,8.5152841796875,0.3263075913518667,-1.070804354417324,0.1527434608206153
1776021882780345300,8.525345458984376,0.6686649847507476,-1.1234279833629726,0.1260378247246146
1776021882790406400,8.535406494140625,0.48818274539411066,-1.4355685176745057,0.34560733510553837
1776021882800467500,8.545467529296875,0.2526005501061678,-1.3343942083105444,0.7462588043019175
1776021882810528500,8.555528564453125,0.07890987058579921,-1.0554989409968256,0.9393503498628735
1776021882820590600,8.565590576171875,-0.09056348350048064,-1.112011394074559,0.9507821367204189
1776021882830651600,8.575651611328125,-0.10774667349159717,-1.1321955194473265,0.9947656553536653
1776021882840712200,8.585712158203124,-0.2110369520962238,-0.9794780698508023,0.8012617295995355
1776021882850773200,8.595773193359374,-0.11068038885593413,-0.8137865723907947,0.6193742996200918
1776021882860834300,8.605834228515626,-0.00020166005194187164,-0.48586511610150335,0.640519671240449
1776021882870895400,8.615895263671876,0.1616898606032133,-0.4212628800705075,0.5309101264864206
1776021882880956400,8.625956298828125,0.22975685013532637,-0.5495280254557728,0.3513257127523422
1776021882891018500,8.6360185546875,0.5419061522752047,-0.8347294071763753,0.24584552288800476
1776021882901079300,8.646079345703125,0.574873186853528,-1.1863675468787551,0.06682809538692236
1776021882911140400,8.656140380859375,0.13370645965635775,-0.8905135459795593,-0.2424392215758562
1776021882921201400,8.666201416015625,-0.6500082150757313,-0.08742284738719462,-0.48763972455859184
1776021882931262500,8.676262451171874,-1.0650982517302037,0.11408405981957911,-0.17657324921935796
1776021882941323500,8.686323486328124,-1.3438736920565366,0.25787936729192734,0.11877075633108615
1776021882951385600,8.696385498046874,-1.008393783211708,-0.22032208231389522,0.37682401888519523
1776021882961446400,8.7064462890625,-0.6983575277030467,-0.35898236498534675,0.7835995239198207
1776021882971507200,8.716507080078125,-1.2487082677185535,-0.20907821924388406,0.4987544082909822
1776021882981568300,8.726568359375,-1.6973048526555299,-0.36855741806030273,0.36096973941028115
1776021882991629300,8.73662939453125,-1.479710734000802,-0.38875440291464325,0.5909595215186476
1776021883001690400,8.7466904296875,-1.142154018881917,-0.1525923619121313,0.39964930641651153
1776021883011751400,8.75675146484375,-1.0709119064450263,-0.20789748502671718,0.3900087868899107
1776021883021813500,8.7668134765625,-0.9943594126403331,-0.02825754171311855,0.49125966862142084
1776021883031874300,8.776874267578124,-1.2629320233821868,0.17923311607837675,0.1365118724659085
1776021883041935400,8.786935302734374,-1.0277017102718353,-0.1883949121773243,0.15219313346147537
1776021883051996400,8.796996337890626,-0.45863808647990223,-0.30027181734144687,0.28787176997363567
1776021883062057500,8.807057373046876,-0.8256178799599408,0.04730594105422496,0.24786329245120287
1776021883072118500,8.817118408203125,-0.5527303286284208,0.18434943617880342,0.26997663232088087
1776021883082180600,8.8271806640625,-1.1066472366929054,0.22921266025602816,0.2966360911875963
1776021883092241400,8.837241455078125,-1.4975655396431684,0.3912228388547897,0.395730087146163
1776021883102302200,8.84730224609375,-1.4096663069158792,0.48052726220488545,0.33126316793262955
1776021883112363300,8.85736328125,-0.7570633991718292,0.24672493607103824,0.276470378254354
1776021883122424300,8.86742431640625,-0.31522330275774,0.2460112348437309,0.3450216441720724
1776021883132485400,8.8774853515625,-0.009561609071493149,0.2525999655842781,0.12622457946836949
1776021883142546400,8.88754638671875,1.0704904661625623,-0.24050503864288328,-0.2636398305147886
1776021883152608500,8.8976083984375,1.711411703941226,-0.18040858959853648,-0.40641660859435796
1776021883162669300,8.90766943359375,1.5098095196664332,0.4169125759065151,-0.9214777163028717
1776021883172730400,8.91773046875,1.278754446414113,0.6900923881828784,-1.352675714932382
1776021883182791400,8.92779150390625,0.8641144916146993,0.9643231708168983,-1.2088771925896404
1776021883192852500,8.9378525390625,0.5068552971601485,1.0651046814709901,-0.8519026602953672
1776021883202913500,8.94791357421875,0.12601122897863387,1.0443629222154616,-0.6643257865026593
1776021883212975600,8.9579755859375,0.03637830432653427,1.1910942831397056,-0.41316228346228595
1776021883223036400,8.968036376953124,0.3732628192722797,0.593980038383603,-0.33188013078719375
1776021883233097200,8.97809716796875,0.6011100363940001,-0.09798165080249309,-0.3229305161342025
1776021883243158300,8.988158203125,1.3266782271057367,-0.4581956034094095,-0.5250865348994732
1776021883253219300,8.99821923828125,1.2842846080124377,-0.8799790002226829,-1.2726768800660968
1776021883263280400,9.0082802734375,1.409472830170393,-0.9647615622341632,-1.37149731978029
1776021883273341400,9.018341552734375,1.5084341396600007,-0.8574223004996776,-1.1013733879432082
1776021883283403500,9.028403564453125,1.2851894478976726,-0.540038604837656,-0.8998992139622568
1776021883293464300,9.03846435546875,1.2374784331738948,-0.2834638904035091,-0.6302890768662095
1776021883303525400,9.048525390625,1.3407973533511162,-0.5000654908895492,-0.5229957001000642
1776021883313586400,9.05858642578125,1.5491051727443932,-0.5407780250281096,-0.593782469984889
1776021883323647500,9.0686474609375,1.4498925188422203,-0.5512608405977487,-0.8571525436475872
1776021883333708500,9.07870849609375,1.4720003057539461,-0.49498541114628314,-0.9948176778018474
1776021883343770600,9.0887705078125,1.115540152722597,-0.27222645707428456,-1.010738300511241
1776021883353831400,9.09883154296875,0.8341092294514179,-0.06235153449475765,-1.0886930623292923
1776021883363892200,9.108892333984375,0.8509089730829,-0.02486789927482605,-1.0210998277887702
1776021883373953300,9.118953369140625,1.000113446122408,-0.2595189511924982,-0.9522931258052587
1776021883384014300,9.129014404296875,0.7886866179257631,-0.6182388658493757,-0.8228039915829897
1776021883394075400,9.139075439453125,0.6119114163935184,-0.6658458356767892,-0.6409548477873206
1776021883404136400,9.149136474609374,0.6379284857034683,-0.4462444688528776,-0.6275643280774355
1776021883414198300,9.1591982421875,0.19919804574251174,-0.20791560520529745,-0.6310381416678428
1776021883424259300,9.16925927734375,-0.13519289882183075,0.22128245177865027,-0.41299569472372527
1776021883434320400,9.1793203125,-0.25546704545319077,0.47671208783090113,-0.29729864674955603
1776021883444381400,9.18938134765625,-0.35014030236005783,0.33617841250300406,-0.35624446445405483
1776021883454442200,9.199442138671875,-0.4257201517403125,0.3599520868003368,-0.46600364681184286
1776021883464503300,9.20950341796875,-0.5946054768055677,0.4496820420861244,-0.6792001150295138
1776021883474565400,9.2195654296875,-0.6526502540171146,0.37026656006574626,-0.6605988749340176
1776021883484626200,9.229626220703125,-0.5001712893515825,0.24046353758871553,-0.5021300222039222
1776021883494687200,9.239687255859375,-0.4522784883201122,0.3160030549585819,-0.2570408706411719
1776021883504748300,9.249748291015624,-0.8062813113272189,0.34584114386141296,-0.4059492833435535
1776021883514809300,9.259809326171874,-0.4119160827934742,0.34375907689034935,-0.5647185803249478
1776021883524870400,9.269870361328126,-0.33568624507188793,0.17307693153619766,-0.7214584173053502
1776021883534931500,9.279931396484375,-0.4469143309384584,-0.1267816288292408,-0.8021464034795761
1776021883544993300,9.2899931640625,-0.456469510269165,0.13569851025640964,-0.5282134347483516
1776021883555054300,9.300054443359375,-0.5024760591626167,0.3564671672940254,-0.4528948666527867
1776021883565115400,9.310115478515625,-0.6622317368328571,0.3167337073206901,-0.425737979657948
1776021883575176400,9.320176513671875,-0.6752192286998033,0.5231476757913828,-0.2206865317121148
1776021883585237200,9.3302373046875,-0.614374007114768,0.27764614403545856,-0.20705489672273397
1776021883595298300,9.34029833984375,-0.3375543770313263,0.09127660020589828,-0.23334493775516746
1776021883605360400,9.3503603515625,0.217713361120224,0.013355156135559081,-0.36545156099945303
1776021883615421200,9.360421142578126,0.25832711105942724,-0.19713702155947685,-0.4473220349565148
1776021883625482200,9.370482177734376,0.0005722469300031662,-0.043325931507349015,-0.40668139701038597
1776021883635543300,9.380543212890625,0.0004214402824640274,0.11014262871742247,-0.1663762648537755
1776021883645604400,9.390604248046875,-0.01995440827012062,-0.24413959575295446,-0.01779080049544573
1776021883655665400,9.40066552734375,-0.2988759790688753,-0.39274201124608515,0.07108312248289585
1776021883665726500,9.4107265625,-0.4197030834078789,-0.10628770685493945,0.16675737312585115
1776021883675788300,9.420788330078125,-0.4637994147658348,-0.10367664757370948,0.14003069424182177
1776021883685849300,9.430849365234375,-0.4114560640662908,-0.02851122421324253,0.3682105043187737
1776021883695910400,9.440910400390624,-0.14159107542634009,0.15133563984930515,0.5015235807433724
1776021883705971500,9.450971435546874,0.3021007863342762,-0.36383623475730414,0.15355214685499669
1776021883716032300,9.4610322265625,0.3614467092722654,-0.5481956078082323,0.17218319756686687
1776021883726093300,9.47109326171875,0.2544634213685989,-0.4711749119699001,0.3493506132870912
1776021883736154400,9.481154296875,0.27131518744826316,-0.5469476535737514,0.24946166755855081
1776021883746216200,9.49121630859375,0.07290507721304892,-0.47154199171662325,0.15950404099673032
1776021883756277200,9.50127734375,0.06689151601195335,-0.4206909254014492,0.148474989721179
1776021883766338300,9.51133837890625,0.12033844403922557,-0.6802256586849689,0.30864070949703454
1776021883776399400,9.5213994140625,0.00784486828148365,-0.6132271751672029,0.4397419550910592
1776021883786460400,9.53146044921875,-0.23976094227731226,-0.4854772858276963,0.4361269794642925
1776021883796521500,9.541521484375,-0.20825287433564663,-0.4060504056304693,0.3539090072438121
1776021883806583300,9.551583251953126,-0.14464344873428345,-0.3782636962994933,0.22643735032379625
1776021883816644400,9.561644287109376,-0.11110708983540535,-0.38094782081693407,0.3791305422618985
1776021883826705400,9.571705322265625,-0.07408464238643646,-0.33086540078669785,0.6252694951385259
1776021883836766500,9.581766357421875,-0.2082575505107641,-0.3398392730981111,0.6291369842216372
1776021883846827300,9.5918271484375,-0.377820336446166,-0.4028735291600227,0.6488359564259648
1776021883856888300,9.601888427734375,-0.3401858945786953,-0.3623372283712029,0.5979051028728485
1776021883866949400,9.611949462890625,-0.29672552303671834,-0.35612113033533094,0.35366847648620603
1776021883877011200,9.62201123046875,-0.19743103606998919,-0.44758682337254285,0.3242284469902515
1776021883887072300,9.632072265625,-0.31626667433083056,-0.5005985748529433,0.6222650526255369
1776021883897133300,9.64213330078125,-0.33855800111591816,-0.5689680544629693,0.5614961111471056
1776021883907194400,9.6521943359375,-0.5446989978641271,-0.6371782518580555,0.5167755104109645
1776021883917255400,9.66225537109375,-0.6822972042620181,-0.2941732082054019,0.7673167898997664
1776021883927316500,9.67231640625,-0.48647126530110835,-0.3964771061211824,0.7740273934543133
1776021883937377500,9.68237744140625,-0.25978257056474685,-0.4911348731979727,0.8504653209686279
1776021883947439400,9.692439453125,-0.21301322060525416,-0.6840799960255622,0.9957195950776337
1776021883957500400,9.70250048828125,-0.22738310674130915,-0.7427116332143545,1.0615320836812256
1776021883967561500,9.7125615234375,-0.4481014948964119,-0.2978472205430269,1.1685036811470986
1776021883977622300,9.722622314453124,-0.4179232142537832,-0.32740970737487074,0.787524880670011
1776021883987683300,9.732683349609376,-0.12006313422918319,-0.32972587536275383,0.5022168237045407
1776021883997744400,9.742744384765626,-0.02509995446503162,-0.030640345196425913,0.752078596496582
1776021884007805400,9.752805419921875,-0.07976677967607974,-0.12455167782008647,0.840709358368814
1776021884017867300,9.7628671875,-0.0314186360925436,-0.35293490151464935,0.7752242020234466
1776021884027928300,9.77292822265625,-0.3072702979266643,-0.06859159792810678,0.9660939798817038
1776021884037989400,9.7829892578125,-0.4264426207959652,-0.125417939260602,0.9084735655620694
1776021884048050400,9.793050537109375,-0.25207272683978077,-0.1951809190556407,0.6657914751410484
1776021884058111500,9.803111572265625,0.009064765465259552,-0.26779958054274317,0.5519803870439529
1776021884068172500,9.813172607421874,0.36807752558887,-0.45570407885462044,0.5120902752041816
1776021884078233600,9.823233642578124,0.27601649700701236,-0.5226163453936576,0.6747881438061595
1776021884088295400,9.83329541015625,0.02083352919220924,-0.3645715632945299,0.8807073144972324
1776021884098356500,9.8433564453125,-0.16189736587405204,-0.25626141070127484,0.5620420545920729
1776021884108417300,9.853417236328125,-0.13592881188094616,-0.30435353369712825,0.4828606735885143
1776021884118478300,9.863478271484375,-0.026829554736614226,-0.07060498357713223,1.0098711622878909
1776021884128539400,9.873539306640625,-0.054524786391854284,-0.6320569633215666,0.6710697078049183
1776021884138600400,9.883600341796875,-0.26637363939285275,0.03217909907102585,1.4225041611790656
1776021884148662300,9.893662353515625,-0.4659375958383083,-0.11535831753909587,0.7203001871809362
1776021884158723300,9.903723388671875,-0.511308184915781,0.6958271324425935,1.42052818493098
1776021884168784400,9.913784423828124,-0.5613339063227176,0.8481196346253156,0.5805500634461641
1776021884178845400,9.923845458984376,-0.1902028383821249,0.9378735553085803,2.271018055818975
1776021884188906500,9.933906494140626,-0.5266501309543847,0.39852351725697516,0.8531783793196082
1776021884198967600,9.943967529296875,-0.446756510028243,1.1026204653948546,2.254552074186504
1776021884209028600,9.954028564453125,-0.30951369293928144,0.5122463425487279,0.4169909018397331
1776021884219090400,9.96409033203125,-0.7267804891109466,1.627715768122673,2.5315157889157534
1776021884229151500,9.9741513671875,-1.0160451747477055,1.206520984852314,1.0433747879609465
1776021884239212300,9.98421240234375,-1.4818775566458702,1.4298872571676968,1.1720356546655297
1776021884249273300,9.9942734375,-1.5697937405079603,1.3108786004275084,1.9604092611193655
1776021884259334400,10.00433447265625,-1.5478291614592075,1.356965228819847,0.7119754264280199
1776021884269395500,10.0143955078125,-1.9589596468329429,1.6692857958734035,2.85457869925797
1776021884279456300,10.024456298828126,-2.4057377841711043,0.5761918682366609,1.1147913801819085
1776021884289518300,10.034518310546876,-1.5163018042951821,1.5872773747503757,1.747573735168576
1776021884299579400,10.044579345703125,-0.4794061492204666,0.03273264130055904,1.96877493840456
1776021884309640400,10.054640380859375,1.9889029496759174,-2.0528958216369153,3.005518910048902
1776021884319701500,10.064701416015625,3.5881758826464414,-4.643387531134486,4.346944624431431
1776021884329762600,10.074762451171875,5.736252326190471,-7.983161484408378,4.893193774347007
1776021884339823400,10.0848232421875,5.494667091095447,-8.272311019232868,4.236843204507231
1776021884349885400,10.094885498046875,0.6258487563312053,2.1654075175732372,1.0433189661204814
1776021884359946500,10.104946533203124,-9.662118194946647,13.2162141133368,-4.561327964346111
1776021884370007300,10.11500732421875,-5.729663595449924,10.231067836970091,-5.469471859562397
1776021884380068400,10.125068359375,2.810028778913617,0.984525416368246,-0.6000850772604346
1776021884390129400,10.13512939453125,0.2363964342802763,-3.86638082960844,0.7847754358313977
1776021884400190500,10.1451904296875,-2.0500176358520985,-3.816736216473579,0.954471785018593
1776021884410252300,10.155252197265625,-0.3055541416585445,-2.8858278240025044,0.8134583633497356
1776021884420313300,10.165313232421875,-0.43475919824242587,-1.9619570750832556,0.45154754369705913
1776021884430374400,10.17537451171875,-1.0084843841046094,-0.29561025527119633,0.32543855343237515
1776021884440435500,10.185435546875,-1.2612749038249254,1.1304062979429959,-0.5944714751623571
1776021884450496500,10.19549658203125,-2.997156447634101,2.019358293694258,-1.7216867219790815
1776021884460557600,10.2055576171875,-3.54228097743392,2.326432192265987,-2.9443922411739822
1776021884470618400,10.215618408203126,-2.081595846420526,1.38797469958961,-3.793251880511641
1776021884480680400,10.225680419921876,-1.2843231864571572,-0.7314578332722187,-3.8905969869762655
1776021884490741500,10.235741455078125,-1.6322896519094705,-2.8723487492263313,-3.377514778125286
1776021884500802300,10.24580224609375,-1.1062830795556307,-3.9221944867670535,-2.0629598272725937
1776021884510863400,10.25586328125,0.15544161386340855,-3.375093688458204,-0.0677776511967182
1776021884520924400,10.26592431640625,0.10814677872508764,-2.1927298242628575,0.5885292986970394
1776021884530985500,10.2759853515625,-0.558138617412746,-1.4454010526418686,0.12037227324359118
1776021884541047300,10.28604736328125,-1.931335142326355,-1.32180448358953,0.19653635225258767
1776021884551108400,10.2961083984375,-2.787324195152521,-1.3641998562484978,0.29923122224733234
1776021884561169400,10.30616943359375,-1.6050608687222003,-1.389050804388523,0.13843177114520222
1776021884571230500,10.31623046875,0.06420797601640224,-1.4235738362371921,-0.145935315175727
1776021884581291500,10.32629150390625,0.21174305453896522,-1.500468275347352,-0.5583849568566307
1776021884591352600,10.3363525390625,-0.9205553407609463,-1.5231822114586828,-0.8700963425032794
1776021884601414400,10.346414306640625,-2.1287620867431163,-1.3012076857626438,-0.8239843604739755
1776021884611475500,10.356475341796875,-2.474260700777173,-0.9277245017379522,-0.73321541752927
1776021884621536500,10.36653662109375,-1.8794722686201333,-0.3749579327523708,-0.6180411513201892
1776021884631597300,10.376597412109374,-1.1250994237065315,0.41427462861835956,-0.43525436134822665
1776021884641658400,10.386658447265624,0.10754910509288311,1.0517746597766875,-1.1632494138807057
1776021884651719400,10.396719482421876,1.470387609860301,1.2000602644056082,-2.146262087598443
1776021884661781200,10.40678125,0.8716632995590567,0.9838368495821952,-2.4077462013840676
1776021884671842300,10.41684228515625,-0.56839785335958,0.5576520029395818,-2.3029954948380587
1776021884681903400,10.4269033203125,-0.6977259518012404,-0.09011632425487041,-2.005205849701166
1776021884691964400,10.43696435546875,0.23192893347740173,-0.5584048671334981,-1.4923998274430632
1776021884702025500,10.447025390625,1.5290037572190165,-0.6956698960542679,-0.9353009283415973
1776021884712086500,10.45708642578125,2.585095403411984,-0.6227326701372862,-0.6177107503220438
1776021884722147600,10.467147705078125,2.9390765991091725,-0.4573842870265245,-0.4234447541542351
1776021884732209400,10.47720947265625,2.712022578191757,-0.25593057131171226,-0.25474662222415206
1776021884742270500,10.4872705078125,2.4539032646641132,-0.2344792024821043,-0.7396392400316893
1776021884752331300,10.497331298828126,1.5804630185604094,-0.6888882730901241,-0.5007515734575688
1776021884762392300,10.507392333984376,-0.23465514357089995,-0.7552636562734842,0.8866007564499974
1776021884772453400,10.517453369140625,-0.8624852829776704,-0.7047685637891292,1.3074739065505563
1776021884782514400,10.527514404296875,-0.3458358831644058,-0.707570177206397,1.2104426883406936
1776021884792576300,10.537576171875,0.5746002881962806,-0.6656067662239075,1.1131894979432224
1776021884802637300,10.54763720703125,1.231459611275792,-0.7879904523551463,1.138261395357549
1776021884812698400,10.557698486328125,1.4746920290559529,-0.893923354423046,1.3062804589822887
1776021884822759400,10.567759521484374,1.4213970767199993,-0.9189397222578525,1.522218042601645
1776021884832820500,10.577820556640624,1.2607979339629412,-0.6833581114917994,1.5965525680959223
1776021884842881500,10.587881591796876,0.8838684088766574,-0.3800432731926441,1.529610490940511
1776021884852942600,10.597942626953126,0.2773994027327746,-0.014107435807585715,1.2907450361981987
1776021884863004400,10.60800439453125,-0.6303080738276243,0.4097755636334419,1.1942127074211835
1776021884873065500,10.6180654296875,-1.696159189751744,0.9233212983429432,1.232362113073468
1776021884883126300,10.628126220703125,-2.4568185675889254,1.4355524433225393,1.2005199908718467
1776021884893187300,10.638187255859375,-2.703006912565231,1.8226620016396045,1.1892626837983726
1776021884903248400,10.648248291015625,-1.3541010715603827,6.993062067300081,0.28242987118065355
1776021884913309400,10.658309326171874,-0.968053589516878,2.610301156339049,1.7402578591972588
1776021884923371300,10.668371337890624,-0.3470353586146608,1.0817699850678444,2.1432938854426142
1776021884933432300,10.678432373046874,-0.24676292999386787,-3.32125805337429,3.4920021580487486
1776021884943493400,10.688493408203126,-0.11284081829283386,-6.436456943064928,4.677939789077639
1776021884953554400,10.698554443359376,0.42375845974590626,-5.689826675102115,4.0222392075791955
1776021884963615500,10.708615478515625,1.0987409936130046,-3.5224189236223697,2.3365923517525196
1776021884973676500,10.718676513671875,1.3692436956346035,-2.134654651913047,1.590295845788717
1776021884983738400,10.72873828125,1.3625555961728095,-1.0123317071825266,1.570312795946002
1776021884993799400,10.73879931640625,0.6877157221794128,0.3894628434449434,1.0809411330282688
1776021885003860500,10.748860595703125,-0.7905588415384293,1.4515554836183786,-0.24308570278584957
1776021885013921300,10.75892138671875,-1.6824416300445795,1.7365426380664108,-1.334486562769115
1776021885023982300,10.768982421875,-1.1154454601764678,1.6607418394118547,-1.7824240992754696
1776021885034043400,10.77904345703125,0.2797580216228962,1.4483528881847858,-1.921442693865299
1776021885044104400,10.7891044921875,1.4895137506127356,1.0121288780868052,-1.834423751103878
1776021885054166300,10.799166259765625,1.9357377611994742,0.503825720205903,-1.543092488326132
1776021885064227300,10.809227294921875,1.8829823225677012,-0.22278291946947573,-1.0551023428946733
1776021885074288400,10.819288330078125,1.6588626015365122,-1.3596645509064196,-0.42745501270890235
1776021885084349400,10.829349365234375,1.3507798181831836,-2.325623213970661,0.4404407510101795
1776021885094410500,10.839410400390625,1.0793605858385562,-2.916173277905583,0.923778394460678
1776021885104471600,10.849471435546874,0.7508908480167389,-3.0139369020432234,0.9931038596212863
1776021885114533400,10.859533447265624,0.5112193375885487,-2.5867577836662528,0.7591366983145474
1776021885124594400,10.869594482421874,0.3921417437979951,-1.7423849343538282,0.13612170410454272
1776021885134655500,10.879655517578126,0.3620177871584892,-0.6079600484192371,-0.5093804317235946
1776021885144716300,10.88971630859375,0.29590719239115715,0.5614543178319931,-0.7855734543412923
1776021885154777300,10.89977734375,0.12583470336794852,1.3547557360768316,-0.8477946404546499
1776021885164838400,10.90983837890625,-0.1528980668604374,2.0009300720781087,-0.7731833438456058
1776021885174899500,10.9198994140625,-0.6352525444924831,2.4453537552446125,-0.6122586223959923
1776021885184961300,10.929961181640625,-0.981761869939044,2.4382389548033476,-0.4589057975053787
1776021885195022300,10.940022216796875,-1.0256909549713134,1.5652239483743906,-0.02947276272177696
1776021885205083400,10.95008349609375,-0.8024410025119781,0.460372947448492,0.49628597235083577
1776021885215144400,10.96014453125,-0.589526566106081,-0.08213233976364136,0.8547872758209705
1776021885225205500,10.97020556640625,-0.313472075176239,-0.07543897960484028,0.9860504339784383
1776021885235266600,10.9802666015625,-0.008825074957869947,0.06334989788234234,0.9949924498468636
1776021885245328400,10.990328369140625,-0.07865911069512367,0.08638707459867,0.9069500092566013
1776021885255389400,11.000389404296875,-0.652554392427206,-0.017603461229801175,0.40260114195942875
1776021885265450500,11.010450439453125,-1.0441489872038363,-0.073063482645154,-0.2385182487398386
1776021885275511300,11.02051123046875,-0.8681015154242515,-0.006788637226819992,-0.6237479846596717
1776021885285572400,11.030572265625,-0.3005832579107955,-0.1051268463820219,-0.7178507482022046
1776021885295633400,11.04063330078125,0.3726327777404338,-0.5090840791255236,-0.40737551675438877
1776021885305694500,11.050694580078124,0.8501309744477271,-1.0707511629253625,0.13184592648148535
1776021885315756300,11.06075634765625,1.1509668554127215,-1.450430278980732,0.6251309634506702
1776021885325817300,11.0708173828125,1.2989607836186885,-1.519353008559346,0.9344020798057318
1776021885335878400,11.08087841796875,1.4010919553160666,-1.2671949415236712,0.9509113160580396
1776021885345939500,11.090939453125,1.4021826731622218,-0.9572978022247552,0.7281196287602186
1776021885356000500,11.10100048828125,1.3146493511378765,-0.7824684740632772,0.4284551296621561
1776021885366061600,11.1110615234375,1.2338391998887062,-0.6782546508729458,-0.0014537059396505356
1776021885376123400,11.121123291015625,1.170613805168867,-0.49025136836171146,-0.577603488600254
1776021885386184400,11.131184326171875,1.0688976440131663,-0.1687660825997591,-1.2513152353465555
1776021885396245500,11.14124560546875,0.6719792238652705,0.15051614015996456,-1.9773861148834226
1776021885406306600,11.151306640625,-0.8235702997803688,0.1881634415090084,-2.71667946408689
1776021885416367600,11.16136767578125,-2.4365783281147477,-0.14089257176816464,-3.4861575236737727
1776021885426428400,11.171428466796876,-2.6049755774021146,-0.13222937284111977,-3.1103409282654524
1776021885436489200,11.1814892578125,-1.8735259274363516,0.03931435777842998,-2.2466513840645552
1776021885446551300,11.19155126953125,-0.9057178371131419,-0.1605219858676195,-1.3093576744705437
1776021885456612400,11.2016123046875,-0.003804104990698397,-0.569639962375164,-0.48315059644579883
1776021885466673400,11.21167333984375,0.6075766385922208,-0.8820984765946864,-0.05327215598225593
1776021885476734500,11.221734375,0.8595803553164004,-1.0146505055189132,0.030041502520442007
1776021885486795500,11.23179541015625,0.8146060720801352,-0.9591963293224572,0.03540390633642673
1776021885496856600,11.241856689453124,0.6326257031202316,-0.6599947715610265,-0.07003565925657748
1776021885506918400,11.25191845703125,0.23427988051772117,-0.0006190086811780929,-0.32292028700113296
1776021885516979500,11.2619794921875,-0.2994938552388921,0.45268473103344437,-0.3313262962967157
1776021885527040500,11.27204052734375,-0.7347276487231255,0.5987742869228124,-0.11873276240825652
1776021885537101600,11.2821015625,-0.8251789040207862,0.603398439592123,0.2213993561565876
1776021885547162600,11.29216259765625,-0.6254641409277916,0.4649135134875774,0.6187181737989187
1776021885557223400,11.302223388671875,-0.2563573088238016,0.3143541187077761,0.8925029662311077
1776021885567284200,11.3122841796875,0.12731347068361937,0.11493337012529373,0.9882780469000338
1776021885577346300,11.32234619140625,0.42296584806349125,-0.04140986875295639,1.0431640678197145
1776021885587407400,11.332407470703124,0.6588274813473224,-0.17273206362128257,0.9773854814857244
1776021885597468400,11.342468505859374,0.801650801982358,-0.25007015484571454,0.7331798347592353
1776021885607529500,11.352529541015626,0.8159235844194889,-0.3383043186157942,0.3561579552143812
1776021885617590500,11.362590576171876,0.7019068176824599,-0.2630260825306177,-0.10769932721853255
1776021885627651300,11.3726513671875,0.4785129632404074,-0.1445049170464277,-0.56108723808527
1776021885637713400,11.38271337890625,0.2278174065053463,0.025561142235994337,-0.884738177448511
1776021885647774500,11.3927744140625,-0.046780455875396726,0.14786241078078746,-0.9623135845601558
1776021885657835500,11.40283544921875,-0.3098200554747134,0.09865502001941204,-0.6361766736000776
1776021885667896600,11.412896484375,-0.2732909079680219,-0.011765256595611572,-0.05673252556920051
1776021885677957600,11.42295751953125,0.018240553556941447,-0.05810849009752273,0.3508592642843723
1776021885688018400,11.433018310546874,0.32285365150570866,-0.17568682177364825,0.5235515804171562
1776021885698080300,11.443080322265626,0.5814916916778311,-0.29586218420565125,0.4001864820331335
1776021885708141300,11.453141357421876,0.7354887692887335,-0.3174152598440647,-0.05353285274505615
1776021885718202400,11.463202392578125,0.7743582328438758,-0.2908621839612722,-0.5730699368238449
1776021885728263400,11.473263427734375,0.6529284864366054,-0.31069851880967614,-0.9101549427777528
1776021885738324500,11.483324462890625,0.43232174196243284,-0.37161914371848104,-1.1003975286483765
1776021885748385500,11.493385498046875,0.11681319252252578,-0.44637364819049835,-1.0385890149891377
1776021885758446300,11.5034462890625,-0.07626845269892364,-0.6199088448882103,-0.6783990277796983
1776021885768508400,11.51350830078125,-0.09550386251211165,-0.7552794383645057,-0.26105332115292545
1776021885778569500,11.523569580078124,0.07031447619795798,-0.8008072638303041,-0.004891863694787025
1776021885788630500,11.533630615234374,0.25239304483532904,-0.8208984502226114,0.06558978576362133
1776021885798691600,11.543691650390626,0.30005028354525565,-0.6505752013087273,-0.11167466059029102
1776021885808752400,11.55375244140625,0.17767474418785423,-0.39193654008209705,-0.3929635450422764
1776021885818813400,11.5638134765625,-0.035409167033433914,-0.12430150245130062,-0.6794517517030239
1776021885828875300,11.573875244140625,-0.277492414778471,0.17813889110088346,-0.8964555032491683
1776021885838936300,11.583936279296875,-0.4701203614156693,0.3100257341146469,-0.9254220700144767
1776021885848997400,11.593997314453125,-0.5412205080986022,0.22844459849298,-0.8250883031278848
1776021885859058400,11.604058349609375,-0.5704092297146096,-0.017069208222627637,-0.6550906329065561
1776021885869119500,11.614119384765624,-0.5129097748935222,-0.39737376269996166,-0.4412596661776304
1776021885879180500,11.6241806640625,-0.3675228873807937,-0.7796516630768775,-0.21485329551398752
1776021885889241300,11.634241455078126,-0.199740518588759,-0.9630407297909259,-0.13094517824947832
1776021885899303400,11.644303466796876,-0.09322313116379081,-0.8318307631254196,-0.20370295594632623
1776021885909364500,11.654364501953125,-0.018771372498013077,-0.46912031752765176,-0.4168944557279348
1776021885919425500,11.664425537109375,-0.014033238060213624,-0.2108586729198694,-0.44712183620929713
1776021885929486600,11.674486572265625,-0.00272047447245568,-0.08708908538818359,-0.21791209856271743
1776021885939547400,11.68454736328125,-0.01324402391128242,0.02733399712741375,0.19690613541305063
1776021885949608400,11.6946083984375,-0.018237082958221434,0.3125666507691145,0.5939525658547878
1776021885959670300,11.704670166015624,0.05451368047595024,0.6672054335922002,0.8864309528410435
1776021885969731300,11.7147314453125,0.09963055052068084,1.009346553891897,1.0370634128570555
1776021885979792400,11.72479248046875,0.09606741467900573,1.3792664924770592,1.1280313855051993
1776021885989853400,11.734853515625,0.09702829560041427,1.5917553969472646,1.2944102807074784
1776021885999914500,11.74491455078125,0.07009359998889267,1.5639742405742405,1.5606927346855402
1776021886009975600,11.7549755859375,0.054491395578905935,1.3185001813471318,1.8545652063786982
1776021886020036400,11.765036376953125,0.06669160952568054,0.98839728936553,2.0700755044966934
1776021886030098400,11.775098388671875,0.07957322986535728,0.7091992397129535,2.105444924041629
1776021886040159500,11.785159423828125,0.07046411380171776,0.5250871194213629,1.6934019999980925
1776021886050220500,11.795220458984375,0.055847559428215024,0.35481355486810207,1.0520318494081498
1776021886060281600,11.805281494140624,-0.010817089025303721,0.1293079324364662,0.4965425774604082
1776021886070342400,11.81534228515625,-0.09890110373497009,-0.21605974869430064,0.08731587988138198
1776021886080403200,11.8254033203125,-0.18651742786765096,-0.4994435595989227,-0.19881343033909796
1776021886090464300,11.83546435546875,-0.20898294217586516,-0.6300608210682869,-0.5087526552140712
1776021886100526300,11.8455263671875,0.17719660528209058,-0.7226864977955818,-0.8193687564373016
1776021886110587400,11.85558740234375,5.429046325671672,-1.8737533064514398,-0.6623334436416626
1776021886120648400,11.8656484375,1.8761586140275,-1.198393207976222,-1.656539127025008
1776021886130709500,11.87570947265625,-2.7875322849452493,-0.891937149041891,-2.237225968593359
1776021886140770600,11.8857705078125,1.147412962323427,-2.5660282993704078,-1.3590268375247716
1776021886150831400,11.895831298828124,-0.9436848719358444,-1.8557810119092464,-0.8698124109953641
1776021886160893400,11.9058935546875,-0.2019581581056118,-0.5402198066234588,-0.20261866784095764
1776021886170954500,11.91595458984375,-0.08679799348711967,0.8684826236963271,-0.4355436266183853
1776021886181015600,11.926015625,-0.06703764648437499,0.4208429010927677,-0.5127496158957481
1776021886191076600,11.93607666015625,-0.27782438667919485,0.31239246324598785,-0.46370822935104367
1776021886201137400,11.946137451171875,-0.38662382062673567,0.4630407053530216,-0.39611616385430093
1776021886211198200,11.9561982421875,-0.39145197143554683,0.5938567042648792,-0.365973831307888
1776021886221259300,11.96625927734375,-0.41466450471878047,0.7801426614642143,-0.2711380773156881
1776021886231321300,11.9763212890625,-0.5389455489039421,0.7670020248621702,-0.1260755263864994
1776021886241382400,11.98638232421875,-0.7330863112568855,0.6194166774570942,0.07230857262462377
1776021886251443500,11.996443359375,-0.887554403913021,0.3897293854266405,0.26190263145864007
1776021886261504500,12.00650439453125,-0.8771978450715542,0.20719313614964485,0.392160411965847
1776021886271565300,12.0165654296875,-0.7475134805381297,0.06619827305078506,0.43256841019988057
1776021886281626400,12.02662646484375,-0.5517535925507545,-0.03839958102107048,0.4514426220178604
1776021886291687400,12.0366875,-0.396718513661623,-0.08159574866890906,0.38789574025869367
1776021886301749500,12.04674951171875,-0.3131178549110889,-0.11677227599024773,0.30054069741070266
1776021886311810600,12.056810546875,-0.28630817391872404,-0.15409809029996394,0.23136253176629543
1776021886321871600,12.06687158203125,-0.30558568757427856,-0.15398936922848225,0.12834230227470397
1776021886331932400,12.076932373046875,-0.2882558008551597,-0.211991476342082,0.020059622210264205
1776021886341993200,12.0869931640625,-0.2630933025479317,-0.3007581395536661,-0.019668869327008724
1776021886352054300,12.09705419921875,-0.27149173132525756,-0.37931846604943276,0.13451368438601494
1776021886362116400,12.107116455078126,-0.14838208727333693,-0.46065527152121066,-0.17345102554559708
1776021886372177200,12.11717724609375,0.10522679962515831,-0.588815787488222,-0.6688795042842626
1776021886382238200,12.12723828125,0.30583005425678567,-0.5303039772868157,-1.2145996618896722
1776021886392299300,12.13729931640625,0.27123686151504517,-0.341294148081541,-1.4990543168962
1776021886402360300,12.1473603515625,0.2713467333639972,-0.07385024910867213,-1.1286182454824447
1776021886412421000,12.157421142578125,0.14182954209102316,0.034898879423737525,-0.7672510311871766
1776021886422483200,12.167483154296875,-0.03848258312940597,-0.041730771270394325,-0.4040688764244318
1776021886432544300,12.177544189453124,-0.08108838366866111,-0.18089374276697634,0.040941666719317434
1776021886442605300,12.187605224609374,0.10675707793235778,-0.3651134150862694,0.41427521314024923
1776021886452666400,12.197666259765626,0.3500678216457367,-0.3969786259025335,0.5720347485572099
1776021886462727200,12.20772705078125,0.5515700526773929,-0.14409750528931617,0.6538391715407371
1776021886472788000,12.2177880859375,0.636401714527607,0.14817688355743885,0.6831523597866296
1776021886482849000,12.22784912109375,0.6203881528377533,0.2919172459721565,0.7447492765218019
1776021886492911000,12.2379111328125,0.5275964718937873,0.2996434563100338,0.8058376592129468
1776021886502972200,12.24797216796875,0.37122283787727356,0.39974867513775825,0.6846691940903663
1776021886513033200,12.258033203125,0.18651158264875412,0.47548166925311086,0.42698388806581494
1776021886523094300,12.26809423828125,-0.059890149349905546,0.43739831457436085,0.11107786374092102
1776021886533155300,12.2781552734375,-0.3780781105995178,0.2676005508393049,-0.19322773916125296
1776021886543216000,12.288216064453126,-0.6499333962738514,-0.016195347997546194,-0.34082302343845366
1776021886553277200,12.298277099609376,-0.6866390328586102,-0.25518062972724437,-0.3075187197297811
1776021886563339300,12.30833935546875,-0.5122925563106313,-0.307877031648159,-0.17545535110533236
1776021886573400300,12.318400390625,-0.25957210615184156,-0.17009353181123732,-0.02195113504528999
1776021886583461400,12.32846142578125,-0.14260346733927726,0.028559155008196828,0.08444003218412399
1776021886593522200,12.338522216796875,-0.21421788368728012,0.11333294919133186,0.091375968927145
1776021886603583000,12.3485830078125,-0.45013212394118307,0.03401274423897266,-0.007886369335651398
1776021886613644000,12.35864404296875,-0.6024176118612289,-0.16322715317308903,-0.09998422279655933
1776021886623706000,12.3687060546875,-0.596484678148292,-0.4308505003660917,-0.13940204094946385
1776021886633767200,12.37876708984375,-0.4695511101603508,-0.6361328344583511,-0.20296996549665927
1776021886643828200,12.388828125,-0.3458919972658157,-0.6274620367467403,-0.3296142316818237
1776021886653889300,12.39888916015625,-0.26050503962039945,-0.5194599271893501,-0.4727133735835552
1776021886663950000,12.4089501953125,-0.20664017844200133,-0.35258769551217556,-0.5684060366660356
1776021886674011100,12.41901123046875,-0.13322189100980758,-0.2092646817266941,-0.5473889676004647
1776021886684072200,12.429072265625,-0.03817633019182831,-0.17036182735860347,-0.33768998610973355
1776021886694134300,12.43913427734375,0.1988683753967285,-0.18925357483327387,0.03188157742917538
1776021886704195300,12.4491953125,0.4520575755784288,-0.05243395159244537,0.38018589653372764
1776021886714256100,12.459256103515624,0.6073533512303605,0.20676000542938708,0.5828600939542055
1776021886724317200,12.469317138671874,0.6078267774283885,0.5280459692269563,0.7256441785573959
1776021886734378000,12.4793779296875,0.5009457443227991,0.7229092006355524,0.7659948936462402
1776021886744439000,12.48943896484375,0.33829898485355075,0.860974440023303,0.8598831376552581
1776021886754501000,12.499501220703126,0.15727259215023368,0.9554460368782282,0.9224883546501398
1776021886764562200,12.509562255859375,-0.14930910245776174,0.9983633875846862,0.8380904080420732
1776021886774623200,12.519623291015625,-0.5223111884346231,0.9099187959343195,0.6311492008268833
1776021886784684300,12.529684326171875,-0.8800538190245628,0.6473375345617532,0.4024696245342493
1776021886794745000,12.5397451171875,-1.010924762994051,0.3308428966939449,0.1567062269717455
1776021886804806100,12.54980615234375,-0.817502962565422,0.03209960409402847,-0.04527180487811565
1776021886814867200,12.5598671875,-0.3461678915977478,-0.22357962280511856,-0.17620879982113838
1776021886824929300,12.56992919921875,0.11663195420410484,-0.35131109970510005,-0.2599281165152788
1776021886834990300,12.579990234375,0.43629181463718414,-0.41338031012713905,-0.38261546176820993
1776021886845051100,12.590051025390625,0.9443675935029983,-0.4450169728845358,-0.4732803598165512
1776021886855112200,12.6001123046875,3.096272070902586,-0.9678191962391137,-0.49560675791501996
1776021886865173000,12.610173095703125,0.37552725707292556,-0.23054712373018263,-0.7238289458289742
1776021886875234000,12.620234130859375,-0.8413011867821216,-0.191918410128355,-0.5781894717946648
1776021886885295000,12.630295166015625,0.6896282778024673,-0.8774906905382871,-0.17546528797745703
1776021886895357200,12.640357177734375,-0.2737351080715656,-0.34881460671424863,-0.1530953429982066
