time,seconds_elapsed,z,y,x
1776017215234189000,0.10518896484375,-0.9794769287109375,-0.2813262939453125,0.083709716796875
1776017215244249300,0.115249267578125,-0.9737701416015625,-0.27789306640625,0.0736236572265625
1776017215254310400,0.125310302734375,-0.9694366455078125,-0.2773590087890625,0.0713043212890625
1776017215264371500,0.135371337890625,-0.9727783203125,-0.2811737060546875,0.06982421875
1776017215274432500,0.1454326171875,-0.9842681884765625,-0.2857818603515625,0.0693359375
1776017215284493600,0.15549365234375,-0.9778900146484375,-0.2863311767578125,0.070098876953125
1776017215294554400,0.165554443359375,-0.959075927734375,-0.283172607421875,0.0711517333984375
1776017215304615400,0.175615478515625,-0.9564971923828125,-0.2779388427734375,0.0805816650390625
1776017215314675500,0.185675537109375,-0.9748382568359375,-0.27978515625,0.0847625732421875
1776017215324736300,0.195736328125,-0.9714508056640625,-0.285919189453125,0.0777130126953125
1776017215334797300,0.20579736328125,-0.95367431640625,-0.28582763671875,0.0701446533203125
1776017215344858400,0.2158583984375,-0.941925048828125,-0.2801513671875,0.0740509033203125
1776017215354919400,0.22591943359375,-0.9518890380859375,-0.2731781005859375,0.075408935546875
1776017215364980500,0.23598046875,-0.9712371826171875,-0.277374267578125,0.0786285400390625
1776017215375041500,0.24604150390625,-0.9842071533203125,-0.28875732421875,0.0789794921875
1776017215385102600,0.2561025390625,-0.976806640625,-0.2872772216796875,0.0778961181640625
1776017215395162400,0.266162353515625,-0.9722137451171875,-0.280670166015625,0.0755767822265625
1776017215405223400,0.276223388671875,-0.96575927734375,-0.275238037109375,0.07281494140625
1776017215415284500,0.286284423828125,-0.953643798828125,-0.2724761962890625,0.070465087890625
1776017215425345500,0.296345458984375,-0.9443817138671875,-0.2777557373046875,0.06658935546875
1776017215435406300,0.30640625,-0.939208984375,-0.276702880859375,0.0642852783203125
1776017215445467400,0.31646728515625,-0.9424285888671875,-0.2732086181640625,0.0675201416015625
1776017215455528400,0.326528564453125,-0.9456329345703125,-0.275726318359375,0.07098388671875
1776017215465589500,0.336589599609375,-0.9511566162109375,-0.279144287109375,0.0724639892578125
1776017215475650600,0.346650634765625,-0.9529266357421875,-0.2769622802734375,0.071807861328125
1776017215485710300,0.35671044921875,-0.9542694091796875,-0.273895263671875,0.071746826171875
1776017215495771400,0.366771484375,-0.961456298828125,-0.2746124267578125,0.073089599609375
1776017215505832400,0.37683251953125,-0.962921142578125,-0.275390625,0.0735321044921875
1776017215515893500,0.3868935546875,-0.9604339599609375,-0.2745361328125,0.0723114013671875
1776017215525954600,0.39695458984375,-0.9534912109375,-0.275421142578125,0.0709228515625
1776017215536015600,0.407015625,-0.9473114013671875,-0.2730560302734375,0.0709075927734375
1776017215546076400,0.417076416015625,-0.9449615478515625,-0.2737274169921875,0.0733489990234375
1776017215556137500,0.427137451171875,-0.9543914794921875,-0.2790374755859375,0.0753936767578125
1776017215566198300,0.4371982421875,-0.9662017822265625,-0.2840118408203125,0.07879638671875
1776017215576258300,0.44725830078125,-0.970977783203125,-0.283966064453125,0.0831146240234375
1776017215586319400,0.4573193359375,-0.9742584228515625,-0.2850341796875,0.084716796875
1776017215596380400,0.46738037109375,-0.9676666259765625,-0.2855377197265625,0.0842437744140625
1776017215606441500,0.47744140625,-0.9608306884765625,-0.280242919921875,0.0778656005859375
1776017215616502500,0.48750244140625,-0.9594268798828125,-0.2747955322265625,0.072174072265625
1776017215626563600,0.4975634765625,-0.954315185546875,-0.2714691162109375,0.0677947998046875
1776017215636624400,0.507624267578125,-0.9424591064453125,-0.2716064453125,0.06365966796875
1776017215646685400,0.517685546875,-0.9391632080078125,-0.2697296142578125,0.068603515625
1776017215656746500,0.52774658203125,-0.9431304931640625,-0.269256591796875,0.07708740234375
1776017215666806500,0.537806640625,-0.9463043212890625,-0.2745819091796875,0.0802764892578125
1776017215676867600,0.54786767578125,-0.9447479248046875,-0.2791290283203125,0.0775299072265625
1776017215686928400,0.557928466796875,-0.9405670166015625,-0.2787322998046875,0.0768890380859375
1776017215696989400,0.567989501953125,-0.950531005859375,-0.27691650390625,0.08251953125
1776017215707050500,0.578050537109375,-0.9630889892578125,-0.276824951171875,0.0876312255859375
1776017215717111300,0.588111328125,-0.96527099609375,-0.279693603515625,0.0881500244140625
1776017215727172400,0.59817236328125,-0.962005615234375,-0.2811279296875,0.0883331298828125
1776017215737233400,0.6082333984375,-0.958465576171875,-0.2767333984375,0.08343505859375
1776017215747293400,0.61829345703125,-0.9544219970703125,-0.2716827392578125,0.0827178955078125
1776017215757354500,0.6283544921875,-0.9490203857421875,-0.2754058837890625,0.0780181884765625
1776017215767415600,0.63841552734375,-0.953460693359375,-0.27984619140625,0.0836334228515625
1776017215777476600,0.6484765625,-0.9567718505859375,-0.2790679931640625,0.0871124267578125
1776017215787537400,0.658537353515625,-0.9602813720703125,-0.281463623046875,0.081512451171875
1776017215797598500,0.668598388671875,-0.96209716796875,-0.282470703125,0.0779876708984375
1776017215807659300,0.6786591796875,-0.9603118896484375,-0.2799072265625,0.0820770263671875
1776017215817720300,0.68872021484375,-0.9581298828125,-0.2799530029296875,0.0845947265625
1776017215827781400,0.698781494140625,-0.9532012939453125,-0.2766876220703125,0.082916259765625
1776017215837841400,0.70884130859375,-0.9453887939453125,-0.2778472900390625,0.0782470703125
1776017215847902500,0.71890234375,-0.9542236328125,-0.2779083251953125,0.0795135498046875
1776017215857963500,0.728963623046875,-0.961181640625,-0.28167724609375,0.07958984375
1776017215868024300,0.7390244140625,-0.948638916015625,-0.2809600830078125,0.0716705322265625
1776017215878085400,0.74908544921875,-0.94183349609375,-0.275787353515625,0.0697784423828125
1776017215888146400,0.759146484375,-0.9453582763671875,-0.2731170654296875,0.0706634521484375
1776017215898207500,0.76920751953125,-0.9578704833984375,-0.27740478515625,0.073272705078125
1776017215908268500,0.7792685546875,-0.969024658203125,-0.279693603515625,0.078277587890625
1776017215918329600,0.78932958984375,-0.9720458984375,-0.283660888671875,0.083099365234375
1776017215928390400,0.799390380859375,-0.9650726318359375,-0.2856597900390625,0.0803985595703125
1776017215938450400,0.809450439453125,-0.9532318115234375,-0.286468505859375,0.077117919921875
1776017215948511500,0.819511474609375,-0.9408721923828125,-0.2840423583984375,0.077117919921875
1776017215958572300,0.829572265625,-0.939788818359375,-0.282073974609375,0.07916259765625
1776017215968633300,0.83963330078125,-0.94537353515625,-0.2818603515625,0.077362060546875
1776017215978694400,0.8496943359375,-0.947265625,-0.28314208984375,0.0746612548828125
1776017215988755500,0.85975537109375,-0.9530181884765625,-0.2805328369140625,0.076141357421875
1776017215998816500,0.86981640625,-0.9677276611328125,-0.284149169921875,0.0832977294921875
1776017216008877600,0.879877685546875,-0.973052978515625,-0.2897186279296875,0.0854034423828125
1776017216018937300,0.889937255859375,-0.95928955078125,-0.29046630859375,0.0771026611328125
1776017216028998400,0.899998291015625,-0.9510345458984375,-0.2889251708984375,0.0709075927734375
1776017216039059500,0.9100595703125,-0.9488677978515625,-0.2890472412109375,0.0784454345703125
1776017216049120500,0.92012060546875,-0.95330810546875,-0.28326416015625,0.0860595703125
1776017216059181600,0.930181640625,-0.9503936767578125,-0.2822265625,0.0806732177734375
1776017216069242400,0.940242431640625,-0.9416656494140625,-0.285125732421875,0.0749359130859375
1776017216079303400,0.950303466796875,-0.9375762939453125,-0.2825775146484375,0.0736083984375
1776017216089364500,0.960364501953125,-0.94287109375,-0.2819976806640625,0.0706787109375
1776017216099425500,0.970425537109375,-0.9477996826171875,-0.279327392578125,0.0724945068359375
1776017216109486300,0.980486328125,-0.9603424072265625,-0.2796173095703125,0.0764923095703125
1776017216119546400,0.99054638671875,-0.9769744873046875,-0.2814788818359375,0.0814666748046875
1776017216129607400,1.000607421875,-0.9803314208984375,-0.288330078125,0.080413818359375
1776017216139668500,1.01066845703125,-0.9767913818359375,-0.2870635986328125,0.07623291015625
1776017216149729500,1.0207294921875,-0.971160888671875,-0.2843170166015625,0.071319580078125
1776017216159790600,1.03079052734375,-0.96160888671875,-0.2847747802734375,0.0691070556640625
1776017216169851600,1.0408515625,-0.954803466796875,-0.2852325439453125,0.0722503662109375
1776017216179912400,1.050912353515625,-0.9492645263671875,-0.28466796875,0.0707244873046875
1776017216189973200,1.06097314453125,-0.938446044921875,-0.284088134765625,0.0648193359375
1776017216200034300,1.071034423828125,-0.93450927734375,-0.279022216796875,0.06524658203125
1776017216210094300,1.08109423828125,-0.9400787353515625,-0.275360107421875,0.0709075927734375
1776017216220155400,1.0911552734375,-0.9449462890625,-0.276458740234375,0.072998046875
1776017216230216400,1.101216552734375,-0.946868896484375,-0.274688720703125,0.07354736328125
1776017216240277500,1.111277587890625,-0.9522552490234375,-0.278564453125,0.0741424560546875
1776017216250338800,1.1213388671875,-0.953765869140625,-0.2775726318359375,0.0724029541015625
1776017216260399600,1.131399658203125,-0.959564208984375,-0.27642822265625,0.0734710693359375
1776017216270460700,1.141460693359375,-0.9581451416015625,-0.282958984375,0.0719146728515625
1776017216280521700,1.151521728515625,-0.9517822265625,-0.2842559814453125,0.0684051513671875
1776017216290582800,1.161582763671875,-0.9491424560546875,-0.2827606201171875,0.0663604736328125
1776017216300642800,1.171642822265625,-0.9416656494140625,-0.280303955078125,0.0691070556640625
1776017216310703900,1.181703857421875,-0.9274444580078125,-0.276519775390625,0.0693206787109375
1776017216320764700,1.1917646484375,-0.9222869873046875,-0.27490234375,0.069366455078125
1776017216330825700,1.20182568359375,-0.931549072265625,-0.2710418701171875,0.0753936767578125
1776017216340886500,1.211886474609375,-0.9423370361328125,-0.2738037109375,0.07733154296875
1776017216350947600,1.221947509765625,-0.9530029296875,-0.280670166015625,0.07232666015625
1776017216361008600,1.232008544921875,-0.968719482421875,-0.2830657958984375,0.0657806396484375
1776017216371069700,1.242069580078125,-0.9786529541015625,-0.2812347412109375,0.06280517578125
1776017216381130800,1.252130859375,-0.9826202392578125,-0.280731201171875,0.0578155517578125
1776017216391190800,1.262190673828125,-0.9747161865234375,-0.2762603759765625,0.0588836669921875
1776017216401251800,1.272251953125,-0.9616851806640625,-0.268707275390625,0.0672454833984375
1776017216411312600,1.282312744140625,-0.956878662109375,-0.2700653076171875,0.0704193115234375
1776017216421373700,1.292373779296875,-0.94219970703125,-0.2760009765625,0.0739593505859375
1776017216431434800,1.302434814453125,-0.939666748046875,-0.2800445556640625,0.0736083984375
1776017216441495600,1.31249560546875,-0.950225830078125,-0.2805938720703125,0.07232666015625
1776017216451556600,1.322556640625,-0.96856689453125,-0.28485107421875,0.0781402587890625
1776017216461617700,1.33261767578125,-0.9724884033203125,-0.2892913818359375,0.0758514404296875
1776017216471678700,1.3426787109375,-0.9613189697265625,-0.2866058349609375,0.0691375732421875
1776017216481739800,1.35273974609375,-0.9597015380859375,-0.2790985107421875,0.070770263671875
1776017216491799600,1.362799560546875,-0.9599609375,-0.275665283203125,0.0771484375
1776017216501860600,1.372860595703125,-0.9579925537109375,-0.2739410400390625,0.077392578125
1776017216511921700,1.382921630859375,-0.96533203125,-0.2747802734375,0.077117919921875
1776017216521982700,1.392982666015625,-0.9720306396484375,-0.2726287841796875,0.0792999267578125
1776017216532043800,1.403043701171875,-0.9695281982421875,-0.270721435546875,0.0789947509765625
1776017216542104800,1.413104736328125,-0.96051025390625,-0.275604248046875,0.0739288330078125
1776017216552165600,1.42316552734375,-0.948883056640625,-0.2786102294921875,0.0745849609375
1776017216562226700,1.433226806640625,-0.940582275390625,-0.2733917236328125,0.0746002197265625
1776017216572287700,1.443287841796875,-0.9354248046875,-0.273834228515625,0.074981689453125
1776017216582347500,1.453347412109375,-0.9346923828125,-0.28021240234375,0.0738677978515625
1776017216592408600,1.46340869140625,-0.9470367431640625,-0.28485107421875,0.0760040283203125
1776017216602469600,1.4734697265625,-0.9402923583984375,-0.2795562744140625,0.0779876708984375
1776017216612530700,1.48353076171875,-0.9391021728515625,-0.266845703125,0.081268310546875
1776017216622591700,1.493591796875,-0.950286865234375,-0.262420654296875,0.0883636474609375
1776017216632652800,1.50365283203125,-0.9591217041015625,-0.2609710693359375,0.0901947021484375
1776017216642713900,1.5137138671875,-0.960357666015625,-0.26605224609375,0.0876617431640625
1776017216652775000,1.52377490234375,-0.9602813720703125,-0.2690277099609375,0.0853729248046875
1776017216662835700,1.533835693359375,-0.9696197509765625,-0.27178955078125,0.082794189453125
1776017216672895700,1.543895751953125,-0.979400634765625,-0.278289794921875,0.083953857421875
1776017216682956800,1.553956787109375,-0.97125244140625,-0.28173828125,0.07867431640625
1776017216693017600,1.564017578125,-0.9586181640625,-0.277191162109375,0.0731658935546875
1776017216703078700,1.57407861328125,-0.9509735107421875,-0.273284912109375,0.0730743408203125
1776017216713139700,1.5841396484375,-0.9463348388671875,-0.2714385986328125,0.0757904052734375
1776017216723200800,1.59420068359375,-0.9485321044921875,-0.2673492431640625,0.0773773193359375
1776017216733261600,1.604261474609375,-0.9471435546875,-0.270050048828125,0.07806396484375
1776017216743322600,1.614322509765625,-0.9559478759765625,-0.2682952880859375,0.083740234375
1776017216753383700,1.6243837890625,-0.9618377685546875,-0.2694549560546875,0.0839080810546875
1776017216763443700,1.634443603515625,-0.97052001953125,-0.2735137939453125,0.081878662109375
1776017216773504800,1.6445048828125,-0.9735870361328125,-0.2760467529296875,0.0771636962890625
1776017216783565800,1.65456591796875,-0.975311279296875,-0.2707672119140625,0.0721435546875
1776017216793627000,1.664626953125,-0.9794921875,-0.2661590576171875,0.072845458984375
1776017216803688000,1.67468798828125,-0.9779815673828125,-0.269012451171875,0.0746307373046875
1776017216813748500,1.68474853515625,-0.9662628173828125,-0.2708587646484375,0.0734405517578125
1776017216823809500,1.6948095703125,-0.96343994140625,-0.2733154296875,0.0762481689453125
1776017216833870600,1.70487060546875,-0.957061767578125,-0.2713470458984375,0.07489013671875
1776017216843931600,1.714931640625,-0.9458160400390625,-0.2706451416015625,0.0709686279296875
1776017216853991700,1.72499169921875,-0.9423675537109375,-0.27423095703125,0.072113037109375
1776017216864052700,1.735052734375,-0.9509735107421875,-0.274078369140625,0.078887939453125
1776017216874113800,1.74511376953125,-0.9634857177734375,-0.2767791748046875,0.087371826171875
1776017216884174600,1.755174560546875,-0.95953369140625,-0.2787933349609375,0.090087890625
1776017216894235600,1.765235595703125,-0.9565582275390625,-0.2794952392578125,0.0895538330078125
1776017216904296700,1.775296630859375,-0.9550323486328125,-0.276336669921875,0.0847625732421875
1776017216914357800,1.785357666015625,-0.957244873046875,-0.274627685546875,0.0828399658203125
1776017216924418600,1.79541845703125,-0.9556121826171875,-0.274261474609375,0.0847930908203125
1776017216934479600,1.805479736328125,-0.9507598876953125,-0.2742919921875,0.08367919921875
1776017216944540000,1.815539794921875,-0.94317626953125,-0.2731475830078125,0.0843353271484375
1776017216954600700,1.8256005859375,-0.945587158203125,-0.27374267578125,0.08465576171875
1776017216964661500,1.83566162109375,-0.9404754638671875,-0.2750701904296875,0.079833984375
1776017216974722600,1.84572265625,-0.9337310791015625,-0.2757720947265625,0.0772857666015625
1776017216984783600,1.85578369140625,-0.9437408447265625,-0.271728515625,0.0792388916015625
1776017216994844700,1.8658447265625,-0.956329345703125,-0.2737884521484375,0.0845184326171875
1776017217004905700,1.87590576171875,-0.961578369140625,-0.2764739990234375,0.0836029052734375
1776017217014966800,1.885966796875,-0.9703521728515625,-0.2796630859375,0.07989501953125
1776017217025027800,1.89602783203125,-0.9773712158203125,-0.2796630859375,0.0792388916015625
1776017217035089000,1.9060888671875,-0.978912353515625,-0.2774505615234375,0.0839691162109375
1776017217045148700,1.916148681640625,-0.9735565185546875,-0.275909423828125,0.089141845703125
1776017217055209700,1.926209716796875,-0.9681549072265625,-0.275238037109375,0.089202880859375
1776017217065270800,1.936270751953125,-0.9594879150390625,-0.2820281982421875,0.0887451171875
1776017217075331600,1.94633154296875,-0.9647064208984375,-0.2846527099609375,0.0863494873046875
1776017217085392600,1.956392578125,-0.96417236328125,-0.278533935546875,0.082855224609375
1776017217095453700,1.96645361328125,-0.9539642333984375,-0.272796630859375,0.0767059326171875
1776017217105514800,1.9765146484375,-0.9518890380859375,-0.2731475830078125,0.07177734375
1776017217115575800,1.986575927734375,-0.9622344970703125,-0.273345947265625,0.071136474609375
1776017217125635600,1.996635498046875,-0.965911865234375,-0.2716522216796875,0.0730133056640625
1776017217135696600,2.006696533203125,-0.970916748046875,-0.27435302734375,0.071929931640625
1776017217145757700,2.0167578125,-0.9645843505859375,-0.279541015625,0.0713043212890625
1776017217155818800,2.02681884765625,-0.9496917724609375,-0.2782440185546875,0.074127197265625
1776017217165879800,2.0368798828125,-0.94366455078125,-0.2746734619140625,0.072052001953125
1776017217175940900,2.04694091796875,-0.945709228515625,-0.279571533203125,0.07525634765625
1776017217186001700,2.057001708984375,-0.9444122314453125,-0.2815704345703125,0.076568603515625
1776017217196062700,2.067062744140625,-0.9431915283203125,-0.2829437255859375,0.0764923095703125
1776017217206123500,2.07712353515625,-0.9441986083984375,-0.2794036865234375,0.0754547119140625
1776017217216184600,2.0871845703125,-0.949737548828125,-0.275146484375,0.0776519775390625
1776017217226244600,2.09724462890625,-0.9569244384765625,-0.2755279541015625,0.08197021484375
1776017217236305700,2.1073056640625,-0.962615966796875,-0.2771148681640625,0.0842742919921875
1776017217246366500,2.117366455078125,-0.96337890625,-0.2785797119140625,0.081451416015625
1776017217256427500,2.127427490234375,-0.958953857421875,-0.27349853515625,0.0748291015625
1776017217266488600,2.137488525390625,-0.9609527587890625,-0.2700042724609375,0.069732666015625
1776017217276549600,2.147549560546875,-0.9648895263671875,-0.26959228515625,0.072357177734375
1776017217286610700,2.157610595703125,-0.9627838134765625,-0.269683837890625,0.076812744140625
1776017217296671700,2.167671630859375,-0.957244873046875,-0.2725067138671875,0.0771484375
1776017217306732500,2.177732666015625,-0.95751953125,-0.2736968994140625,0.081573486328125
1776017217316792600,2.18779248046875,-0.960784912109375,-0.277191162109375,0.0849456787109375
1776017217326853600,2.197853515625,-0.9621429443359375,-0.2754364013671875,0.086273193359375
1776017217336914400,2.20791455078125,-0.960113525390625,-0.28033447265625,0.0858306884765625
1776017217346975500,2.2179755859375,-0.9534454345703125,-0.27947998046875,0.08599853515625
1776017217357036500,2.22803662109375,-0.9554901123046875,-0.27838134765625,0.08233642578125
1776017217367097600,2.23809765625,-0.9617919921875,-0.2768096923828125,0.0812835693359375
1776017217377158700,2.24815869140625,-0.9638214111328125,-0.27593994140625,0.0815582275390625
1776017217387219700,2.2582197265625,-0.9644012451171875,-0.2722015380859375,0.0810394287109375
1776017217397280500,2.268280517578125,-0.9651641845703125,-0.271636962890625,0.08282470703125
1776017217407340500,2.278340576171875,-0.96356201171875,-0.2728729248046875,0.0773468017578125
1776017217417401600,2.288401611328125,-0.9574432373046875,-0.2777557373046875,0.0746612548828125
1776017217427462700,2.298462646484375,-0.9580078125,-0.2800750732421875,0.0736083984375
1776017217437523700,2.308523681640625,-0.955047607421875,-0.284881591796875,0.0771331787109375
1776017217447584500,2.31858447265625,-0.94830322265625,-0.2845306396484375,0.083709716796875
1776017217457645600,2.3286455078125,-0.9448394775390625,-0.28265380859375,0.0847930908203125
1776017217467706600,2.33870654296875,-0.944183349609375,-0.27862548828125,0.084075927734375
1776017217477767400,2.348767333984375,-0.9485931396484375,-0.278900146484375,0.0875091552734375
1776017217487828500,2.358828369140625,-0.944366455078125,-0.277313232421875,0.086456298828125
1776017217497888500,2.368888427734375,-0.945892333984375,-0.276275634765625,0.0827789306640625
1776017217507949600,2.378949462890625,-0.9559173583984375,-0.27337646484375,0.084503173828125
1776017217518010600,2.3890107421875,-0.958526611328125,-0.2754669189453125,0.0825042724609375
1776017217528071700,2.39907177734375,-0.959869384765625,-0.279144287109375,0.0803070068359375
1776017217538132700,2.4091328125,-0.9580535888671875,-0.2812957763671875,0.07745361328125
1776017217548193500,2.419193603515625,-0.95416259765625,-0.2794342041015625,0.07318115234375
1776017217558254600,2.429254638671875,-0.953094482421875,-0.2796783447265625,0.069976806640625
1776017217568315400,2.4393154296875,-0.9565887451171875,-0.28240966796875,0.0724639892578125
1776017217578376400,2.44937646484375,-0.9589691162109375,-0.281005859375,0.0722503662109375
1776017217588436500,2.4594365234375,-0.9598846435546875,-0.28192138671875,0.069091796875
1776017217598497500,2.46949755859375,-0.9620208740234375,-0.2799530029296875,0.0717315673828125
1776017217608558600,2.47955859375,-0.9654388427734375,-0.27716064453125,0.0759429931640625
1776017217618619600,2.48961962890625,-0.9684295654296875,-0.2772674560546875,0.0775299072265625
1776017217628680400,2.499680419921875,-0.963104248046875,-0.2779388427734375,0.07501220703125
1776017217638741500,2.509741455078125,-0.9611968994140625,-0.2765350341796875,0.069976806640625
1776017217648802600,2.519802490234375,-0.956939697265625,-0.2769012451171875,0.0665283203125
1776017217658863600,2.529863525390625,-0.9542236328125,-0.2726898193359375,0.0635986328125
1776017217668924700,2.539924560546875,-0.958709716796875,-0.2759857177734375,0.064239501953125
1776017217678984700,2.549984619140625,-0.96466064453125,-0.2756805419921875,0.06817626953125
1776017217689045800,2.560045654296875,-0.9669036865234375,-0.274993896484375,0.070098876953125
1776017217699106600,2.5701064453125,-0.9630126953125,-0.2760467529296875,0.0711517333984375
1776017217709167400,2.58016748046875,-0.95294189453125,-0.28070068359375,0.071807861328125
1776017217719228400,2.590228515625,-0.94915771484375,-0.2816314697265625,0.0760345458984375
1776017217729289500,2.60028955078125,-0.953643798828125,-0.2839813232421875,0.07708740234375
1776017217739350500,2.6103505859375,-0.947967529296875,-0.2910308837890625,0.0786895751953125
1776017217749411600,2.62041162109375,-0.9419097900390625,-0.2901611328125,0.0796661376953125
1776017217759472600,2.63047265625,-0.9452056884765625,-0.2830657958984375,0.0825347900390625
1776017217769532700,2.64053271484375,-0.950531005859375,-0.2827301025390625,0.0843505859375
1776017217779593500,2.650593505859375,-0.9497528076171875,-0.28204345703125,0.087310791015625
1776017217789654500,2.660654541015625,-0.9512176513671875,-0.2779998779296875,0.0870361328125
1776017217799715600,2.670715576171875,-0.9599151611328125,-0.277740478515625,0.0899658203125
1776017217809776600,2.680776611328125,-0.9651336669921875,-0.276519775390625,0.08807373046875
1776017217819837700,2.690837646484375,-0.96624755859375,-0.2810211181640625,0.080413818359375
1776017217829898500,2.7008984375,-0.9645233154296875,-0.28363037109375,0.076141357421875
1776017217839959600,2.71095947265625,-0.9654388427734375,-0.283172607421875,0.0742034912109375
1776017217850020600,2.7210205078125,-0.96343994140625,-0.2837066650390625,0.07501220703125
1776017217860080400,2.731080322265625,-0.95428466796875,-0.28192138671875,0.0738372802734375
1776017217870141400,2.741141357421875,-0.9515228271484375,-0.282684326171875,0.0748443603515625
1776017217880202500,2.751202392578125,-0.9551239013671875,-0.2812347412109375,0.077880859375
1776017217890263600,2.761263671875,-0.9547882080078125,-0.2830352783203125,0.078460693359375
1776017217900324600,2.77132470703125,-0.9537200927734375,-0.282806396484375,0.07958984375
1776017217910385700,2.7813857421875,-0.95758056640625,-0.276611328125,0.0805511474609375
1776017217920446700,2.79144677734375,-0.9553375244140625,-0.274322509765625,0.0828094482421875
1776017217930507800,2.8015078125,-0.960174560546875,-0.2826080322265625,0.0854034423828125
1776017217940568600,2.811568603515625,-0.957550048828125,-0.281982421875,0.0834197998046875
1776017217950628600,2.821628662109375,-0.9562530517578125,-0.281402587890625,0.0813140869140625
1776017217960689700,2.831689697265625,-0.9529876708984375,-0.279754638671875,0.0783843994140625
1776017217970750500,2.84175048828125,-0.9542083740234375,-0.2809295654296875,0.0758514404296875
1776017217980811500,2.8518115234375,-0.9565887451171875,-0.2826995849609375,0.076263427734375
1776017217990872600,2.86187255859375,-0.9547119140625,-0.2808685302734375,0.0763092041015625
1776017218000933600,2.87193359375,-0.956298828125,-0.2820587158203125,0.0772552490234375
1776017218010994700,2.88199462890625,-0.9613800048828125,-0.2827911376953125,0.081024169921875
1776017218021055500,2.892055419921875,-0.9587860107421875,-0.284088134765625,0.080352783203125
1776017218031116500,2.902116455078125,-0.945281982421875,-0.2820892333984375,0.0748748779296875
1776017218041176600,2.912176513671875,-0.9365386962890625,-0.2827911376953125,0.074066162109375
1776017218051237600,2.922237548828125,-0.9408416748046875,-0.27960205078125,0.0769805908203125
1776017218061298700,2.932298583984375,-0.9435577392578125,-0.278228759765625,0.0787811279296875
1776017218071359700,2.94235986328125,-0.9429931640625,-0.27886962890625,0.076324462890625
1776017218081420500,2.952420654296875,-0.9456939697265625,-0.281524658203125,0.0719146728515625
1776017218091481600,2.962481689453125,-0.9566497802734375,-0.279998779296875,0.072845458984375
1776017218101542400,2.97254248046875,-0.9595947265625,-0.2780303955078125,0.073455810546875
1776017218111603500,2.982603515625,-0.955841064453125,-0.279876708984375,0.0716705322265625
1776017218121664500,2.99266455078125,-0.957794189453125,-0.28179931640625,0.0731658935546875
1776017218131725600,3.0027255859375,-0.961395263671875,-0.2873687744140625,0.076080322265625
1776017218141785600,3.01278564453125,-0.9583892822265625,-0.28759765625,0.074920654296875
1776017218151846700,3.0228466796875,-0.9508209228515625,-0.282928466796875,0.07537841796875
1776017218161907700,3.03290771484375,-0.95294189453125,-0.2789306640625,0.0801544189453125
1776017218171968500,3.042968505859375,-0.9551544189453125,-0.2787017822265625,0.08026123046875
1776017218182029600,3.053029541015625,-0.9578094482421875,-0.28131103515625,0.0814666748046875
1776017218192090600,3.063090576171875,-0.96246337890625,-0.2840728759765625,0.077911376953125
1776017218202151400,3.0731513671875,-0.968597412109375,-0.2813720703125,0.0740509033203125
1776017218212212500,3.08321240234375,-0.9686737060546875,-0.2802581787109375,0.0725250244140625
1776017218222273500,3.0932734375,-0.9686126708984375,-0.2860260009765625,0.069061279296875
1776017218232333600,3.10333349609375,-0.9697265625,-0.287994384765625,0.07049560546875
1776017218242395100,3.11339501953125,-0.9667205810546875,-0.2896881103515625,0.071624755859375
1776017218252456200,3.123456298828125,-0.9642486572265625,-0.2888946533203125,0.073211669921875
1776017218262517000,3.13351708984375,-0.95867919921875,-0.2893829345703125,0.071563720703125
1776017218272578000,3.143578125,-0.9473724365234375,-0.2899017333984375,0.067474365234375
1776017218282639000,3.15363916015625,-0.9377899169921875,-0.2874908447265625,0.066925048828125
1776017218292700200,3.1637001953125,-0.9317626953125,-0.283599853515625,0.066558837890625
1776017218302761000,3.173760986328125,-0.9352569580078125,-0.2798004150390625,0.070465087890625
1776017218312822000,3.183822021484375,-0.943450927734375,-0.2801055908203125,0.0771942138671875
1776017218322882000,3.193882080078125,-0.9548492431640625,-0.280914306640625,0.082916259765625
1776017218332942800,3.20394287109375,-0.959747314453125,-0.2787017822265625,0.0872039794921875
1776017218343004000,3.21400390625,-0.95855712890625,-0.280364990234375,0.08917236328125
1776017218353065000,3.22406494140625,-0.95404052734375,-0.2786407470703125,0.0888824462890625
1776017218363126000,3.2341259765625,-0.9514312744140625,-0.28179931640625,0.0865478515625
1776017218373187000,3.24418701171875,-0.9509124755859375,-0.2860565185546875,0.085296630859375
1776017218383248100,3.254248046875,-0.9486083984375,-0.2825927734375,0.0833892822265625
1776017218393309200,3.26430908203125,-0.9486083984375,-0.2811279296875,0.079071044921875
1776017218403370200,3.274370361328125,-0.9574127197265625,-0.28546142578125,0.079437255859375
1776017218413430000,3.284429931640625,-0.96533203125,-0.2850341796875,0.0761260986328125
1776017218423491000,3.294490966796875,-0.9735260009765625,-0.2844390869140625,0.074493408203125
1776017218433552100,3.30455224609375,-0.97808837890625,-0.2878265380859375,0.0751800537109375
1776017218443613000,3.314613037109375,-0.983245849609375,-0.2857666015625,0.0798187255859375
1776017218453674000,3.324674072265625,-0.986572265625,-0.2832489013671875,0.0810546875
1776017218463735000,3.334735107421875,-0.9659271240234375,-0.2842559814453125,0.0704498291015625
1776017218473796000,3.344796142578125,-0.936065673828125,-0.2787628173828125,0.0643157958984375
1776017218483857200,3.354857177734375,-0.92919921875,-0.275299072265625,0.068267822265625
1776017218493918200,3.364918212890625,-0.946502685546875,-0.2814483642578125,0.07177734375
1776017218503978000,3.37497802734375,-0.9546051025390625,-0.289459228515625,0.071990966796875
1776017218514039000,3.3850390625,-0.96966552734375,-0.286041259765625,0.0706787109375
1776017218524100000,3.39510009765625,-0.9883880615234375,-0.281341552734375,0.0716705322265625
1776017218534161200,3.4051611328125,-0.985809326171875,-0.2769317626953125,0.071136474609375
1776017218544222200,3.41522216796875,-0.9765167236328125,-0.278839111328125,0.082489013671875
1776017218554283300,3.425283203125,-0.9552459716796875,-0.2866973876953125,0.089874267578125
1776017218564344000,3.435343994140625,-0.9320526123046875,-0.292938232421875,0.0857086181640625
1776017218574404900,3.44540478515625,-0.9235076904296875,-0.2976837158203125,0.0746307373046875
1776017218584466000,3.4554658203125,-0.91827392578125,-0.2995758056640625,0.0623931884765625
1776017218594526000,3.46552587890625,-0.9277801513671875,-0.30047607421875,0.0577545166015625
1776017218604587000,3.4755869140625,-0.941986083984375,-0.2972412109375,0.055145263671875
1776017218614648000,3.48564794921875,-0.945526123046875,-0.2969207763671875,0.0590362548828125
1776017218624709000,3.495709228515625,-0.9531097412109375,-0.294708251953125,0.06884765625
1776017218634770200,3.505770263671875,-0.961334228515625,-0.291412353515625,0.0797882080078125
1776017218644831200,3.515831298828125,-0.961395263671875,-0.288543701171875,0.0791168212890625
1776017218654892000,3.52589208984375,-0.961761474609375,-0.28765869140625,0.0771636962890625
1776017218664953000,3.535953125,-0.960418701171875,-0.289093017578125,0.068511962890625
1776017218675014100,3.54601416015625,-0.9586639404296875,-0.2901763916015625,0.0672607421875
1776017218685074200,3.55607421875,-0.95477294921875,-0.292144775390625,0.0700836181640625
1776017218695135200,3.56613525390625,-0.9543304443359375,-0.294677734375,0.075592041015625
1776017218705196000,3.576196044921875,-0.9449005126953125,-0.2955169677734375,0.0724639892578125
1776017218715257000,3.586257080078125,-0.9419403076171875,-0.2957305908203125,0.0731658935546875
1776017218725318000,3.59631787109375,-0.9449005126953125,-0.2965850830078125,0.0786590576171875
1776017218735379000,3.60637890625,-0.947021484375,-0.290191650390625,0.0803070068359375
1776017218745440000,3.61643994140625,-0.94873046875,-0.2907562255859375,0.0746002197265625
1776017218755501000,3.6265009765625,-0.9561920166015625,-0.2933349609375,0.0729217529296875
1776017218765562000,3.63656201171875,-0.956451416015625,-0.294281005859375,0.0738677978515625
1776017218775623200,3.646623046875,-0.9556427001953125,-0.2914581298828125,0.0727081298828125
1776017218785683200,3.65668310546875,-0.94818115234375,-0.2920379638671875,0.069580078125
1776017218795744300,3.666744140625,-0.9435577392578125,-0.295806884765625,0.070404052734375
1776017218805805000,3.67680517578125,-0.9447784423828125,-0.2969970703125,0.0729522705078125
1776017218815866000,3.6868662109375,-0.9529571533203125,-0.3022308349609375,0.07318115234375
1776017218825927000,3.696927001953125,-0.96197509765625,-0.3050079345703125,0.072418212890625
1776017218835988000,3.706988037109375,-0.959808349609375,-0.2986602783203125,0.0714569091796875
1776017218846049000,3.717049072265625,-0.95977783203125,-0.2954559326171875,0.071685791015625
1776017218856110000,3.727110107421875,-0.9613800048828125,-0.289581298828125,0.068817138671875
1776017218866171100,3.737171142578125,-0.9614105224609375,-0.291290283203125,0.065643310546875
1776017218876231000,3.74723095703125,-0.957672119140625,-0.2975616455078125,0.0658111572265625
1776017218886292000,3.7572919921875,-0.947357177734375,-0.2976226806640625,0.0619354248046875
1776017218896353000,3.76735302734375,-0.9402923583984375,-0.2974853515625,0.055999755859375
1776017218906414000,3.7774140625,-0.9379730224609375,-0.296539306640625,0.06170654296875
1776017218916475100,3.78747509765625,-0.9313812255859375,-0.29937744140625,0.062469482421875
1776017218926536200,3.7975361328125,-0.9310302734375,-0.30047607421875,0.0622100830078125
1776017218936597000,3.807596923828125,-0.94091796875,-0.2990264892578125,0.065155029296875
1776017218946658000,3.817657958984375,-0.9427947998046875,-0.29791259765625,0.068084716796875
1776017218956719000,3.827718994140625,-0.943023681640625,-0.2960968017578125,0.0649871826171875
1776017218966779000,3.83777880859375,-0.944366455078125,-0.294219970703125,0.064910888671875
1776017218976840000,3.84783984375,-0.944488525390625,-0.2958984375,0.0672149658203125
1776017218986901000,3.85790087890625,-0.9454498291015625,-0.2943267822265625,0.0687713623046875
1776017218996962000,3.867962158203125,-0.9486846923828125,-0.29278564453125,0.0672607421875
1776017219007023000,3.878023193359375,-0.9530487060546875,-0.296905517578125,0.0688018798828125
1776017219017084200,3.888084228515625,-0.95465087890625,-0.2974853515625,0.0710296630859375
1776017219027145200,3.898145263671875,-0.9582366943359375,-0.3006439208984375,0.0684814453125
1776017219037206300,3.908206298828125,-0.9602813720703125,-0.306243896484375,0.065216064453125
1776017219047267000,3.91826708984375,-0.9582061767578125,-0.3062896728515625,0.0661468505859375
1776017219057327000,3.9283271484375,-0.9554901123046875,-0.300384521484375,0.06787109375
1776017219067388200,3.93838818359375,-0.9472808837890625,-0.3002777099609375,0.0661163330078125
1776017219077449000,3.948448974609375,-0.94171142578125,-0.299530029296875,0.065887451171875
1776017219087510000,3.958510009765625,-0.944061279296875,-0.2978515625,0.0639495849609375
1776017219097571000,3.968571044921875,-0.9495391845703125,-0.3006439208984375,0.0662994384765625
1776017219107632000,3.978632080078125,-0.9530792236328125,-0.3018951416015625,0.0709075927734375
1776017219117693200,3.988693115234375,-0.9588623046875,-0.3049163818359375,0.070220947265625
1776017219127754000,3.99875390625,-0.9560089111328125,-0.3067779541015625,0.0609130859375
1776017219137815000,4.00881494140625,-0.9473876953125,-0.3055419921875,0.0551910400390625
1776017219147875000,4.018875,-0.9440765380859375,-0.30328369140625,0.0582427978515625
1776017219157936000,4.02893603515625,-0.936920166015625,-0.3025360107421875,0.059417724609375
1776017219167997200,4.0389970703125,-0.928375244140625,-0.300262451171875,0.0599517822265625
1776017219178058200,4.049058349609375,-0.9309844970703125,-0.301788330078125,0.0655670166015625
1776017219188119300,4.059119384765625,-0.9391021728515625,-0.3028411865234375,0.071441650390625
1776017219198179800,4.069179931640625,-0.9458465576171875,-0.301971435546875,0.0733642578125
1776017219208241000,4.079240966796875,-0.949676513671875,-0.3012542724609375,0.0731048583984375
1776017219218302000,4.089302001953125,-0.9569854736328125,-0.30108642578125,0.0736083984375
1776017219228363000,4.099363037109375,-0.9647979736328125,-0.301605224609375,0.0750732421875
1776017219238424000,4.109424072265625,-0.96075439453125,-0.304595947265625,0.0763092041015625
1776017219248483300,4.1194833984375,-0.9486846923828125,-0.3083953857421875,0.073486328125
1776017219258544400,4.12954443359375,-0.942779541015625,-0.3063507080078125,0.0687408447265625
1776017219268605400,4.13960546875,-0.9439849853515625,-0.3069610595703125,0.0636138916015625
1776017219278666500,4.14966650390625,-0.941558837890625,-0.309600830078125,0.059967041015625
1776017219288727600,4.1597275390625,-0.9371185302734375,-0.3064727783203125,0.06439208984375
1776017219298788600,4.16978857421875,-0.94134521484375,-0.3013916015625,0.0728302001953125
1776017219308849400,4.179849365234375,-0.9355010986328125,-0.2965087890625,0.073089599609375
1776017219318910500,4.189910400390625,-0.935455322265625,-0.2946624755859375,0.071868896484375
1776017219328971300,4.19997119140625,-0.948089599609375,-0.2980499267578125,0.070892333984375
1776017219339031600,4.210031494140625,-0.9605560302734375,-0.2996978759765625,0.066009521484375
1776017219349092600,4.220092529296875,-0.9614715576171875,-0.3018646240234375,0.0694427490234375
1776017219359153400,4.2301533203125,-0.950286865234375,-0.302734375,0.06036376953125
1776017219369214500,4.24021435546875,-0.9396209716796875,-0.298431396484375,0.0629425048828125
1776017219379275500,4.250275634765625,-0.9573516845703125,-0.2989654541015625,0.0784912109375
1776017219389336300,4.26033642578125,-0.9878997802734375,-0.308319091796875,0.085906982421875
1776017219399397400,4.2703974609375,-0.9751434326171875,-0.31512451171875,0.072967529296875
1776017219409458400,4.28045849609375,-0.9499664306640625,-0.3023223876953125,0.0596771240234375
1776017219419519500,4.29051953125,-0.9446563720703125,-0.2961273193359375,0.062225341796875
1776017219429579500,4.30057958984375,-0.9423065185546875,-0.2943572998046875,0.0684814453125
1776017219439640600,4.310640625,-0.9374847412109375,-0.294036865234375,0.0744781494140625
1776017219449701600,4.32070166015625,-0.936767578125,-0.2964935302734375,0.07672119140625
1776017219459762400,4.330762451171875,-0.92974853515625,-0.2989654541015625,0.0782623291015625
1776017219469823500,4.340823486328125,-0.92547607421875,-0.298431396484375,0.0778961181640625
1776017219479884300,4.35088427734375,-0.938262939453125,-0.301605224609375,0.0791168212890625
1776017219489945300,4.3609453125,-0.9462432861328125,-0.305389404296875,0.077362060546875
1776017219500006400,4.37100634765625,-0.94195556640625,-0.298187255859375,0.07196044921875
1776017219510067500,4.3810673828125,-0.9413604736328125,-0.2896270751953125,0.0691986083984375
1776017219520127500,4.39112744140625,-0.947021484375,-0.2840728759765625,0.0658111572265625
1776017219530188500,4.4011884765625,-0.9621429443359375,-0.289459228515625,0.0631561279296875
1776017219540249300,4.411249267578125,-0.9695281982421875,-0.295135498046875,0.06512451171875
1776017219550310400,4.421310302734375,-0.96820068359375,-0.29443359375,0.0638275146484375
1776017219560371500,4.431371337890625,-0.9599151611328125,-0.2911224365234375,0.0611419677734375
1776017219570432500,4.4414326171875,-0.95623779296875,-0.2890777587890625,0.0585174560546875
1776017219580493600,4.45149365234375,-0.965240478515625,-0.2955169677734375,0.06011962890625
1776017219590554400,4.461554443359375,-0.9677734375,-0.3001861572265625,0.0654296875
1776017219600615400,4.471615478515625,-0.9568939208984375,-0.301849365234375,0.0628204345703125
1776017219610675500,4.481675537109375,-0.94903564453125,-0.30712890625,0.0583648681640625
1776017219620736300,4.491736328125,-0.9355621337890625,-0.3054656982421875,0.0566558837890625
1776017219630797300,4.50179736328125,-0.9351806640625,-0.302886962890625,0.0630950927734375
1776017219640858400,4.5118583984375,-0.9567108154296875,-0.3056793212890625,0.0729217529296875
1776017219650919400,4.52191943359375,-0.947540283203125,-0.3136749267578125,0.06451416015625
1776017219660980500,4.53198046875,-0.93853759765625,-0.3084869384765625,0.06158447265625
1776017219671041500,4.54204150390625,-0.9654693603515625,-0.3012542724609375,0.07012939453125
1776017219681102600,4.5521025390625,-0.944244384765625,-0.2925872802734375,0.0754241943359375
1776017219691163600,4.56216357421875,-0.9031829833984375,-0.2771453857421875,0.0812835693359375
1776017219701223400,4.572223388671875,-0.9676513671875,-0.2854461669921875,0.1014404296875
1776017219711284500,4.582284423828125,-0.9908447265625,-0.3182525634765625,0.09881591796875
1776017219721345500,4.592345458984375,-0.9921112060546875,-0.3425445556640625,0.0833892822265625
1776017219731406300,4.60240625,-0.9887237548828125,-0.3259429931640625,0.083404541015625
1776017219741467400,4.61246728515625,-0.978912353515625,-0.305511474609375,0.0820465087890625
1776017219751528400,4.622528564453125,-0.944366455078125,-0.2988128662109375,0.0703277587890625
1776017219761589500,4.632589599609375,-0.90753173828125,-0.296661376953125,0.0634307861328125
1776017219771650600,4.642650634765625,-0.88604736328125,-0.2800445556640625,0.0634765625
1776017219781711400,4.65271142578125,-0.9187469482421875,-0.257598876953125,0.079345703125
1776017219791772400,4.6627724609375,-0.94976806640625,-0.2773590087890625,0.0818634033203125
1776017219801832400,4.67283251953125,-0.945587158203125,-0.3023529052734375,0.071502685546875
1776017219811893500,4.6828935546875,-0.9535980224609375,-0.3011016845703125,0.066162109375
1776017219821954600,4.69295458984375,-0.9664306640625,-0.289947509765625,0.073272705078125
1776017219832015600,4.703015625,-0.9601287841796875,-0.2871856689453125,0.078948974609375
1776017219842076400,4.713076416015625,-0.942779541015625,-0.2946624755859375,0.07586669921875
1776017219852137500,4.723137451171875,-0.9354248046875,-0.2985382080078125,0.07464599609375
1776017219862198300,4.7331982421875,-0.9361419677734375,-0.29156494140625,0.0702667236328125
1776017219872259300,4.74325927734375,-0.935577392578125,-0.2855987548828125,0.071746826171875
1776017219882320400,4.7533203125,-0.9471435546875,-0.2866058349609375,0.07177734375
1776017219892380400,4.76338037109375,-0.9472503662109375,-0.2843780517578125,0.0726318359375
1776017219902441500,4.77344140625,-0.94744873046875,-0.2797088623046875,0.074371337890625
1776017219912502500,4.78350244140625,-0.949432373046875,-0.2800140380859375,0.0756683349609375
1776017219922563600,4.7935634765625,-0.9556884765625,-0.280609130859375,0.072021484375
1776017219932624400,4.803624267578125,-0.957122802734375,-0.2830657958984375,0.068084716796875
1776017219942685400,4.813685546875,-0.9568023681640625,-0.2865142822265625,0.06719970703125
1776017219952746500,4.82374658203125,-0.9637908935546875,-0.28985595703125,0.0711669921875
1776017219962807300,4.833807373046875,-0.9606781005859375,-0.2919158935546875,0.07391357421875
1776017219972868400,4.843868408203125,-0.955413818359375,-0.2896270751953125,0.072021484375
1776017219982928600,4.8539287109375,-0.9622802734375,-0.290435791015625,0.0717010498046875
1776017219992989400,4.863989501953125,-0.9638824462890625,-0.2924346923828125,0.0729217529296875
1776017220003050500,4.874050537109375,-0.95745849609375,-0.2917022705078125,0.0680694580078125
1776017220013111300,4.884111328125,-0.9458770751953125,-0.290435791015625,0.06787109375
1776017220023172400,4.89417236328125,-0.9402923583984375,-0.287078857421875,0.0714874267578125
1776017220033233400,4.9042333984375,-0.94012451171875,-0.283935546875,0.0771636962890625
1776017220043294500,4.91429443359375,-0.9451446533203125,-0.286712646484375,0.0814971923828125
1776017220053355500,4.92435546875,-0.949127197265625,-0.2917633056640625,0.0847320556640625
1776017220063416600,4.93441650390625,-0.9579010009765625,-0.2910919189453125,0.085723876953125
1776017220073476600,4.9444765625,-0.958892822265625,-0.2920379638671875,0.0786590576171875
1776017220083537400,4.954537353515625,-0.95941162109375,-0.294189453125,0.074676513671875
1776017220093598500,4.964598388671875,-0.9686279296875,-0.2968902587890625,0.077392578125
1776017220103659300,4.9746591796875,-0.9658660888671875,-0.2972564697265625,0.0813751220703125
1776017220113720300,4.98472021484375,-0.9434051513671875,-0.295867919921875,0.07940673828125
1776017220123781400,4.994781494140625,-0.9351959228515625,-0.29522705078125,0.07611083984375
1776017220133842400,5.004842529296875,-0.93756103515625,-0.2919158935546875,0.0778045654296875
1776017220143903500,5.014903564453125,-0.9453582763671875,-0.287017822265625,0.0734100341796875
1776017220153964500,5.024964599609375,-0.955169677734375,-0.28955078125,0.071533203125
1776017220164025600,5.035025634765625,-0.973663330078125,-0.297882080078125,0.0768585205078125
1776017220174085400,5.04508544921875,-0.976287841796875,-0.3000335693359375,0.0755767822265625
1776017220184146400,5.055146484375,-0.9658050537109375,-0.29815673828125,0.067596435546875
1776017220194207500,5.06520751953125,-0.9607086181640625,-0.29150390625,0.0702972412109375
1776017220204268500,5.0752685546875,-0.9646453857421875,-0.28997802734375,0.0755157470703125
1776017220214329600,5.08532958984375,-0.964599609375,-0.29620361328125,0.076934814453125
1776017220224390400,5.095390380859375,-0.952362060546875,-0.29583740234375,0.0749969482421875
1776017220234451500,5.105451416015625,-0.9486541748046875,-0.2899169921875,0.0713348388671875
1776017220244512500,5.115512451171875,-0.953369140625,-0.2871856689453125,0.0758819580078125
1776017220254574000,5.125573974609375,-0.9527740478515625,-0.2893218994140625,0.0739593505859375
1776017220264633900,5.1356337890625,-0.9499664306640625,-0.2905426025390625,0.0710296630859375
1776017220274695000,5.14569482421875,-0.9531707763671875,-0.2884063720703125,0.07293701171875
1776017220284756000,5.155755859375,-0.95477294921875,-0.2912445068359375,0.0727691650390625
1776017220294817000,5.165817138671875,-0.954071044921875,-0.2944793701171875,0.0726776123046875
1776017220304878000,5.175878173828125,-0.94921875,-0.2922821044921875,0.0664215087890625
1776017220314939100,5.185939208984375,-0.9462738037109375,-0.2893829345703125,0.0645751953125
1776017220325000000,5.196,-0.950286865234375,-0.2905426025390625,0.0711669921875
1776017220335060700,5.206060791015625,-0.9538116455078125,-0.2908935546875,0.077484130859375
1776017220345121800,5.216121826171875,-0.9589080810546875,-0.290618896484375,0.0802764892578125
1776017220355181800,5.226181884765625,-0.9640045166015625,-0.29034423828125,0.08203125
1776017220365243000,5.236242919921875,-0.957794189453125,-0.29058837890625,0.0830230712890625
1776017220375304000,5.246303955078125,-0.9623260498046875,-0.29327392578125,0.081024169921875
1776017220385365000,5.256364990234375,-0.9664154052734375,-0.2935028076171875,0.0784149169921875
1776017220395426000,5.266426025390625,-0.9644775390625,-0.2920684814453125,0.0755462646484375
1776017220405487000,5.276487060546875,-0.9550018310546875,-0.292022705078125,0.0743255615234375
1776017220415548000,5.2865478515625,-0.9454803466796875,-0.2896881103515625,0.074798583984375
1776017220425609000,5.29660888671875,-0.9474334716796875,-0.2879791259765625,0.072540283203125
1776017220435670000,5.306669921875,-0.9435577392578125,-0.2857818603515625,0.071441650390625
1776017220445730800,5.316730712890625,-0.9349212646484375,-0.2852325439453125,0.0686187744140625
1776017220455791000,5.326791015625,-0.9423065185546875,-0.278472900390625,0.0705108642578125
1776017220465852000,5.336851806640625,-0.9537353515625,-0.2785186767578125,0.07769775390625
1776017220475913000,5.346912841796875,-0.954071044921875,-0.285430908203125,0.08221435546875
1776017220485973800,5.356973876953125,-0.95684814453125,-0.290191650390625,0.08404541015625
1776017220496034800,5.367034912109375,-0.9579315185546875,-0.290130615234375,0.0807342529296875
1776017220506095900,5.377095947265625,-0.9551849365234375,-0.2884368896484375,0.0743408203125
1776017220516157000,5.387156982421875,-0.953643798828125,-0.288818359375,0.07073974609375
1776017220526218000,5.397218017578125,-0.955352783203125,-0.28619384765625,0.0688018798828125
1776017220536279000,5.407279052734375,-0.95343017578125,-0.2811431884765625,0.070648193359375
1776017220546339000,5.417339111328125,-0.9536285400390625,-0.27862548828125,0.0731201171875
1776017220556400000,5.427400146484375,-0.955596923828125,-0.281524658203125,0.0723419189453125
1776017220566461000,5.4374609375,-0.9557342529296875,-0.2823944091796875,0.07318115234375
1776017220576522000,5.44752197265625,-0.953155517578125,-0.280853271484375,0.073577880859375
1776017220586582800,5.457582763671875,-0.9482574462890625,-0.2779541015625,0.0698089599609375
1776017220596643800,5.467643798828125,-0.94830322265625,-0.28338623046875,0.0671539306640625
1776017220606705000,5.477704833984375,-0.948883056640625,-0.28485107421875,0.06549072265625
1776017220616766000,5.487765869140625,-0.95416259765625,-0.2834014892578125,0.066253662109375
1776017220626827000,5.497826904296875,-0.961669921875,-0.2856903076171875,0.0650787353515625
1776017220636886800,5.50788671875,-0.9585113525390625,-0.28924560546875,0.06732177734375
1776017220646947800,5.51794775390625,-0.951080322265625,-0.28759765625,0.0694122314453125
1776017220657009000,5.5280087890625,-0.951751708984375,-0.2836456298828125,0.0734100341796875
1776017220667070000,5.538070068359375,-0.95745849609375,-0.284454345703125,0.0770416259765625
1776017220677131000,5.548131103515625,-0.95672607421875,-0.28790283203125,0.07855224609375
1776017220687192000,5.558192138671875,-0.950958251953125,-0.2901153564453125,0.0775604248046875
1776017220697252900,5.5682529296875,-0.9491119384765625,-0.2909698486328125,0.0763092041015625
1776017220707314000,5.57831396484375,-0.947998046875,-0.2905731201171875,0.0744171142578125
1776017220717375000,5.588375,-0.9496307373046875,-0.2916259765625,0.072601318359375
1776017220727436000,5.59843603515625,-0.9540557861328125,-0.2915191650390625,0.0727386474609375
1776017220737495800,5.608495849609375,-0.9635467529296875,-0.2878265380859375,0.0719146728515625
1776017220747556900,5.618556884765625,-0.9664459228515625,-0.2850189208984375,0.0763397216796875
1776017220757618000,5.628617919921875,-0.9590606689453125,-0.2862091064453125,0.074554443359375
1776017220767679000,5.638678955078125,-0.9533843994140625,-0.2856903076171875,0.071533203125
1776017220777740000,5.648739990234375,-0.9481964111328125,-0.285064697265625,0.074127197265625
1776017220787801000,5.658801025390625,-0.94244384765625,-0.2878875732421875,0.075714111328125
1776017220797862100,5.668862060546875,-0.9427337646484375,-0.2861480712890625,0.077117919921875
1776017220807923000,5.6789228515625,-0.9389190673828125,-0.27862548828125,0.072357177734375
1776017220817983700,5.688983642578125,-0.95098876953125,-0.2766265869140625,0.0678558349609375
1776017220828044000,5.6990439453125,-0.9670562744140625,-0.2785491943359375,0.0773468017578125
1776017220838105000,5.70910498046875,-0.9832305908203125,-0.28070068359375,0.0827789306640625
1776017220848166000,5.719165771484375,-0.9914398193359375,-0.276275634765625,0.07916259765625
1776017220858227000,5.72922705078125,-0.984527587890625,-0.2813873291015625,0.074310302734375
1776017220868288000,5.7392880859375,-0.96905517578125,-0.2824554443359375,0.0742034912109375
1776017220878349000,5.74934912109375,-0.956817626953125,-0.2788238525390625,0.0774993896484375
1776017220888409900,5.759409912109375,-0.9494171142578125,-0.2775115966796875,0.0804443359375
1776017220898471000,5.769470947265625,-0.9406890869140625,-0.282318115234375,0.0783233642578125
1776017220908532000,5.779531982421875,-0.938201904296875,-0.2890167236328125,0.0803680419921875
1776017220918592000,5.789592041015625,-0.9445648193359375,-0.28607177734375,0.08721923828125
1776017220928653000,5.799653076171875,-0.951446533203125,-0.2829132080078125,0.0950164794921875
1776017220938714000,5.809714111328125,-0.950714111328125,-0.283935546875,0.0975799560546875
1776017220948775200,5.819775146484375,-0.9477996826171875,-0.2859344482421875,0.094085693359375
1776017220958836000,5.8298359375,-0.9429168701171875,-0.2818603515625,0.08929443359375
1776017220968896800,5.839896728515625,-0.9383697509765625,-0.280426025390625,0.0850372314453125
1776017220978957800,5.849957763671875,-0.9351654052734375,-0.2833709716796875,0.08148193359375
1776017220989019000,5.860018798828125,-0.93194580078125,-0.2824249267578125,0.072174072265625
1776017220999080000,5.870079833984375,-0.940032958984375,-0.280670166015625,0.0708160400390625
1776017221009141000,5.88014111328125,-0.9515533447265625,-0.2829742431640625,0.068115234375
1776017221019201000,5.890200927734375,-0.9542083740234375,-0.27667236328125,0.0614776611328125
1776017221029262000,5.900261962890625,-0.966064453125,-0.2745208740234375,0.06378173828125
1776017221039323000,5.910322998046875,-0.9890899658203125,-0.2752685546875,0.08380126953125
1776017221049384000,5.920384033203125,-0.969451904296875,-0.2794342041015625,0.08953857421875
1776017221059445000,5.930445068359375,-0.930328369140625,-0.2836761474609375,0.0719451904296875
1776017221069506000,5.940506103515625,-0.931610107421875,-0.2808837890625,0.065704345703125
1776017221079566800,5.95056689453125,-0.954742431640625,-0.282745361328125,0.069061279296875
1776017221089628000,5.9606279296875,-0.9634857177734375,-0.2861480712890625,0.0716705322265625
1776017221099689000,5.97068896484375,-0.9658203125,-0.2810821533203125,0.071685791015625
1776017221109748700,5.980748779296875,-0.965667724609375,-0.272125244140625,0.0710906982421875
1776017221119809800,5.990809814453125,-0.9714508056640625,-0.2710113525390625,0.0726776123046875
1776017221129870800,6.000870849609375,-0.97930908203125,-0.279296875,0.07659912109375
1776017221139932000,6.010931884765625,-0.974639892578125,-0.28265380859375,0.07879638671875
1776017221149993000,6.020992919921875,-0.9631195068359375,-0.28472900390625,0.074493408203125
1776017221160054000,6.031053955078125,-0.95379638671875,-0.28387451171875,0.0724639892578125
1776017221170115000,6.041114990234375,-0.947357177734375,-0.28448486328125,0.0742950439453125
1776017221180176100,6.051176025390625,-0.939422607421875,-0.2848663330078125,0.0755462646484375
1776017221190237000,6.06123681640625,-0.946746826171875,-0.2813873291015625,0.081573486328125
1776017221200297700,6.071297607421875,-0.9568939208984375,-0.2821044921875,0.0857391357421875
1776017221210358000,6.08135791015625,-0.9538116455078125,-0.2835845947265625,0.0893402099609375
1776017221220418800,6.091418701171875,-0.9514923095703125,-0.2828369140625,0.0879974365234375
1776017221230480000,6.10147998046875,-0.9520416259765625,-0.28387451171875,0.087860107421875
1776017221240541000,6.111541015625,-0.9561004638671875,-0.2822418212890625,0.0875701904296875
1776017221250601500,6.1216015625,-0.960174560546875,-0.2853240966796875,0.084716796875
1776017221260662500,6.13166259765625,-0.9604949951171875,-0.2852783203125,0.0794525146484375
1776017221270723600,6.1417236328125,-0.959197998046875,-0.2818450927734375,0.0756988525390625
1776017221280784600,6.15178466796875,-0.9574432373046875,-0.2838592529296875,0.07281494140625
1776017221290845700,6.161845703125,-0.954132080078125,-0.2850494384765625,0.0741424560546875
1776017221300905500,6.171905517578125,-0.9569854736328125,-0.284332275390625,0.07501220703125
1776017221310966500,6.181966552734375,-0.957763671875,-0.28436279296875,0.0750732421875
1776017221321027600,6.192027587890625,-0.955291748046875,-0.2811279296875,0.0741729736328125
1776017221331088600,6.202088623046875,-0.955535888671875,-0.2787933349609375,0.071746826171875
1776017221341149700,6.212149658203125,-0.9631500244140625,-0.2767791748046875,0.073760986328125
1776017221351210500,6.22221044921875,-0.964874267578125,-0.2789459228515625,0.0764617919921875
1776017221361271600,6.232271484375,-0.9646148681640625,-0.2805023193359375,0.07977294921875
1776017221371332600,6.24233251953125,-0.966033935546875,-0.2790985107421875,0.08123779296875
1776017221381393700,6.2523935546875,-0.9635772705078125,-0.2782135009765625,0.0825042724609375
1776017221391453400,6.262453369140625,-0.9556884765625,-0.2818450927734375,0.0796966552734375
1776017221401514500,6.272514404296875,-0.9444580078125,-0.2826995849609375,0.0754547119140625
1776017221411575600,6.282575439453125,-0.945831298828125,-0.282867431640625,0.07635498046875
1776017221421636600,6.29263671875,-0.9485321044921875,-0.279937744140625,0.076171875
1776017221431697700,6.30269775390625,-0.9528350830078125,-0.281097412109375,0.073577880859375
1776017221441758700,6.3127587890625,-0.953155517578125,-0.2819366455078125,0.0728607177734375
1776017221451819800,6.32281982421875,-0.9502716064453125,-0.27734375,0.07427978515625
1776017221461880600,6.332880615234375,-0.9525146484375,-0.2737274169921875,0.0777587890625
1776017221471941400,6.34294140625,-0.9553070068359375,-0.2727813720703125,0.079010009765625
1776017221482001700,6.353001708984375,-0.9513397216796875,-0.2772674560546875,0.0793914794921875
1776017221492062500,6.3630625,-0.9528350830078125,-0.2763214111328125,0.078887939453125
1776017221502123500,6.37312353515625,-0.959228515625,-0.271697998046875,0.0756683349609375
1776017221512184600,6.3831845703125,-0.9657440185546875,-0.2752685546875,0.07159423828125
1776017221522245600,6.39324560546875,-0.965087890625,-0.2798309326171875,0.0704345703125
1776017221532306700,6.403306640625,-0.9613037109375,-0.279541015625,0.071685791015625
1776017221542367500,6.413367431640625,-0.966278076171875,-0.2788543701171875,0.0742340087890625
1776017221552428500,6.423428466796875,-0.966217041015625,-0.27996826171875,0.076141357421875
1776017221562489600,6.433489501953125,-0.9576263427734375,-0.278900146484375,0.07666015625
1776017221572550700,6.443550537109375,-0.9517364501953125,-0.27923583984375,0.07733154296875
1776017221582610700,6.453610595703125,-0.95111083984375,-0.278289794921875,0.0789337158203125
1776017221592671700,6.463671630859375,-0.955078125,-0.2755889892578125,0.0781707763671875
1776017221602732500,6.473732666015625,-0.96136474609375,-0.279388427734375,0.07684326171875
1776017221612793600,6.483793701171875,-0.9631500244140625,-0.2849884033203125,0.0796051025390625
1776017221622854400,6.4938544921875,-0.9552001953125,-0.2851715087890625,0.080718994140625
1776017221632915500,6.50391552734375,-0.9508514404296875,-0.2815704345703125,0.077880859375
1776017221642976500,6.5139765625,-0.9502410888671875,-0.279144287109375,0.078033447265625
1776017221653037600,6.52403759765625,-0.950958251953125,-0.2782440185546875,0.0739898681640625
1776017221663098600,6.5340986328125,-0.9516448974609375,-0.2778778076171875,0.0758209228515625
1776017221673158700,6.54415869140625,-0.9532318115234375,-0.27886962890625,0.0784759521484375
1776017221683219700,6.5542197265625,-0.9506683349609375,-0.277252197265625,0.0785675048828125
1776017221693280500,6.564280517578125,-0.94561767578125,-0.27606201171875,0.07672119140625
1776017221703341600,6.574341552734375,-0.94281005859375,-0.274810791015625,0.07427978515625
1776017221713402600,6.584402587890625,-0.94873046875,-0.27740478515625,0.0758514404296875
1776017221723463400,6.59446337890625,-0.95648193359375,-0.2782135009765625,0.07855224609375
1776017221733524500,6.6045244140625,-0.95928955078125,-0.28131103515625,0.07855224609375
1776017221743585500,6.61458544921875,-0.961822509765625,-0.2813873291015625,0.0766754150390625
1776017221753646600,6.624646484375,-0.957366943359375,-0.2793731689453125,0.074005126953125
1776017221763706600,6.63470654296875,-0.9619293212890625,-0.280242919921875,0.078887939453125
1776017221773767400,6.644767333984375,-0.9619903564453125,-0.2794036865234375,0.079437255859375
1776017221783828500,6.654828369140625,-0.957672119140625,-0.2802886962890625,0.0739288330078125
1776017221793889500,6.6648896484375,-0.95269775390625,-0.2815093994140625,0.070465087890625
1776017221803950600,6.67495068359375,-0.9552459716796875,-0.2795867919921875,0.07183837890625
1776017221814011600,6.68501171875,-0.9608001708984375,-0.2801971435546875,0.0713958740234375
1776017221824072700,6.69507275390625,-0.9559326171875,-0.2823028564453125,0.0725250244140625
1776017221834133500,6.705133544921875,-0.9492034912109375,-0.277923583984375,0.0753936767578125
1776017221844194600,6.715194580078125,-0.947509765625,-0.271087646484375,0.0740203857421875
1776017221854254600,6.725254638671875,-0.949462890625,-0.2709503173828125,0.0768890380859375
1776017221864315400,6.7353154296875,-0.95147705078125,-0.2737884521484375,0.0770721435546875
1776017221874376400,6.74537646484375,-0.95880126953125,-0.27215576171875,0.079742431640625
1776017221884437500,6.7554375,-0.96868896484375,-0.273834228515625,0.0864105224609375
1776017221894498600,6.76549853515625,-0.9695587158203125,-0.275726318359375,0.0904998779296875
1776017221904559600,6.7755595703125,-0.9637603759765625,-0.279571533203125,0.088287353515625
1776017221914620700,6.78562060546875,-0.9576568603515625,-0.2831268310546875,0.08404541015625
1776017221924681700,6.795681640625,-0.9486236572265625,-0.2825164794921875,0.0777130126953125
1776017221934742800,6.80574267578125,-0.9416046142578125,-0.278717041015625,0.07281494140625
1776017221944802600,6.815802490234375,-0.9345245361328125,-0.2789764404296875,0.0731048583984375
1776017221954863600,6.825863525390625,-0.93682861328125,-0.2787628173828125,0.0758209228515625
1776017221964924700,6.835924560546875,-0.94244384765625,-0.2801666259765625,0.0760498046875
1776017221974985500,6.8459853515625,-0.9444580078125,-0.281585693359375,0.071197509765625
1776017221985046500,6.856046630859375,-0.952362060546875,-0.2781982421875,0.0687408447265625
1776017221995107600,6.866107666015625,-0.956329345703125,-0.271484375,0.067962646484375
1776017222005168600,6.876168701171875,-0.9612579345703125,-0.2725067138671875,0.069305419921875
1776017222015229400,6.8862294921875,-0.9692535400390625,-0.2737274169921875,0.0756378173828125
1776017222025290500,6.89629052734375,-0.9698028564453125,-0.2778778076171875,0.0778045654296875
1776017222035350500,6.9063505859375,-0.9658966064453125,-0.2822418212890625,0.075042724609375
1776017222045411600,6.91641162109375,-0.964324951171875,-0.2804412841796875,0.073486328125
1776017222055472600,6.92647265625,-0.96221923828125,-0.27606201171875,0.07525634765625
1776017222065533700,6.93653369140625,-0.961273193359375,-0.2798004150390625,0.0796661376953125
1776017222075594800,6.9465947265625,-0.9610443115234375,-0.2817535400390625,0.085235595703125
1776017222085655800,6.95665576171875,-0.9604034423828125,-0.2810211181640625,0.0874786376953125
1776017222095716400,6.96671630859375,-0.9521636962890625,-0.2789764404296875,0.0836181640625
1776017222105777400,6.97677734375,-0.9524993896484375,-0.274688720703125,0.0810546875
1776017222115838500,6.98683837890625,-0.9529266357421875,-0.2711944580078125,0.0813446044921875
1776017222125899500,6.9968994140625,-0.9463958740234375,-0.2712249755859375,0.083160400390625
1776017222135959600,7.00695947265625,-0.9481201171875,-0.2706451416015625,0.0829925537109375
1776017222146020600,7.0170205078125,-0.9481353759765625,-0.27532958984375,0.08416748046875
1776017222156081700,7.02708154296875,-0.9513702392578125,-0.2807159423828125,0.0852508544921875
1776017222166142500,7.037142578125,-0.9577484130859375,-0.284393310546875,0.0866546630859375
1776017222176203500,7.04720361328125,-0.9563446044921875,-0.2853851318359375,0.0867156982421875
1776017222186264600,7.0572646484375,-0.954986572265625,-0.28485107421875,0.08807373046875
1776017222196325600,7.06732568359375,-0.9559173583984375,-0.284271240234375,0.0865631103515625
1776017222206386700,7.07738671875,-0.954803466796875,-0.28753662109375,0.0861053466796875
1776017222216447500,7.087447509765625,-0.953460693359375,-0.28515625,0.084014892578125
1776017222226507800,7.0975078125,-0.9575653076171875,-0.27789306640625,0.08160400390625
1776017222236568600,7.107568603515625,-0.9603118896484375,-0.2758941650390625,0.0816802978515625
1776017222246629600,7.117629638671875,-0.9552459716796875,-0.278411865234375,0.0803680419921875
1776017222256690700,7.127690673828125,-0.9522705078125,-0.2828216552734375,0.0815277099609375
1776017222266751700,7.137751708984375,-0.9474639892578125,-0.2812652587890625,0.0798187255859375
1776017222276812800,7.147812744140625,-0.9438934326171875,-0.282379150390625,0.07867431640625
1776017222286873900,7.157873779296875,-0.9467620849609375,-0.2810821533203125,0.0796661376953125
1776017222296935000,7.167934814453125,-0.95526123046875,-0.281768798828125,0.079254150390625
1776017222306996000,7.177995849609375,-0.9658050537109375,-0.2808990478515625,0.07525634765625
1776017222317056000,7.188055908203125,-0.9693603515625,-0.2842254638671875,0.0752716064453125
1776017222327116800,7.19811669921875,-0.96630859375,-0.2806243896484375,0.074127197265625
1776017222337177900,7.208177734375,-0.9642791748046875,-0.27703857421875,0.0767669677734375
1776017222347238700,7.21823876953125,-0.9639129638671875,-0.2765960693359375,0.0793609619140625
1776017222357299700,7.2282998046875,-0.9628753662109375,-0.27838134765625,0.079345703125
1776017222367360800,7.23836083984375,-0.960540771484375,-0.2800750732421875,0.075286865234375
1776017222377421800,7.248421875,-0.9527587890625,-0.276885986328125,0.0725860595703125
1776017222387483000,7.25848291015625,-0.950531005859375,-0.2717742919921875,0.0694732666015625
1776017222397544000,7.2685439453125,-0.9446563720703125,-0.2686309814453125,0.066558837890625
1776017222407603700,7.278603759765625,-0.9461822509765625,-0.2716064453125,0.0668182373046875
1776017222417664800,7.288664794921875,-0.9605712890625,-0.2790069580078125,0.06646728515625
1776017222427725800,7.298725830078125,-0.957000732421875,-0.275970458984375,0.0691070556640625
1776017222437787000,7.308786865234375,-0.9597625732421875,-0.27093505859375,0.0671539306640625
1776017222447848000,7.318847900390625,-0.960662841796875,-0.2742767333984375,0.067474365234375
1776017222457909000,7.328908935546875,-0.9610595703125,-0.2804412841796875,0.0705413818359375
1776017222467969800,7.3389697265625,-0.9564208984375,-0.27978515625,0.073089599609375
1776017222478030800,7.34903076171875,-0.952301025390625,-0.2789764404296875,0.07330322265625
1776017222488091600,7.359091552734375,-0.9548492431640625,-0.2771759033203125,0.0739898681640625
1776017222498151700,7.369151611328125,-0.959716796875,-0.2752227783203125,0.0694122314453125
1776017222508212700,7.379212646484375,-0.9593353271484375,-0.2764434814453125,0.0657196044921875
1776017222518273800,7.389273681640625,-0.9573516845703125,-0.2745819091796875,0.067718505859375
1776017222528334800,7.3993349609375,-0.9530029296875,-0.274658203125,0.069610595703125
1776017222538396000,7.40939599609375,-0.95086669921875,-0.2750701904296875,0.0696563720703125
1776017222548457000,7.41945703125,-0.956146240234375,-0.2748870849609375,0.06939697265625
1776017222558518000,7.42951806640625,-0.963897705078125,-0.2760162353515625,0.0717010498046875
1776017222568578800,7.439578857421875,-0.9684906005859375,-0.27777099609375,0.0759124755859375
1776017222578640000,7.449639892578125,-0.9706268310546875,-0.278839111328125,0.08160400390625
1776017222588700000,7.459699951171875,-0.9685211181640625,-0.2786407470703125,0.08154296875
1776017222598761000,7.469760986328125,-0.961456298828125,-0.27947998046875,0.0786285400390625
1776017222608821800,7.47982177734375,-0.9571380615234375,-0.2770843505859375,0.0748138427734375
1776017222618882800,7.4898828125,-0.949066162109375,-0.27587890625,0.0693359375
1776017222628944000,7.49994384765625,-0.9452972412109375,-0.27545166015625,0.068206787109375
1776017222639004700,7.510004638671875,-0.9437713623046875,-0.272796630859375,0.0699615478515625
1776017222649065700,7.520065673828125,-0.9458465576171875,-0.272308349609375,0.0694427490234375
1776017222659126800,7.530126708984375,-0.950592041015625,-0.2740020751953125,0.0753021240234375
1776017222669187800,7.540187744140625,-0.953460693359375,-0.27508544921875,0.074859619140625
1776017222679249000,7.550248779296875,-0.9603271484375,-0.2692413330078125,0.0749053955078125
1776017222689309000,7.560308837890625,-0.9696807861328125,-0.2664947509765625,0.077972412109375
1776017222699370000,7.570369873046875,-0.967041015625,-0.2685394287109375,0.075439453125
1776017222709431000,7.58043115234375,-0.959991455078125,-0.2725677490234375,0.0693511962890625
1776017222719491800,7.590491943359375,-0.9576568603515625,-0.272430419921875,0.06689453125
1776017222729552600,7.600552734375,-0.9610595703125,-0.27032470703125,0.065521240234375
1776017222739613700,7.61061376953125,-0.9641876220703125,-0.270660400390625,0.06689453125
1776017222749674800,7.6206748046875,-0.96051025390625,-0.2745819091796875,0.0641021728515625
1776017222759735800,7.63073583984375,-0.9597015380859375,-0.272125244140625,0.0654449462890625
1776017222769795800,7.6407958984375,-0.9600372314453125,-0.267303466796875,0.0681304931640625
1776017222779857000,7.65085693359375,-0.9577178955078125,-0.2707366943359375,0.064910888671875
1776017222789917700,7.660917724609375,-0.952972412109375,-0.2700347900390625,0.063018798828125
1776017222799978800,7.670978759765625,-0.9572906494140625,-0.2677001953125,0.0576171875
1776017222810039800,7.681039794921875,-0.955902099609375,-0.2669830322265625,0.05804443359375
1776017222820100900,7.691100830078125,-0.9539031982421875,-0.264068603515625,0.0588226318359375
1776017222830162000,7.701161865234375,-0.9524078369140625,-0.264495849609375,0.060760498046875
1776017222840222700,7.71122265625,-0.94903564453125,-0.2697601318359375,0.0666351318359375
1776017222850283800,7.72128369140625,-0.946044921875,-0.2728729248046875,0.067626953125
1776017222860343800,7.73134375,-0.943939208984375,-0.2690887451171875,0.0668487548828125
1776017222870404600,7.741404541015625,-0.9534759521484375,-0.2657012939453125,0.065277099609375
1776017222880465700,7.751465576171875,-0.9611358642578125,-0.2687835693359375,0.06787109375
1776017222890526700,7.761526611328125,-0.966094970703125,-0.273651123046875,0.06964111328125
1776017222900587800,7.771587890625,-0.972442626953125,-0.2733154296875,0.0668792724609375
1776017222910648800,7.78164892578125,-0.9725341796875,-0.2699127197265625,0.062103271484375
1776017222920710000,7.7917099609375,-0.9718017578125,-0.271728515625,0.0636444091796875
1776017222930771000,7.80177099609375,-0.9678802490234375,-0.273651123046875,0.066680908203125
1776017222940832000,7.81183203125,-0.960540771484375,-0.2757110595703125,0.0651702880859375
1776017222950892800,7.821892822265625,-0.9492645263671875,-0.2737579345703125,0.0617218017578125
1776017222960952800,7.831952880859375,-0.9482879638671875,-0.2713623046875,0.06085205078125
1776017222971014000,7.842013916015625,-0.9565887451171875,-0.27044677734375,0.06353759765625
1776017222981074700,7.85207470703125,-0.9576873779296875,-0.270416259765625,0.064056396484375
1776017222991135700,7.8621357421875,-0.94854736328125,-0.270294189453125,0.0607147216796875
1776017223001196800,7.87219677734375,-0.949615478515625,-0.2672119140625,0.0558624267578125
1776017223011257900,7.8822578125,-0.95703125,-0.2674407958984375,0.0551300048828125
1776017223021319000,7.89231884765625,-0.9683074951171875,-0.27001953125,0.054595947265625
1776017223031380000,7.9023798828125,-0.9751129150390625,-0.2720947265625,0.055572509765625
1776017223041439700,7.912439697265625,-0.971832275390625,-0.273284912109375,0.060089111328125
1776017223051500800,7.922500732421875,-0.9664459228515625,-0.270416259765625,0.0613555908203125
1776017223061561900,7.932561767578125,-0.961761474609375,-0.273284912109375,0.06097412109375
1776017223071623000,7.942622802734375,-0.9629974365234375,-0.2734375,0.0622100830078125
1776017223081684000,7.95268408203125,-0.964324951171875,-0.2709503173828125,0.0648193359375
1776017223091745000,7.9627451171875,-0.95880126953125,-0.269195556640625,0.0675506591796875
1776017223101805800,7.972805908203125,-0.9475555419921875,-0.26837158203125,0.066741943359375
1776017223111866600,7.98286669921875,-0.9430999755859375,-0.2675933837890625,0.0637054443359375
1776017223121927700,7.992927734375,-0.94317626953125,-0.2682647705078125,0.063751220703125
1776017223131988700,8.00298876953125,-0.94500732421875,-0.27520751953125,0.0646514892578125
1776017223142048800,8.013048828125,-0.945892333984375,-0.276458740234375,0.069091796875
1776017223152109800,8.02310986328125,-0.948211669921875,-0.2717742919921875,0.0699310302734375
1776017223162171000,8.0331708984375,-0.9549407958984375,-0.272735595703125,0.070465087890625
1776017223172232000,8.04323193359375,-0.9592742919921875,-0.2772979736328125,0.0700531005859375
1776017223182293000,8.05329296875,-0.954803466796875,-0.277008056640625,0.0727386474609375
1776017223192353800,8.063353759765626,-0.94921875,-0.276123046875,0.069000244140625
1776017223202414800,8.073414794921876,-0.9453887939453125,-0.276458740234375,0.0646514892578125
1776017223212476000,8.083475830078125,-0.9427642822265625,-0.2761688232421875,0.0620574951171875
1776017223222536700,8.09353662109375,-0.9527130126953125,-0.2734375,0.065765380859375
1776017223232597000,8.103596923828125,-0.961944580078125,-0.2705535888671875,0.0669403076171875
1776017223242657800,8.11365771484375,-0.966888427734375,-0.270538330078125,0.069122314453125
1776017223252718300,8.12371826171875,-0.9675445556640625,-0.273040771484375,0.0704345703125
1776017223262779000,8.13377880859375,-0.969207763671875,-0.2716522216796875,0.06781005859375
1776017223272840000,8.14383984375,-0.9719390869140625,-0.26837158203125,0.0708465576171875
1776017223282901000,8.15390087890625,-0.9679412841796875,-0.2702484130859375,0.0708160400390625
1776017223292962000,8.163962158203125,-0.9604949951171875,-0.2762908935546875,0.067291259765625
1776017223303023000,8.174023193359375,-0.9611968994140625,-0.2761077880859375,0.0717010498046875
1776017223313084200,8.184084228515625,-0.9581756591796875,-0.2772369384765625,0.073883056640625
1776017223323144200,8.194144287109374,-0.950958251953125,-0.2784423828125,0.0723724365234375
1776017223333205200,8.204205322265626,-0.9549407958984375,-0.2757568359375,0.0718231201171875
1776017223343266000,8.21426611328125,-0.9556427001953125,-0.2734527587890625,0.0695953369140625
1776017223353327000,8.2243271484375,-0.948577880859375,-0.27294921875,0.062164306640625
1776017223363388200,8.23438818359375,-0.940093994140625,-0.2674560546875,0.0531463623046875
1776017223373449000,8.244448974609375,-0.94134521484375,-0.261688232421875,0.0497589111328125
1776017223383510000,8.254510009765625,-0.94744873046875,-0.2573699951171875,0.0477447509765625
1776017223393571000,8.264571044921874,-0.949798583984375,-0.255126953125,0.042205810546875
1776017223403632000,8.274632080078124,-0.9541015625,-0.2539520263671875,0.0433807373046875
1776017223413692000,8.28469189453125,-0.9560089111328125,-0.2561798095703125,0.0467681884765625
1776017223423753000,8.2947529296875,-0.947723388671875,-0.2598724365234375,0.0435791015625
1776017223433814000,8.30481396484375,-0.942047119140625,-0.2566680908203125,0.0422210693359375
1776017223443875000,8.314875,-0.9446868896484375,-0.251129150390625,0.038787841796875
1776017223453936000,8.32493603515625,-0.9349365234375,-0.2545928955078125,0.0329132080078125
1776017223463997200,8.3349970703125,-0.919921875,-0.25830078125,0.0237579345703125
1776017223474058200,8.345058349609374,-0.9115753173828125,-0.25140380859375,0.0172271728515625
1776017223484119300,8.355119384765626,-0.9154205322265625,-0.2418212890625,0.0156707763671875
1776017223494180000,8.36518017578125,-0.9185028076171875,-0.241180419921875,0.019287109375
1776017223504240000,8.375240234375,-0.9208526611328125,-0.237335205078125,0.0204925537109375
1776017223514301200,8.38530126953125,-0.929534912109375,-0.233062744140625,0.021270751953125
1776017223524362000,8.395362060546875,-0.9359130859375,-0.2315673828125,0.021331787109375
1776017223534423000,8.405423095703124,-0.9368133544921875,-0.2247314453125,0.0236053466796875
1776017223544484000,8.415484130859374,-0.9362030029296875,-0.2191162109375,0.024139404296875
1776017223554545200,8.425545166015626,-0.9339447021484375,-0.2208251953125,0.0223541259765625
1776017223564606200,8.435606201171876,-0.9311370849609375,-0.21820068359375,0.0207366943359375
1776017223574667300,8.445667236328125,-0.92779541015625,-0.2125091552734375,0.013427734375
1776017223584728000,8.45572802734375,-0.9224395751953125,-0.210845947265625,0.006378173828125
1776017223594788000,8.4657880859375,-0.91241455078125,-0.2153778076171875,-0.0020751953125
1776017223604849200,8.47584912109375,-0.8978118896484375,-0.2154083251953125,-0.005706787109375
1776017223614910200,8.48591015625,-0.8922271728515625,-0.2082061767578125,-0.006103515625
1776017223624971300,8.49597119140625,-0.8905792236328125,-0.2075042724609375,-0.0004730224609375
1776017223635032000,8.506031982421876,-0.8909149169921875,-0.2107696533203125,0.0047607421875
1776017223645093000,8.516093017578125,-0.891448974609375,-0.2115478515625,0.002899169921875
1776017223655154200,8.526154296875,-0.88690185546875,-0.2151641845703125,-0.0018768310546875
1776017223665215000,8.536215087890625,-0.8775634765625,-0.220306396484375,-0.006317138671875
1776017223675276000,8.546276123046875,-0.86846923828125,-0.21905517578125,-0.0117340087890625
1776017223685336000,8.556336181640624,-0.87640380859375,-0.2196807861328125,-0.01861572265625
1776017223695397000,8.566397216796876,-0.8975982666015625,-0.226837158203125,-0.0228118896484375
1776017223705458200,8.576458251953126,-0.9347381591796875,-0.23870849609375,-0.0272979736328125
1776017223715519200,8.586519287109375,-0.97412109375,-0.24420166015625,-0.0326690673828125
1776017223725580300,8.596580322265625,-1.0122833251953125,-0.2422943115234375,-0.0379180908203125
1776017223735641000,8.60664111328125,-1.0492095947265625,-0.23394775390625,-0.043914794921875
1776017223745702100,8.6167021484375,-1.0754241943359375,-0.235107421875,-0.0447845458984375
1776017223755763000,8.626762939453124,-1.0883026123046875,-0.218841552734375,-0.047698974609375
1776017223765823200,8.6368232421875,-1.085540771484375,-0.2009429931640625,-0.0529327392578125
1776017223775884000,8.646884033203126,-1.0639801025390625,-0.20513916015625,-0.0752105712890625
1776017223785945000,8.656945068359375,-1.0500640869140625,-0.211151123046875,-0.08551025390625
1776017223796006100,8.667006103515625,-1.023406982421875,-0.2016754150390625,-0.0924224853515625
1776017223806067200,8.677067138671875,-0.979217529296875,-0.17254638671875,-0.0974884033203125
1776017223816128000,8.6871279296875,-0.94927978515625,-0.152130126953125,-0.091888427734375
1776017223826189000,8.69718896484375,-0.927154541015625,-0.14691162109375,-0.0784454345703125
1776017223836250000,8.70725,-0.9230804443359375,-0.1653900146484375,-0.0530853271484375
1776017223846311200,8.717311279296876,-0.9396209716796875,-0.1866912841796875,-0.031463623046875
1776017223856371200,8.72737109375,-0.949981689453125,-0.2152252197265625,-0.008453369140625
1776017223866432300,8.737432373046875,-0.95074462890625,-0.2308807373046875,0.0272369384765625
1776017223876493300,8.747493408203125,-0.935211181640625,-0.227508544921875,0.0496368408203125
1776017223886554000,8.75755419921875,-0.9034576416015625,-0.2206268310546875,0.0516204833984375
1776017223896615000,8.767614990234375,-0.8725738525390625,-0.2206268310546875,0.028717041015625
1776017223906676000,8.777676025390624,-0.883209228515625,-0.2443389892578125,0.0425872802734375
1776017223916737000,8.787737060546876,-0.8986358642578125,-0.2923583984375,0.0381622314453125
1776017223926798000,8.797798095703126,-0.8143463134765625,-0.3805389404296875,-0.009552001953125
1776017223936859100,8.807859130859375,-0.8220672607421875,-0.3619842529296875,-0.0050506591796875
1776017223946919200,8.817919189453125,-0.87445068359375,-0.2982025146484375,-0.0264739990234375
1776017223956980200,8.827980224609375,-0.9073944091796875,-0.2182464599609375,-0.0192413330078125
1776017223967041000,8.838041015625,-0.9181671142578125,-0.1831817626953125,-0.0064849853515625
1776017223977102000,8.84810205078125,-0.94683837890625,-0.1796112060546875,0.005279541015625
1776017223987163100,8.8581630859375,-1.0054931640625,-0.1988983154296875,0.0062713623046875
1776017223997224200,8.86822412109375,-1.0587310791015625,-0.221710205078125,0.0032958984375
1776017224007285000,8.878284912109375,-1.107330322265625,-0.2592010498046875,-0.0107269287109375
1776017224017346000,8.888345947265625,-1.134918212890625,-0.286590576171875,-0.02325439453125
1776017224027407000,8.898406982421875,-1.1552276611328125,-0.2497406005859375,-0.0270233154296875
1776017224037467000,8.908466796875,-1.1757965087890625,-0.2218475341796875,-0.05816650390625
1776017224047528000,8.91852783203125,-1.171051025390625,-0.20416259765625,-0.052276611328125
1776017224057589000,8.928589111328124,-1.1562042236328125,-0.1992645263671875,-0.0462493896484375
1776017224067650000,8.938650146484376,-1.1234130859375,-0.2080535888671875,-0.039947509765625
1776017224077711000,8.948711181640626,-1.0699005126953125,-0.2153472900390625,-0.0334014892578125
1776017224087772200,8.958772216796875,-1.0269622802734375,-0.2168121337890625,-0.0342559814453125
1776017224097833200,8.968833251953125,-1.0055389404296875,-0.218017578125,-0.0310516357421875
1776017224107894300,8.978894287109375,-0.999267578125,-0.22613525390625,-0.028411865234375
1776017224117955300,8.988955322265625,-0.986419677734375,-0.234527587890625,-0.0286865234375
1776017224128015000,8.99901513671875,-0.972503662109375,-0.2318572998046875,-0.0206756591796875
1776017224138076200,9.009076171875,-0.957855224609375,-0.2155303955078125,-0.006988525390625
1776017224148137200,9.01913720703125,-0.9353790283203125,-0.191558837890625,0.0103759765625
1776017224158198000,9.029197998046875,-0.939117431640625,-0.1844482421875,0.034759521484375
1776017224168259000,9.039259033203125,-0.9473114013671875,-0.1833953857421875,0.034637451171875
1776017224178320100,9.049320068359375,-0.9539031982421875,-0.170684814453125,0.026092529296875
1776017224188381200,9.059381103515625,-0.96759033203125,-0.13482666015625,0.0186004638671875
1776017224198442200,9.069442138671874,-0.981689453125,-0.1327972412109375,0.0286407470703125
1776017224208503000,9.0795029296875,-0.9934539794921875,-0.163604736328125,0.0629730224609375
1776017224218563000,9.08956298828125,-1.003173828125,-0.20013427734375,0.10467529296875
1776017224228624100,9.0996240234375,-0.9965972900390625,-0.2076568603515625,0.132110595703125
1776017224238685200,9.109685302734375,-0.9935150146484375,-0.1898956298828125,0.15802001953125
1776017224248746800,9.119746826171875,-0.9919586181640625,-0.1490020751953125,0.1636199951171875
1776017224258807800,9.129807861328125,-0.9987945556640625,-0.0789947509765625,0.1527252197265625
1776017224268868900,9.139868896484375,-1.0129547119140625,-0.03497314453125,0.1528778076171875
1776017224278930000,9.149929931640624,-1.0164337158203125,-0.061370849609375,0.1769561767578125
1776017224288991000,9.159990966796874,-1.014984130859375,-0.1078033447265625,0.2005462646484375
1776017224299052000,9.170052001953126,-0.9822845458984375,-0.1201019287109375,0.2210540771484375
1776017224309111800,9.18011181640625,-0.98297119140625,-0.1698150634765625,0.239105224609375
1776017224319172900,9.1901728515625,-0.9744873046875,-0.0773468017578125,0.209381103515625
1776017224329234000,9.20023388671875,-0.9859771728515625,0.0569610595703125,0.1501922607421875
1776017224339295000,9.210294921875,-0.952606201171875,0.011322021484375,0.1881256103515625
1776017224349356000,9.22035595703125,-0.9660491943359375,-0.0756988525390625,0.20928955078125
1776017224359417000,9.2304169921875,-0.9546966552734375,-0.1793212890625,0.3168487548828125
1776017224369478000,9.240477783203126,-0.94659423828125,-0.339111328125,0.3720855712890625
1776017224379539000,9.2505390625,-0.980377197265625,-0.48663330078125,0.414794921875
1776017224389600000,9.26060009765625,-0.9427032470703125,-0.423675537109375,0.5068511962890625
1776017224399659800,9.27065966796875,-0.906646728515625,-0.223968505859375,0.462646484375
1776017224409720800,9.280720947265625,-0.8980712890625,-0.118621826171875,0.350830078125
1776017224419782000,9.290781982421874,-0.86285400390625,-0.1401214599609375,0.3203277587890625
1776017224429843000,9.300843017578124,-0.848236083984375,-0.179168701171875,0.3382568359375
1776017224439904000,9.310904052734376,-0.84722900390625,-0.1813507080078125,0.3381805419921875
1776017224449965000,9.320965087890626,-0.8574981689453125,-0.1663818359375,0.323699951171875
1776017224460026000,9.331026123046875,-0.9063720703125,-0.14569091796875,0.31207275390625
1776017224470087200,9.341087158203125,-0.9503326416015625,-0.1418304443359375,0.309295654296875
1776017224480147000,9.35114697265625,-0.9966278076171875,-0.1473846435546875,0.3042449951171875
1776017224490208000,9.3612080078125,-1.05596923828125,-0.15374755859375,0.2912139892578125
1776017224500269000,9.37126904296875,-1.1260986328125,-0.1560211181640625,0.2685546875
1776017224510329900,9.381329833984376,-1.1920013427734375,-0.1584930419921875,0.2421875
1776017224520391000,9.391390869140626,-1.2152099609375,-0.157958984375,0.217010498046875
1776017224530452000,9.401451904296875,-1.2309112548828125,-0.1486663818359375,0.193267822265625
1776017224540513000,9.411512939453125,-1.22991943359375,-0.12176513671875,0.1860504150390625
1776017224550574000,9.421573974609375,-1.1794891357421875,-0.1095428466796875,0.1840972900390625
1776017224560635000,9.431634765625,-1.12664794921875,-0.1130218505859375,0.194000244140625
1776017224570695000,9.44169482421875,-1.07928466796875,-0.118621826171875,0.20489501953125
1776017224580756000,9.451755859375,-1.0355224609375,-0.1278076171875,0.209228515625
1776017224590817000,9.461817138671876,-0.9909820556640625,-0.1290740966796875,0.2054290771484375
1776017224600878000,9.471878173828125,-0.945648193359375,-0.118377685546875,0.1798858642578125
1776017224610939100,9.481939208984375,-0.920318603515625,-0.102813720703125,0.15338134765625
1776017224621000000,9.492,-0.8916473388671875,-0.0992279052734375,0.1366424560546875
1776017224631060700,9.502060791015625,-0.8667144775390625,-0.1102142333984375,0.125518798828125
1776017224641121800,9.512121826171875,-0.8636322021484375,-0.1204681396484375,0.127044677734375
1776017224651182800,9.522182861328124,-0.865875244140625,-0.1180267333984375,0.130828857421875
1776017224661243000,9.532242919921876,-0.862274169921875,-0.1183319091796875,0.126953125
1776017224671304000,9.542303955078125,-0.8617706298828125,-0.1451263427734375,0.1226959228515625
1776017224681365000,9.552364990234375,-0.8772430419921875,-0.1782073974609375,0.1247406005859375
1776017224691426000,9.562426025390625,-0.923309326171875,-0.2042388916015625,0.1344146728515625
1776017224701487000,9.572487060546875,-0.9487457275390625,-0.2052459716796875,0.130126953125
1776017224711548000,9.5825478515625,-0.9723663330078125,-0.1828460693359375,0.124664306640625
1776017224721609000,9.59260888671875,-1.0326080322265625,-0.1697540283203125,0.1017303466796875
1776017224731670000,9.602669921875,-1.122314453125,-0.157440185546875,0.03680419921875
1776017224741730800,9.612730712890626,-1.2319793701171875,-0.114471435546875,-0.0177459716796875
1776017224751791000,9.622791015625,-1.3245086669921875,-0.0659637451171875,-0.036102294921875
1776017224761852000,9.632851806640625,-1.35052490234375,-0.0162811279296875,-0.0064849853515625
1776017224771913000,9.642912841796875,-1.330413818359375,0.0391998291015625,-0.0063934326171875
1776017224781973800,9.652973876953125,-1.1790771484375,0.01904296875,0.055877685546875
1776017224792034800,9.663034912109374,-1.02044677734375,0.0298919677734375,0.0523681640625
1776017224802095900,9.673095947265624,-0.9422454833984375,0.07501220703125,0.0356292724609375
1776017224812157000,9.683156982421876,-0.9119110107421875,0.0935211181640625,0.014312744140625
1776017224822218000,9.693218017578126,-0.8332672119140625,0.05511474609375,-0.03240966796875
1776017224832278000,9.703278076171875,-0.694305419921875,-0.019683837890625,-0.009979248046875
1776017224842339000,9.713339111328125,-0.593780517578125,0.0060882568359375,-0.0221405029296875
1776017224852400000,9.723400146484375,-0.614990234375,0.242645263671875,-0.1303253173828125
1776017224862461000,9.7334609375,-1.3798980712890625,0.0945587158203125,0.07464599609375
1776017224872522000,9.74352197265625,-2.126220703125,-0.3148193359375,0.4754791259765625
1776017224882582800,9.753582763671876,-1.1705169677734375,-0.7041778564453125,0.5433502197265625
1776017224892643800,9.763643798828125,-0.63226318359375,-0.5020904541015625,0.5155792236328125
1776017224902705000,9.773704833984375,-0.622314453125,-0.251495361328125,0.42279052734375
1776017224912766000,9.783765869140625,-0.47808837890625,-0.0997314453125,0.2118988037109375
1776017224922826000,9.793825927734375,-0.43096923828125,-0.0929412841796875,-0.0580902099609375
1776017224932886800,9.80388671875,-0.2862396240234375,-0.004547119140625,-0.3227386474609375
1776017224942947800,9.81394775390625,-0.1844024658203125,0.0732269287109375,-0.44512939453125
1776017224953009000,9.8240087890625,-0.4485015869140625,0.081878662109375,-0.4012603759765625
1776017224963070000,9.834070068359376,-0.7972259521484375,0.0349273681640625,-0.2817840576171875
1776017224973131000,9.844131103515625,-1.1508636474609375,-0.0765533447265625,-0.266937255859375
1776017224983192000,9.854192138671875,-1.721466064453125,-0.15521240234375,-0.1081085205078125
1776017224993253000,9.864253173828125,-1.4323883056640625,0.08636474609375,-0.2093658447265625
1776017225003314000,9.87431396484375,-0.8621978759765625,0.1856842041015625,-0.317718505859375
1776017225013374000,9.8843740234375,-0.7169647216796875,0.24261474609375,-0.1149139404296875
1776017225023434800,9.894434814453126,-0.6644439697265625,0.423553466796875,0.0023345947265625
1776017225033495800,9.904495849609376,-0.65350341796875,0.3850860595703125,-0.002960205078125
1776017225043556900,9.914556884765625,-0.650482177734375,0.3295135498046875,-0.1397247314453125
1776017225053618000,9.924617919921875,-0.575531005859375,0.4305419921875,-0.287750244140625
1776017225063679000,9.934678955078125,-0.45367431640625,0.50115966796875,-0.4092864990234375
1776017225073740000,9.944739990234375,-0.365325927734375,0.5128021240234375,-0.47552490234375
1776017225083801000,9.954801025390625,-0.3757171630859375,0.584930419921875,-0.5144805908203125
1776017225093862100,9.964862060546874,-0.3923492431640625,0.6252899169921875,-0.464447021484375
1776017225103922000,9.974921875,-0.4329986572265625,0.6505126953125,-0.48309326171875
1776017225113983000,9.98498291015625,-0.4386444091796875,0.70330810546875,-0.519989013671875
1776017225124044000,9.9950439453125,-0.45697021484375,0.756866455078125,-0.5618133544921875
1776017225134105000,10.00510498046875,-0.5599822998046875,0.7955322265625,-0.714813232421875
1776017225144166000,10.015165771484375,-0.7781982421875,0.842926025390625,-0.9394073486328125
1776017225154227000,10.02522705078125,-0.89910888671875,0.81640625,-1.0740814208984375
1776017225164288000,10.0352880859375,-0.8438873291015625,0.760223388671875,-1.244598388671875
1776017225174348800,10.045348876953126,-0.8522186279296875,0.70355224609375,-1.3485870361328125
1776017225184408800,10.055408935546875,-0.6797637939453125,0.625701904296875,-1.326141357421875
1776017225194470000,10.065469970703125,-0.5765533447265625,0.6164398193359375,-1.281280517578125
1776017225204531000,10.075531005859375,-0.551300048828125,0.599029541015625,-1.302825927734375
1776017225214592000,10.085592041015625,-0.5021820068359375,0.550262451171875,-1.346954345703125
1776017225224653000,10.095653076171875,-0.469085693359375,0.54986572265625,-1.4195709228515625
1776017225234714000,10.105714111328124,-0.5792999267578125,0.520355224609375,-1.516448974609375
1776017225244775200,10.115775146484374,-0.68359375,0.5205230712890625,-1.5817718505859375
1776017225254836000,10.1258359375,-0.5887603759765625,0.52691650390625,-1.50567626953125
1776017225264896500,10.135896484375,-0.3820648193359375,0.537689208984375,-1.50469970703125
1776017225274956800,10.145956787109375,-0.2685089111328125,0.395843505859375,-1.4814300537109375
1776017225285017900,10.156017822265625,0.05718994140625,0.4559326171875,-1.360198974609375
1776017225295078700,10.16607861328125,0.3845062255859375,0.5626678466796875,-1.27850341796875
1776017225305139700,10.1761396484375,0.4110565185546875,0.4027862548828125,-1.2568359375
1776017225315200800,10.18620068359375,0.3949127197265625,0.3412628173828125,-1.3362884521484375
1776017225325261800,10.19626171875,0.3436431884765625,0.305450439453125,-1.3811492919921875
1776017225335323000,10.206322998046875,0.2812957763671875,0.2738800048828125,-1.4146728515625
1776017225345383700,10.2163837890625,0.21728515625,0.277984619140625,-1.440185546875
1776017225355444700,10.22644482421875,0.1251068115234375,0.2297515869140625,-1.4075164794921875
1776017225365504800,10.2365048828125,0.155029296875,0.1963653564453125,-1.288055419921875
1776017225375565800,10.24656591796875,0.126739501953125,0.238189697265625,-1.238250732421875
1776017225385627000,10.256626953125,0.1126861572265625,0.2740478515625,-1.1671905517578125
1776017225395688000,10.26668798828125,0.1086578369140625,0.29644775390625,-1.106597900390625
1776017225405748700,10.276748779296875,0.0344390869140625,0.2492828369140625,-1.047271728515625
1776017225415809500,10.2868095703125,0.0321502685546875,0.1923675537109375,-0.9523162841796875
1776017225425870600,10.29687060546875,0.0287322998046875,0.159637451171875,-0.84674072265625
1776017225435931600,10.306931640625,0.04937744140625,0.147430419921875,-0.76702880859375
1776017225445992700,10.31699267578125,0.12945556640625,0.1653900146484375,-0.70123291015625
1776017225456052700,10.327052734375,0.1531829833984375,0.2174835205078125,-0.6730499267578125
1776017225466113800,10.33711376953125,0.166107177734375,0.2452545166015625,-0.687835693359375
1776017225476174800,10.3471748046875,0.185394287109375,0.290679931640625,-0.72088623046875
1776017225486236000,10.35723583984375,0.2216033935546875,0.2890167236328125,-0.7617340087890625
1776017225496296700,10.367296630859375,0.2751007080078125,0.239959716796875,-0.79718017578125
1776017225506357800,10.377357666015625,0.295745849609375,0.204803466796875,-0.81964111328125
1776017225516418800,10.387418701171875,0.3253021240234375,0.1604461669921875,-0.8322296142578125
1776017225526479600,10.397479736328124,0.3860015869140625,0.167510986328125,-0.7867279052734375
1776017225536540000,10.407539794921876,0.5217132568359375,0.2026519775390625,-0.6752471923828125
1776017225546600700,10.4176005859375,0.56707763671875,0.3072509765625,-0.6901092529296875
1776017225556661800,10.427661865234375,0.5054168701171875,0.4570770263671875,-0.677276611328125
1776017225566722600,10.43772265625,0.46807861328125,0.5877227783203125,-0.6274871826171875
1776017225576783600,10.44778369140625,0.4737091064453125,0.6785125732421875,-0.5424041748046875
1776017225586844700,10.4578447265625,0.4575042724609375,0.7384796142578125,-0.4795379638671875
1776017225596905700,10.46790576171875,0.4896087646484375,0.765838623046875,-0.393096923828125
1776017225606966800,10.477966796875,0.48870849609375,0.83154296875,-0.3120574951171875
1776017225617027800,10.48802783203125,0.4489288330078125,0.921112060546875,-0.309783935546875
1776017225627088000,10.498087890625,0.408905029296875,0.8983154296875,-0.3050079345703125
1776017225637149000,10.50814892578125,0.322662353515625,0.8401641845703125,-0.3516693115234375
1776017225647209700,10.518209716796875,0.26123046875,0.738128662109375,-0.40618896484375
1776017225657270800,10.528270751953125,0.300537109375,0.3961029052734375,-0.39044189453125
1776017225667331600,10.53833154296875,0.1450042724609375,0.606231689453125,-0.6026458740234375
1776017225677392600,10.548392578125,-0.075164794921875,0.979888916015625,-0.5737152099609375
1776017225687453700,10.55845361328125,-0.2530517578125,0.9264373779296875,-0.3518524169921875
1776017225697514800,10.5685146484375,-0.4329071044921875,0.955413818359375,-0.42303466796875
1776017225707575800,10.578575927734375,-0.6727447509765625,0.87603759765625,-0.4037628173828125
1776017225717635600,10.588635498046875,-0.6099395751953125,0.7933197021484375,-0.28515625
1776017225727696600,10.598696533203125,-0.4274749755859375,0.7895050048828125,-0.212188720703125
1776017225737757700,10.6087578125,-0.3305816650390625,0.72076416015625,-0.2547149658203125
1776017225747818800,10.61881884765625,-0.3035888671875,0.6444091796875,-0.42620849609375
1776017225757879800,10.6288798828125,-0.457122802734375,0.5499420166015625,-0.4616546630859375
1776017225767940900,10.63894091796875,-0.5357513427734375,0.600189208984375,-0.3533172607421875
1776017225778001700,10.649001708984375,-0.556365966796875,0.714996337890625,-0.3081512451171875
1776017225788062700,10.659062744140625,-0.5950775146484375,0.7218017578125,-0.3151702880859375
1776017225798122800,10.669122802734375,-0.62890625,0.6905059814453125,-0.4072265625
1776017225808183600,10.67918359375,-0.8081512451171875,0.65570068359375,-0.3736114501953125
1776017225818244600,10.68924462890625,-0.9828033447265625,0.7398529052734375,-0.2381744384765625
1776017225828305700,10.6993056640625,-0.98028564453125,0.7377166748046875,-0.17803955078125
1776017225838366700,10.70936669921875,-1.0043182373046875,0.7025299072265625,-0.2398834228515625
1776017225848427800,10.719427734375,-0.9435577392578125,0.646453857421875,-0.2563934326171875
1776017225858488800,10.72948876953125,-0.8997039794921875,0.6017913818359375,-0.1654510498046875
1776017225868550000,10.7395498046875,-0.9637908935546875,0.614593505859375,-0.0508270263671875
1776017225878611000,10.74961083984375,-0.9762725830078125,0.7376251220703125,0.00543212890625
1776017225888670700,10.759670654296874,-0.90167236328125,0.8095245361328125,0.0763092041015625
1776017225898731800,10.769731689453126,-0.6829071044921875,0.746124267578125,0.1286163330078125
1776017225908792800,10.779792724609376,-0.1886138916015625,0.86737060546875,-0.1669464111328125
1776017225918853600,10.789853515625,-1.5908355712890625,0.2625579833984375,-0.6620330810546875
1776017225928914700,10.799914794921875,-0.976043701171875,-0.2734832763671875,0.2891845703125
1776017225938975700,10.809975830078125,-1.20416259765625,0.5571136474609375,0.1119537353515625
1776017225949036800,10.820036865234375,-0.862274169921875,0.7939605712890625,0.1961212158203125
1776017225959097600,10.83009765625,-0.753326416015625,0.8019866943359375,0.383087158203125
1776017225969157600,10.84015771484375,-0.3915252685546875,0.6182861328125,0.647064208984375
1776017225979218700,10.85021875,-0.0057373046875,0.509796142578125,0.6858062744140625
1776017225989279700,10.86027978515625,-0.0361175537109375,0.50787353515625,0.733245849609375
1776017225999340800,10.8703408203125,0.1041412353515625,0.6534881591796875,1.013427734375
1776017226009401900,10.88040185546875,0.3384552001953125,0.9080352783203125,1.2573394775390625
1776017226019463000,10.890462890625,0.2223358154296875,1.0684356689453125,1.16693115234375
1776017226029524000,10.90052392578125,-0.0828857421875,1.0381927490234375,0.9671478271484375
1776017226039584500,10.91058447265625,-0.195404052734375,0.99847412109375,0.945587158203125
1776017226049645600,10.9206455078125,-0.2814788818359375,0.862884521484375,0.8450164794921875
1776017226059705900,10.930705810546876,-0.4501190185546875,0.737396240234375,0.733489990234375
1776017226069766700,10.9407666015625,-0.583526611328125,0.6290130615234375,0.44842529296875
1776017226079827700,10.95082763671875,-0.6759033203125,0.5358123779296875,0.3416290283203125
1776017226089888800,10.960888671875,-0.768707275390625,0.5376739501953125,0.41961669921875
1776017226099949800,10.97094970703125,-0.9029998779296875,0.704010009765625,0.2815399169921875
1776017226110010600,10.9810107421875,-1.048675537109375,0.6985015869140625,0.19659423828125
1776017226120071700,10.99107177734375,-1.0371856689453125,0.6687774658203125,0.2891845703125
1776017226130132700,11.0011328125,-0.8113555908203125,0.67718505859375,0.407196044921875
1776017226140193800,11.01119384765625,-0.700592041015625,0.6736602783203125,0.4491119384765625
1776017226150253800,11.02125390625,-0.60687255859375,0.6612548828125,0.4213409423828125
1776017226160315000,11.03131494140625,-0.5081939697265625,0.6962432861328125,0.402252197265625
1776017226170376000,11.0413759765625,-0.3407135009765625,0.755889892578125,0.477508544921875
1776017226180436700,11.051436767578124,-0.229705810546875,0.818115234375,0.5645904541015625
1776017226190497500,11.06149755859375,-0.2372283935546875,0.895538330078125,0.6042938232421875
1776017226200558600,11.07155859375,-0.3978271484375,0.88775634765625,0.7769622802734375
1776017226210619600,11.08161962890625,-0.4635467529296875,0.888946533203125,0.911346435546875
1776017226220680700,11.0916806640625,-0.411407470703125,0.908660888671875,0.8188934326171875
1776017226230740700,11.10174072265625,-0.266845703125,0.9293670654296875,0.6422576904296875
1776017226240801800,11.1118017578125,-0.4154205322265625,0.8027496337890625,0.5787353515625
1776017226250862800,11.12186279296875,-0.422760009765625,0.71246337890625,0.7470245361328125
1776017226260923600,11.131923583984374,-0.3553619384765625,0.7750091552734375,0.6426544189453125
1776017226270984700,11.141984619140626,-0.048492431640625,0.9861602783203125,0.6160430908203125
1776017226281045800,11.152045654296876,0.335662841796875,1.222564697265625,0.7244415283203125
1776017226291106800,11.16210693359375,-0.068817138671875,1.1001739501953125,0.5807952880859375
1776017226301167600,11.172167724609375,-1.0910491943359375,0.52734375,0.2925567626953125
1776017226311228700,11.182228759765625,-0.7894744873046875,0.1944732666015625,0.40203857421875
1776017226321288700,11.192288818359375,-0.2704010009765625,0.4944000244140625,0.552093505859375
1776017226331349800,11.202349853515624,-0.419036865234375,0.9512176513671875,1.0015411376953125
1776017226341410600,11.21241064453125,-0.3967437744140625,0.83026123046875,1.3227996826171875
1776017226351471600,11.2224716796875,-0.1708984375,0.466522216796875,0.9413604736328125
1776017226361532700,11.23253271484375,-0.0235443115234375,0.4578399658203125,0.5341644287109375
1776017226371593700,11.24259375,-0.128173828125,0.5335693359375,0.425323486328125
1776017226381654800,11.25265478515625,-0.307403564453125,0.629547119140625,0.4537353515625
1776017226391715800,11.2627158203125,-0.6433563232421875,0.93927001953125,0.5506744384765625
1776017226401775900,11.27277587890625,-0.5163421630859375,1.1876220703125,0.652252197265625
1776017226411836700,11.282836669921876,-0.2151641845703125,1.1096954345703125,0.68292236328125
1776017226421897700,11.292897705078126,-0.1882476806640625,0.8376312255859375,0.6942291259765625
1776017226431958800,11.302958740234375,-0.22039794921875,0.625579833984375,0.6358489990234375
1776017226442019600,11.31301953125,-0.2767791748046875,0.5818023681640625,0.59503173828125
1776017226452080600,11.32308056640625,-0.3465423583984375,0.6253509521484375,0.577178955078125
1776017226462141700,11.3331416015625,-0.3533172607421875,0.6674957275390625,0.57916259765625
1776017226472202800,11.34320263671875,-0.3514251708984375,0.6215667724609375,0.6230926513671875
1776017226482262800,11.3532626953125,-0.3002166748046875,0.64404296875,0.67877197265625
1776017226492323600,11.363323486328126,-0.221893310546875,0.67333984375,0.7162017822265625
1776017226502384600,11.373384521484375,-0.186859130859375,0.646392822265625,0.743927001953125
1776017226512445700,11.38344580078125,-0.1680450439453125,0.62567138671875,0.6840667724609375
1776017226522506800,11.3935068359375,-0.0670318603515625,0.3754425048828125,0.330108642578125
1776017226532567800,11.40356787109375,-0.03887939453125,0.18096923828125,0.707366943359375
1776017226542628900,11.41362890625,-0.01715087890625,0.54052734375,0.80859375
1776017226552689700,11.423689697265624,0.0504302978515625,0.8880157470703125,0.6454315185546875
1776017226562750700,11.433750732421874,0.0377044677734375,1.0449066162109375,0.589111328125
1776017226572810800,11.443810791015625,-0.0314788818359375,0.964080810546875,0.575897216796875
1776017226582871600,11.45387158203125,-0.1064910888671875,0.7589569091796875,0.61859130859375
1776017226592932600,11.4639326171875,-0.3675994873046875,0.62652587890625,0.71807861328125
1776017226602993700,11.47399365234375,-0.5380859375,0.504913330078125,0.7624664306640625
1776017226613054700,11.4840546875,-0.4770660400390625,0.48114013671875,0.75225830078125
1776017226623115800,11.49411572265625,-0.4107666015625,0.5599822998046875,0.7336273193359375
1776017226633176800,11.5041767578125,-0.42608642578125,0.706817626953125,0.747894287109375
1776017226643238000,11.51423779296875,-0.43060302734375,0.7574615478515625,0.7724456787109375
1776017226653297700,11.524297607421875,-0.1641693115234375,0.6522064208984375,0.9633331298828125
1776017226663358700,11.534358642578125,-0.196563720703125,0.566619873046875,1.03228759765625
1776017226673419800,11.544419677734375,-0.301361083984375,0.508270263671875,0.7916259765625
1776017226683480800,11.554480712890625,-0.194671630859375,0.5868988037109375,0.6602783203125
1776017226693542000,11.5645419921875,-0.2245635986328125,0.72161865234375,0.5344696044921875
1776017226703602700,11.574602783203124,-0.2252349853515625,0.6238861083984375,0.540740966796875
1776017226713663700,11.584663818359376,-0.0880584716796875,0.6117401123046875,0.5749664306640625
1776017226723724800,11.594724853515626,0.0411376953125,0.556793212890625,0.69427490234375
1776017226733784600,11.60478466796875,0.017181396484375,0.5135650634765625,0.6770477294921875
1776017226743845600,11.614845703125,-0.0762786865234375,0.526458740234375,0.5672454833984375
1776017226753906700,11.62490673828125,-0.1591644287109375,0.5425262451171875,0.4983673095703125
1776017226763967700,11.6349677734375,-0.263519287109375,0.53729248046875,0.4699554443359375
1776017226774028800,11.64502880859375,-0.25384521484375,0.487579345703125,0.4694366455078125
1776017226784089900,11.65508984375,-0.2714080810546875,0.5469970703125,0.4520263671875
1776017226794151000,11.66515087890625,-0.2693023681640625,0.62225341796875,0.5157470703125
1776017226804212000,11.6752119140625,-0.1600799560546875,0.7002105712890625,0.597686767578125
1776017226814272800,11.685272705078125,-0.04302978515625,0.89495849609375,0.693511962890625
1776017226824332800,11.695332763671875,-0.044586181640625,1.047119140625,0.783111572265625
1776017226834393900,11.705393798828124,-0.15576171875,0.9472198486328125,0.9060821533203125
1776017226844454700,11.71545458984375,-0.2069091796875,0.80340576171875,0.863983154296875
1776017226854515700,11.725515625,-0.2299041748046875,0.6179351806640625,0.7137451171875
1776017226864576800,11.73557666015625,-0.1572113037109375,0.4451141357421875,0.6568450927734375
1776017226874637800,11.745637939453125,-0.0831146240234375,0.3336944580078125,0.6139984130859375
1776017226884698600,11.75569873046875,-0.2904510498046875,0.399993896484375,0.557891845703125
1776017226894759700,11.765759765625,-0.30780029296875,0.6038360595703125,0.4683837890625
1776017226904819700,11.77581982421875,-0.1475372314453125,0.6311187744140625,0.3128509521484375
1776017226914880800,11.785880859375,-0.05133056640625,0.516937255859375,0.163818359375
1776017226924941800,11.79594189453125,-0.0410614013671875,0.4637298583984375,0.1376190185546875
1776017226935003000,11.8060029296875,-0.1438751220703125,0.66015625,0.237579345703125
1776017226945064000,11.81606396484375,-0.3435516357421875,0.9550323486328125,0.3745880126953125
1776017226955124700,11.826124755859375,-0.47210693359375,1.0472564697265625,0.453460693359375
1776017226965185500,11.836185546875,-0.4691619873046875,1.01416015625,0.4841766357421875
1776017226975246600,11.84624658203125,-0.4832000732421875,1.0181884765625,0.499847412109375
1776017226985307600,11.8563076171875,-0.459869384765625,1.105316162109375,0.490020751953125
1776017226995367700,11.86636767578125,-0.4654998779296875,1.1242523193359375,0.462921142578125
1776017227005428700,11.8764287109375,-0.6071014404296875,1.224212646484375,0.5102081298828125
1776017227015489800,11.88648974609375,-0.6548919677734375,1.4738922119140625,0.5139007568359375
1776017227025550800,11.89655078125,-0.5552520751953125,1.5753936767578125,0.5052490234375
1776017227035611600,11.906611572265625,-0.3819427490234375,1.476043701171875,0.4465179443359375
1776017227045672700,11.916672607421875,-0.1082000732421875,1.2769775390625,0.3277740478515625
1776017227055733800,11.926733642578125,0.1648712158203125,1.1444091796875,0.3678741455078125
1776017227065794800,11.936794921875,0.1699371337890625,1.0116119384765625,0.5413055419921875
1776017227075854800,11.946854736328126,-0.0727996826171875,0.8209381103515625,0.6127471923828125
1776017227085916000,11.956916015625,-0.167510986328125,0.7075958251953125,0.565338134765625
1776017227095976700,11.966976806640625,-0.220916748046875,0.74835205078125,0.4744415283203125
1776017227106037800,11.977037841796875,-0.2162017822265625,0.825439453125,0.3709564208984375
1776017227116098600,11.9870986328125,-0.266876220703125,0.8919677734375,0.3208465576171875
1776017227126159600,11.99715966796875,-0.349395751953125,0.9013671875,0.2682342529296875
1776017227136220700,12.007220703125,-0.382720947265625,0.890899658203125,0.260986328125
1776017227146281700,12.01728173828125,-0.4007720947265625,0.89276123046875,0.2752685546875
1776017227156342800,12.0273427734375,-0.3789215087890625,0.881988525390625,0.262847900390625
1776017227166402800,12.03740283203125,-0.35986328125,0.8686370849609375,0.2445831298828125
1776017227176464000,12.0474638671875,-0.39898681640625,0.8504638671875,0.23248291015625
1776017227186524700,12.057524658203125,-0.4000244140625,0.8461761474609375,0.2236785888671875
1776017227196585700,12.067585693359375,-0.3675689697265625,0.8629150390625,0.268310546875
1776017227206646800,12.077646728515624,-0.283599853515625,0.8900146484375,0.3239288330078125
1776017227216707600,12.08770751953125,-0.2345123291015625,0.9238739013671875,0.353302001953125
1776017227226768600,12.0977685546875,-0.2502593994140625,0.9317626953125,0.330169677734375
1776017227236829700,12.10782958984375,-0.2398681640625,0.899871826171875,0.3170928955078125
1776017227246889700,12.1178896484375,-0.2106781005859375,0.85247802734375,0.321502685546875
1776017227256951000,12.127950927734375,-0.093963623046875,0.85894775390625,0.3357391357421875
1776017227267012000,12.13801220703125,0.1820526123046875,0.9913177490234375,0.36981201171875
1776017227277073200,12.1480732421875,0.2177734375,1.1528778076171875,0.386627197265625
1776017227287134200,12.15813427734375,-0.0491485595703125,0.9554595947265625,0.3636474609375
1776017227297195000,12.168195068359376,-0.1611328125,0.655548095703125,0.4261627197265625
1776017227307256000,12.178256103515626,-0.0800628662109375,0.63165283203125,0.5314788818359375
1776017227317317000,12.188317138671875,-0.058807373046875,0.763702392578125,0.57110595703125
1776017227327377200,12.198377197265625,-0.0646514892578125,0.821197509765625,0.56256103515625
1776017227337438200,12.208438232421875,0.0467376708984375,0.857666015625,0.524078369140625
1776017227347499000,12.2184990234375,0.003875732421875,0.8942413330078125,0.4486083984375
1776017227357560000,12.22856005859375,-0.1412353515625,0.9458160400390625,0.406768798828125
1776017227367621000,12.23862109375,-0.2944793701171875,0.9452362060546875,0.4176025390625
1776017227377682000,12.248681884765626,-0.401458740234375,0.8838958740234375,0.4591522216796875
1776017227387743000,12.258742919921875,-0.520721435546875,0.880828857421875,0.4612579345703125
1776017227397804000,12.268803955078125,-0.6915283203125,0.900543212890625,0.3310546875
1776017227407865000,12.278864990234375,-0.6474151611328125,0.7793426513671875,0.1014251708984375
1776017227417925000,12.288925048828125,-0.3796539306640625,0.5865936279296875,-0.0484161376953125
1776017227427986200,12.298986083984374,-0.1795196533203125,0.376983642578125,-0.097930908203125
1776017227438047200,12.309047119140626,-0.1688995361328125,0.2802734375,-0.0345306396484375
1776017227448108000,12.31910791015625,-0.278045654296875,0.4635467529296875,0.090057373046875
1776017227458169000,12.329169189453125,-0.3992767333984375,0.6880035400390625,0.2071685791015625
1776017227468230000,12.33922998046875,-0.4592742919921875,1.01654052734375,0.3950042724609375
1776017227478291000,12.349291015625,-0.57012939453125,1.2835235595703125,0.520782470703125
1776017227488352000,12.35935205078125,-0.699615478515625,1.31561279296875,0.5191497802734375
1776017227498412000,12.369412109375,-0.69171142578125,1.197967529296875,0.4725494384765625
1776017227508473000,12.37947314453125,-0.524749755859375,0.9677581787109375,0.399261474609375
1776017227518534100,12.3895341796875,-0.393218994140625,0.7291412353515625,0.304962158203125
1776017227528595000,12.399594970703125,-0.3047027587890625,0.6384429931640625,0.2430877685546875
1776017227538656000,12.409656005859375,-0.1701202392578125,0.6108856201171875,0.221282958984375
1776017227548717000,12.419717041015625,-0.0625152587890625,0.5343170166015625,0.20794677734375
1776017227558778000,12.429778076171875,-0.0973052978515625,0.4516143798828125,0.1896209716796875
1776017227568839200,12.439839111328125,-0.2547607421875,0.00390625,0.013275146484375
1776017227578899200,12.449899169921874,-0.4690704345703125,-0.4248504638671875,-0.2040252685546875
1776017227588960300,12.459960205078126,-0.27899169921875,0.046234130859375,0.128509521484375
1776017227599021000,12.47002099609375,-0.1902313232421875,0.646026611328125,0.502777099609375
1776017227609081900,12.480081787109375,-0.209075927734375,0.9428558349609375,0.650665283203125
1776017227619143000,12.490142822265625,-0.09344482421875,1.1609039306640625,0.8773345947265625
1776017227629204000,12.500203857421875,0.0182647705078125,1.4581756591796875,1.073333740234375
1776017227639265000,12.51026513671875,0.06817626953125,1.4890594482421875,1.0294189453125
1776017227649326000,12.520326171875,0.0382232666015625,1.276641845703125,0.7110595703125
1776017227659386000,12.53038623046875,-0.044219970703125,1.0687408447265625,0.45257568359375
1776017227669447200,12.540447265625,-0.137298583984375,0.951904296875,0.2785186767578125
1776017227679508000,12.550508056640625,-0.416717529296875,0.9596710205078125,0.145538330078125
1776017227689569000,12.560569091796875,-1.0681915283203125,1.0022125244140625,0.093963623046875
1776017227699630000,12.570630126953125,-0.7999725341796875,0.8363189697265625,0.1186065673828125
1776017227709691100,12.580691162109375,-0.494873046875,0.27325439453125,0.252166748046875
1776017227719752200,12.590752197265624,-0.3083648681640625,0.0892181396484375,0.19024658203125
1776017227729813000,12.60081298828125,-0.13433837890625,0.382537841796875,0.0015716552734375
1776017227739874000,12.6108740234375,-0.092620849609375,0.454376220703125,-0.0433502197265625
1776017227749934000,12.62093408203125,0.037353515625,0.513885498046875,-0.039947509765625
1776017227759995000,12.630994873046875,0.102996826171875,0.8272705078125,0.0564117431640625
1776017227770056000,12.641055908203125,0.1465606689453125,1.408416748046875,0.1743927001953125
1776017227780117000,12.651116943359375,0.234283447265625,2.2149200439453125,0.25604248046875
1776017227790178000,12.661177978515624,0.519866943359375,3.1192474365234375,0.0769500732421875
1776017227800239000,12.671239013671874,0.712158203125,2.6268157958984375,-0.14056396484375
1776017227810300200,12.681300048828126,1.0230712890625,1.7248687744140625,-0.236236572265625
1776017227820361200,12.691361328125,1.144989013671875,1.4044189453125,-0.3553314208984375
1776017227830421000,12.7014208984375,0.6875,1.1883697509765625,-0.4311981201171875
1776017227840482000,12.71148193359375,0.2287445068359375,1.029510498046875,-0.3892059326171875
1776017227850543000,12.721543212890625,-0.0970916748046875,0.837371826171875,-0.2982940673828125
1776017227860604200,12.731604248046875,-0.1629638671875,0.7137451171875,-0.322174072265625
1776017227870665000,12.7416650390625,-0.2445831298828125,0.6855621337890625,-0.3502349853515625
1776017227880726000,12.75172607421875,-0.231231689453125,0.8160858154296875,-0.487457275390625
1776017227890787000,12.761787109375,-0.04461669921875,1.0152130126953125,-0.51312255859375
1776017227900848000,12.77184814453125,0.14874267578125,1.11322021484375,-0.4774932861328125
1776017227910908000,12.781907958984375,0.2142181396484375,1.0782012939453125,-0.423370361328125
1776017227920969000,12.791968994140625,0.1211395263671875,1.0187835693359375,-0.3736724853515625
1776017227931030000,12.802030029296875,0.0371551513671875,0.9969635009765625,-0.3364715576171875
1776017227941091000,12.812091064453124,0.07452392578125,0.9571685791015625,-0.2827911376953125
1776017227951152000,12.822152099609376,0.137420654296875,0.893035888671875,-0.2371368408203125
1776017227961213200,12.832213134765626,0.1416778564453125,0.8840179443359375,-0.208282470703125
1776017227971274200,12.842274169921875,0.12811279296875,0.9189453125,-0.182647705078125
1776017227981335000,12.8523349609375,0.11468505859375,0.953460693359375,-0.156982421875
1776017227991395000,12.86239501953125,0.0853271484375,1.0434112548828125,-0.1367950439453125
1776017228001456000,12.8724560546875,0.053192138671875,1.0113677978515625,-0.1175384521484375
1776017228011517000,12.882516845703124,0.066436767578125,0.9622344970703125,-0.1157684326171875
1776017228021578000,12.892577880859376,0.0831298828125,1.0146942138671875,-0.135589599609375
1776017228031639000,12.90263916015625,0.099395751953125,1.0054779052734375,-0.1576385498046875
1776017228041700000,12.9127001953125,0.128173828125,0.98162841796875,-0.1956024169921875
1776017228051761200,12.92276123046875,0.162506103515625,0.9382476806640625,-0.2427520751953125
1776017228061822200,12.932822265625,0.2025909423828125,0.9110565185546875,-0.28857421875
1776017228071882000,12.942882080078125,0.2298126220703125,0.8939056396484375,-0.3239593505859375
1776017228081943000,12.952943115234374,0.230621337890625,0.8883819580078125,-0.34088134765625
1776017228092004000,12.963004150390624,0.2263031005859375,0.88165283203125,-0.3477935791015625
1776017228102065200,12.973065185546876,0.205780029296875,0.9004058837890625,-0.35723876953125
1776017228112126200,12.983126220703125,0.1719512939453125,0.9121551513671875,-0.3641815185546875
1776017228122187300,12.993187255859375,0.1100921630859375,0.96649169921875,-0.374542236328125
1776017228132248000,13.003248046875,0.0291900634765625,1.01995849609375,-0.358612060546875
1776017228142309000,13.01330908203125,-0.0514678955078125,1.04180908203125,-0.3185577392578125
1776017228152369000,13.023368896484374,-0.107177734375,1.0425872802734375,-0.255096435546875
1776017228162430000,13.033429931640624,-0.1646881103515625,1.0622406005859375,-0.18310546875
1776017228172491000,13.043490966796876,-0.2320556640625,1.028289794921875,-0.1021881103515625
1776017228182552000,13.053552001953125,-0.315216064453125,0.954132080078125,-0.0156707763671875
1776017228192613000,13.063613037109375,-0.380279541015625,0.918487548828125,0.0423583984375
