time,seconds_elapsed,z,y,x
1776017215245506600,0.116506591796875,-0.18370295496881006,-0.017342472206056118,0.031057766890898345
1776017215255567600,0.126567626953125,-0.1154968492269516,-0.006644260320067406,-0.013187982875108717
1776017215265628400,0.13662841796875,-0.12503098576962948,-0.01639730031043291,-0.0340649858828634
1776017215275689500,0.146689453125,-0.21770050163865087,-0.07076864970624447,-0.04271452161073684
1776017215285750300,0.156750244140625,-0.24527239917516708,-0.08998188422024249,-0.04297368400357664
1776017215295811300,0.166811279296875,-0.08133329834043979,-0.07229103696793317,-0.036446254996210334
1776017215305872400,0.176872314453125,0.03232347597777843,-0.0076771104991436,0.031137919455021618
1776017215315932400,0.186932373046875,-0.10853577804267406,0.001175181259214878,0.11908332941159605
1776017215325993500,0.196993408203125,-0.18254560162723063,-0.05272416671067476,0.0886500510945916
1776017215336054500,0.207054443359375,-0.028700609305500984,-0.07783581161350012,-0.005968041558936238
1776017215346115300,0.217115234375,0.12794132025837898,-0.04910568395256996,-0.006176277482137084
1776017215356176400,0.22717626953125,0.11408815147280692,0.036196518018841745,0.013540157313644885
1776017215366237400,0.237237548828125,-0.06368307535946369,0.04557897113114595,0.03358107482343912
1776017215376298500,0.247298583984375,-0.2409931144207716,-0.061926587080955504,0.044575200916081664
1776017215386359600,0.257359619140625,-0.228356920209527,-0.09481266537755727,0.053194926027581094
1776017215396419600,0.267419677734375,-0.15480360822081565,-0.029567455267906186,0.023160072443634272
1776017215406480600,0.277480712890625,-0.11620178262591362,0.020662556539475917,0.009554375613108276
1776017215416541400,0.28754150390625,0.0005664017111063003,0.07151040798425674,-0.014566066295281052
1776017215426602200,0.297602294921875,0.09762100079655647,0.04217033173143864,-0.03901625161468982
1776017215436663300,0.307663330078125,0.16879063251912593,0.012312369084358215,-0.07446984231173992
1776017215446724400,0.317724365234375,0.15913783803284168,0.05756430021822452,-0.062359425540268416
1776017215456785400,0.327785400390625,0.11701485257446766,0.05095277312397956,-0.03303651961795986
1776017215466846500,0.337846435546875,0.07597966235280036,0.007504676541686057,-0.01191694002598524
1776017215476907500,0.347907470703125,0.042134675896167754,0.014353519523143768,-0.011381517975032328
1776017215486967600,0.357967529296875,0.046828386670351024,0.05206073436588048,-0.021871493937820195
1776017215497028400,0.3680283203125,-0.01859539487659931,0.06588613836169242,-0.0012216507494449615
1776017215507089400,0.37808935546875,-0.054745151144266126,0.04433189367949962,0.008887728397920727
1776017215517150500,0.388150390625,-0.0510077181816101,0.06253916602134704,0.006335048240423202
1776017215527211500,0.39821142578125,0.0034369887113571166,0.05889350299537181,-0.011129296779632567
1776017215537272600,0.4082724609375,0.07489011355042458,0.08191957379579544,-0.01580591028854251
1776017215547333400,0.41833349609375,0.10793664310574531,0.08994944325536489,-0.013515899655222891
1776017215557394400,0.42839453125,0.07093874557614326,0.05437456426620483,0.015133710115402935
1776017215567455500,0.43845556640625,-0.0646978053599596,-0.004360241036117076,0.03580751870125532
1776017215577515300,0.448515380859375,-0.12483926258981227,-0.016990882289409637,0.07153203529417515
1776017215587576300,0.458576416015625,-0.1714712499052286,-0.015171557907760142,0.10694916643835603
1776017215597637400,0.468637451171875,-0.14797113185226918,-0.03438040850758552,0.11619074977524578
1776017215607698400,0.478698486328125,-0.05591127231419086,-0.0036392332851886747,0.06802241973802448
1776017215617759500,0.488759521484375,-0.029569208833575247,0.06347264747917651,0.018613441989943386
1776017215627820500,0.498820556640625,-0.010363573104143143,0.09899667306393384,-0.023617606952786443
1776017215637881600,0.508881591796875,0.09570493804216385,0.12360299879312514,-0.06925064635872841
1776017215647942700,0.518942626953125,0.16762100421786308,0.12136281865090132,-0.06474076771885157
1776017215658003500,0.52900341796875,0.13840426208376883,0.1371294198423624,0.03003193097449839
1776017215668063500,0.5390634765625,0.11600830588042735,0.10803016660809517,0.05182889837138355
1776017215678124500,0.54912451171875,0.10444938551187515,0.0466615056708455,0.055336395035684105
1776017215688185300,0.559185302734375,0.14419044426977634,0.04423018687069416,0.013867124245688318
1776017215698246400,0.569246337890625,0.10927286014556885,0.06481003356277942,0.04342478877194225
1776017215708307500,0.579307373046875,-0.03274550078213215,0.07422814251035452,0.10453794057816267
1776017215718368500,0.589368408203125,-0.09411153137087822,0.06904138752222061,0.12674217360168694
1776017215728429600,0.5994296875,-0.08017243786752223,0.05723842926472425,0.13270466220267116
1776017215738490400,0.609490478515625,-0.04814239187836647,0.06683861678093671,0.09440291553288697
1776017215748550400,0.61955029296875,-0.017052257087826726,0.13702040650993585,0.07851802172400058
1776017215758611500,0.629611572265625,0.05263268903493881,0.1251674716308713,0.04157346181683242
1776017215768672500,0.639672607421875,0.03453121515512466,0.06131488492339849,0.05220467288121581
1776017215778733600,0.649733642578125,-0.0072737903952598566,0.07121727025657892,0.11143931746445596
1776017215788794600,0.659794677734375,-0.04274374770522117,0.07302110480815172,0.0842983586911112
1776017215798855400,0.66985546875,-0.06199497614204883,0.0431739558160305,0.017686828664317727
1776017215808916200,0.679916259765625,-0.06463409247398376,0.06289513985216617,0.05346928598955273
1776017215818977300,0.689977294921875,-0.036928339424729346,0.08587240307480096,0.08470869305767119
1776017215829038300,0.700038330078125,-0.013684241959452628,0.10610416698157786,0.08517346102520823
1776017215839098400,0.710098388671875,0.07265256375670433,0.11852788748592137,0.04600296869687736
1776017215849159400,0.720159423828125,0.055284080326557156,0.10525485667586326,0.0294791193973273
1776017215859220500,0.730220458984375,-0.07798924860954284,0.08017126882374286,0.05818652376979589
1776017215869281500,0.740281494140625,0.014141338077187537,0.06392535968273878,-0.0040728023968636985
1776017215879342600,0.750342529296875,0.11183306602239608,0.11413111383169888,-0.04970058110579848
1776017215889403400,0.7604033203125,0.11520108115077018,0.1528887145102024,-0.03973309464715421
1776017215899464400,0.77046435546875,0.021096564042568204,0.14498597856163978,-0.03121522247493267
1776017215909525500,0.780525390625,-0.10735972000062464,0.1062421141475439,0.01785042172819376
1776017215919586300,0.79058642578125,-0.18063421504795552,0.08007453045099973,0.07368563313148915
1776017215929647400,0.8006474609375,-0.14389292262792586,0.05634177268594503,0.07331921097189188
1776017215939707400,0.810707275390625,-0.028676059386134146,0.02442044776827097,0.020971403292939065
1776017215949768400,0.8207685546875,0.0884393309533596,0.032362054422497746,0.013474544731527566
1776017215959829200,0.830829345703125,0.1560042161822319,0.0468120200574398,0.015227525878697632
1776017215969890300,0.840890380859375,0.11085808351039886,0.06606500205993653,0.011688830358535051
1776017215979951400,0.850951416015625,0.07784545622467995,0.06348141530752181,-0.01895692166537046
1776017215990012400,0.861012451171875,0.03789104697704315,0.08366437163650989,-0.030431743947044013
1776017216000073500,0.871073486328125,-0.08180442298352718,0.08130553355067968,0.028576544534415004
1776017216010134500,0.881134521484375,-0.1968295630455017,0.03253858003318309,0.09449168979488312
1776017216020194600,0.891194580078125,-0.11914952651560305,0.008360708849132061,0.045094037158414715
1776017216030255600,0.901255615234375,0.010040332499146461,0.00918634601831436,-0.044277971535176035
1776017216040316400,0.91131640625,0.053501288563013075,0.007705167549848556,-0.013987462689727543
1776017216050377500,0.92137744140625,0.02739537192583084,0.037215339672565455,0.0879539585892111
1776017216060438300,0.931438232421875,0.013126608076691627,0.06865238820463418,0.08299392502903938
1776017216070499300,0.941499267578125,0.08771452381014823,0.021852643106877803,0.020676804260537026
1776017216080560400,0.951560302734375,0.16713409748375416,0.042616029672324654,-0.0034044016160070896
1776017216090621400,0.961621337890625,0.14447393738627434,0.043809038849174975,-0.02688040814101696
1776017216100682500,0.9716826171875,0.09327741863429546,0.07910188602656125,-0.023842282554134724
1776017216110743600,0.98174365234375,0.005810147583484649,0.08722732481509446,0.002202916871756315
1776017216120803300,0.99180322265625,-0.17245733833312987,0.08001812408864498,0.050866336949542165
1776017216130864400,1.001864501953125,-0.25867840871512887,0.030178572903573512,0.06963409271836281
1776017216140925400,1.011925537109375,-0.23674071767330168,0.007736439470946788,0.03356237012296915
1776017216150986500,1.021986572265625,-0.1950876878142357,0.051502808222174644,-0.00914009572379291
1776017216161047600,1.032047607421875,-0.10233750792443752,0.06262246039062738,-0.0471448322083801
1776017216171108600,1.042108642578125,-0.025152561435103415,0.04630728540569543,-0.022570216791704296
1776017216181169400,1.05216943359375,0.02448971361219883,0.04290449122488498,-0.009650748659670352
1776017216191230500,1.06223046875,0.11922376079559326,0.04179243832975626,-0.051936304268613454
1776017216201291500,1.07229150390625,0.1906903296381235,0.06910568493008613,-0.08197356900535524
1776017216211351300,1.082351318359375,0.16207622957229614,0.12840981455296277,-0.038166356787085534
1776017216221412400,1.092412353515625,0.10527297685444355,0.11770692649185657,0.0038781566075980663
1776017216231473400,1.102473388671875,0.07898293582201003,0.14731091437786817,0.01907017278149724
1776017216241534700,1.11253466796875,0.04267068246901035,0.1361067987963557,0.02383570668287575
1776017216251595800,1.122595703125,0.011769348248839377,0.11455138507038354,0.009592369535937905
1776017216261656800,1.13265673828125,-0.037543256452679634,0.1433335351794958,0.012839900089800358
1776017216271718000,1.1427177734375,-0.05905307747125625,0.09810819979161023,0.003516045296937227
1776017216281778700,1.15277880859375,0.013190320962667465,0.06212590904533863,-0.025107260988652704
1776017216291839500,1.162839599609375,0.04412438840866088,0.05768909564167261,-0.05833630750402808
1776017216301899800,1.172899658203125,0.08197276528775692,0.08668576528429985,-0.042262905385717746
1776017216311960600,1.182960693359375,0.21729776605665682,0.10304302584528922,-0.011909779632836579
1776017216322021600,1.193021728515625,0.3182698308467865,0.12196136906594038,-0.02583922852501273
1776017216332082700,1.203082763671875,0.27010814974606034,0.15381459718346596,0.01767287320420146
1776017216342143700,1.213143798828125,0.16720073297917842,0.14673311448991297,0.06539119445160031
1776017216352204800,1.223204833984375,0.07358896782398223,0.09184504774361849,0.044510757377743716
1776017216362265600,1.233265625,-0.08106032661795616,0.03909253172129393,-0.02306143437474966
1776017216372326700,1.24332666015625,-0.18829378989040851,0.05059241537898779,-0.054234571273624896
1776017216382387700,1.2533876953125,-0.26215689848065377,0.0554889552488923,-0.09128580642566084
1776017216392447700,1.26344775390625,-0.22493512906730173,0.07545856108814478,-0.10904117028154432
1776017216402508800,1.2735087890625,-0.10261866295337677,0.15115414580255745,-0.05648724557124078
1776017216412569900,1.28356982421875,-0.03633621875047684,0.17254940053075551,-0.0013129092294722794
1776017216422631000,1.293630859375,0.07628361373543739,0.11678688903748989,0.012509791352599858
1776017216432691700,1.303691650390625,0.16778408582508564,0.06455956593304872,0.018936609529703854
1776017216442752500,1.31375244140625,0.10517010100185871,0.054170858387649054,-0.008629588918387889
1776017216452813600,1.3238134765625,-0.053398412710428236,0.02500496965795755,0.03505326626785099
1776017216462874600,1.33387451171875,-0.1782768382668495,-0.02853694317638874,0.052469826623424885
1776017216472935700,1.343935791015625,-0.09393851289153099,-0.03259177152514457,-0.0026529256615787744
1776017216482996700,1.353996826171875,-0.03310147461295128,0.03141951287537813,-0.019801336600258946
1776017216493056800,1.364056884765625,-0.04544599240124225,0.08091653423309325,0.04306107002608478
1776017216503117800,1.374117919921875,-0.024801263779401776,0.10786766952276229,0.07008154422491789
1776017216513178600,1.3841787109375,-0.0499012182444334,0.10228870034664869,0.05052556068785488
1776017216523239700,1.39423974609375,-0.1462134745299816,0.10121581041812897,0.0658576429195702
1776017216533300700,1.40430078125,-0.15043255352973936,0.12500029837042093,0.062341378426924346
1776017216543361500,1.414361572265625,-0.08196399745941162,0.1109974919810891,0.012601561289280652
1776017216553422600,1.424422607421875,0.02800093660354614,0.05767711294293403,-0.013667875346541404
1776017216563483600,1.434483642578125,0.12334639368355274,0.08898527439832687,0.00011208207234740257
1776017216573544700,1.444544677734375,0.1752794100165367,0.10272095428407192,-0.0011922054592519997
1776017216583604700,1.454604736328125,0.22286942870914936,0.062059858071804044,-0.006756050131469965
1776017216593665500,1.46466552734375,0.13048165239095688,-0.007823240971565245,-0.00009768822081387042
1776017216603726600,1.4747265625,0.10935820034146308,0.0017936054185032843,0.0220193779759109
1776017216613787600,1.48478759765625,0.18856676161289215,0.11052402925044298,0.04602306163683533
1776017216623848700,1.4948486328125,0.09838906255960464,0.1864291650623083,0.09808934896066784
1776017216633909800,1.50490966796875,-0.008467384093999861,0.20432693306356667,0.14126410849429666
1776017216643970800,1.514970703125,-0.033784196180105204,0.18925328257232904,0.11744527988098562
1776017216654032000,1.525031982421875,-0.031036358776688575,0.137816525323689,0.08694273572005332
1776017216664092700,1.5350927734375,-0.08430150049626826,0.11050006385296582,0.057604266902431846
1776017216674152700,1.545152587890625,-0.19646423686444758,0.06615297260433435,0.05453815733008086
1776017216684213800,1.5552138671875,-0.20739304263591765,0.015344868648052215,0.03926072789505124
1776017216694274600,1.565274658203125,-0.06172025085389614,0.023719606022536754,-0.025375556536018848
1776017216704335600,1.575335693359375,0.014029109874367713,0.08009703454375267,-0.03650989481694996
1776017216714396700,1.585396728515625,0.0930231516122818,0.09211100520342588,-0.03042801761999726
1776017216724457700,1.595457763671875,0.07867606182992458,0.11812398286014794,0.0038792525861412286
1776017216734518800,1.605518798828125,0.09917173736989497,0.1126791614577174,0.00610847294293344
1776017216744579800,1.615579833984375,0.05078267725408077,0.09642477674931287,0.040263548262044785
1776017216754640600,1.625640625,-0.03128711866736412,0.11339432398974895,0.07749247806854545
1776017216764700700,1.63570068359375,-0.09800035550296306,0.08031506120860576,0.056304071024060244
1776017216774761700,1.64576171875,-0.14947978284955024,0.036429157730937,0.028503552363440394
1776017216784822800,1.65582275390625,-0.17627017461955546,0.06338935310989618,-0.033367870464175935
1776017216794883800,1.6658837890625,-0.20962416268885134,0.12925240285694597,-0.03622231004722416
1776017216804944600,1.675944580078125,-0.22479484381377696,0.12914192821979523,-0.02282638350985944
1776017216815005700,1.686005615234375,-0.13727788840234278,0.10384586666077375,-0.013887582511827349
1776017216825066800,1.696066650390625,-0.06093816056549549,0.07202770985662937,-0.008414192602038384
1776017216835127600,1.70612744140625,-0.036919571596384045,0.07753565962314606,0.0018326222546398638
1776017216845188600,1.716188720703125,0.0817559076666832,0.09949906962811947,-0.048132455006241796
1776017216855248600,1.72624853515625,0.13654723604023455,0.07215981180369853,-0.061089917061105364
1776017216865309700,1.736309814453125,0.1021679965764284,0.05275163923949003,-0.02755333896651864
1776017216875370800,1.746370849609375,-0.03733282857239246,0.05149111778438091,0.05898191193118691
1776017216885431800,1.756431884765625,-0.05559446144998073,0.01771305908411741,0.10424553350284695
1776017216895492900,1.766492919921875,0.0031599253356456754,0.012977554994821547,0.11715090004429221
1776017216905553700,1.7765537109375,0.007872340810298918,0.03294540726840496,0.0671476827301085
1776017216915614700,1.78661474609375,0.00258066414296627,0.06119038176089525,0.036635347827523944
1776017216925675500,1.796675537109375,0.005643558844923973,0.07085077503174543,0.0662944269016385
1776017216935736600,1.806736572265625,0.029845103165507314,0.07516630014330149,0.06672821520902215
1776017216945796600,1.816796630859375,0.11000877320468425,0.07347790866494178,0.06978701825775206
1776017216955857700,1.826857666015625,0.11877309441864489,0.07262450670599938,0.07173588730320334
1776017216965918700,1.836918701171875,0.11565642370283603,0.05828296988159418,0.06400668129064142
1776017216975979800,1.846979736328125,0.22205811232626438,0.030674539726972577,-0.0023802462000399828
1776017216986040600,1.85704052734375,0.17878771039843558,0.058328854849934574,0.00648132484331727
1776017216996101600,1.8671015625,0.040917116799950595,0.08063274885565042,0.04673281734138727
1776017217006162700,1.87716259765625,-0.022998598271608352,0.048428807604312896,0.06009513387009501
1776017217016223700,1.8872236328125,-0.10629121398627757,0.031906419609487056,0.023063553266599774
1776017217026284800,1.897284912109375,-0.19358020586073396,0.02405658289194107,0.008397752923890948
1776017217036345600,1.907345703125,-0.22055647559165953,0.04819061493426561,0.032585487914830444
1776017217046406000,1.917406005859375,-0.20316578032970428,0.07082417928576469,0.10179952859021722
1776017217056466700,1.927466796875,-0.14157061716020106,0.07997019329369068,0.12183679283820092
1776017217066527500,1.937527587890625,-0.05615443342030048,0.02049041484296322,0.1109002421516925
1776017217076588500,1.947588623046875,-0.05708323870301246,-0.04280395345985889,0.09912241833545267
1776017217086649600,1.957649658203125,-0.07916589117348194,-0.029035540348291394,0.07831804217249154
1776017217096710700,1.967710693359375,-0.003961304846405982,0.048207273808121676,0.026984233841672537
1776017217106771700,1.977771728515625,0.0617740268677473,0.062354164843261235,-0.03615085224620998
1776017217116832800,1.987832763671875,-0.00431084893643856,0.05299976878166198,-0.05199614469707012
1776017217126892800,1.997892822265625,-0.07866612495779991,0.07585808179974556,-0.03212890325374901
1776017217136953600,2.00795361328125,-0.11705460006296634,0.069810910589993,-0.0292455298371613
1776017217147014700,2.0180146484375,-0.12393325366079806,0.0321747151568532,-0.04626512676440179
1776017217157075700,2.02807568359375,0.0195762226074934,0.019652794975042343,-0.03692285953201353
1776017217167136800,2.03813671875,0.11233633936941623,0.06343289999067783,-0.04766417990736663
1776017217177197600,2.048197509765625,0.12181611537635326,0.030814532719552513,-0.03221154003590345
1776017217187258600,2.058258544921875,0.11047580619454384,-0.006214928992092609,-0.02100654767155647
1776017217197319700,2.068319580078125,0.14196049326062202,-0.043977673414349557,-0.021695552849024535
1776017217207380700,2.078380615234375,0.1280658234208822,-0.02699585121423006,-0.033754604759439824
1776017217217441800,2.08844189453125,0.100708445417881,0.020504151107370854,-0.017148922395333648
1776017217227501600,2.09850146484375,0.030067806005477902,0.03155424517095089,0.029268910712748765
1776017217237562600,2.108562744140625,-0.03469254319667816,0.024753332984447478,0.05740837900415063
1776017217247623700,2.118623779296875,-0.06587912409901618,0.00580401010364294,0.07778232786059379
1776017217257684500,2.1286845703125,-0.03197802354097366,0.03921235870867967,0.014231646709144114
1776017217267745500,2.13874560546875,-0.017604045751690865,0.08468553137779235,-0.03798077108711004
1776017217277806600,2.148806640625,-0.06801613612771033,0.10489420666992663,-0.04470021553523838
1776017217287867600,2.15886767578125,-0.08196224389374256,0.10372983906567096,0.008624401286616921
1776017217297928400,2.168928466796875,-0.021816695010662076,0.09362988533377647,0.0037630057953298088
1776017217307989500,2.178989501953125,-0.0028325930774211884,0.06641191580146551,0.03409545408636332
1776017217318049800,2.1890498046875,-0.029507834035158154,0.04312047206312418,0.07051160620525479
1776017217328110300,2.1991103515625,-0.044426001703739164,0.04049889138787985,0.09046725658439099
1776017217338171400,2.20917138671875,-0.04433247820138931,0.02200052714496851,0.08827566482424735
1776017217348232400,2.219232421875,0.018739771783351896,-0.007805120792984962,0.09413958842158317
1776017217358293500,2.22929345703125,0.03345627939999103,0.013228607146441937,0.07190824819542467
1776017217368354600,2.2393544921875,-0.023794132563471793,0.017184066773951054,0.04203552637062966
1776017217378415600,2.24941552734375,-0.06367489205300808,0.04487053060084581,0.06791048379614949
1776017217388476700,2.2594765625,-0.07432371183931827,0.07424363234043121,0.05014744809046388
1776017217398537700,2.269537841796875,-0.07908873428404331,0.10767828443050384,0.07145451307855546
1776017217408597500,2.279597412109375,-0.0898117883503437,0.11095599092692136,0.03230754775628447
1776017217418658600,2.289658447265625,-0.02787935605049133,0.07034691716283559,-0.01716433916017413
1776017217428719600,2.2997197265625,-0.007534487158060073,0.04144903171956539,-0.0370387409966439
1776017217438780700,2.30978076171875,-0.015769231539964675,-0.004404664699733257,-0.023090075947344302
1776017217448841500,2.319841552734375,0.0599877279728651,-0.027704876266419886,0.03357267232127487
1776017217458902500,2.329902587890625,0.09509937336444854,-0.009973697003722191,0.06524243363067507
1776017217468963600,2.339963623046875,0.11530395700335502,0.01973871969282627,0.07072999819628895
1776017217479024600,2.350024658203125,0.0866834271967411,0.034704818156361575,0.08291662200912833
1776017217489085700,2.360085693359375,0.09473463170528411,0.045912440869212146,0.10451360985450446
1776017217499145500,2.3701455078125,0.11898410682082175,0.06502718344479799,0.06890599763952195
1776017217509206500,2.38020654296875,0.036060324418544766,0.07808949411362409,0.07725932689979673
1776017217519267600,2.390267578125,-0.022705168282985685,0.0866354964017868,0.07668518027365208
1776017217529328600,2.40032861328125,-0.021177228063344954,0.037730887979269025,0.0538444029122591
1776017217539389700,2.4103896484375,-0.03613455869853496,0.0272054023116827,0.028565000227093695
1776017217549450800,2.42045068359375,0.009714169284701347,0.03832271639257669,-0.011985767478495836
1776017217559511600,2.430511474609375,0.03326806335151195,0.04873042089939117,-0.060474780837446444
1776017217569572600,2.440572509765625,0.009699556237459182,0.033194705854356285,-0.05415229981765151
1776017217579633400,2.45063330078125,-0.029594927796721456,0.017701953168213366,-0.03601560849398374
1776017217589693400,2.460693359375,-0.02869067243337631,0.024904724153876304,-0.06886047799736261
1776017217599754500,2.47075439453125,-0.05237316131591797,0.012281389424204826,-0.058475350648537275
1776017217609815600,2.480815673828125,-0.07664543278515339,0.037190205231308934,-0.009932561275735496
1776017217619876600,2.490876708984375,-0.11903963640034199,0.0437228218704462,0.020904256340861318
1776017217629937700,2.500937744140625,-0.0932493615835905,0.031734277912974354,0.016253727121278642
1776017217639998700,2.510998779296875,-0.045421442481875414,0.04438420838862657,-0.023870485735312103
1776017217650059500,2.5210595703125,-0.025479309171438216,0.04689414538294077,-0.0702261403273791
1776017217660120600,2.53112060546875,0.02630874573290348,0.07831921121627092,-0.09180683462508023
1776017217670181600,2.541181640625,0.0015536591827869414,0.08825316073149442,-0.09620514264926314
1776017217680241700,2.55124169921875,-0.0567027149528265,0.06673135701417923,-0.08655848564282059
1776017217690302700,2.561302734375,-0.09849252293407916,0.08599602945446967,-0.0495481670230627
1776017217700363500,2.571363525390625,-0.09094634533822536,0.08743746043443679,-0.05006576115638017
1776017217710424600,2.581424560546875,-0.007581248909235,0.05261982955336571,-0.05202836646623909
1776017217720485600,2.591485595703125,0.06883563581705093,0.019543197120726108,-0.016727262917160986
1776017217730546400,2.60154638671875,0.032875849163532256,0.014113865548372267,0.00045022798553109167
1776017217740607500,2.611607421875,0.04466448663473129,-0.02967413051277399,0.011451441406086086
1776017217750668500,2.62166845703125,0.12450491606891155,-0.07522767494171857,0.036704759801924225
1776017217760729600,2.6317294921875,0.1213479133427143,0.003998129725456237,0.055846682645380494
1776017217770789600,2.64178955078125,0.05889233395159244,0.027206571355462072,0.07810607992224394
1776017217780850700,2.6518505859375,0.056498716813325876,0.022716274198889733,0.10458535991646349
1776017217790911700,2.661911865234375,0.06181026722490787,0.059174658024311065,0.11449614775180816
1776017217800972500,2.67197265625,-0.005309796845912933,0.06260317116826772,0.13113690142929554
1776017217811033600,2.68203369140625,-0.07993979815542697,0.07616378674805165,0.13867920656763016
1776017217821094400,2.692094482421875,-0.10431085382401943,0.04978957456350326,0.07889752256087958
1776017217831155500,2.702155517578125,-0.09014788843691349,0.005803425581753253,0.019279358552768824
1776017217841216500,2.712216552734375,-0.08884382010102272,0.02149111631810665,-0.00830744429193437
1776017217851277600,2.722277587890625,-0.09183131147921085,0.007341302673518658,0.004514627880230546
1776017217861337600,2.732337646484375,-0.03151391316056251,0.03449818966835737,-0.0027062632840126753
1776017217871398700,2.742398681640625,0.03769114049077034,0.03674216920286417,-0.007276566874235868
1776017217881459500,2.75245947265625,0.01718669712245464,0.0361982715845108,0.0192265323869884
1776017217891520500,2.7625205078125,-0.008083353212475776,0.04171469691842794,0.03498261218443513
1776017217901581600,2.77258154296875,0.020095278045535087,0.016571195572614668,0.03738835815191269
1776017217911642600,2.782642578125,-0.018878303471207617,0.07354366737753153,0.04820318215489387
1776017217921703700,2.79270361328125,-0.0019604864180088042,0.12851239814460277,0.06778181591518223
1776017217931764500,2.802764404296875,-0.03416530445218086,0.0748822225049138,0.09580752163380384
1776017217941825500,2.812825439453125,-0.03776595929265022,0.04221972383111715,0.10100048716701567
1776017217951885600,2.822885498046875,-0.028893501529097556,0.051474458910524844,0.07027217142619192
1776017217961946400,2.8329462890625,0.012962941947579383,0.06796615950614214,0.040123189943283795
1776017217972007400,2.84300732421875,0.022404139509797093,0.066871642267704,0.014731559055298566
1776017217982068500,2.853068359375,-0.0129272861123085,0.04221884704828262,0.002318286879733205
1776017217992129500,2.863129638671875,-0.0026636662513017653,0.051476212476193904,-0.006957125661522149
1776017218002190600,2.873190673828125,-0.012731471279263495,0.05345540359467268,0.0043952392842620605
1776017218012251600,2.883251708984375,-0.04840191959738731,0.0447860671877861,0.044009602922573686
1776017218022312700,2.893312744140625,-0.07184358546137809,0.031213176648318765,0.061699354196339845
1776017218032373800,2.903373779296875,0.043836803638935086,0.04870353289246559,0.025118951426446438
1776017218042433500,2.91343359375,0.164674429371953,0.038812253475189205,-0.008601824128627776
1776017218052494600,2.92349462890625,0.16523440134227274,0.05456921005547046,0.02495762338489294
1776017218062555600,2.9335556640625,0.11249182219207286,0.08196808911263942,0.031115561492741105
1776017218072616700,2.94361669921875,0.10775661036372185,0.08754442794024944,0.01917662883065641
1776017218082677500,2.953677490234375,0.11150631828606128,0.05820961238443851,-0.025756372547149655
1776017218092738600,2.963738525390625,0.021878654330968854,0.06663286507576703,-0.04338452982679009
1776017218102799600,2.973799560546875,-0.05289630840718746,0.09669219551384449,-0.029522739343345164
1776017218112860700,2.983860595703125,-0.030259529185295102,0.082742872877419,-0.05366042464748025
1776017218122921500,2.99392138671875,-0.012754267632961272,0.07635960158109664,-0.05257935141250491
1776017218132982500,3.003982421875,-0.05885550907254219,0.012661328652501105,-0.018069252110645175
1776017218143042600,3.01404248046875,-0.06039923138320446,-0.0011988543957471847,-0.008212313354387879
1776017218153103600,3.024103515625,0.03067103259563446,0.01844195788055658,-0.014462021398916839
1776017218163164700,3.03416455078125,0.028052959051728246,0.07112199318856001,0.019975451058149338
1776017218173225700,3.044225830078125,0.003976502415537834,0.08603373111635446,0.04638305405564606
1776017218183286800,3.054286865234375,-0.011046294671297073,0.0570882071390748,0.049370764629542825
1776017218193347300,3.064347412109375,-0.045292263144254684,0.03436462641656399,0.037944165403768416
1776017218203408400,3.074408447265625,-0.11524725838005542,0.03657616498619318,-0.004888648824393749
1776017218213469400,3.084469482421875,-0.1366015965759754,0.06965425872355699,-0.03250409324169159
1776017218223530500,3.094530517578125,-0.12957272085249424,0.034679683715105054,-0.045453883446753024
1776017218233590500,3.104590576171875,-0.1420043324023485,-0.006615911008417606,-0.06462203671000898
1776017218243652000,3.114652099609375,-0.13531798650622368,-0.014391221185028552,-0.03966390186846256
1776017218253713200,3.124713134765625,-0.1050958667218685,-0.025067221239209174,-0.03477050380371511
1776017218263774200,3.134774169921875,-0.07007540674507617,-0.01272562606036663,-0.02218793947584927
1776017218273835300,3.144835205078125,0.02980827828645706,-0.021434417694807053,-0.06583090104311705
1776017218283896000,3.15489599609375,0.13355916014015673,-0.007658405798673629,-0.08001593213155865
1776017218293957000,3.16495703125,0.2143576209515333,0.03666851944476366,-0.09350136358328164
1776017218304018000,3.175017822265625,0.21591128013432023,0.06810586023777723,-0.08008161777891218
1776017218314079000,3.185078857421875,0.1478174025952816,0.10123393059670925,-0.025060133911296724
1776017218324139000,3.195138916015625,0.03583002279400825,0.07595365112870932,0.03961407137736678
1776017218334200000,3.205199951171875,-0.04498948080539703,0.11389876638054847,0.08879588930606841
1776017218344261000,3.21526123046875,-0.06056231299042701,0.10070932220071553,0.10820230830460786
1776017218354322000,3.225322021484375,-0.019489713367819784,0.10007131655812262,0.13017565518170596
1776017218364383000,3.235383056640625,0.01896890436410904,0.10311346073299646,0.09209449246004223
1776017218374444000,3.245444091796875,0.029601942059397694,0.03925532106757164,0.08698613647036253
1776017218384505000,3.255505126953125,0.049400867506861686,0.04537731107920408,0.06514547606222332
1776017218394566100,3.265566162109375,0.06728782185316086,0.07701105122715235,0.02170768167823553
1776017218404627200,3.275627197265625,0.007344517543911934,0.05157324310988187,0.02158157108053565
1776017218414687200,3.285687255859375,-0.08579378488063812,0.04159720801860094,0.00300407718680799
1776017218424748300,3.295748291015625,-0.16421148803532123,0.06158464177548885,-0.023412732030451296
1776017218434809000,3.30580908203125,-0.22189503071904182,0.04861147069483995,-0.02118234262987971
1776017218444870000,3.315869873046875,-0.2641933727443218,0.039492929215729236,0.005618205207958817
1776017218454931000,3.325930908203125,-0.3269435511678457,0.08030804694592952,0.05176745050773024
1776017218464992000,3.335991943359375,-0.224101016330719,0.05800035354793071,-0.017832520745322107
1776017218475053000,3.346052978515625,0.0762964732170105,0.08364128302186727,-0.11463928254954517
1776017218485114000,3.356114013671875,0.2605769358128309,0.1269964406237006,-0.11407361149080097
1776017218495175200,3.366175048828125,0.12609013943374156,0.11641922476887702,-0.07807290830500424
1776017218505235000,3.37623486328125,0.008825111490488051,0.03393558734953403,-0.047988005034252997
1776017218515296000,3.3862958984375,-0.08966039718091487,0.04323328478783369,-0.060923474453017115
1776017218525357000,3.396357177734375,-0.30556174044311046,0.11399316666573285,-0.039708106336370105
1776017218535418000,3.406418212890625,-0.34845512575209137,0.16866642161756754,-0.01997493960149586
1776017218545479200,3.416479248046875,-0.2808639370381832,0.19439356807023286,0.04494118468426168
1776017218555540000,3.4265400390625,-0.12717092040777206,0.14092296690642833,0.19219386606886982
1776017218565601000,3.43660107421875,0.13002163366377353,0.07972206375151872,0.19352182673700152
1776017218575662000,3.446662109375,0.24954174705743787,0.02209726551771164,0.10985694364383816
1776017218585723100,3.45672314453125,0.3322428266197443,-0.00490121604502201,-0.03236190829202532
1776017218595783000,3.466782958984375,0.28797815295755863,-0.027727964881062505,-0.12231836581006646
1776017218605844000,3.476843994140625,0.14986322920918463,-0.029599603971838948,-0.16113916791789232
1776017218615905000,3.486905029296875,0.07588438528478145,-0.008541910634934901,-0.16445413768477737
1776017218625966000,3.496966064453125,0.033731589210033414,-0.009509586623311042,-0.0892163797404617
1776017218636027100,3.507027099609375,-0.06907528979182243,0.03193330761641264,0.03554908696077764
1776017218646088200,3.517088134765625,-0.08597674023211002,0.06578092442154884,0.07400901986695825
1776017218656149200,3.527149169921875,-0.09407938266694545,0.0895484612390399,0.0660284694418311
1776017218666210000,3.5372099609375,-0.08305062365233898,0.09109919781237841,0.006665230042859911
1776017218676270800,3.547270751953125,-0.08070785991847515,0.08401245442181825,-0.032459888773784036
1776017218686331100,3.5573310546875,-0.031799744364619256,0.06754384244084358,-0.01469283448010683
1776017218696392000,3.567391845703125,-0.02987666734755039,0.051957566252350804,0.04041574314907193
1776017218706453000,3.577452880859375,0.039703649356961246,0.02622194423228502,0.044214697040617465
1776017218716514000,3.58751416015625,0.09484101468920707,0.0379825246527791,0.02255735731013119
1776017218726575000,3.5975751953125,0.08169336382448673,0.021613281393051145,0.06587817425094544
1776017218736636200,3.60763623046875,0.05316811108589172,0.07395487852692603,0.12137772395908832
1776017218746697200,3.617697265625,0.04071370318233967,0.10261574034392833,0.06817286105938256
1776017218756758000,3.627758056640625,-0.015951017847657203,0.08214461472332477,0.04565115958452225
1776017218766819000,3.637819091796875,-0.05994330430924892,0.05996960779428482,0.052268385767191644
1776017218776880000,3.647880126953125,-0.04862579148113727,0.07353928346335888,0.05918422957025468
1776017218786940200,3.657940185546875,-0.004615969362854957,0.10038783516138791,0.027228710122033952
1776017218797001200,3.668001220703125,0.06666764412820339,0.06620236470401286,0.009553425765037536
1776017218807062300,3.678062255859375,0.06692775636911392,0.05214169064760208,0.02643741361387074
1776017218817123000,3.688123046875,0.02277121925652027,0.019123218142986297,0.045218174994736904
1776017218827183900,3.698183837890625,-0.09072773415148258,-0.024443828643858433,0.03714395493678748
1776017218837245000,3.708244873046875,-0.09943243413269519,0.0063166358008980746,0.02162153776474297
1776017218847306000,3.718305908203125,-0.07825345250368118,0.055173605689406394,0.03593136427663266
1776017218857367000,3.728366943359375,-0.10441899037361145,0.12054214991778135,0.035660292250290514
1776017218867428000,3.738427978515625,-0.11178279713988304,0.12803016758561134,-0.00518880081474781
1776017218877488000,3.748488037109375,-0.08801087640821934,0.075861004409194,-0.00960625193081796
1776017218887549200,3.758549072265625,-0.012108955466747283,0.050778585600852966,-0.014529314481467008
1776017218897610200,3.7686103515625,0.07078384727537632,0.05321808770745992,-0.0957769072998315
1776017218907671000,3.778671142578125,0.12398118445575236,0.0503258733972907,-0.09084156978949903
1776017218917732000,3.788732177734375,0.15747954943180084,0.047477205967903134,-0.04321063456460833
1776017218927793200,3.798793212890625,0.21610241879224776,0.02700023512840271,-0.07137874442860484
1776017218937854000,3.80885400390625,0.12199030289947986,0.03586538636833429,-0.046616789746284484
1776017218947915000,3.8189150390625,0.06692541828155517,0.051666766612231727,-0.017725260978564618
1776017218957976000,3.82897607421875,0.06930149976313114,0.06489975767284631,-0.03196078014522791
1776017218968036000,3.8390361328125,0.07072013438940047,0.09063537969291209,-0.039464579904079436
1776017218978097000,3.849096923828125,0.054367550003528595,0.08940320754945277,-0.016756562076881528
1776017218988158000,3.859157958984375,0.04700257419347763,0.08133096025288104,0.00987958897948265
1776017218998219000,3.869218994140625,0.03087736882269382,0.11974193945080042,0.0006412935782223939
1776017219008280000,3.879280029296875,-0.01184592061638832,0.08596826466470957,0.00317095818631351
1776017219018341000,3.889341064453125,-0.03804536075592041,0.06932751098722219,0.03005151245780289
1776017219028402200,3.899402099609375,-0.07097673949897289,0.05532412007600069,0.01550524684153497
1776017219038463200,3.909463134765625,-0.1033095678269863,0.0024067688807845114,-0.026755101260915397
1776017219048524000,3.91952392578125,-0.09238952988386154,-0.02094955678731203,-0.0320984350502491
1776017219058584000,3.929583984375,-0.06716624130010604,0.016243278792500496,-0.01246734045036137
1776017219068645000,3.93964501953125,-0.0010147300004959105,0.04971417123973369,-0.007374766551703214
1776017219078706000,3.949705810546875,0.07861001085639,0.04983721309751272,-0.01067753442414105
1776017219088767000,3.95976708984375,0.06685118400156498,0.067272624284029,-0.018688772248476742
1776017219098828000,3.969828125,0.027430443239212034,0.061954059609770774,-0.011853665531426668
1776017219108889000,3.97988916015625,-0.01894318540096283,0.033439036004245276,0.01963679368831217
1776017219118950100,3.9899501953125,-0.05553191760778427,0.017947452361881732,0.054028673437982795
1776017219129011200,4.00001123046875,-0.08754325889647006,-0.025474632996320724,-0.014606471370905637
1776017219139072300,4.010072265625,0.0036918402552604673,-0.024672961224615573,-0.1110926229186356
1776017219149132000,4.020132080078125,0.060275897264480585,0.004356149382889271,-0.09886910116150975
1776017219159193000,4.030193115234375,0.09697685767412186,-0.002100187149643898,-0.07986132609173655
1776017219169254100,4.040254150390625,0.19881401486098765,0.027087328889966008,-0.07565335300788283
1776017219179315200,4.050315185546875,0.21126140850186348,0.01629062506556511,-0.04742854452058673
1776017219189376000,4.0603759765625,0.13747604132294655,0.024185177707672117,0.013546440923959017
1776017219199437000,4.07043701171875,0.05662146641016006,0.018581658612191677,0.0540915095411241
1776017219209498000,4.080498046875,0.020056699600815773,0.04284428547024727,0.046855274677276605
1776017219219559000,4.090558837890625,-0.03631459144055843,0.04018675669878721,0.04656995492987334
1776017219229620000,4.100619873046875,-0.12781740161776542,0.03381985201537609,0.058220645235106346
1776017219239681000,4.110680908203125,-0.13955460116267204,0.01814414397776127,0.06644070350453257
1776017219249740300,4.120740234375,-0.03024257805049419,-0.025896657800674436,0.051341407115384936
1776017219259801300,4.13080126953125,0.06296703604459762,-0.03173193982541561,0.00811477126404643
1776017219269862400,4.1408623046875,0.07545359265208244,-0.020134148751199243,-0.048710985546559095
1776017219279923500,4.15092333984375,0.06460545090138912,-0.046917818519473076,-0.09240231630019843
1776017219289984500,4.160984619140625,0.12673895873129368,-0.04677314935177564,-0.07565766385681927
1776017219300045600,4.171045654296875,0.09194061707258223,0.01812573153823614,0.010110694321617484
1776017219310106600,4.181106689453125,0.10978548584282398,0.06776099232286215,0.04918927058279514
1776017219320167400,4.19116748046875,0.16107961975038051,0.10203910949975252,0.03015519202798605
1776017219330228500,4.201228515625,0.06598141542971134,0.09252630800604819,0.03580963759310543
1776017219340288500,4.21128857421875,-0.06005319442451,0.04335924925506115,-0.021332564755529165
1776017219350349300,4.221349365234375,-0.13164134382009504,0.05170271470844745,-0.003940481254085898
1776017219360410400,4.231410400390625,-0.0579705429315567,0.012380465884506702,-0.06563669364526868
1776017219370471400,4.241471435546875,0.0758867233723402,0.054147769773006435,-0.1228567104704678
1776017219380532500,4.251532470703125,0.038171032962203026,0.06815583685934543,0.013807649143412709
1776017219390593500,4.261593505859375,-0.2915168484777212,0.022366730108857154,0.13506671515889465
1776017219400654600,4.271654541015625,-0.352836701837182,-0.08686492124348878,0.08851911819130182
1776017219410715400,4.28171533203125,-0.0684013360530138,-0.01733750376999378,-0.07374043205864728
1776017219420776400,4.2917763671875,0.03580547287464142,0.08604162216186523,-0.09912132235690951
1776017219430836500,4.30183642578125,0.05841711765527725,0.1189843990817666,-0.046498935520276424
1776017219440897500,4.3118974609375,0.09917992067635059,0.12800795575380325,0.016831819270178676
1776017219450958600,4.32195849609375,0.11898469134271145,0.11307488277703523,0.034664632276445624
1776017219461019400,4.332019287109375,0.15436463228166103,0.08511018653064965,0.04181187368258834
1776017219471080400,4.34208056640625,0.23275953908264635,0.08304507069438695,0.040629897356405854
1776017219481141500,4.3521416015625,0.15910568932890892,0.06695756698548794,0.03214665810614824
1776017219491202300,4.362202392578125,0.029310850158333776,0.026869302225112912,0.058576984392106526
1776017219501263400,4.372263427734375,0.05805120695233345,0.05265636217147111,0.014238514841347931
1776017219511324400,4.382324462890625,0.07625614120662212,0.13162293138056994,-0.013339739370718598
1776017219521384400,4.392384521484375,0.061789808958768844,0.19748539660573006,-0.03782134274169802
1776017219531445500,4.402445556640625,-0.0656610974341631,0.1733060641169548,-0.06673669077642262
1776017219541506600,4.412506591796875,-0.1695277146220207,0.08331599659025668,-0.06530110501535237
1776017219551567600,4.422567626953125,-0.17868366550207138,0.07854922057986259,-0.05664177854582667
1776017219561628400,4.43262841796875,-0.12721475954949854,0.10742723227888346,-0.0838237269166857
1776017219571689500,4.442689453125,-0.06714987468719483,0.1418146550491452,-0.12276238325051962
1776017219581750300,4.452750244140625,-0.10653203700482845,0.10526917746216058,-0.12702632430531083
1776017219591811300,4.462811279296875,-0.1944032126814127,0.04484627294242382,-0.07921805975213646
1776017219601872400,4.472872314453125,-0.1054185228049755,0.031699498860538,-0.05966061491034925
1776017219611932400,4.482932373046875,-0.020504443368315695,-0.017666005071997642,-0.10801993747502565
1776017219621993500,4.492993408203125,0.08752630776166916,-0.03402005076259374,-0.15410371632315217
1776017219632054500,4.503054443359375,0.1819844606131315,-0.02106850699186325,-0.1231895226214081
1776017219642115300,4.513115234375,0.009874912804365157,-0.007167991933226585,-0.02081022138185799
1776017219652176400,4.52317626953125,-0.056851768034696576,-0.0925350758343935,-0.03396510570496321
1776017219662237400,4.533237548828125,0.13051438561677933,-0.08647562966495752,-0.13670688358135522
1776017219672298500,4.543298583984375,-0.06964929028749466,0.007219722120463848,-0.08013385942280292
1776017219682359600,4.553359619140625,-0.1231131694495678,0.08109189079999923,-0.024003610595688223
1776017219692420600,4.563420654296875,0.4039274221271276,0.25422435191571713,0.0026420389413833617
1776017219702480600,4.573480712890625,0.0826356131106615,0.28582974275201556,0.15305457259640096
1776017219712541400,4.58354150390625,-0.42971477433443067,0.06455810462832451,0.2679299289241433
1776017219722602200,4.593602294921875,-0.4321382020890712,-0.256330092023313,0.06581694558300077
1776017219732663300,4.603663330078125,-0.4284416856586933,-0.2640907891526818,0.08047251679264009
1776017219742724400,4.613724365234375,-0.3479495143175125,-0.024010697923600673,0.11826149163469671
1776017219752785400,4.623785400390625,-0.11124211439192294,0.04933744688183069,0.018470526387915014
1776017219762846500,4.633846435546875,0.2985030541032552,0.07118161442130803,-0.0622945436105132
1776017219772907500,4.643907470703125,0.585181230378151,0.11387538550496101,-0.10259630499109625
1776017219782968600,4.653968505859375,0.5056453368484973,0.38027649742662906,-0.0026462036598473787
1776017219793029600,4.664029541015625,0.0648591334015131,0.34350451760739087,0.11407331922985613
1776017219803089400,4.67408935546875,0.032409985217452045,0.06782704329639673,0.03190751558803022
1776017219813150500,4.684150390625,0.02114215674996376,-0.01673719978928566,-0.04454458658210933
1776017219823211500,4.69421142578125,-0.1274000529885292,0.0973012673228979,-0.02002740044109523
1776017219833272600,4.7042724609375,-0.15029811349511146,0.16044044506400823,0.07613711793683468
1776017219843333400,4.71433349609375,0.012603460985422133,0.10490385128110646,0.06411759431920945
1776017219853394400,4.72439453125,0.14201660736203192,0.019001053068041802,0.057039691822230815
1776017219863455500,4.73445556640625,0.1549976694881916,0.03777355807721615,0.013932517632097005
1776017219873516500,4.7445166015625,0.16984452548623083,0.11389672055393457,0.011323942568898201
1776017219883577300,4.754577392578125,0.09540566283464431,0.11468787093162536,0.03699972416050732
1776017219893637400,4.764637451171875,0.04094049767553806,0.11732552595883607,0.03945376624912023
1776017219903698400,4.774698486328125,0.04625672426223754,0.1605441976994276,0.06599895108640194
1776017219913759500,4.784759521484375,0.03879354877471924,0.18953911377638577,0.07516410818621516
1776017219923820500,4.794820556640625,-0.01674362953007221,0.17914397649019956,0.06226100666709244
1776017219933881600,4.804881591796875,-0.06473346119523048,0.16514467723220586,0.001712064614892006
1776017219943942700,4.814942626953125,-0.04012099798619747,0.13464607859402894,-0.01449928466938436
1776017219954003500,4.82500341796875,-0.09342705623805522,0.09679477910548448,0.002105082520470023
1776017219964064300,4.835064208984375,-0.10521686275303363,0.06844429841190576,0.0437578931838274
1776017219974125300,4.845125244140625,-0.03440846555829048,0.07550152344703674,0.03449833579882979
1776017219984185300,4.855185302734375,-0.06929214741289615,0.07429507026672363,0.01932422060780227
1776017219994246400,4.865246337890625,-0.1143722291111946,0.06299976927042007,0.05049414263628423
1776017220004307500,4.875307373046875,-0.0821738408178091,0.05194909068495035,0.023857333992794154
1776017220014368500,4.885368408203125,0.02939911296367645,0.06645750850886106,-0.010449790082871913
1776017220024429600,4.8954296875,0.10157938303351402,0.08810819930285214,0.011871128122881054
1776017220034490400,4.905490478515625,0.12616028206050395,0.12535071924328803,0.06272343654707074
1776017220044551400,4.915551513671875,0.08309446279406547,0.12532879967242477,0.09962810283526778
1776017220054612500,4.925612548828125,0.06221943254768848,0.06021218437850475,0.12344152462109922
1776017220064673500,4.935673583984375,-0.043398412221670145,0.05375760141164064,0.14454773327484727
1776017220074733600,4.945733642578125,-0.05436988809108734,0.05046060569286346,0.08824117803275584
1776017220084794600,4.955794677734375,-0.06997311541438102,0.024749533592164516,0.0316184695135802
1776017220094855400,4.96585546875,-0.11689736367464065,0.002395370703935623,0.04372245654426515
1776017220104916200,4.975916259765625,-0.1782850215733051,-0.007221183425188064,0.08386544716656208
1776017220114977300,4.985977294921875,0.007910334733128547,-0.002697276259958744,0.09716565824449062
1776017220125038300,4.996038330078125,0.16602993563413618,-0.0008060556858777999,0.061342503582686184
1776017220135099400,5.006099365234375,0.1634457643598318,0.02086187850385904,0.06141344992704689
1776017220145160400,5.016160400390625,0.10259235946834087,0.0649064796745777,0.04218085312545299
1776017220155221500,5.026221435546875,0.01829261253774166,0.07871376349180936,-0.013515095937624573
1776017220165282600,5.036282470703125,-0.13892156395614147,0.003169569946825504,0.02514160164967179
1776017220175342600,5.046342529296875,-0.2530564771801233,-0.03201806329041719,0.03843070681169629
1776017220185403400,5.0564033203125,-0.16291268039643764,-0.04099076655805111,-0.029899902092665433
1776017220195464400,5.06646435546875,-0.08327683362364768,0.013332359781861305,-0.044664998091384765
1776017220205525500,5.076525390625,-0.09857961669564247,0.05289221675395965,0.01636544386744499
1776017220215586300,5.08658642578125,-0.13047054647505282,0.009730535897612571,0.04417385357357562
1776017220225647400,5.0966474609375,-0.04622691364586353,-0.02249064874947071,0.04249225716218352
1776017220235708400,5.10670849609375,0.04690086738467216,0.018531097468733788,0.00047265901304781435
1776017220245770000,5.11677001953125,0.016069091269373892,0.07600976523011922,0.014506298932060598
1776017220255831000,5.1268310546875,-0.013442834419012069,0.05982844575792551,0.04676175117492676
1776017220265890800,5.136890869140625,0.032771804267168046,0.046646308101713656,-0.0062581836119294165
1776017220275951900,5.146951904296875,0.00559270544052124,0.060600891435146326,0.004210749562829732
1776017220286013000,5.157012939453125,-0.015134440767765045,0.0515220974445343,0.011050824715942143
1776017220296074000,5.167073974609375,-0.015835867035388945,0.009176993668079376,0.012997282608598469
1776017220306135000,5.177135009765625,0.01132218900322914,0.009727321027219295,-0.028513416170328855
1776017220316195800,5.18719580078125,0.06603752953112126,0.036821664179861546,-0.08520824007764458
1776017220326257000,5.1972568359375,0.043183308166265484,0.04417407276928425,-0.053227147796750064
1776017220336318000,5.20731787109375,0.002358545824885368,0.035731530855596064,0.022290450002253055
1776017220346379000,5.21737890625,-0.03538870876729488,0.036494039660692215,0.059624374553188676
1776017220356438800,5.227438720703125,-0.11797522203922271,0.04608487482666969,0.06762041480839252
1776017220366499800,5.237499755859375,-0.06720423522293567,0.04670417576879263,0.07710508618615568
1776017220376561000,5.247560791015625,-0.07803250322937964,0.03682955522537231,0.07184870002791285
1776017220386622000,5.2576220703125,-0.12435177133381366,0.02472089201956987,0.045074528740346426
1776017220396683000,5.26768310546875,-0.13444821793437003,0.03007978870421648,0.0246319716271013
1776017220406744000,5.277744140625,-0.0656733723938465,0.029346798254549503,0.008700462197512387
1776017220416805000,5.28780517578125,0.04309738344848156,0.03852817583680153,0.008291150744259356
1776017220426866200,5.2978662109375,0.06529109507799148,0.059254153001308436,-0.006287044380232691
1776017220436926700,5.3079267578125,0.06237140823900699,0.07751549361795186,-0.023308687134087083
1776017220446987800,5.31798779296875,0.1489069513976574,0.07236234863847493,-0.04449884774424136
1776017220457048000,5.328048095703125,0.14566577751934529,0.11528320647627115,-0.05432129970900714
1776017220467108900,5.33810888671875,0.011679331877827643,0.1630380603417754,-0.006123743577301502
1776017220477170000,5.348169921875,-0.024155951613187787,0.11086217516362666,0.05429565381109714
1776017220487231000,5.35823095703125,-0.029658640682697295,0.05059358442276716,0.07902575205042958
1776017220497292000,5.3682919921875,-0.05092179346382618,0.03793751646727323,0.06870046513006091
1776017220507353000,5.37835302734375,-0.04668927046060562,0.057847793334722515,0.02353716212771833
1776017220517414000,5.388413818359375,-0.007169160977005958,0.058822483585774896,-0.028606647411733865
1776017220527475000,5.398474853515625,-0.022876433196663853,0.06036854398399591,-0.043874943692237135
1776017220537536000,5.408535888671875,-0.017198387560248374,0.087448274089396,-0.041649303532019254
1776017220547596000,5.418595947265625,0.0052402387410402295,0.13635025216341018,-0.011871347318589687
1776017220557657000,5.428656982421875,-0.012931962287425994,0.11629735195487736,-0.0009767360776662827
1776017220567718100,5.43871826171875,-0.02421732641160488,0.07883592856675387,-0.003885682326927781
1776017220577779000,5.448779052734375,-0.011218728628754615,0.09980535909831523,0.006561915798857808
1776017220587839700,5.45883984375,0.035361236238479615,0.13219693187624215,-0.019124825578182934
1776017220597900800,5.46890087890625,0.05715981107056141,0.10373130037039517,-0.04761230358965694
1776017220607961900,5.4789619140625,0.04935995097458362,0.06510054094195365,-0.07655249380469321
1776017220618023000,5.48902294921875,0.018436989444494248,0.08309037114083767,-0.07678973662666976
1776017220628084000,5.499083984375,-0.05010580090582371,0.07837620210051537,-0.08151742273569107
1776017220638144000,5.50914404296875,-0.08012450707256794,0.0377408248513937,-0.06877513780146836
1776017220648205000,5.519205078125,0.002593523624539375,0.026040450185537335,-0.057551440736651416
1776017220658265900,5.529265869140625,0.025019290444254872,0.05421469752937555,-0.02639671627730131
1776017220668327000,5.539326904296875,-0.026266075634956358,0.07128507479578257,0.011831015308201312
1776017220678388000,5.549387939453125,-0.04017652756571769,0.04379647162854671,0.04340922587662935
1776017220688449000,5.559448974609375,0.007554945424199104,0.008250234211981296,0.037222938457131385
1776017220698509800,5.569509765625,0.04840893386006355,-0.00853285054564476,0.015802037831023335
1776017220708571000,5.57957080078125,0.05302373417913914,-0.00014992986470460892,0.0032632395796477792
1776017220718632000,5.5896318359375,0.05400339286625385,0.0009311433702707291,-0.012912819195538758
1776017220728693000,5.59969287109375,0.018663199415802953,-0.016702420736849306,-0.024184154794365167
1776017220738752800,5.609752685546875,-0.054765609410405154,0.022859482061862946,-0.01728328936472535
1776017220748813800,5.619813720703125,-0.12327040583789348,0.06842354788482188,0.007035013203322887
1776017220758875000,5.629875,-0.08523732004165649,0.05624211170375347,0.02772029303126037
1776017220768936000,5.63993603515625,-0.015916531056165695,0.06313128669559956,-0.008105126652866602
1776017220778997000,5.6499970703125,0.0368605348855257,0.06752133834809064,-0.0027300825510174036
1776017220789058000,5.66005810546875,0.09983692328035831,0.04449614433050155,0.015352394367381929
1776017220799119000,5.670119140625,0.10427344442307948,0.021402853512763977,0.02096460822597146
1776017220809180000,5.680179931640625,0.14921324086785315,0.06917933468818664,-0.009284472630545496
1776017220819241000,5.690240966796875,0.09535364038646221,0.10408113672137259,-0.09813070388436317
1776017220829301000,5.700301025390625,-0.06435001483559608,0.08283405829221009,-0.06263159354515373
1776017220839361800,5.71036181640625,-0.21785481541752813,0.03692775490283966,0.007096753327921032
1776017220849422800,5.7204228515625,-0.34618718082010747,0.06341390302926302,-0.007055106143280863
1776017220859484000,5.73048388671875,-0.3298421952188015,0.048967444525659085,-0.04924041624814272
1776017220869545000,5.740544921875,-0.20573300046920776,0.0320329685986042,-0.055685866060480475
1776017220879606000,5.75060595703125,-0.06196224291622638,0.07521072380691766,-0.0259510914016515
1776017220889667000,5.7606669921875,0.020360650983452796,0.1299155429407954,0.02038052472770214
1776017220899728100,5.77072802734375,0.09755202721357345,0.10877864688783884,0.014031813288107514
1776017220909789000,5.780788818359375,0.15024316843748092,0.04933569331616163,0.019480872474238277
1776017220919849000,5.790848876953125,0.11419687254428863,0.04054594539999962,0.07162877366691828
1776017220929910000,5.800909912109375,0.03774900815784931,0.07217354806810616,0.14671879370361565
1776017220939971000,5.81097119140625,0.02620411631464958,0.07053630225509405,0.19496815308779478
1776017220950032000,5.821031982421875,0.042215924438834186,0.034111820699274535,0.17750673067718742
1776017220960093000,5.831093017578125,0.10049801753759384,0.0411696302562952,0.14189385776519775
1776017220970154000,5.841154052734375,0.15280688144564628,0.08193447910398244,0.09611563773490488
1776017220980214800,5.85121484375,0.1753793632596731,0.04628624261766672,0.07597768959142268
1776017220990275800,5.86127587890625,0.21206804870963095,0.045510582070052624,0.007980185098946093
1776017221000337000,5.8713369140625,0.1857271542727947,0.08114946620613336,-0.04367153007462621
1776017221010398000,5.88139794921875,0.06442424911558628,0.043571138440072536,-0.05561879217363894
1776017221020458000,5.8914580078125,0.0049169981360435485,0.08280658576339482,-0.13090360413007437
1776017221030519000,5.90151904296875,-0.03872574423551559,0.11745119816511869,-0.16734795943014322
1776017221040580000,5.911580078125,-0.2741039413839578,0.10404635766893625,-0.022362930716574192
1776017221050641200,5.92164111328125,-0.26346798107922076,0.0738581401541829,0.14511121237650512
1776017221060702000,5.931701904296875,0.127756611341238,0.031177520813047883,0.010990618961304426
1776017221070762800,5.9417626953125,0.28826515320539475,0.024881635539233685,-0.09307758521325886
1776017221080823800,5.95182373046875,0.08713000192046165,0.04111263937205076,-0.07862608520835637
1776017221090884900,5.961884765625,-0.07031564524173736,-0.012592647330462932,-0.030272900123521684
1776017221100946000,5.97194580078125,-0.09841536604464053,-0.002271452063322067,-0.040878684485703705
1776017221111006000,5.982005859375,-0.10717150395214557,0.09245324276983738,-0.03886164557486772
1776017221121067000,5.99206689453125,-0.12465338462889194,0.13126052780896424,-0.04845708385072648
1776017221131127800,6.0021279296875,-0.21140169375538825,0.07581161230951547,-0.023602847775071857
1776017221141188900,6.01218896484375,-0.22388474323153496,0.02206365550905466,0.00664199529774487
1776017221151250000,6.02225,-0.1101110645353794,0.01177577798962593,-0.011774389750137924
1776017221161311000,6.03231103515625,-0.014352350479364393,0.0172451493114233,-0.038419016373902555
1776017221171372000,6.0423720703125,0.049424248382449146,0.02712561507374048,-0.03010404636263847
1776017221181433000,6.05243310546875,0.12768471514880655,0.012227028888463973,-0.01061279862485826
1776017221191494000,6.062493896484375,0.12589023294746876,0.04463409149646759,0.03808613115772605
1776017221201555000,6.072554931640625,0.0076589903205633155,0.053986149470508095,0.0924932094540447
1776017221211614700,6.08261474609375,-0.0018465046495199202,0.030612872667610643,0.11994973698258399
1776017221221675800,6.09267578125,0.03799859900474548,0.0179945063740015,0.12192293675169348
1776017221231736800,6.10273681640625,0.03264788562655449,0.024591712681949138,0.10159428834170102
1776017221241798000,6.1127978515625,0.012839607828855513,0.020008184283971785,0.10249883596599102
1776017221251858400,6.1228583984375,-0.03551028932034969,0.013803776685893535,0.08712949046380818
1776017221261919500,6.13291943359375,-0.05524374831616878,-0.014498773212730885,0.049314358267188066
1776017221271980500,6.14298046875,-0.04049918364882469,0.026129297512769697,0.007233531450107693
1776017221282041600,6.15304150390625,-0.02976853079795837,0.03135726129412651,-0.030731165285035965
1776017221292102700,6.1631025390625,-0.00011924246549606323,-0.0049205052673816675,-0.031790976536273954
1776017221302162700,6.17316259765625,0.0026128128468990326,0.001868424220383167,-0.01422857796922326
1776017221312223700,6.1832236328125,-0.022467852395772932,-0.008442834174633025,-0.013995792126655578
1776017221322284500,6.193284423828125,-0.00968085153698921,0.02082271553725004,-0.009291925284639001
1776017221332345600,6.203345703125,0.011499299135804176,0.048287061046063895,-0.03916786197982728
1776017221342406400,6.213406494140625,-0.0469166494756937,0.0732370856463909,-0.026870325138419866
1776017221352467500,6.223467529296875,-0.08771510833203792,0.05726181014031172,-0.007112243157997727
1776017221362528500,6.233528564453125,-0.0834025058299303,0.04836100306510925,0.021790829917043446
1776017221372589600,6.243589599609375,-0.09921265390217304,0.040568157231807705,0.032897987930104136
1776017221382650600,6.253650634765625,-0.09420680843889713,0.06548048017024993,0.05256459223479032
1776017221392710700,6.263710693359375,-0.05135960035920143,0.04250584729611873,0.04439604495689273
1776017221402771500,6.273771484375,0.07551555197238921,0.033416531911492346,0.005604176682606339
1776017221412832500,6.28383251953125,0.10914718793928622,0.028503917689621447,-0.010914119658991694
1776017221422893600,6.2938935546875,0.0667979925096035,0.047186990849673746,0.005809563061594963
1776017221432954600,6.30395458984375,0.04949556005299091,0.046481180667877195,-0.019783435617387293
1776017221443015700,6.314015625,0.019571546432375908,0.03622808220088482,-0.02678286605067551
1776017221453076500,6.324076416015625,0.0431260250210762,0.050986383132636544,-0.021351488651707766
1776017221463137500,6.334137451171875,0.04806055881381035,0.10303045862466097,0.008419672494754196
1776017221473198600,6.344198486328125,-0.002243395012617111,0.12950930022746324,0.026607801744714377
1776017221483258400,6.35425830078125,0.028352234259247776,0.07818009500652551,0.03125445850677788
1776017221493319400,6.3643193359375,0.044235447567701335,0.06596621786057949,0.02783843951821327
1776017221503380500,6.37438037109375,-0.01777414162158966,0.11127484761774539,0.004670402963832021
1776017221513441500,6.384441650390625,-0.07135726324915885,0.1190580488398671,-0.0363278893135488
1776017221523502600,6.394502685546875,-0.1145551844626665,0.07059855383634567,-0.05358714021556079
1776017221533563600,6.404563720703125,-0.06347673913240433,0.05667670372873544,-0.0519683068420738
1776017221543624700,6.414624755859375,-0.09031213908791541,0.06561053629070521,-0.024077698745205996
1776017221553685800,6.424685791015625,-0.11567337483763694,0.054579439188539976,-0.023000497967749833
1776017221563746800,6.434746826171875,-0.05651332986056804,0.05866816980689764,-0.002149798445031047
1776017221573807400,6.444807373046875,0.021389409509301183,0.05689940656870603,-0.008451821198686957
1776017221583867600,6.45486767578125,0.050990182524919506,0.05551175160259008,0.00595671644732356
1776017221593928400,6.464928466796875,0.02093523600101471,0.0904240750297904,0.009846125101298094
1776017221603989500,6.474989501953125,-0.03728606682121754,0.06913081937134266,-0.00875299610234797
1776017221614050600,6.485050537109375,-0.08073650149106978,0.031283319275081156,0.0052159080173820255
1776017221624111600,6.495111572265625,-0.026951135289669036,-0.0026034604966640473,0.043607817188650366
1776017221634172700,6.505172607421875,0.0392091438382864,0.03498655770719051,0.02216682362258434
1776017221644233500,6.5152333984375,0.04771744446456432,0.05628565858453512,0.019275047703832388
1776017221654294500,6.52529443359375,0.029104513931274414,0.07582476405203342,-0.008916223840042948
1776017221664355600,6.53535546875,0.04247019146084785,0.08273439731001854,-0.0186938868150115
1776017221674415600,6.54541552734375,0.02887713491618633,0.07367635384649038,0.017931962531805037
1776017221684476700,6.5554765625,0.02409925298988819,0.08666063084304332,0.028326296100392934
1776017221694537700,6.565537841796875,0.0728366881519556,0.08957447246313095,0.01894157796576619
1776017221704598800,6.575598876953125,0.10839490826725959,0.1177712238997221,-0.010202756519243121
1776017221714659600,6.58565966796875,0.09184767809212208,0.100811029009521,-0.018805895822122692
1776017221724720400,6.595720458984375,0.0063338791966438285,0.0868488468915224,0.011445230861008166
1776017221734781400,6.605781494140625,-0.03597030804753303,0.06698357820957898,0.01990479697473347
1776017221744842500,6.615842529296875,-0.06453472375273704,0.04616612336933613,0.02341302429139614
1776017221754903600,6.625903564453125,-0.04423486304581165,0.08025807032436132,-0.03291018982455134
1776017221764963600,6.635963623046875,-0.050693245404958724,0.06080605861842632,-0.006054258537665009
1776017221775024600,6.646024658203125,-0.07335457454621791,0.059306175449490545,0.024184447055310008
1776017221785085700,6.656085693359375,-0.04031915090680122,0.06929565454423427,-0.012102817986905575
1776017221795146500,6.666146484375,0.007943652480840682,0.04354921886920929,-0.06057553779818117
1776017221805207600,6.67620751953125,0.030204584127664563,0.04987199214994907,-0.0617955811124295
1776017221815268600,6.6862685546875,-0.052046998101472855,0.07085603572875261,-0.043935222512111065
1776017221825329700,6.69632958984375,-0.02223696624934673,0.03517828088700771,-0.04497092223539948
1776017221835390500,6.706390380859375,0.03817687818109989,0.049967269217967986,-0.004449965146183967
1776017221845451500,6.716451416015625,0.08028817320168018,0.11164601901769637,-0.01535772812962532
1776017221855511600,6.726511474609375,0.06100070440769195,0.15430939496308566,-0.0005142331324517726
1776017221865572600,6.736572509765625,0.04737900629043579,0.1211056290194392,0.00899191942475736
1776017221875633400,6.74663330078125,0.000039162966609001156,0.14137743267565964,0.011750278222188352
1776017221885694500,6.756694580078125,-0.11271510955393314,0.12992284946441648,0.06462050234004854
1776017221895755500,6.766755615234375,-0.15099135645627976,0.13278086924403906,0.11565408561527728
1776017221905816600,6.776816650390625,-0.11154197412133217,0.09496142619848251,0.12384857105202972
1776017221915877600,6.786877685546875,-0.054498482906818385,0.056390288002789016,0.08041552590839564
1776017221925938700,6.796938720703125,0.024476854130625725,0.038650633172690865,0.044866512012854215
1776017221935999700,6.806999755859375,0.09924421808421612,0.060143503056466575,-0.014919044451415538
1776017221946059500,6.8170595703125,0.194324302226305,0.07112374675422907,-0.0293731017395854
1776017221956120600,6.82712060546875,0.20043138692975043,0.05279255577176809,-0.006905614669993519
1776017221966181600,6.837181640625,0.15309505073726176,0.039761809284985065,0.017162877855449912
1776017221976242400,6.847242431640625,0.12424012765288352,0.020569909819960593,-0.014508637019619346
1776017221986303500,6.857303466796875,0.06568038665652275,0.03574702068567276,-0.05475538027733564
1776017221996364500,6.867364501953125,-0.0005576338827610015,0.10484832170158624,-0.07048859065584838
1776017222006425600,6.877425537109375,-0.0280026901692152,0.13643968401253223,-0.0657739101588726
1776017222016486700,6.887486572265625,-0.1163940903276205,0.12311784562468528,-0.015224895530194044
1776017222026547700,6.897547607421875,-0.1526671807140112,0.10144143586754799,0.022153452684357762
1776017222036607500,6.907607421875,-0.12089783148765564,0.05232376921623945,-0.003283186389133334
1776017222046668500,6.91766845703125,-0.09355389748811721,0.03706745563447475,-0.024028598906472323
1776017222056729600,6.9277294921875,-0.0778039551705122,0.09131839352101087,-0.02163483563773334
1776017222066790700,6.937790771484375,-0.05214812038838863,0.07141483865529298,0.006656900605931878
1776017222076851700,6.947851806640625,-0.048559740507602686,0.03221241681873798,0.05713029271513223
1776017222086912500,6.95791259765625,-0.0655167205274105,0.034141923576593396,0.11707491219863295
1776017222096973600,6.9679736328125,0.007766542348265648,0.042486558073759076,0.08880575311295688
1776017222107034600,6.97803466796875,0.03804945240914821,0.0815136233434081,0.06645692398697138
1776017222117095400,6.988095458984375,0.007637947532534599,0.12878215499669313,0.048385479919239874
1776017222127156500,6.998156494140625,0.07888298257887363,0.13793313744068145,0.07750278026685119
1776017222137216500,7.008216552734375,0.08132277694642544,0.14120938263237476,0.0786599874779582
1776017222147277600,7.018277587890625,0.06628536681234837,0.11956658288389443,0.07651172340288757
1776017222157338600,7.028338623046875,0.055475803506374356,0.05730038858503103,0.07877024291940032
1776017222167399700,7.038399658203125,-0.009800678524374962,0.015449498066306114,0.09425093984156846
1776017222177460700,7.048460693359375,-0.01381049868762493,0.0013204349488019943,0.0958775181300938
1776017222187521500,7.058521484375,-0.00824175864458084,0.007121522442996501,0.1027924120850861
1776017222197582600,7.06858251953125,0.0066606269329786295,0.015510580603778362,0.10835516077876091
1776017222207643400,7.078643310546875,-0.012443301987648009,-0.013132161034643649,0.09960632939487696
1776017222217704400,7.088704345703125,0.019489128845930098,-0.010210136108100414,0.09666479605026543
1776017222227764500,7.098764404296875,0.0007125321835279464,0.038219256018102166,0.061873760915175074
1776017222237825500,7.108825439453125,-0.04685469015538692,0.09294277985244989,0.07082264491580426
1776017222247886800,7.118886962890625,-0.021902035206556317,0.07208674656748772,0.06021152679137885
1776017222257948000,7.128947998046875,0.0319938056319952,0.028249358406662938,0.05558562055639922
1776017222268008700,7.1390087890625,0.0640092385739088,0.01918459294140339,0.05291903169564902
1776017222278069800,7.14906982421875,0.10839081661403178,0.015342822821438312,0.03819580207727849
1776017222288130800,7.159130859375,0.11822364384233951,0.019158581717312335,0.036948213168978686
1776017222298192000,7.16919189453125,0.0477881716132164,0.01459434254169464,0.047777357958257195
1776017222308253000,7.1792529296875,-0.05248831212818622,0.031135142976045607,0.015319953402504324
1776017222318313000,7.18931298828125,-0.12534896567761897,-0.0017988661155104637,0.006277692029997706
1776017222328374000,7.1993740234375,-0.11187398255467414,0.010630407346785067,0.0002463759765028953
1776017222338434800,7.209434814453125,-0.07817980274558067,0.05619067377746105,0.01618891825675964
1776017222348495600,7.21949560546875,-0.07403320446014404,0.06951280442625284,0.04210566899739206
1776017222358556700,7.229556640625,-0.06792027453780174,0.04751052371561527,0.07632906031236052
1776017222368617700,7.23961767578125,-0.06215279705226421,0.018705577252805233,0.04747822888121009
1776017222378678800,7.2496787109375,0.019279285487532615,0.02305909628719091,0.013100962178781627
1776017222388739800,7.25973974609375,0.06195581317543983,0.08523352064937352,-0.006216682557761669
1776017222398801000,7.26980078125,0.0904740516513586,0.1049567505121231,-0.0332630218502134
1776017222408861000,7.27986083984375,0.1501958221644163,0.12039397361874579,-0.053431949653849
1776017222418921700,7.289921630859375,-0.006817278799414635,0.048292906264960765,-0.04532638460956514
1776017222428982800,7.299982666015625,-0.014022680133581161,0.029992694942653178,-0.03328004605025053
1776017222439043800,7.3100439453125,-0.012535071924328803,0.08916735296696424,-0.03286503550857305
1776017222449105000,7.32010498046875,-0.03453472228646278,0.08388912030309438,-0.052749593412876127
1776017222459165700,7.330165771484375,-0.03634089492559433,0.020379355683922767,-0.023018545081093907
1776017222469226800,7.340226806640625,-0.015894319224357602,-0.004577683179080486,-0.00026347324177622796
1776017222479287800,7.350287841796875,0.04118015165030956,0.006989420495927334,0.014090046281367539
1776017222489348900,7.360348876953125,0.03413140218257904,0.02631137608140707,0.02559073365665972
1776017222499408600,7.37040869140625,-0.005557049605250358,0.040484570601582524,0.010682137534022331
1776017222509469700,7.3804697265625,-0.021215806508064268,0.03887275149077177,-0.030406098049134016
1776017222519530800,7.39053076171875,-0.010061375287175179,0.048095337866246694,-0.03789996093586087
1776017222529591800,7.400591796875,0.022272037562727928,0.05638181243538856,-0.009665946228802203
1776017222539652900,7.41065283203125,0.06263327404558658,0.05734481224864721,-0.0048792964741587634
1776017222549714000,7.4207138671875,0.03512099774181843,0.05421177491992712,-0.017673092399910093
1776017222559775000,7.43077490234375,-0.02975684036016464,0.04514496362805366,-0.010517594622075558
1776017222569835800,7.440835693359375,-0.10239712915718555,0.03750526252985,0.01734627159833908
1776017222579896800,7.450896728515625,-0.12641513360440731,0.01751052224934101,0.07682626924477517
1776017222589956900,7.460956787109375,-0.1307078623622656,0.02420475919097662,0.10539090414568782
1776017222600017700,7.471017578125,-0.06423252593576907,0.01034837553501129,0.10183474603407085
1776017222610078700,7.48107861328125,-0.01541910292804241,0.02490793902426958,0.06651574150212108
1776017222620139800,7.491139892578125,0.05070844297409057,0.043354573079943656,0.01836911184005439
1776017222630200800,7.501200927734375,0.10637655418217182,0.04146335250586271,-0.01945303461924195
1776017222640262000,7.511261962890625,0.12960311599075794,0.055770694799721236,-0.0032771219745278356
1776017222650323000,7.521322998046875,0.128911042073369,0.07466857975423336,-0.012342764222621917
1776017222660384000,7.531384033203125,0.08714636853337288,0.0574912349820137,0.027739436123147606
1776017222670444800,7.54144482421875,0.05022971954643726,0.041404023534059524,0.0552883911754936
1776017222680505900,7.551505859375,0.008793547308444977,0.07222089434117078,0.04518814518265426
1776017222690566000,7.56156591796875,-0.08596212718486786,0.12083791799396276,0.0683992902263999
1776017222700627000,7.571626953125,-0.11116203489303589,0.11948884147256612,0.08794767497889697
1776017222710688000,7.58168798828125,-0.044563364347815514,0.0820779792279005,0.029402327834069725
1776017222720748800,7.591748779296875,0.007948328655958176,0.06274988616257905,-0.008426686757430434
1776017222730809900,7.601809814453125,-0.02824409770965576,0.08837006510943174,-0.03733750474750996
1776017222740870700,7.61187060546875,-0.05139700976014137,0.09253887522667646,-0.006550152295827865
1776017222750931700,7.621931640625,-0.04553074807524681,0.04716390223503113,-0.0321538184992969
1776017222760992800,7.63199267578125,-0.009445873737335204,0.043643034632503984,-0.039363311486691234
1776017222771052800,7.642052734375,-0.010600888991355896,0.08590455177873373,0.005184051574394106
1776017222781113900,7.65211376953125,-0.010302782827615738,0.08012392255067825,0.0005259966354817151
1776017222791175000,7.6621748046875,0.05251870726644992,0.06488456010371446,-0.02554630999304354
1776017222801236000,7.672236083984375,0.020872107636928556,0.08902443736493587,-0.07044584749266505
1776017222811297000,7.682297119140625,0.012694646400213241,0.10673048218637704,-0.08529401866495609
1776017222821357800,7.69235791015625,0.038492520001530646,0.12160597975701093,-0.0704624333012849
1776017222831419000,7.7024189453125,0.05229483538269997,0.13698884232789277,-0.07071662725806235
1776017222841479700,7.712479736328125,0.07285305476486682,0.10157733720690011,-0.015521248128265141
1776017222851540700,7.722540771484375,0.11138123060166835,0.049424248382449146,0.015819646552950144
1776017222861600800,7.732600830078125,0.14185703288614748,0.06459902116060257,0.010615648169070482
1776017222871661800,7.742661865234375,0.09027122255563735,0.11110095235556364,-0.005283639491349458
1776017222881723000,7.752722900390625,-0.006437339571118354,0.11147709219157695,0.0011419365767389535
1776017222891783700,7.76278369140625,-0.05942950956821441,0.05363952798992395,0.028737214988842606
1776017222901844700,7.7728447265625,-0.13431845407485962,0.03555675881057978,0.017915742049366235
1776017222911905800,7.78290576171875,-0.13906068016588688,0.07661825251728296,-0.018440423510596157
1776017222921966800,7.792966796875,-0.13971943633556366,0.0698021427616477,-0.03715447633080184
1776017222932028000,7.80302783203125,-0.11285130315423011,0.056008595208823675,0.0022829963706433773
1776017222942089000,7.8130888671875,-0.046239188605546946,0.01243541094213724,0.005047565713152289
1776017222952149800,7.823149658203125,0.0535696776241064,0.018453648318350314,-0.017611936797201633
1776017222962210000,7.8332099609375,0.11844342407286167,0.03548720070570707,-0.04452244781553745
1776017222972270800,7.843270751953125,0.059256491088867186,0.047938685999810694,-0.013811594666168093
1776017222982331600,7.85333154296875,0.009356441888213158,0.052932256503403184,0.014495558342337608
1776017222992392700,7.863392822265625,0.07238309916555881,0.04581804058402776,0.012000965047627687
1776017223002453800,7.873453857421875,0.12094050158560275,0.08034136469364166,-0.04829732671175152
1776017223012514800,7.883514892578125,0.043593058010935784,0.09371610231250524,-0.062956076259166
1776017223022575900,7.893575927734375,-0.04704115263819694,0.07405015559494495,-0.06321757673956453
1776017223032637000,7.903636962890625,-0.1545131008416414,0.05783230350464582,-0.07855656363610178
1776017223042696700,7.91369677734375,-0.1439969675242901,0.02836480147987604,-0.04003405035510659
1776017223052757800,7.9237578125,-0.08824643872976302,0.05545008454322815,-0.01944302468188107
1776017223062818800,7.93381884765625,-0.037604631251096726,0.0435877973139286,-0.014847951976582407
1776017223072879900,7.9438798828125,-0.032271453529596324,0.03193886057436466,-0.009005180765129626
1776017223082941000,7.95394091796875,-0.05568155521154403,0.046266076612472534,0.020459252519719303
1776017223093001700,7.964001708984375,-0.025520225703716277,0.07461538826227188,0.06800627232082188
1776017223103062800,7.974062744140625,0.07167991933226585,0.073542790594697,0.07770162730719894
1776017223113123800,7.984123779296875,0.1613935080051422,0.08078530906885861,0.05010726221054792
1776017223123185000,7.994184814453125,0.15631693539321423,0.08045797681063413,0.043329329040832816
1776017223133245700,8.00424560546875,0.15556582476496694,0.030381401999294757,0.03231905553098768
1776017223143305700,8.0143056640625,0.12986615084111688,-0.02039747586250305,0.07933138393349945
1776017223153366800,8.02436669921875,0.1298626437097788,0.0276192438095808,0.08502101040985435
1776017223163427800,8.034427734375,0.0728372726738453,0.05065291339457035,0.09138754976708441
1776017223173489000,8.044489013671875,0.005263035094738007,0.00042582419663667677,0.09770203014351427
1776017223183550000,8.054550048828125,0.01785655920803547,-0.012830547739565372,0.12927129022050649
1776017223193611000,8.064611083984374,0.07873802115023136,-0.019973697492480277,0.12935498644858598
1776017223203671800,8.074671875,0.12478899370729922,-0.014780220502614974,0.08356277442555875
1776017223213732600,8.084732666015626,0.1752969456732273,-0.03461334048062563,0.05179433851465583
1776017223223793700,8.094793701171875,0.11676350816190242,-0.017569558960199357,0.07000219537839293
1776017223233853700,8.104853759765625,0.006837152543663978,0.009696633628010749,0.09889343188516796
1776017223243914800,8.114914794921875,-0.04400514594316482,0.026027882964909075,0.10562719711959362
1776017223253975000,8.12497509765625,-0.0683013828098774,0.002011339822411537,0.12932846376784146
1776017223264036000,8.1350361328125,-0.08255261100232601,0.007238719081878662,0.11585702430885285
1776017223274097200,8.14509716796875,-0.11452712741196155,0.050635669998824594,0.11591971428152173
1776017223284158200,8.155158203125,-0.10634499000012874,0.07184300093948841,0.13283902917206286
1776017223294219000,8.165218994140625,-0.031498131069540976,0.0028556816920638083,0.0965330228967592
1776017223304280000,8.175280029296875,-0.005469955843687057,-0.013266893330216406,0.11331998011190443
1776017223314341000,8.185341064453125,-0.011691606837511062,-0.018647417324781417,0.14173194520175456
1776017223324401200,8.195401123046874,0.07183306406736374,-0.03478139052391052,0.14601009744498877
1776017223334462200,8.205462158203124,0.06884031199216842,-0.0405336704403162,0.12471647646035998
1776017223344523300,8.215523193359376,0.04247369859218597,-0.00814677383750677,0.13778474194593726
1776017223354584300,8.225584228515626,0.08568389476537704,-0.016652736376225948,0.08264649983085691
1776017223364645000,8.23564501953125,0.18052841658592222,0.008473813834786414,0.008360672316513955
1776017223374706000,8.245705810546875,0.20280629936754702,0.07094546757787466,-0.05095313845016062
1776017223384767000,8.25576708984375,0.1508504866808653,0.11049188054651021,-0.06429733480028808
1776017223394828000,8.265828125,0.10509703576564788,0.14969664047062395,-0.1068226905144751
1776017223404889000,8.27588916015625,0.08997370091378688,0.1555006505742669,-0.13002784420885144
1776017223414949000,8.28594921875,0.048315994879603384,0.15411854856610296,-0.08676555252224206
1776017223425010200,8.29601025390625,0.09298749577701092,0.12176613875478505,-0.10152509556300937
1776017223435071200,8.3060712890625,0.18226912277340887,0.10663988129347562,-0.11802932684663682
1776017223445132000,8.316132080078125,0.17327800706624985,0.1773945024743676,-0.13317578684575854
1776017223455193000,8.326193115234375,0.2111030030697584,0.1612450394451618,-0.17635522255450486
1776017223465254100,8.336254150390625,0.3613397417664528,0.09274053527861834,-0.24543303309697656
1776017223475315200,8.346315185546874,0.48341596938371656,0.1197580138027668,-0.32777474129498
1776017223485376000,8.3563759765625,0.47546062646508214,0.20227116957753896,-0.3621164252273738
1776017223495437000,8.36643701171875,0.45136546512842174,0.232773275347054,-0.33082715113554145
1776017223505497300,8.376497314453125,0.42726621213853355,0.24082623342126608,-0.31202973088081926
1776017223515558000,8.386557861328125,0.3685352062284946,0.2833089921027422,-0.29369105071164664
1776017223525619000,8.396618896484375,0.28082243598401546,0.290131531599164,-0.29024262729082256
1776017223535680000,8.406679931640625,0.26062311304211616,0.3264478766053915,-0.2772003730293363
1776017223545741000,8.416740966796874,0.27615035251975056,0.3927294440254569,-0.25732461948599666
1776017223555802000,8.426802001953124,0.29310031827688215,0.3827499018028378,-0.27570797904711214
1776017223565863200,8.43686328125,0.321454306101799,0.3666156363427639,-0.283156431889534
1776017223575924200,8.44692431640625,0.3617313714325428,0.4004007093057036,-0.33528730888217684
1776017223585985300,8.4569853515625,0.40069676964282985,0.43613282468318937,-0.3948842109065503
1776017223596045000,8.467045166015625,0.48126434430778026,0.3806581902205944,-0.4729996066464111
1776017223606106000,8.477106201171875,0.6264139889985323,0.3475739590033889,-0.5258989107282832
1776017223616167200,8.487167236328125,0.7229150458544492,0.38574703779220576,-0.5275055422073229
1776017223626228000,8.49722802734375,0.7425830383986234,0.41690994555801153,-0.49984077875558286
1776017223636289000,8.5072890625,0.7605272758901119,0.35162425730749963,-0.43423298241123554
1776017223646350000,8.51735009765625,0.7618330977916717,0.32694910412579775,-0.41534890678636727
1776017223656411100,8.5274111328125,0.786894473811984,0.2868905038513243,-0.4570155267793685
1776017223666472200,8.53747216796875,0.8627619079619645,0.2154397170998156,-0.4910515422960743
1776017223676533200,8.547533203125,0.9805150116831064,0.17590075678527353,-0.538101645425707
1776017223686593000,8.557593017578125,0.979124434107542,0.15777721720412372,-0.5831574694655836
1776017223696654000,8.567654052734374,0.8244394838303327,0.0976043419227004,-0.6486660066865384
1776017223706715100,8.577715087890626,0.5178092373728752,-0.05952332533150911,-0.6862141585100442
1776017223716776200,8.587776123046876,0.1331336282044649,-0.1665942915186286,-0.7362875915162265
1776017223726837200,8.597837158203125,-0.23719606022536754,-0.21862843013852834,-0.7924362527828663
1776017223736898300,8.607898193359375,-0.5836491985052824,-0.17406681935638188,-0.8436712769143283
1776017223746959000,8.617958984375,-0.9025362844675778,-0.21599150576367973,-0.868255244681239
1776017223757020000,8.62802001953125,-1.0503308907091617,-0.20215090419873594,-0.8417245267607271
1776017223767080200,8.638080078125,-1.0913561440587043,-0.05992050795555114,-0.8700122444164008
1776017223777141000,8.64814111328125,-0.8860802397072315,-0.10066066075339913,-0.9992556602492928
1776017223787202000,8.6582021484375,-0.7068126368373632,-0.2630854115024209,-1.1442525985963643
1776017223797263000,8.66826318359375,-0.5074713832318782,-0.31763518620505926,-1.1977164777584373
1776017223807324200,8.67832421875,-0.09495499645769595,-0.17575184983387587,-1.2565493366077543
1776017223817385200,8.68838525390625,0.26048224326670166,0.01367737382724881,-1.267090896627307
1776017223827446300,8.6984462890625,0.5187012177765369,0.08834127740636467,-1.193563741993159
1776017223837507000,8.708507080078125,0.6515589516490697,-0.027884470617026088,-1.0528444809652864
1776017223847568100,8.718568115234374,0.5273579869627952,-0.25730916618853805,-0.8732042453907429
1776017223857628200,8.728628173828126,0.38914778614640233,-0.5082457286052405,-0.7403770527869462
1776017223867689200,8.738689208984376,0.3226069832682609,-0.7116255900770425,-0.5038456670153886
1776017223877750300,8.748750244140625,0.4157084608137607,-0.743285049188137,-0.24240188524015246
1776017223887811000,8.75881103515625,0.6654273180037736,-0.6463800877064466,-0.2134778424423188
1776017223897872100,8.7688720703125,1.0038397731691597,-0.6176582894824445,-0.3660183280367404
1776017223907933000,8.778932861328125,1.1032160932004451,-0.7899580991663038,-0.5670532338175922
1776017223917994000,8.788993896484374,0.8197574634939432,-0.9987531175546348,-0.11636194162368774
1776017223928055000,8.799054931640624,1.3332137663543224,-2.09292855681777,-0.882079260437563
1776017223938116000,8.8091162109375,1.7823510340392588,-2.1975534450270233,-0.7373657421417534
1776017223948176100,8.819176025390625,1.2627028908014297,-1.785865325770527,-0.9631099225696176
1776017223958237200,8.8292373046875,0.8722972135484218,-1.010136389095336,-0.9527491990096867
1776017223968298200,8.83929833984375,0.7093015310436487,-0.5247698701657354,-0.825234652796015
1776017223978359300,8.849359375,0.5611708247154951,-0.4233553223051131,-0.6709543377969414
1776017223988420000,8.859420166015624,0.07107727726399898,-0.6008081308379769,-0.6124556062728166
1776017223998481200,8.869481201171874,-0.4955383688539266,-0.8631771376993507,-0.6076311817910521
1776017224008542000,8.8795419921875,-0.9688812725126743,-1.1955735474456102,-0.6655097355902194
1776017224018603000,8.88960302734375,-1.3436527427822351,-1.6492445861026643,-0.836320037368685
1776017224028664000,8.8996640625,-1.5123229637920856,-1.489087926416099,-0.8049208366289734
1776017224038724000,8.90972412109375,-1.7457278150409459,-1.1559158561222254,-1.0533230582624673
1776017224048785200,8.91978515625,-1.8043091833472251,-0.9699293933261185,-1.1357492664061486
1776017224058846000,8.929845947265624,-1.6759546061128376,-0.8295907291136682,-1.0190725597448647
1776017224068907000,8.939906982421874,-1.45442490157485,-0.8534737820696086,-0.9794007668308913
1776017224078968000,8.949968017578126,-0.9644120181441307,-0.9003895547624677,-0.8893690521195531
1776017224089029000,8.960029052734376,-0.4907821142375469,-0.8973707183979451,-0.8741222370184958
1776017224099090200,8.970090087890625,-0.20808979272842407,-0.844533446701616,-0.8702892347268759
1776017224109151200,8.980151123046875,-0.11842121224105358,-0.8668108910918235,-0.829966357493028
1776017224119212000,8.9902119140625,-0.03031973493993282,-0.9402386770047246,-0.8297946541879325
1776017224129272300,9.000272216796875,0.11993395489156246,-0.9385536465272307,-0.8017547007482498
1776017224139333000,9.0103330078125,0.2266489472478628,-0.8203438850797712,-0.6654867931060493
1776017224149394000,9.020393798828126,0.44354514676630497,-0.54948199435696,-0.5415159839138388
1776017224159455000,9.030455078125,0.52216450997293,-0.4227463966265321,-0.2964638033606112
1776017224169516000,9.04051611328125,0.4210831395894289,-0.38987215489819643,-0.20901783082615583
1776017224179577000,9.0505771484375,0.3672732234686613,-0.35962636197730896,-0.2910907685527578
1776017224189638100,9.06063818359375,0.2546545600265264,-0.014325608602911233,-0.3776562319256365
1776017224199699200,9.07069921875,0.0956459013313055,0.17495996880382297,-0.37893363145031034
1776017224209760300,9.08076025390625,-0.032468437406420705,-0.0007120937921106815,-0.14396452655941247
1776017224219820000,9.090820068359376,-0.14630173733532428,-0.3344619639739394,0.25586627390384675
1776017224229881000,9.100881103515626,-0.14652560921907423,-0.48063583714589475,0.5607533299557864
1776017224239942100,9.110942138671875,-0.08834113127589226,-0.35005963833928105,0.8156363649759442
1776017224250004000,9.12100390625,-0.08436988955736159,-0.022698738542199132,0.9763935478389263
1776017224260064800,9.131064697265625,-0.09899112010598182,0.6069079090178012,0.8851339718330651
1776017224270125800,9.141125732421875,-0.2638216168224811,1.2535036853015422,0.7829169484831392
1776017224280187000,9.151186767578125,-0.33369594803750513,1.2918071124717592,0.9059916125532239
1776017224290248000,9.161248046875,-0.36593583738505836,0.8757409242615103,1.0962070912212132
1776017224300309000,9.17130908203125,-0.17056874810755251,0.7172690027914941,1.263996730004251
1776017224310369000,9.181369140625,-0.03796118960380554,0.5000559924088418,1.380436413039267
1776017224320430000,9.19143017578125,-0.02651040578484535,0.5951505434677005,1.416569948824495
1776017224330491100,9.2014912109375,-0.10322831928431987,2.355444643999636,0.6486406530495733
1776017224340552000,9.211552001953125,0.06625497167408466,2.546598791757226,0.7852418842993676
1776017224350613000,9.221613037109375,0.13963935683667658,1.6645900392726063,0.9470498183242976
1776017224360673800,9.231673828125,0.004880173256993294,0.9566561433203518,1.5942428298488258
1776017224370734800,9.24173486328125,0.2664204011440277,-0.4258851330436766,2.420885376681387
1776017224380796000,9.2517958984375,-0.09867138663232326,-2.067924171681702,2.5425913096815345
1776017224390857000,9.26185693359375,-0.011933014377951622,-2.318433886988461,3.366990753762424
1776017224400917000,9.2719169921875,0.4510410554796457,-0.5515804279409349,3.482316630336642
1776017224410977800,9.281977783203125,0.5375105476647615,1.0113527791477739,2.3401269556194544
1776017224421038800,9.292038818359375,0.7773995002359151,1.1918215745009482,1.6721800560101865
1776017224431100000,9.302099853515625,1.0566671079933643,0.7588597810693085,1.7466252022720872
1776017224441161000,9.312160888671874,1.0629331826508044,0.605972089472413,1.8312382529355584
1776017224451222000,9.322221923828126,1.0613982281684875,0.7065878881707787,1.7278595653951168
1776017224461283000,9.332282958984376,0.706591103041172,0.9026078883990645,1.6217761489406226
1776017224471343900,9.34234375,0.22501228595674036,1.017532198435068,1.604784535998851
1776017224481404200,9.352404052734375,-0.1785866348683834,0.9736017251633107,1.6163424334540961
1776017224491465000,9.36246484375,-0.7015040090352297,0.9036823857627808,1.5505628242067993
1776017224501525800,9.37252587890625,-1.3518676134198904,0.855882962103188,1.4288124675430356
1776017224511586800,9.3825869140625,-2.0554577810794115,0.8130728711634874,1.1842672135986387
1776017224521647900,9.39264794921875,-2.4220816007286308,0.7961516931094229,0.9768523975223302
1776017224531709000,9.402708984375,-2.555839498311281,0.8067246711805462,0.7043449315495789
1776017224541770000,9.41277001953125,-2.6811452093690633,1.0050488566979765,0.5808271268218755
1776017224551831000,9.4228310546875,-2.332586623242497,1.195350040888041,0.5070702550850809
1776017224561892000,9.43289208984375,-1.7831997598230838,1.1640554695665835,0.5159967811234295
1776017224571951900,9.442951904296875,-1.3147837911725044,1.109590596668422,0.5898376778818667
1776017224582013000,9.453012939453124,-0.8712690395444631,1.0043065138980745,0.6078029581613839
1776017224592074000,9.463073974609374,-0.45983986348509787,0.9572112929850816,0.5777503497250378
1776017224602135000,9.473135009765626,-0.0048848494321107865,1.0097032583750785,0.34690731178820133
1776017224612196000,9.483196044921876,0.3142594261616468,1.167776389785856,0.004012304381281137
1776017224622257000,9.4932568359375,0.5414730215549469,1.2705902830503881,-0.24989246019124983
1776017224632318000,9.50331787109375,0.823539904642105,1.204761427833885,-0.44684579574689265
1776017224642379000,9.51337890625,0.9241372909009457,1.077729185244441,-0.5294257331475615
1776017224652439800,9.523439697265625,0.8884177427440881,1.0642119704149662,-0.5406771950021386
1776017224662499800,9.533499755859374,0.8857394634455442,1.11750210044533,-0.573280364704132
1776017224672561000,9.543560791015626,0.9201087660372257,0.9538665126018225,-0.6484669769831002
1776017224682622000,9.5536220703125,0.8466887250393629,0.6307265915006399,-0.6541004528254271
1776017224692683000,9.56368310546875,0.4967150114178657,0.31252865684628484,-0.5511427671760321
1776017224702744000,9.573744140625,0.13281097212135792,0.17601488468423485,-0.49620735415667294
1776017224712805000,9.58380517578125,-0.0022340426623821256,0.2696243117518723,-0.5097793679133057
1776017224722866200,9.5938662109375,-0.44313715048730373,0.3847359610535204,-0.581837180647254
1776017224732926700,9.6039267578125,-1.146751283544302,0.28111922697350383,-1.0732635841377078
1776017224742987800,9.61398779296875,-2.2084406036138535,0.35955461191534993,-1.7404406684182583
1776017224753048000,9.624048095703126,-3.123963210904598,0.5425226767383515,-2.11708465456143
1776017224763108900,9.63410888671875,-3.7053374502152203,0.7095260605145245,-2.035155874545872
1776017224773170000,9.644169921875,-3.4999750366240736,1.0465671542614698,-2.0195685754440724
1776017224783231000,9.65423095703125,-2.810095998930931,0.779592553300783,-1.6986806710533797
1776017224793292000,9.6642919921875,-0.8150608301103115,0.6254866450205445,-1.4673584712974725
1776017224803352800,9.674352783203124,-0.002949497455358505,0.8534857647683471,-1.8633881259121
1776017224813414000,9.684413818359374,0.526884524232149,1.3969019562803209,-2.085679024080932
1776017224823475000,9.694474853515626,0.8539350429058075,1.2240874750725925,-2.753650181348622
1776017224833535000,9.704534912109375,2.055098884639144,0.9484563971865921,-3.009212796130776
1776017224843596000,9.714595947265625,3.2218940083026886,0.5554523009382188,-2.881948936742544
1776017224853657000,9.724656982421875,3.6227807475596663,3.1678011835873123,-3.928603769287467
1776017224863718100,9.73471826171875,-0.08609890530705451,3.415353802654147,-3.02544116961509
1776017224873779000,9.744779052734375,-10.645600239741801,0.3804097684174776,1.850733080869913
1776017224883839700,9.75483984375,-6.02036912754476,-4.342086370745301,4.905033557483554
1776017224893900800,9.76490087890625,2.5134207447767256,-4.110561049632728,5.796370987066626
1776017224903961900,9.7749619140625,3.3617215811878443,-1.080177747440338,6.263050925704836
1776017224914023000,9.78502294921875,3.6912042954444884,0.9800817348323762,5.309892122980952
1776017224924083000,9.7950830078125,5.156376216483116,1.6212094549685716,2.991287263339758
1776017224934144000,9.80514404296875,5.341659718641639,1.883965049994737,0.3941770124852657
1776017224944205000,9.815205078125,7.512177126574516,2.9138489266112444,-1.5007126054972408
1776017224954265900,9.825265869140624,6.012874972397088,2.9574937148094174,-1.8448970681928096
1776017224964327000,9.835326904296876,2.838926956617832,2.571606976285577,-0.9499256660215556
1776017224974388000,9.845387939453126,-0.39525954702496524,1.3720399022243916,-0.46620019229725
1776017224984449000,9.855448974609375,-5.509557201713323,0.012416706241667269,0.3163574213542044
1776017224994509800,9.865509765625,-7.034227021381259,0.974123410949856,1.5308032078564167
1776017225004571000,9.87557080078125,-0.6131973645508288,2.9910414718851444,-0.46721243807971474
1776017225014631000,9.885630859375,1.8711083449006078,2.85538972337991,1.3296142805576323
1776017225024692000,9.89569189453125,2.459858665937185,4.550014250910282,3.1576746341094375
1776017225034752800,9.905752685546876,2.57212252459228,5.006133048045635,4.012743064959347
1776017225044813800,9.915813720703126,2.388675590211153,4.147698063372076,3.386052597106993
1776017225054875000,9.925875,2.563202136033773,4.719950546333194,2.3545783825591204
1776017225064936000,9.93593603515625,3.3734815770864484,5.817714219346642,1.4861872365385294
1776017225074997000,9.9459970703125,4.186325315669179,5.954562484160065,1.182872398239374
1776017225085058000,9.95605810546875,4.04316421444714,6.454497626668214,1.0319944390296936
1776017225095119000,9.966119140625,3.4849399645775554,6.9515569214791055,1.811092559877038
1776017225105179000,9.976178955078124,2.739658188614249,7.016559262743592,2.3878970070540904
1776017225115240000,9.986239990234376,2.144303939267993,7.261478610697388,2.3672639688700436
1776017225125301000,9.996301025390625,1.6344851161271332,7.623744819658994,2.4732670135647057
1776017225135361800,10.00636181640625,0.5865940197855234,7.771635287490486,1.8161621182262897
1776017225145422800,10.0164228515625,-1.6759294716715811,7.960206140756607,-0.053307811817526814
1776017225155484000,10.02648388671875,-4.251612319093942,7.868866412186622,-1.4087000922322273
1776017225165545000,10.036544921875,-4.099730443538725,6.951440601623058,-2.6658886035263536
1776017225175606000,10.04660595703125,-4.885502927583456,6.2731906269252296,-3.973946885836124
1776017225185665800,10.056665771484376,-4.049830102077126,5.194027024963498,-4.016970619526505
1776017225195726800,10.066726806640625,-3.04814663015902,4.472678497773408,-3.4173172116816044
1776017225205788000,10.076787841796875,-3.080622081828117,4.212863193982839,-3.294227423107624
1776017225215849000,10.086848876953125,-3.244953396850824,3.303860051588714,-3.6745384073257443
1776017225225910000,10.096909912109375,-3.1109219430238007,2.8213018680781126,-4.248260670578479
1776017225235971000,10.10697119140625,-4.209250264182686,2.273664478674531,-5.230718048501014
1776017225246032000,10.117031982421874,-6.028910161396861,1.68394180547446,-6.213855225381255
1776017225256092700,10.1270927734375,-6.514642591029405,1.4355138648778198,-6.011978315818309
1776017225266153700,10.13715380859375,-5.070424610692262,1.3206728492110966,-5.691828662574291
1776017225276213800,10.1472138671875,-4.232523003220558,0.10859627605825661,-6.126151222965121
1776017225286274600,10.157274658203125,-2.5594120961010454,-0.81635028539896,-5.211674325335025
1776017225296335600,10.167335693359375,1.0371198192194104,0.6399027083858847,-4.561809902644157
1776017225306396700,10.177396728515625,2.0717992595493793,-0.5548153182089328,-4.139892650318146
1776017225316457700,10.187457763671874,1.7587518395259976,-1.9626608394384384,-4.887675595447421
1776017225326518800,10.197518798828124,1.5461764258161186,-2.4675059658199547,-5.6814019611060615
1776017225336579800,10.207579833984376,0.963298942335695,-3.1542034508675334,-6.218159060055017
1776017225346641000,10.217640869140626,0.6163233876168728,-3.447152377974987,-6.562194031277299
1776017225356702000,10.227701904296875,-0.2140295580409467,-3.808017487967014,-6.84738927551806
1776017225366761700,10.23776171875,-0.14535890352725983,-4.6259325384646655,-5.802843397951126
1776017225376822800,10.24782275390625,0.11567454388141632,-4.46831153473556,-5.250995112854242
1776017225386883800,10.2578837890625,-0.051312838608026504,-4.2599692285507915,-4.739245029389858
1776017225396944600,10.267944580078124,0.32270160274915394,-4.04840503771007,-4.165197771966457
1776017225407005700,10.278005615234376,-0.06346263754181564,-4.369320999151468,-3.750928404045105
1776017225417066800,10.288066650390626,-0.2101005480289459,-5.090097279411554,-3.018618337857723
1776017225427127800,10.2981279296875,0.016827179627679288,-5.5500622305810445,-2.056909733453393
1776017225437188600,10.308188720703125,0.02279869178533554,-5.827320252081751,-1.2308680751234293
1776017225447249700,10.318249755859375,0.7425754396140575,-5.811807625651359,-0.5723112274110317
1776017225457309700,10.328309814453124,1.206386544817686,-5.3662815342009065,-0.11522972272336482
1776017225467370800,10.338370849609374,1.239844577783346,-4.997987735512853,-0.12808686620891094
1776017225477431800,10.348431884765626,1.4145499873042107,-4.594917222476005,-0.3646493047058582
1776017225487492900,10.358492919921876,1.5657541097283363,-4.337716485098004,-0.7481523629635572
1776017225497554000,10.368553955078125,2.0898796906411645,-4.723398056438565,-1.099035008123517
1776017225507615000,10.378614990234375,2.3332313508868214,-5.125443902602791,-1.3980594557523727
1776017225517675500,10.388675537109375,2.500088969516754,-5.526989398029446,-1.537132410877943
1776017225527736600,10.398736572265625,2.8858383453965186,-5.747490928563475,-1.5194196440547705
1776017225537796600,10.408796630859374,4.018216235673427,-5.495953039252758,-0.41155601730942726
1776017225547857700,10.418857666015626,5.043267723697424,-4.853129182723165,-0.20332243219614027
1776017225557918700,10.428918701171876,4.734433245193958,-3.4562469540566205,-0.33902971028089524
1776017225567979800,10.438979736328125,4.241460342913866,-2.1290964332640168,0.004014496338367462
1776017225578040800,10.449040771484375,4.2682887286067,-1.0793430501818657,0.7141460484653711
1776017225588101600,10.4591015625,4.284262542808055,-0.4147358163893223,1.4403507835149765
1776017225598162700,10.46916259765625,4.468105198508501,-0.06292085881531238,2.1167600987821817
1776017225608223700,10.4792236328125,4.93075836584866,0.3571586566895246,3.078796619966626
1776017225618284800,10.489284912109374,4.786116086158156,1.3246364921450615,3.344674000275135
1776017225628344800,10.4993447265625,4.780685293281078,1.5781874748438596,3.3888597634822126
1776017225638406000,10.509406005859375,4.379707368609309,1.0768927344202994,3.162307846868038
1776017225648467000,10.519467041015625,4.006968865472078,0.3766799342393875,2.608088156464696
1776017225658527700,10.52952783203125,4.426199070671201,-1.7935902209341525,2.3748621689140794
1776017225668588500,10.539588623046875,4.59618709628135,-3.168646402239799,1.4897130725771188
1776017225678649600,10.549649658203125,2.73522663590759,1.9220558573275803,-0.10884732820987701
1776017225688710700,10.559710693359374,1.4274743508070706,2.464883800622821,2.0544097333312035
1776017225698771700,10.569771728515626,0.2514116325825453,2.259557042866945,2.335017065259814
1776017225708832800,10.579832763671876,-1.825156156542897,2.361975799334049,1.3475854060560464
1776017225718892800,10.589892822265625,-2.2528706969708203,1.080191191443801,2.5076117662370203
1776017225728953900,10.599953857421875,-0.09938976403474807,1.0022411058008671,2.986159837323427
1776017225739014700,10.6100146484375,1.2413175729453563,0.5739625017493963,3.010445552796125
1776017225749075700,10.62007568359375,2.302808740094304,-0.2810615054368973,1.270904609696567
1776017225759136800,10.63013671875,1.4752297891944646,-1.0833780047863721,-0.14163871396034955
1776017225769197800,10.64019775390625,0.5289800352066755,-1.3778221388876437,0.42450493073165413
1776017225779258600,10.650258544921876,0.489131424421072,-0.06340308937430382,0.8787202323332428
1776017225789319700,10.660319580078125,0.34307693984508514,0.38573184022307394,0.7859142306029796
1776017225799379700,10.670379638671875,0.29390812752842904,0.2781932565242052,-0.14163286874145267
1776017225809440800,10.680440673828125,-0.5336427663207054,-0.16832009239792822,-0.6581316080376506
1776017225819501600,10.69050146484375,-2.6817279776930807,0.31790508918762206,0.2576321145325899
1776017225829562600,10.700562744140624,-2.992665565955639,0.8938058655232191,0.9868462605312466
1776017225839623700,10.710623779296874,-2.9053508551180363,0.3699924192994833,0.5244274864688515
1776017225849684700,10.720684814453126,-2.7433558740884063,0.06889174991846084,-0.38869755816087126
1776017225859745800,10.730745849609375,-1.7228507973223923,-0.6076560970366001,-0.03532514201179147
1776017225869806800,10.740806884765625,-2.151860638257861,-0.674837535905838,0.7663005985945462
1776017225879868000,10.750867919921875,-2.4262714536339045,0.15389350763857365,1.2179532101012767
1776017225889927700,10.760927734375,-1.9899942520439624,1.28019587739408,1.4078899448931217
1776017225899988700,10.77098876953125,-0.7216261750876903,1.0451888516455887,1.5662417471148073
1776017225910049800,10.7810498046875,5.309771711471677,0.9080401425808667,0.592263809050247
1776017225920110600,10.791110595703126,-4.529724327075481,-0.15273790786266325,-7.872560006007552
1776017225930171600,10.801171630859375,-5.3492111569344996,-10.162532645404339,-0.9986989031493663
1776017225940232700,10.811232666015625,-3.846203718498349,-4.1145384288311,0.14498583243116736
1776017225950293800,10.821293701171875,-3.744142689427733,0.6511573851108551,-1.4030153245940804
1776017225960354800,10.831354736328125,-0.979760393923521,1.218078151655197,-0.06617781478464603
1776017225970414600,10.84141455078125,0.041081951972842215,-0.1101157407104969,1.7208590389832854
1776017225980475600,10.8514755859375,4.531745603770017,-1.7408932344913481,2.68489053337723
1776017225990536700,10.86153662109375,5.051652690204977,-2.1784218974471092,2.1662407535269854
1776017226000597800,10.87159765625,4.664776356121897,-1.51539170371294,3.9792715879902243
1776017226010658800,10.881658935546875,7.265023151436448,0.8243325163245201,6.626238341164589
1776017226020719900,10.891719970703125,7.147734158095717,2.8821435825318096,7.098002451199292
1776017226030780700,10.90178076171875,4.441941998726129,3.3068478352278468,4.55175203448832
1776017226040841700,10.911841796875,2.39653273345232,2.9267402646273375,4.058149017611146
1776017226050902800,10.92190283203125,1.888210578610003,2.091153363838792,3.0928859355956315
1776017226060962600,10.931962646484376,0.4332306735008955,0.7846370502740144,2.19175484175086
1776017226071023600,10.942023681640626,-1.1214490845054388,-0.35692134080231186,-0.07916939830482006
1776017226081084700,10.952084716796875,-1.9765905805915593,-1.117776533472538,-2.373022678527236
1776017226091145700,10.962145751953125,-2.8500837259262797,-1.829679186925292,-1.5905185486286877
1776017226101206800,10.972206787109375,-3.8372266313165424,-0.32903847762048244,-2.1966852838903663
1776017226111267800,10.982267822265625,-5.32852726534605,0.3884603884041309,-3.6130753461033103
1776017226121329000,10.992328857421874,-6.090833825868367,-0.06058861647546291,-3.3174493087410926
1776017226131390000,11.002389892578124,-4.38245608279556,-0.0383984119772911,-2.0800854418575763
1776017226141450800,11.01245068359375,-2.976398321765661,-0.04682020336389541,-1.481476574629545
1776017226151510800,11.0225107421875,-2.1519462707147,-0.19003858773112295,-1.5316712228626013
1776017226161571800,11.03257177734375,-1.375928580226004,-0.11016425602734088,-1.9327736506968736
1776017226171632600,11.042632568359375,0.12667349227964878,0.41992403268218037,-1.4694284094393253
1776017226181693700,11.052693603515625,1.5192089239135385,0.9470528870642184,-0.47055473424494265
1776017226191754800,11.062754638671874,2.05168323097676,1.6630957090616225,0.13272913905680178
1776017226201815800,11.07281591796875,0.8364838496282696,1.876593498313427,1.2241226925164461
1776017226211876600,11.082876708984376,-0.2581318807482719,1.7036024914950132,3.247798264887929
1776017226221937700,11.092937744140626,-0.2690054492011666,1.8809703982234,2.9959646075010298
1776017226231997700,11.102997802734375,1.177936110880971,2.124898397052288,1.435224526542425
1776017226242058800,11.113058837890625,0.5290390719175339,1.5059844084203242,-0.10541910732686519
1776017226252119800,11.123119873046875,-0.465781528493762,0.08082125716507435,1.1617109522670506
1776017226262180900,11.133180908203125,-0.22490765653848646,0.17206220153570173,1.1587146930605172
1776017226272242000,11.143241943359374,1.4913748683094978,1.6502140156567096,-0.03688157767355442
1776017226282303000,11.153302978515624,5.228161934277415,4.2326708872586485,0.7462854000478982
1776017226292363500,11.163363525390626,4.778955108487605,4.7763113159805535,0.37578444670438765
1776017226302424600,11.173424560546875,-5.129185427218675,0.46989597807526584,-2.7729548935383557
1776017226312485600,11.183485595703125,-7.6764301156640045,-4.441542770275474,-3.228665109872818
1776017226322545700,11.193545654296875,-1.0580129696443676,-3.5772704577505587,-1.8549246873408556
1776017226332606700,11.203606689453125,-0.5150730904072522,1.2957675405353306,1.180052664643526
1776017226342667800,11.213667724609374,-1.7662161840572952,2.5615356641262768,6.104228144970536
1776017226352728800,11.223728759765624,0.2677633401855826,-1.279586221063137,4.652192184358835
1776017226362789600,11.23378955078125,1.9950623490884898,-2.7181074510633945,-0.0979068320006132
1776017226372850700,11.2438505859375,1.6295920833885669,-1.9091648115724325,-2.216843105778098
1776017226382911700,11.253911865234375,0.10455284588634967,-1.2211807938456534,-2.3332833733350036
1776017226392972800,11.263972900390625,-2.9044974531590935,1.0133289015263318,-1.6821411857932804
1776017226403032800,11.27403271484375,-3.8076457320451733,4.284941757243871,-0.506544916036725
1776017226413094000,11.284093994140624,-0.42678339705765245,4.657427162402868,0.01143500172793865
1776017226423155000,11.294155029296874,0.7293968090891838,2.4442215363442896,0.2760977455496788
1776017226433215700,11.3042158203125,0.4444926567494869,-0.14425883333086967,-0.07877484602928161
1776017226443276500,11.314276611328125,-0.030254268488287925,-1.124988364547491,-0.6515057601571083
1776017226453337600,11.324337646484375,-0.8412988486945628,-0.9803852478235959,-0.8634142343908547
1776017226463398700,11.334398681640625,-1.2731535576671362,-0.41851358136236666,-0.9770359373956918
1776017226473459700,11.344459716796875,-1.3521300637483595,-0.6759697548061608,-0.6857792011588811
1776017226483519700,11.354519775390624,-1.3058486434362828,-0.8491682668954134,-0.12900047392249106
1776017226493580800,11.364580810546874,-0.6625045624248683,-0.4745639698863029,0.2826899834215641
1776017226503641900,11.374641845703126,-0.38445524441599843,-0.531096004447341,0.538130725389719
1776017226513702700,11.38470263671875,-0.3631438685789704,-0.7850760262131691,0.53383916567564
1776017226523763700,11.394763671875,0.22931436706483363,-2.1569681905299425,-2.266644370779395
1776017226533824800,11.40482470703125,1.0359517983533442,-5.410151655587554,-1.5760112998485565
1776017226543885800,11.4148857421875,0.9377291784018278,-3.5009172859102486,1.8426029659062624
1776017226553946600,11.424946533203125,1.6764068799249827,0.3662877195626497,0.3474070780038833
1776017226564007700,11.435007568359374,1.8893482043378054,2.65026667150259,-0.5270306547045708
1776017226574067700,11.445067626953126,1.3920220752842722,2.7685423377931118,-0.7885925099015235
1776017226584128800,11.455128662109376,0.748585493683815,0.8754080390453338,-0.5596861391156912
1776017226594189600,11.465189453125,-0.8291549680449068,-0.6886977189540863,0.24458558595478533
1776017226604250600,11.475250732421875,-3.579321545061469,-1.9179788171470165,1.0414888280838728
1776017226614311700,11.485311767578125,-3.3161049083948133,-2.62098563196063,1.0574597196757793
1776017226624372700,11.495372802734375,-2.831477809655666,-2.153397346305847,0.8163912019312382
1776017226634433800,11.505433837890624,-2.5677947245210406,-0.9210931008994578,0.8273299445748329
1776017226644494800,11.515494873046874,-3.2861879090368746,0.24059271692633627,0.9342179554104805
1776017226654555000,11.525554931640626,-1.418762052041292,-0.46889118494689463,2.0893834315568207
1776017226664615700,11.53561572265625,-0.26168825805559753,-1.349645261195302,3.776224757865071
1776017226674676700,11.5456767578125,-1.7958154957681893,-2.1483225272595883,2.2095517797261475
1776017226684737800,11.55573779296875,-1.3362358906544745,-1.8746113845854997,0.14058102160096167
1776017226694798600,11.565798583984375,-0.897356836003065,-0.3652683133870363,-0.9330360521495342
1776017226704859600,11.575859619140624,-1.4814473485350608,-0.48006490539014335,-1.6527806512743233
1776017226714920700,11.585920654296874,-0.5168862773090601,-0.9941296955376863,-1.3678858512848615
1776017226724981800,11.595981689453126,1.0155174245465546,-1.0856921269476414,-0.6144476568728685
1776017226735041800,11.606041748046875,1.5048979283578694,-1.6685709256023167,-0.06096212596297264
1776017226745102600,11.6161025390625,0.6587924100339412,-1.5490484741210937,-1.1938958965569735
1776017226755163600,11.62616357421875,0.0024963468603789803,-1.311671796631813,-2.0678560748815533
1776017226765224700,11.636224609375,-0.9087802934236824,-1.1150959160864353,-2.584903680232167
1776017226775285800,11.64628564453125,-1.1309854130052028,-1.4710826063871383,-2.644370014679432
1776017226785346800,11.656346923828124,-0.840962017955631,-1.368763218641281,-2.8229823685109614
1776017226795408000,11.666407958984376,-1.0357402014292776,-0.5157330156207084,-2.446007835239172
1776017226805468700,11.67646875,-0.1334866794258356,-0.022006664624810216,-1.5466647938549518
1776017226815529700,11.68652978515625,1.0791793840527535,1.3546475995272398,-0.557694673037529
1776017226825589800,11.69658984375,1.6494221346266567,3.241854261791706,0.45759763751626015
1776017226835650600,11.706650634765625,0.7237257777154446,3.0502731207937,1.6466618761330842
1776017226845711600,11.716711669921875,0.059390346601605415,1.5559925941705703,2.1736796713560818
1776017226855772700,11.726772705078124,-0.2099295753762126,-0.13207681262791157,0.8317243801414966
1776017226865833700,11.736833740234376,0.2969840278424322,-2.0298042843848467,0.018982932889461516
1776017226875894800,11.746894775390626,1.506267463145405,-3.451320019048452,-0.1924550012230873
1776017226885955800,11.756955810546875,0.6457137327522039,-3.778151926535368,-0.5445762482672929
1776017226896017000,11.767016845703125,-0.5243938764601945,-1.9399106629699467,-0.9778414085596799
1776017226906076700,11.77707666015625,1.0515244844079017,-1.0509732802659273,-2.043529442876577
1776017226916137700,11.7871376953125,2.5356921978175637,-1.8516344136238096,-3.4433202524662017
1776017226926198800,11.79719873046875,3.0829192528545857,-3.0042437755465508,-4.002678474801779
1776017226936259800,11.807259765625,2.6392525255352255,-2.1694728673160073,-3.242905816671252
1776017226946321000,11.81732080078125,0.8930074086219072,0.6654372548758983,-1.5707190386593342
1776017226956381700,11.827381591796875,-0.8442249652743339,2.1608026541262864,-0.270811914101243
1776017226966442800,11.83744287109375,-1.272758420869708,1.8575836774170398,0.5612725315243006
1776017226976503800,11.84750390625,-1.4587950794830917,1.431321089363098,1.0207029374256729
1776017226986564600,11.857564697265625,-1.6035130547583103,1.8627619568377731,1.3680010020971298
1776017226996624600,11.867624755859374,-1.5182000391319392,2.337988190025091,1.1289023231208324
1776017227006685700,11.877685791015624,-2.624490425211191,2.545354344654083,1.4522025493502615
1776017227016746800,11.887746826171876,-3.800236917093396,4.8133220729917285,1.6551733916297553
1776017227026807800,11.897807861328126,-3.2229981701523065,6.537397443673014,1.5310174351289867
1776017227036868900,11.907868896484375,-1.8343577001303433,6.299678236356377,1.193471533665061
1776017227046930000,11.917929931640625,0.5116954306676984,4.484063230618834,0.03702069388329982
1776017227056990700,11.92799072265625,3.3588948333293196,2.8763790276557204,-0.34665099893957374
1776017227067051800,11.9380517578125,4.708247249057889,1.7146651527792214,1.139429270093143
1776017227077111800,11.94811181640625,2.724684783627093,-0.03195230457782745,2.4790865134984252
1776017227087172900,11.9581728515625,1.0467582929193973,-1.664379903653264,2.337804357890785
1776017227097233700,11.968233642578125,0.6183861653655767,-1.7534055100619792,1.6778236148551104
1776017227107294700,11.978294677734375,0.4118602609530091,-1.0409650964707136,0.6086088677167892
1776017227117355800,11.988355712890625,0.34388241100907324,-0.2978706014186144,0.028559447269141672
1776017227127416800,11.998416748046875,-0.4861684829622507,0.023182722666859626,-0.45127281840890643
1776017227137477600,12.0084775390625,-0.8897834781393408,-0.09794307235777377,-0.6792913004443049
1776017227147538700,12.01853857421875,-1.0788389000520109,-0.10595979007482528,-0.4912535311415791
1776017227157599700,12.028599853515624,-1.0343076844081283,-0.1338788936138153,-0.4611807567000389
1776017227167659800,12.03865966796875,-0.6561492020487785,-0.291414557147026,-0.658712622795999
1776017227177720800,12.048720947265625,-0.9281865662917494,-0.446480615696311,-0.7469912102296948
1776017227187782000,12.058781982421875,-1.1124316653132438,-0.577758386901021,-0.8800488505885005
1776017227197843000,12.068843017578125,-0.9476619588732719,-0.4817354689508676,-0.6525812804341315
1776017227207903700,12.07890380859375,-0.3390060371443629,-0.27152619985044,-0.09592354922890663
1776017227217964500,12.088964599609374,0.3711871820420027,0.05138415027856826,0.3468126192420721
1776017227228025600,12.099025634765624,0.2934168368801474,0.2449187634319067,0.24796061534583566
1776017227238086700,12.109086669921876,0.1007090299397707,0.04971300219595432,0.008249357429146766
1776017227248146700,12.119146728515625,0.27954174852371216,-0.4254290598392486,-0.054907648229598996
1776017227258208000,12.1292080078125,0.7316847738958895,-0.6711719991356134,-0.03162818718999624
1776017227268269000,12.13926904296875,2.9150404744833707,0.08035013252198696,0.1853282180830836
1776017227278330000,12.149330078125,4.696128941240906,2.0129390743017197,0.43605420648902654
1776017227288391200,12.15939111328125,2.679196413388848,1.5490122337639332,0.2672878316283226
1776017227298452200,12.1694521484375,0.8138447323188185,-1.6402169377773999,0.509303274834156
1776017227308513300,12.17951318359375,1.3363888892590998,-2.9275977582395076,1.5645748368158936
1776017227318574000,12.189573974609376,2.186756887333095,-1.854828241229057,2.3039681392624973
1776017227328634000,12.199634033203125,2.1631574005588887,-0.8498556646376848,2.424556466409564
1776017227338695200,12.209695068359375,3.3526047932744025,-0.4784340893179178,2.2729501929253337
1776017227348756000,12.219755859375,3.7912504775613542,-0.08291735266149043,1.7246376807391643
1776017227358817000,12.229817138671875,2.7703198688596484,0.41516719354391096,1.247851358628273
1776017227368878000,12.239878173828124,1.3527730378270149,0.7056038455694913,1.3039350648999213
1776017227378939100,12.249939208984374,0.1603518899977207,0.2077221284598112,1.7741864322841165
1776017227389000200,12.260000244140626,-0.7569532167956232,-0.13723171117305755,2.113912892657518
1776017227399061000,12.27006103515625,-2.447337330277264,0.1652373239517212,1.4190280095010994
1776017227409122000,12.2801220703125,-3.141516695512831,-0.41868367723226546,-0.7590101493254303
1776017227419182000,12.29018212890625,-1.1312015399739146,-2.274848720023036,-2.728535321575403
1776017227429243100,12.3002431640625,1.1373346359014511,-4.157435905793309,-3.7954745249971746
1776017227439304200,12.31030419921875,1.7284937716454267,-6.0351914336234325,-3.8799931753754615
1776017227449365200,12.320365234375,0.6175342247113585,-4.944175481304526,-2.96467895013839
1776017227459426000,12.330426025390626,-0.8443927230566739,-2.901083845323324,-2.072543648175895
1776017227469487000,12.340487060546875,-1.9795219578683376,-0.045666357153654094,-0.5726408977568149
1776017227479548000,12.3505478515625,-2.7801801686167718,3.025134587883949,1.1215277026996016
1776017227489609000,12.36060888671875,-4.37996572728455,4.152537027835845,1.6060317595809697
1776017227499669000,12.3706689453125,-4.849498132744431,3.3471529576092958,1.4226885778352618
1776017227509730000,12.38072998046875,-3.656269467924535,1.4527683665394782,1.0593950716525316
1776017227519791000,12.390791015625,-1.9590433795936404,-1.1984288638114928,0.3819949917823076
1776017227529852200,12.40085205078125,-1.0041166904143988,-2.6658202144652603,-0.18365473191291093
1776017227539913200,12.410913330078126,0.17079641938358545,-3.034603257974982,-0.32869711683690545
1776017227549974000,12.42097412109375,1.5763149589702485,-3.6575165453761813,-0.30723537274375556
1776017227560035000,12.43103515625,1.7359321049526333,-4.441591285592318,-0.3576774198666215
