time,seconds_elapsed,z,y,x
1776017215245506600,0.116506591796875,-39.32684326171875,-10.439257621765137,-24.721176147460938
1776017215255567600,0.126567626953125,-39.43731689453125,-10.418822288513184,-24.63800811767578
1776017215265628400,0.13662841796875,-39.3681640625,-10.563702583312988,-24.58086395263672
1776017215275689500,0.146689453125,-39.643402099609375,-10.713789939880371,-24.256145477294922
1776017215285750300,0.156750244140625,-39.56011962890625,-10.666068077087402,-24.516128540039062
1776017215295811300,0.166811279296875,-39.790252685546875,-10.74997615814209,-24.46350860595703
1776017215305872400,0.176872314453125,-39.831756591796875,-11.064387321472168,-24.56863021850586
1776017215315932400,0.186932373046875,-39.753570556640625,-11.085373878479004,-24.545059204101562
1776017215325993500,0.196993408203125,-39.627349853515625,-11.08885669708252,-24.618366241455078
1776017215336054500,0.207054443359375,-39.58282470703125,-10.974007606506348,-24.66952133178711
1776017215346115300,0.217115234375,-39.67138671875,-10.81198787689209,-24.682279586791992
1776017215356176400,0.22717626953125,-39.79595947265625,-10.70638370513916,-24.65302085876465
1776017215366237400,0.237237548828125,-40.222259521484375,-10.943638801574707,-24.700714111328125
1776017215376298500,0.247298583984375,-39.74346923828125,-10.98925495147705,-24.613086700439453
1776017215386359600,0.257359619140625,-39.476043701171875,-11.127717018127441,-24.624126434326172
1776017215396419600,0.267419677734375,-39.36895751953125,-11.05119800567627,-24.486101150512695
1776017215406480600,0.277480712890625,-39.927581787109375,-10.790762901306152,-24.722457885742188
1776017215416541400,0.28754150390625,-39.810089111328125,-10.979060173034668,-24.694091796875
1776017215426602200,0.297602294921875,-39.3837890625,-11.195256233215332,-24.520872116088867
1776017215436663300,0.307663330078125,-39.38177490234375,-11.005141258239746,-24.620399475097656
1776017215446724400,0.317724365234375,-39.24114990234375,-10.93445110321045,-24.551551818847656
1776017215456785400,0.327785400390625,-39.36492919921875,-11.021964073181152,-24.4029541015625
1776017215466846500,0.337846435546875,-39.162872314453125,-11.132048606872559,-24.500614166259766
1776017215476907500,0.347907470703125,-39.665435791015625,-11.282397270202637,-24.381481170654297
1776017215486967600,0.357967529296875,-39.593841552734375,-11.09951114654541,-24.412118911743164
1776017215497028400,0.3680283203125,-39.541107177734375,-11.336153984069824,-24.241466522216797
1776017215507089400,0.37808935546875,-39.3170166015625,-11.047589302062988,-24.3138370513916
1776017215517150500,0.388150390625,-39.34234619140625,-10.97988224029541,-24.529132843017578
1776017215527211500,0.39821142578125,-39.054351806640625,-11.1426362991333,-24.570343017578125
1776017215537272600,0.4082724609375,-39.22308349609375,-11.096858024597168,-24.439924240112305
1776017215547333400,0.41833349609375,-39.056365966796875,-11.28834056854248,-24.579185485839844
1776017215557394400,0.42839453125,-39.139801025390625,-11.548298835754395,-24.393077850341797
1776017215567455500,0.43845556640625,-39.244842529296875,-11.529740333557129,-24.247337341308594
1776017215577515300,0.448515380859375,-39.358734130859375,-11.369549751281738,-24.208541870117188
1776017215587576300,0.458576416015625,-39.64459228515625,-11.066668510437012,-24.33346939086914
1776017215597637400,0.468637451171875,-40.08526611328125,-11.309014320373535,-24.314849853515625
1776017215607698400,0.478698486328125,-39.65582275390625,-11.361111640930176,-24.387065887451172
1776017215617759500,0.488759521484375,-39.564666748046875,-11.480525016784668,-24.451828002929688
1776017215627820500,0.498820556640625,-39.831573486328125,-11.34727954864502,-24.48126220703125
1776017215637881600,0.508881591796875,-39.1025390625,-11.425448417663574,-24.454566955566406
1776017215647942700,0.518942626953125,-39.115753173828125,-11.539334297180176,-24.360950469970703
1776017215658003500,0.52900341796875,-39.386810302734375,-11.522921562194824,-24.402368545532227
1776017215668063500,0.5390634765625,-39.101593017578125,-11.350253105163574,-24.35299301147461
1776017215678124500,0.54912451171875,-39.252044677734375,-11.439764976501465,-24.434303283691406
1776017215688185300,0.559185302734375,-39.464263916015625,-11.388052940368652,-24.354202270507812
1776017215698246400,0.569246337890625,-39.4134521484375,-11.695073127746582,-24.526004791259766
1776017215708307500,0.579307373046875,-39.334930419921875,-11.372689247131348,-24.36700439453125
1776017215718368500,0.589368408203125,-39.538787841796875,-11.424088478088379,-24.409133911132812
1776017215728429600,0.5994296875,-39.407745361328125,-11.327265739440918,-24.378629684448242
1776017215738490400,0.609490478515625,-39.911102294921875,-11.431170463562012,-24.256235122680664
1776017215748550400,0.61955029296875,-39.878692626953125,-11.433342933654785,-24.297452926635742
1776017215758611500,0.629611572265625,-39.669281005859375,-11.809809684753418,-24.434280395507812
1776017215768672500,0.639672607421875,-40.002288818359375,-11.77515697479248,-24.27603530883789
1776017215778733600,0.649733642578125,-39.804046630859375,-11.530699729919434,-24.250953674316406
1776017215788794600,0.659794677734375,-39.697662353515625,-11.822989463806152,-24.228511810302734
1776017215798855400,0.66985546875,-39.559173583984375,-11.570008277893066,-24.10857391357422
1776017215808916200,0.679916259765625,-39.581024169921875,-11.648987770080566,-24.227142333984375
1776017215818977300,0.689977294921875,-39.682830810546875,-11.727879524230957,-24.272417068481445
1776017215829038300,0.700038330078125,-39.45166015625,-11.784607887268066,-24.26263999938965
1776017215839098400,0.710098388671875,-39.47607421875,-11.777710914611816,-24.20615005493164
1776017215849159400,0.720159423828125,-39.370941162109375,-11.915068626403809,-24.33993911743164
1776017215859220500,0.730220458984375,-39.60699462890625,-11.801600456237793,-24.237125396728516
1776017215869281500,0.740281494140625,-39.422332763671875,-11.803057670593262,-24.270410537719727
1776017215879342600,0.750342529296875,-39.742462158203125,-11.560996055603027,-24.274097442626953
1776017215889403400,0.7604033203125,-39.437774658203125,-11.879111289978027,-24.460987091064453
1776017215899464400,0.77046435546875,-39.4219970703125,-11.796311378479004,-24.254262924194336
1776017215909525500,0.780525390625,-39.56011962890625,-11.692185401916504,-24.212718963623047
1776017215919586300,0.79058642578125,-39.369842529296875,-12.038037300109863,-24.236305236816406
1776017215929647400,0.8006474609375,-39.40423583984375,-11.899113655090332,-24.254512786865234
1776017215939707400,0.810707275390625,-39.397186279296875,-12.119866371154785,-24.272052764892578
1776017215949768400,0.8207685546875,-39.680572509765625,-12.01231861114502,-24.50821304321289
1776017215959829200,0.830829345703125,-39.565032958984375,-12.143330574035645,-24.52444839477539
1776017215969890300,0.840890380859375,-39.72540283203125,-11.816712379455566,-24.371288299560547
1776017215979951400,0.850951416015625,-39.654632568359375,-12.046256065368652,-24.361156463623047
1776017215990012400,0.861012451171875,-39.77325439453125,-12.058882713317871,-24.598926544189453
1776017216000073500,0.871073486328125,-39.75396728515625,-12.00529956817627,-24.294830322265625
1776017216010134500,0.881134521484375,-39.49700927734375,-12.07402515411377,-24.323883056640625
1776017216020194600,0.891194580078125,-39.30474853515625,-12.181611061096191,-23.962383270263672
1776017216030255600,0.901255615234375,-39.542755126953125,-11.905131340026855,-24.03515625
1776017216040316400,0.91131640625,-39.536285400390625,-11.566216468811035,-24.02802276611328
1776017216050377500,0.92137744140625,-39.1932373046875,-11.75479793548584,-24.01871109008789
1776017216060438300,0.931438232421875,-39.229522705078125,-11.642971992492676,-24.25330924987793
1776017216070499300,0.941499267578125,-39.100067138671875,-11.636971473693848,-24.516828536987305
1776017216080560400,0.951560302734375,-39.408477783203125,-11.52696704864502,-24.696720123291016
1776017216090621400,0.961621337890625,-39.632843017578125,-11.51171588897705,-24.751848220825195
1776017216100682500,0.9716826171875,-39.2156982421875,-11.58215045928955,-24.560157775878906
1776017216110743600,0.98174365234375,-39.836334228515625,-11.365178108215332,-24.47068977355957
1776017216120803300,0.99180322265625,-39.4798583984375,-11.557517051696777,-24.283321380615234
1776017216130864400,1.001864501953125,-39.514129638671875,-11.543213844299316,-24.461193084716797
1776017216140925400,1.011925537109375,-39.1922607421875,-11.466378211975098,-24.409568786621094
1776017216150986500,1.021986572265625,-39.715087890625,-11.571702003479004,-24.317121505737305
1776017216161047600,1.032047607421875,-39.730499267578125,-11.814026832580566,-24.529903411865234
1776017216171108600,1.042108642578125,-39.88702392578125,-11.840205192565918,-24.437671661376953
1776017216181169400,1.05216943359375,-39.838958740234375,-11.91089153289795,-24.46713638305664
1776017216191230500,1.06223046875,-39.438201904296875,-11.790553092956543,-24.415658950805664
1776017216201291500,1.07229150390625,-39.350799560546875,-11.853947639465332,-24.251239776611328
1776017216211351300,1.082351318359375,-39.712890625,-11.651432991027832,-24.273914337158203
1776017216221412400,1.092412353515625,-39.752349853515625,-11.604504585266113,-24.548988342285156
1776017216231473400,1.102473388671875,-39.501312255859375,-11.63489818572998,-24.297122955322266
1776017216241534700,1.11253466796875,-39.359039306640625,-11.580334663391113,-24.383319854736328
1776017216251595800,1.122595703125,-39.36627197265625,-11.65178394317627,-24.35340118408203
1776017216261656800,1.13265673828125,-39.0772705078125,-11.698502540588379,-24.566635131835938
1776017216271718000,1.1427177734375,-39.4122314453125,-11.394165992736816,-24.510019302368164
1776017216281778700,1.15277880859375,-39.54083251953125,-11.624308586120605,-24.43343162536621
1776017216291839500,1.162839599609375,-39.5738525390625,-11.591010093688965,-24.39917755126953
1776017216301899800,1.172899658203125,-39.94281005859375,-11.251715660095215,-24.679840087890625
1776017216311960600,1.182960693359375,-39.802032470703125,-11.291447639465332,-24.669727325439453
1776017216322021600,1.193021728515625,-39.45257568359375,-11.417328834533691,-24.625825881958008
1776017216332082700,1.203082763671875,-39.551910400390625,-11.321335792541504,-24.623767852783203
1776017216342143700,1.213143798828125,-39.726226806640625,-11.11386775970459,-24.698467254638672
1776017216352204800,1.223204833984375,-39.88616943359375,-11.557917594909668,-24.58892250061035
1776017216362265600,1.233265625,-39.295562744140625,-11.593050956726074,-24.455244064331055
1776017216372326700,1.24332666015625,-39.3712158203125,-11.754891395568848,-24.388259887695312
1776017216382387700,1.2533876953125,-38.79058837890625,-11.407015800476074,-24.515697479248047
1776017216392447700,1.26344775390625,-38.925506591796875,-11.57707691192627,-24.4427547454834
1776017216402508800,1.2735087890625,-39.267669677734375,-11.224543571472168,-24.571598052978516
1776017216412569900,1.28356982421875,-39.219085693359375,-11.332192420959473,-24.467559814453125
1776017216422631000,1.293630859375,-39.172027587890625,-11.12525463104248,-24.51162338256836
1776017216432691700,1.303691650390625,-39.346435546875,-11.322545051574707,-24.562936782836914
1776017216442752500,1.31375244140625,-39.7354736328125,-11.322522163391113,-24.54400634765625
1776017216452813600,1.3238134765625,-39.5501708984375,-11.243102073669434,-24.43643569946289
1776017216462874600,1.33387451171875,-39.516632080078125,-11.134064674377441,-24.459766387939453
1776017216472935700,1.343935791015625,-39.47784423828125,-11.164673805236816,-24.377647399902344
1776017216482996700,1.353996826171875,-39.5120849609375,-11.424639701843262,-24.548133850097656
1776017216493056800,1.364056884765625,-39.49951171875,-11.322543144226074,-24.513771057128906
1776017216503117800,1.374117919921875,-39.439727783203125,-11.29755687713623,-24.37570571899414
1776017216513178600,1.3841787109375,-39.325408935546875,-11.309056282043457,-24.64724349975586
1776017216523239700,1.39423974609375,-39.523284912109375,-11.487149238586426,-24.473905563354492
1776017216533300700,1.40430078125,-39.518890380859375,-11.654200553894043,-24.414222717285156
1776017216543361500,1.414361572265625,-39.44451904296875,-11.658299446105957,-24.320825576782227
1776017216553422600,1.424422607421875,-39.5086669921875,-11.383761405944824,-24.284942626953125
1776017216563483600,1.434483642578125,-39.67578125,-11.22335147857666,-24.30816650390625
1776017216573544700,1.444544677734375,-39.331573486328125,-11.20523738861084,-24.320518493652344
1776017216583604700,1.454604736328125,-39.449005126953125,-11.09270191192627,-24.463233947753906
1776017216593665500,1.46466552734375,-39.53155517578125,-11.365839958190918,-24.513229370117188
1776017216603726600,1.4747265625,-39.8271484375,-11.361468315124512,-24.40140151977539
1776017216613787600,1.48478759765625,-39.6939697265625,-11.29607105255127,-24.421772003173828
1776017216623848700,1.4948486328125,-39.1307373046875,-11.343531608581543,-24.344762802124023
1776017216633909800,1.50490966796875,-39.0391845703125,-11.469748497009277,-24.470199584960938
1776017216643970800,1.514970703125,-39.018890380859375,-11.495495796203613,-24.246055603027344
1776017216654032000,1.525031982421875,-39.141998291015625,-11.6683988571167,-24.075241088867188
1776017216664092700,1.5350927734375,-39.182708740234375,-11.499615669250488,-24.226531982421875
1776017216674152700,1.545152587890625,-39.373992919921875,-11.688935279846191,-24.078155517578125
1776017216684213800,1.5552138671875,-39.1405029296875,-11.564385414123535,-24.135143280029297
1776017216694274600,1.565274658203125,-39.4320068359375,-11.72469425201416,-24.174514770507812
1776017216704335600,1.575335693359375,-39.466552734375,-11.51215648651123,-24.515132904052734
1776017216714396700,1.585396728515625,-39.7484130859375,-11.55483341217041,-24.25703239440918
1776017216724457700,1.595457763671875,-39.77264404296875,-11.46706485748291,-24.27440643310547
1776017216734518800,1.605518798828125,-39.352508544921875,-11.618279457092285,-24.193180084228516
1776017216744579800,1.615579833984375,-39.4869384765625,-11.690648078918457,-24.32387924194336
1776017216754640600,1.625640625,-39.5478515625,-11.547537803649902,-24.175397872924805
1776017216764700700,1.63570068359375,-39.406524658203125,-11.774140357971191,-24.376510620117188
1776017216774761700,1.64576171875,-39.417022705078125,-11.570340156555176,-24.236637115478516
1776017216784822800,1.65582275390625,-39.760009765625,-11.6863374710083,-24.2039794921875
1776017216794883800,1.6658837890625,-39.81689453125,-11.52791690826416,-24.24363136291504
1776017216804944600,1.675944580078125,-39.45098876953125,-11.564557075500488,-24.265419006347656
1776017216815005700,1.686005615234375,-39.5501708984375,-11.464308738708496,-24.24689483642578
1776017216825066800,1.696066650390625,-39.7730712890625,-11.411675453186035,-24.284793853759766
1776017216835127600,1.70612744140625,-39.88897705078125,-11.272372245788574,-24.107913970947266
1776017216845188600,1.716188720703125,-39.868316650390625,-11.297663688659668,-24.234956741333008
1776017216855248600,1.72624853515625,-39.53192138671875,-11.434664726257324,-24.140090942382812
1776017216865309700,1.736309814453125,-39.756317138671875,-11.675089836120605,-24.300222396850586
1776017216875370800,1.746370849609375,-39.89501953125,-11.588881492614746,-24.137924194335938
1776017216885431800,1.756431884765625,-39.6552734375,-11.460719108581543,-23.91787338256836
1776017216895492900,1.766492919921875,-39.626220703125,-11.512465476989746,-24.03742218017578
1776017216905553700,1.7765537109375,-39.47119140625,-11.602383613586426,-23.98257064819336
1776017216915614700,1.78661474609375,-39.569000244140625,-11.7377347946167,-24.099544525146484
1776017216925675500,1.796675537109375,-39.127716064453125,-11.51346492767334,-24.135826110839844
1776017216935736600,1.806736572265625,-39.43511962890625,-11.484862327575684,-24.252704620361328
1776017216945796600,1.816796630859375,-39.5257568359375,-11.789814949035645,-24.420988082885742
1776017216955857700,1.826857666015625,-39.752777099609375,-11.740025520324707,-24.301136016845703
1776017216965918700,1.836918701171875,-39.38104248046875,-11.613539695739746,-24.428691864013672
1776017216975979800,1.846979736328125,-40.01531982421875,-11.355172157287598,-24.23344612121582
1776017216986040600,1.85704052734375,-39.798431396484375,-11.57420825958252,-24.10752296447754
1776017216996101600,1.8671015625,-39.79180908203125,-11.734082221984863,-23.92393684387207
1776017217006162700,1.87716259765625,-39.592010498046875,-11.53710651397705,-24.225833892822266
1776017217016223700,1.8872236328125,-39.84893798828125,-11.463427543640137,-24.31103515625
1776017217026284800,1.897284912109375,-39.707305908203125,-11.397364616394043,-24.483163833618164
1776017217036345600,1.907345703125,-39.662750244140625,-11.671055793762207,-24.482376098632812
1776017217046406000,1.917406005859375,-39.47650146484375,-11.742783546447754,-24.454086303710938
1776017217056466700,1.927466796875,-39.633575439453125,-11.551722526550293,-24.255104064941406
1776017217066527500,1.937527587890625,-39.602691650390625,-11.476702690124512,-24.136993408203125
1776017217076588500,1.947588623046875,-39.484954833984375,-11.599257469177246,-24.327472686767578
1776017217086649600,1.957649658203125,-39.508209228515625,-11.541089057922363,-24.355770111083984
1776017217096710700,1.967710693359375,-39.778411865234375,-11.587716102600098,-24.27425765991211
1776017217106771700,1.977771728515625,-39.89227294921875,-11.453095436096191,-24.033329010009766
1776017217116832800,1.987832763671875,-39.797454833984375,-11.619095802307129,-24.20879554748535
1776017217126892800,1.997892822265625,-40.025787353515625,-11.46802043914795,-24.20879364013672
1776017217136953600,2.00795361328125,-39.937774658203125,-11.300328254699707,-24.329261779785156
1776017217147014700,2.0180146484375,-39.964996337890625,-11.233641624450684,-24.303466796875
1776017217157075700,2.02807568359375,-39.920013427734375,-11.371359825134277,-24.305034637451172
1776017217167136800,2.03813671875,-39.878326416015625,-11.355900764465332,-24.342124938964844
1776017217177197600,2.048197509765625,-40.03155517578125,-11.41001033782959,-24.275711059570312
1776017217187258600,2.058258544921875,-39.6533203125,-11.390816688537598,-24.144363403320312
1776017217197319700,2.068319580078125,-40.001312255859375,-11.491402626037598,-24.350910186767578
1776017217207380700,2.078380615234375,-40.053924560546875,-11.312113761901855,-24.013717651367188
1776017217217441800,2.08844189453125,-40.23065185546875,-11.39682674407959,-24.203693389892578
1776017217227501600,2.09850146484375,-40.057037353515625,-11.687199592590332,-24.304973602294922
1776017217237562600,2.108562744140625,-40.211151123046875,-11.443388938903809,-24.27730941772461
1776017217247623700,2.118623779296875,-40.12738037109375,-11.237996101379395,-24.367755889892578
1776017217257684500,2.1286845703125,-39.667388916015625,-11.282225608825684,-24.4949951171875
1776017217267745500,2.13874560546875,-39.828338623046875,-11.407488822937012,-24.34288787841797
1776017217277806600,2.148806640625,-39.58099365234375,-11.481432914733887,-24.064170837402344
1776017217287867600,2.15886767578125,-39.970184326171875,-11.302748680114746,-24.29651641845703
1776017217297928400,2.168928466796875,-40.201324462890625,-11.55998706817627,-24.388648986816406
1776017217307989500,2.178989501953125,-39.987213134765625,-11.742915153503418,-24.312541961669922
1776017217318049800,2.1890498046875,-40.170318603515625,-11.543135643005371,-24.377347946166992
1776017217328110300,2.1991103515625,-40.26348876953125,-11.541533470153809,-24.301063537597656
1776017217338171400,2.20917138671875,-39.9659423828125,-11.640425682067871,-24.375600814819336
1776017217348232400,2.219232421875,-39.920928955078125,-11.652729988098145,-24.081350326538086
1776017217358293500,2.22929345703125,-40.0699462890625,-11.507872581481934,-24.284509658813477
1776017217368354600,2.2393544921875,-40.07080078125,-11.320622444152832,-24.161090850830078
1776017217378415600,2.24941552734375,-39.844146728515625,-11.448698997497559,-24.148147583007812
1776017217388476700,2.2594765625,-40.036865234375,-11.398159980773926,-24.373579025268555
1776017217398537700,2.269537841796875,-39.978271484375,-11.432244300842285,-24.217815399169922
1776017217408597500,2.279597412109375,-40.088226318359375,-11.466996192932129,-24.290491104125977
1776017217418658600,2.289658447265625,-39.7379150390625,-11.715052604675293,-24.108562469482422
1776017217428719600,2.2997197265625,-39.5958251953125,-11.327889442443848,-24.037059783935547
1776017217438780700,2.30978076171875,-39.66436767578125,-11.399428367614746,-24.27911949157715
1776017217448841500,2.319841552734375,-40.04095458984375,-11.343705177307129,-24.18614959716797
1776017217458902500,2.329902587890625,-39.922943115234375,-11.474360466003418,-24.264263153076172
1776017217468963600,2.339963623046875,-39.782379150390625,-11.46165943145752,-24.278038024902344
1776017217479024600,2.350024658203125,-39.56671142578125,-11.254876136779785,-24.133302688598633
1776017217489085700,2.360085693359375,-39.691619873046875,-11.341992378234863,-24.16356658935547
1776017217499145500,2.3701455078125,-39.47943115234375,-11.277493476867676,-24.270893096923828
1776017217509206500,2.38020654296875,-38.930145263671875,-11.3063383102417,-24.38714027404785
1776017217519267600,2.390267578125,-39.449951171875,-11.273219108581543,-24.34323501586914
1776017217529328600,2.40032861328125,-39.395660400390625,-11.248215675354004,-24.282981872558594
1776017217539389700,2.4103896484375,-39.121734619140625,-11.385289192199707,-24.331371307373047
1776017217549450800,2.42045068359375,-39.721343994140625,-11.435774803161621,-24.2089786529541
1776017217559511600,2.430511474609375,-39.839263916015625,-11.619635581970215,-24.152334213256836
1776017217569572600,2.440572509765625,-39.996246337890625,-11.51771068572998,-24.203521728515625
1776017217579633400,2.45063330078125,-39.6326904296875,-11.380141258239746,-24.216724395751953
1776017217589693400,2.460693359375,-40.13409423828125,-11.408951759338379,-23.96563720703125
1776017217599754500,2.47075439453125,-39.7294921875,-11.369338035583496,-24.350528717041016
1776017217609815600,2.480815673828125,-39.74908447265625,-11.305373191833496,-24.372833251953125
1776017217619876600,2.490876708984375,-40.130401611328125,-11.431870460510254,-24.192462921142578
1776017217629937700,2.500937744140625,-39.974945068359375,-11.412375450134277,-24.08794403076172
1776017217639998700,2.510998779296875,-39.678680419921875,-11.37231159210205,-24.205825805664062
1776017217650059500,2.5210595703125,-39.56243896484375,-11.294747352600098,-24.225610733032227
1776017217660120600,2.53112060546875,-39.48614501953125,-11.462119102478027,-24.286521911621094
1776017217670181600,2.541181640625,-39.410064697265625,-11.41841983795166,-24.396162033081055
1776017217680241700,2.55124169921875,-39.504241943359375,-11.435782432556152,-24.410720825195312
1776017217690302700,2.561302734375,-39.556610107421875,-11.765049934387207,-24.444740295410156
1776017217700363500,2.571363525390625,-39.7330322265625,-11.551314353942871,-24.210079193115234
1776017217710424600,2.581424560546875,-39.6912841796875,-11.446600914001465,-24.26323699951172
1776017217720485600,2.591485595703125,-39.96759033203125,-11.300761222839355,-24.360061645507812
1776017217730546400,2.60154638671875,-39.872406005859375,-11.42739200592041,-24.35324478149414
1776017217740607500,2.611607421875,-39.984588623046875,-11.527422904968262,-24.35943603515625
1776017217750668500,2.62166845703125,-40.31524658203125,-11.481696128845215,-24.231048583984375
1776017217760729600,2.6317294921875,-40.73095703125,-11.677721977233887,-24.249557495117188
1776017217770789600,2.64178955078125,-40.198944091796875,-11.477478981018066,-24.221660614013672
1776017217780850700,2.6518505859375,-39.770782470703125,-11.810887336730957,-24.211942672729492
1776017217790911700,2.661911865234375,-39.89111328125,-11.46706485748291,-24.348125457763672
1776017217800972500,2.67197265625,-39.735107421875,-11.455641746520996,-24.404132843017578
1776017217811033600,2.68203369140625,-39.839996337890625,-11.303988456726074,-24.400129318237305
1776017217821094400,2.692094482421875,-39.693389892578125,-11.46137523651123,-24.3333740234375
1776017217831155500,2.702155517578125,-39.921722412109375,-11.3254976272583,-24.311481475830078
1776017217841216500,2.712216552734375,-39.606536865234375,-11.471142768859863,-24.419628143310547
1776017217851277600,2.722277587890625,-39.871826171875,-11.589705467224121,-24.349063873291016
1776017217861337600,2.732337646484375,-39.781585693359375,-11.55161190032959,-24.230716705322266
1776017217871398700,2.742398681640625,-39.4515380859375,-11.624800682067871,-24.214487075805664
1776017217881459500,2.75245947265625,-39.6051025390625,-11.772147178649902,-24.313100814819336
1776017217891520500,2.7625205078125,-39.47357177734375,-11.770529747009277,-24.374011993408203
1776017217901581600,2.77258154296875,-39.312835693359375,-11.707880973815918,-24.42913055419922
1776017217911642600,2.782642578125,-39.490081787109375,-11.542956352233887,-24.342021942138672
1776017217921703700,2.79270361328125,-39.306732177734375,-11.474392890930176,-24.454442977905273
1776017217931764500,2.802764404296875,-39.3707275390625,-11.203930854797363,-24.415855407714844
1776017217941825500,2.812825439453125,-39.435516357421875,-11.046799659729004,-24.5301570892334
1776017217951885600,2.822885498046875,-39.410614013671875,-11.201863288879395,-24.377836227416992
1776017217961946400,2.8329462890625,-39.183837890625,-11.428095817565918,-24.34946060180664
1776017217972007400,2.84300732421875,-39.492462158203125,-11.541300773620605,-24.197982788085938
1776017217982068500,2.853068359375,-39.7098388671875,-11.463103294372559,-24.521276473999023
1776017217992129500,2.863129638671875,-39.638458251953125,-11.6853666305542,-24.336721420288086
1776017218002190600,2.873190673828125,-39.624053955078125,-11.638569831848145,-24.20716094970703
1776017218012251600,2.883251708984375,-39.6591796875,-11.625163078308105,-24.201452255249023
1776017218022312700,2.893312744140625,-39.5802001953125,-11.818665504455566,-24.2210693359375
1776017218032373800,2.903373779296875,-39.561737060546875,-11.553353309631348,-24.326763153076172
1776017218042433500,2.91343359375,-39.57733154296875,-11.47640323638916,-24.297821044921875
1776017218052494600,2.92349462890625,-39.285797119140625,-11.68591022491455,-24.435749053955078
1776017218062555600,2.9335556640625,-39.6412353515625,-11.673687934875488,-24.4373779296875
1776017218072616700,2.94361669921875,-39.45599365234375,-11.422930717468262,-24.484224319458008
1776017218082677500,2.953677490234375,-39.27783203125,-11.479540824890137,-24.57668685913086
1776017218092738600,2.963738525390625,-39.851226806640625,-11.436837196350098,-24.46185874938965
1776017218102799600,2.973799560546875,-39.476226806640625,-11.545655250549316,-24.235637664794922
1776017218112860700,2.983860595703125,-39.302825927734375,-11.544323921203613,-24.255260467529297
1776017218122921500,2.99392138671875,-39.271514892578125,-11.837410926818848,-24.089847564697266
1776017218132982500,3.003982421875,-39.57952880859375,-11.62500286102295,-24.24196434020996
1776017218143042600,3.01404248046875,-39.523834228515625,-11.547968864440918,-24.269245147705078
1776017218153103600,3.024103515625,-39.43182373046875,-11.496134757995605,-24.526504516601562
1776017218163164700,3.03416455078125,-39.36810302734375,-11.658843040466309,-24.53252410888672
1776017218173225700,3.044225830078125,-39.485107421875,-11.705151557922363,-24.527786254882812
1776017218183286800,3.054286865234375,-39.828704833984375,-11.6301851272583,-24.341564178466797
1776017218193347300,3.064347412109375,-39.50640869140625,-11.74683666229248,-24.120895385742188
1776017218203408400,3.074408447265625,-39.915771484375,-11.72231388092041,-24.24655532836914
1776017218213469400,3.084469482421875,-39.61090087890625,-11.696253776550293,-24.25621795654297
1776017218223530500,3.094530517578125,-39.407958984375,-11.540696144104004,-24.453514099121094
1776017218233590500,3.104590576171875,-39.876861572265625,-11.380417823791504,-24.253860473632812
1776017218243652000,3.114652099609375,-40.069976806640625,-11.715071678161621,-24.266080856323242
1776017218253713200,3.124713134765625,-39.7635498046875,-11.754349708557129,-24.186443328857422
1776017218263774200,3.134774169921875,-40.019256591796875,-11.51516056060791,-24.239917755126953
1776017218273835300,3.144835205078125,-39.955169677734375,-11.582934379577637,-24.45970344543457
1776017218283896000,3.15489599609375,-39.487518310546875,-11.66953182220459,-24.410749435424805
1776017218293957000,3.16495703125,-39.434906005859375,-11.853747367858887,-24.22588348388672
1776017218304018000,3.175017822265625,-39.728973388671875,-11.758746147155762,-24.187175750732422
1776017218314079000,3.185078857421875,-39.713897705078125,-11.756268501281738,-24.324310302734375
1776017218324139000,3.195138916015625,-39.8438720703125,-11.688735008239746,-24.350982666015625
1776017218334200000,3.205199951171875,-39.856842041015625,-11.789437294006348,-24.333534240722656
1776017218344261000,3.21526123046875,-40.241546630859375,-11.750691413879395,-24.45526885986328
1776017218354322000,3.225322021484375,-40.061004638671875,-11.88050365447998,-24.359939575195312
1776017218364383000,3.235383056640625,-39.958587646484375,-11.936902046203613,-24.504396438598633
1776017218374444000,3.245444091796875,-39.538482666015625,-11.892302513122559,-24.407663345336914
1776017218384505000,3.255505126953125,-39.845550537109375,-11.837386131286621,-24.39841651916504
1776017218394566100,3.265566162109375,-39.533782958984375,-11.856852531433105,-24.385208129882812
1776017218404627200,3.275627197265625,-39.423675537109375,-11.783469200134277,-24.500999450683594
1776017218414687200,3.285687255859375,-39.512725830078125,-11.717413902282715,-24.435523986816406
1776017218424748300,3.295748291015625,-39.17730712890625,-11.722575187683105,-24.592342376708984
1776017218434809000,3.30580908203125,-39.347381591796875,-11.54379940032959,-24.37560272216797
1776017218444870000,3.315869873046875,-39.2064208984375,-11.645949363708496,-24.72509002685547
1776017218454931000,3.325930908203125,-39.173065185546875,-11.799736976623535,-24.626541137695312
1776017218464992000,3.335991943359375,-38.943511962890625,-11.860371589660645,-24.402605056762695
1776017218475053000,3.346052978515625,-39.035186767578125,-11.757050514221191,-24.415075302124023
1776017218485114000,3.356114013671875,-38.85137939453125,-11.772749900817871,-24.67350196838379
1776017218495175200,3.366175048828125,-39.175048828125,-12.117609977722168,-24.490341186523438
1776017218505235000,3.37623486328125,-39.04046630859375,-12.035111427307129,-24.404842376708984
1776017218515296000,3.3862958984375,-39.006103515625,-12.062348365783691,-24.506052017211914
1776017218525357000,3.396357177734375,-39.0379638671875,-12.143717765808105,-24.566099166870117
1776017218535418000,3.406418212890625,-39.19073486328125,-12.237961769104004,-24.85380744934082
1776017218545479200,3.416479248046875,-38.91253662109375,-12.248967170715332,-24.828628540039062
1776017218555540000,3.4265400390625,-38.889190673828125,-12.252448081970215,-24.64022445678711
1776017218565601000,3.43660107421875,-39.132476806640625,-12.3410062789917,-24.698577880859375
1776017218575662000,3.446662109375,-39.23651123046875,-12.456486701965332,-24.740009307861328
1776017218585723100,3.45672314453125,-38.977783203125,-12.362269401550293,-24.662715911865234
1776017218595783000,3.466782958984375,-38.819732666015625,-12.367743492126465,-24.556468963623047
1776017218605844000,3.476843994140625,-38.1419677734375,-12.503165245056152,-24.574432373046875
1776017218615905000,3.486905029296875,-38.734954833984375,-12.31787395477295,-24.59813690185547
1776017218625966000,3.496966064453125,-38.997802734375,-12.362116813659668,-24.41461753845215
1776017218636027100,3.507027099609375,-39.17120361328125,-12.30103588104248,-24.41783905029297
1776017218646088200,3.517088134765625,-39.2474365234375,-12.52916431427002,-24.457332611083984
1776017218656149200,3.527149169921875,-39.25665283203125,-12.599091529846191,-24.590843200683594
1776017218666210000,3.5372099609375,-39.009307861328125,-12.447579383850098,-24.58920669555664
1776017218676270800,3.547270751953125,-39.469024658203125,-12.568852424621582,-24.650501251220703
1776017218686331100,3.5573310546875,-39.259368896484375,-12.6718111038208,-24.90532684326172
1776017218696392000,3.567391845703125,-39.114654541015625,-12.686606407165527,-24.972700119018555
1776017218706453000,3.577452880859375,-39.025482177734375,-12.699212074279785,-24.95655059814453
1776017218716514000,3.58751416015625,-38.8387451171875,-12.702963829040527,-24.787288665771484
1776017218726575000,3.5975751953125,-38.939208984375,-12.826323509216309,-24.72599220275879
1776017218736636200,3.60763623046875,-38.8974609375,-12.711533546447754,-24.897602081298828
1776017218746697200,3.617697265625,-39.07568359375,-12.666943550109863,-24.519855499267578
1776017218756758000,3.627758056640625,-39.043121337890625,-12.595501899719238,-24.655338287353516
1776017218766819000,3.637819091796875,-39.028350830078125,-12.57569408416748,-24.625091552734375
1776017218776880000,3.647880126953125,-38.8736572265625,-12.38890552520752,-24.772518157958984
1776017218786940200,3.657940185546875,-38.98272705078125,-12.665444374084473,-24.835329055786133
1776017218797001200,3.668001220703125,-38.9119873046875,-12.395073890686035,-24.749631881713867
1776017218807062300,3.678062255859375,-39.545074462890625,-12.467759132385254,-24.772998809814453
1776017218817123000,3.688123046875,-39.34375,-12.644927024841309,-24.730735778808594
1776017218827183900,3.698183837890625,-38.966522216796875,-12.708067893981934,-24.770709991455078
1776017218837245000,3.708244873046875,-38.687713623046875,-12.897276878356934,-24.809289932250977
1776017218847306000,3.718305908203125,-38.970672607421875,-12.770785331726074,-24.819189071655273
1776017218857367000,3.728366943359375,-38.88568115234375,-12.702057838439941,-24.912555694580078
1776017218867428000,3.738427978515625,-39.1251220703125,-12.626837730407715,-24.825754165649414
1776017218877488000,3.748488037109375,-39.254241943359375,-12.909953117370605,-24.573657989501953
1776017218887549200,3.758549072265625,-39.514892578125,-12.781346321105957,-24.89537811279297
1776017218897610200,3.7686103515625,-39.292938232421875,-12.484353065490723,-24.745502471923828
1776017218907671000,3.778671142578125,-39.444244384765625,-12.735100746154785,-24.873897552490234
1776017218917732000,3.788732177734375,-39.16387939453125,-12.7366361618042,-24.761699676513672
1776017218927793200,3.798793212890625,-39.06072998046875,-12.311665534973145,-24.582706451416016
1776017218937854000,3.80885400390625,-39.080474853515625,-12.689608573913574,-24.576858520507812
1776017218947915000,3.8189150390625,-39.153961181640625,-12.652668952941895,-24.508312225341797
1776017218957976000,3.82897607421875,-39.39013671875,-12.491351127624512,-24.47793960571289
1776017218968036000,3.8390361328125,-39.207000732421875,-12.37497615814209,-24.829513549804688
1776017218978097000,3.849096923828125,-39.112152099609375,-12.5017728805542,-24.691539764404297
1776017218988158000,3.859157958984375,-39.354217529296875,-12.41355037689209,-24.718902587890625
1776017218998219000,3.869218994140625,-38.865875244140625,-12.562376976013184,-24.639537811279297
1776017219008280000,3.879280029296875,-38.918060302734375,-12.793580055236816,-24.661422729492188
1776017219018341000,3.889341064453125,-39.38519287109375,-12.63916301727295,-24.593780517578125
1776017219028402200,3.899402099609375,-39.4171142578125,-12.688176155090332,-24.664052963256836
1776017219038463200,3.909463134765625,-39.170623779296875,-12.65330982208252,-24.732223510742188
1776017219048524000,3.91952392578125,-39.135650634765625,-12.576918601989746,-24.63686752319336
1776017219058584000,3.929583984375,-38.867889404296875,-12.48366641998291,-24.576980590820312
1776017219068645000,3.93964501953125,-39.05938720703125,-12.632250785827637,-24.520549774169922
1776017219078706000,3.949705810546875,-39.67926025390625,-12.474711418151855,-24.408493041992188
1776017219088767000,3.95976708984375,-39.0870361328125,-12.50763988494873,-24.577381134033203
1776017219098828000,3.969828125,-39.0625,-12.689417839050293,-24.612401962280273
1776017219108889000,3.97988916015625,-39.46636962890625,-12.640868186950684,-24.362274169921875
1776017219118950100,3.9899501953125,-39.082489013671875,-12.624201774597168,-24.526718139648438
1776017219129011200,4.00001123046875,-38.787750244140625,-12.626629829406738,-24.657955169677734
1776017219139072300,4.010072265625,-39.17022705078125,-12.76244068145752,-24.680744171142578
1776017219149132000,4.020132080078125,-39.253662109375,-12.584824562072754,-24.70706558227539
1776017219159193000,4.030193115234375,-38.91485595703125,-12.611842155456543,-24.80147933959961
1776017219169254100,4.040254150390625,-38.6058349609375,-12.706324577331543,-24.466171264648438
1776017219179315200,4.050315185546875,-38.818572998046875,-12.75719928741455,-24.531204223632812
1776017219189376000,4.0603759765625,-39.212799072265625,-13.034131050109863,-24.471683502197266
1776017219199437000,4.07043701171875,-38.941619873046875,-12.999924659729004,-24.462451934814453
1776017219209498000,4.080498046875,-39.00238037109375,-12.707825660705566,-24.64019012451172
1776017219219559000,4.090558837890625,-38.762481689453125,-12.815415382385254,-24.338211059570312
1776017219229620000,4.100619873046875,-39.10614013671875,-12.789109230041504,-24.391441345214844
1776017219239681000,4.110680908203125,-38.99945068359375,-12.740904808044434,-24.623767852783203
1776017219249740300,4.120740234375,-39.29534912109375,-13.024624824523926,-24.726062774658203
1776017219259801300,4.13080126953125,-39.014312744140625,-12.96596622467041,-24.78589630126953
1776017219269862400,4.1408623046875,-39.32110595703125,-12.759081840515137,-24.4045352935791
1776017219279923500,4.15092333984375,-39.22491455078125,-12.636921882629395,-24.310230255126953
1776017219289984500,4.160984619140625,-38.91796875,-12.785542488098145,-24.605968475341797
1776017219300045600,4.171045654296875,-38.642578125,-12.851069450378418,-24.581787109375
1776017219310106600,4.181106689453125,-39.069580078125,-13.066479682922363,-24.704313278198242
1776017219320167400,4.19116748046875,-38.9456787109375,-12.893935203552246,-24.675207138061523
1776017219330228500,4.201228515625,-39.153533935546875,-12.706456184387207,-24.711963653564453
1776017219340288500,4.21128857421875,-39.377777099609375,-12.739760398864746,-24.784404754638672
1776017219350349300,4.221349365234375,-39.105255126953125,-12.690346717834473,-24.712650299072266
1776017219360410400,4.231410400390625,-38.9295654296875,-12.76155948638916,-24.79138946533203
1776017219370471400,4.241471435546875,-39.137786865234375,-13.039454460144043,-24.434513092041016
1776017219380532500,4.251532470703125,-39.05615234375,-12.917452812194824,-24.4578857421875
1776017219390593500,4.261593505859375,-38.966888427734375,-12.835680961608887,-24.41952133178711
1776017219400654600,4.271654541015625,-39.663299560546875,-12.635100364685059,-24.513275146484375
1776017219410715400,4.28171533203125,-39.400146484375,-12.867842674255371,-24.431575775146484
1776017219420776400,4.2917763671875,-39.169525146484375,-12.944136619567871,-24.525909423828125
1776017219430836500,4.30183642578125,-39.322662353515625,-12.778882026672363,-24.56328010559082
1776017219440897500,4.3118974609375,-39.119354248046875,-12.865078926086426,-24.51544952392578
1776017219450958600,4.32195849609375,-39.431976318359375,-12.725260734558105,-24.485027313232422
1776017219461019400,4.332019287109375,-39.726104736328125,-13.04321575164795,-24.874616622924805
1776017219471080400,4.34208056640625,-39.216400146484375,-12.733736991882324,-24.57982635498047
1776017219481141500,4.3521416015625,-39.1336669921875,-13.048609733581543,-24.603351593017578
1776017219491202300,4.362202392578125,-39.3607177734375,-13.132744789123535,-24.50918197631836
1776017219501263400,4.372263427734375,-39.394866943359375,-12.775328636169434,-24.62322998046875
1776017219511324400,4.382324462890625,-39.33502197265625,-13.097908973693848,-24.401466369628906
1776017219521384400,4.392384521484375,-39.486846923828125,-13.026307106018066,-24.456493377685547
1776017219531445500,4.402445556640625,-39.439666748046875,-12.84768009185791,-24.74588394165039
1776017219541506600,4.412506591796875,-39.434539794921875,-12.864300727844238,-24.675010681152344
1776017219551567600,4.422567626953125,-39.4639892578125,-12.953511238098145,-24.520538330078125
1776017219561628400,4.43262841796875,-39.0147705078125,-12.795817375183105,-24.744529724121094
1776017219571689500,4.442689453125,-39.228302001953125,-12.715994834899902,-24.591705322265625
1776017219581750300,4.452750244140625,-39.1849365234375,-12.705391883850098,-24.653549194335938
1776017219591811300,4.462811279296875,-38.926483154296875,-12.875557899475098,-24.546894073486328
1776017219601872400,4.472872314453125,-38.78338623046875,-12.937664985656738,-24.56558609008789
1776017219611932400,4.482932373046875,-38.69775390625,-12.796612739562988,-24.547969818115234
1776017219621993500,4.492993408203125,-39.345947265625,-12.761696815490723,-24.4851016998291
1776017219632054500,4.503054443359375,-39.13671875,-12.715670585632324,-24.62424659729004
1776017219642115300,4.513115234375,-39.50201416015625,-12.720549583435059,-24.667221069335938
1776017219652176400,4.52317626953125,-38.8123779296875,-12.679585456848145,-24.558460235595703
1776017219662237400,4.533237548828125,-38.994415283203125,-12.877654075622559,-24.75387954711914
1776017219672298500,4.543298583984375,-39.371490478515625,-12.787556648254395,-24.636611938476562
1776017219682359600,4.553359619140625,-39.54302978515625,-12.715094566345215,-24.578838348388672
1776017219692420600,4.563420654296875,-39.49273681640625,-12.950898170471191,-24.38129997253418
1776017219702480600,4.573480712890625,-39.156341552734375,-13.04531192779541,-24.25063133239746
1776017219712541400,4.58354150390625,-39.17608642578125,-13.228325843811035,-24.473167419433594
1776017219722602200,4.593602294921875,-39.133514404296875,-13.230679512023926,-24.57895278930664
1776017219732663300,4.603663330078125,-39.06610107421875,-13.130343437194824,-24.564720153808594
1776017219742724400,4.613724365234375,-38.830963134765625,-13.349471092224121,-24.554458618164062
1776017219752785400,4.623785400390625,-38.999298095703125,-13.317566871643066,-24.823816299438477
1776017219762846500,4.633846435546875,-39.488922119140625,-13.159361839294434,-24.527456283569336
1776017219772907500,4.643907470703125,-38.900909423828125,-12.978890419006348,-24.5927677154541
1776017219782968600,4.653968505859375,-39.61541748046875,-12.959172248840332,-24.394882202148438
1776017219793029600,4.664029541015625,-39.498046875,-13.126481056213379,-24.395902633666992
1776017219803089400,4.67408935546875,-39.595672607421875,-13.043662071228027,-24.57286834716797
1776017219813150500,4.684150390625,-39.346038818359375,-13.084092140197754,-24.707332611083984
1776017219823211500,4.69421142578125,-38.947662353515625,-12.789765357971191,-24.72426986694336
1776017219833272600,4.7042724609375,-39.18743896484375,-13.144383430480957,-24.626033782958984
1776017219843333400,4.71433349609375,-38.95672607421875,-12.721693992614746,-24.6815185546875
1776017219853394400,4.72439453125,-38.884429931640625,-12.76096248626709,-24.85199737548828
1776017219863455500,4.73445556640625,-38.998443603515625,-12.759551048278809,-24.65617561340332
1776017219873516500,4.7445166015625,-39.00006103515625,-12.430109977722168,-24.701448440551758
1776017219883577300,4.754577392578125,-38.6689453125,-12.725556373596191,-24.641338348388672
1776017219893637400,4.764637451171875,-38.6885986328125,-12.772889137268066,-24.658550262451172
1776017219903698400,4.774698486328125,-38.495269775390625,-12.66755199432373,-24.79170036315918
1776017219913759500,4.784759521484375,-38.829345703125,-12.477139472961426,-24.933441162109375
1776017219923820500,4.794820556640625,-39.192596435546875,-12.56699275970459,-24.97313690185547
1776017219933881600,4.804881591796875,-39.088226318359375,-12.723896980285645,-24.79995346069336
1776017219943942700,4.814942626953125,-38.953765869140625,-12.94791316986084,-24.753459930419922
1776017219954003500,4.82500341796875,-38.890472412109375,-12.902815818786621,-24.795047760009766
1776017219964064300,4.835064208984375,-39.10198974609375,-12.881924629211426,-24.667354583740234
1776017219974125300,4.845125244140625,-39.16033935546875,-12.966254234313965,-24.717575073242188
1776017219984185300,4.855185302734375,-39.209503173828125,-12.871085166931152,-24.653526306152344
1776017219994246400,4.865246337890625,-38.93731689453125,-12.792258262634277,-24.389806747436523
1776017220004307500,4.875307373046875,-39.312347412109375,-12.791131019592285,-24.468730926513672
1776017220014368500,4.885368408203125,-39.056671142578125,-12.808484077453613,-24.521812438964844
1776017220024429600,4.8954296875,-39.359100341796875,-12.842612266540527,-24.358760833740234
1776017220034490400,4.905490478515625,-39.342041015625,-12.87477970123291,-24.565780639648438
1776017220044551400,4.915551513671875,-39.131195068359375,-12.673583030700684,-24.671451568603516
1776017220054612500,4.925612548828125,-38.877777099609375,-12.656819343566895,-24.346233367919922
1776017220064673500,4.935673583984375,-39.024566650390625,-12.771599769592285,-24.17596435546875
1776017220074733600,4.945733642578125,-38.7515869140625,-12.640244483947754,-24.19548797607422
1776017220084794600,4.955794677734375,-38.86041259765625,-12.605162620544434,-24.418567657470703
1776017220094855400,4.96585546875,-38.998016357421875,-12.767365455627441,-24.288604736328125
1776017220104916200,4.975916259765625,-39.010650634765625,-12.51179027557373,-24.381418228149414
1776017220114977300,4.985977294921875,-39.554473876953125,-12.70090389251709,-24.254955291748047
1776017220125038300,4.996038330078125,-39.131622314453125,-12.67539119720459,-24.311607360839844
1776017220135099400,5.006099365234375,-38.811065673828125,-12.798346519470215,-24.413999557495117
1776017220145160400,5.016160400390625,-38.72406005859375,-12.519604682922363,-24.413330078125
1776017220155221500,5.026221435546875,-39.048553466796875,-12.553786277770996,-24.489212036132812
1776017220165282600,5.036282470703125,-38.855133056640625,-12.693207740783691,-24.450815200805664
1776017220175342600,5.046342529296875,-39.003387451171875,-12.577128410339355,-24.38521957397461
1776017220185403400,5.0564033203125,-39.244781494140625,-12.668478965759277,-24.490360260009766
1776017220195464400,5.06646435546875,-39.3382568359375,-12.733141899108887,-24.332965850830078
1776017220205525500,5.076525390625,-39.389556884765625,-12.762059211730957,-24.414390563964844
1776017220215586300,5.08658642578125,-39.237030029296875,-12.718153953552246,-24.36451530456543
1776017220225647400,5.0966474609375,-39.49786376953125,-12.434723854064941,-24.441457748413086
1776017220235708400,5.10670849609375,-39.418487548828125,-12.530644416809082,-24.516921997070312
1776017220245770000,5.11677001953125,-39.277069091796875,-12.481925010681152,-24.46609115600586
1776017220255831000,5.1268310546875,-39.25701904296875,-12.614605903625488,-24.292633056640625
1776017220265890800,5.136890869140625,-38.96197509765625,-12.651509284973145,-24.361751556396484
1776017220275951900,5.146951904296875,-39.113525390625,-12.481425285339355,-24.54800796508789
1776017220286013000,5.157012939453125,-39.140594482421875,-12.641459465026855,-24.528318405151367
1776017220296074000,5.167073974609375,-39.22772216796875,-12.440360069274902,-24.38427734375
1776017220306135000,5.177135009765625,-39.37274169921875,-12.629137992858887,-24.620515823364258
1776017220316195800,5.18719580078125,-39.04852294921875,-12.509509086608887,-24.390039443969727
1776017220326257000,5.1972568359375,-38.7764892578125,-12.659102439880371,-24.543987274169922
1776017220336318000,5.20731787109375,-39.071075439453125,-12.43709659576416,-24.335773468017578
1776017220346379000,5.21737890625,-38.7510986328125,-12.321677207946777,-24.24822998046875
1776017220356438800,5.227438720703125,-39.23004150390625,-12.355656623840332,-24.289901733398438
1776017220366499800,5.237499755859375,-39.099609375,-12.362227439880371,-24.4560489654541
1776017220376561000,5.247560791015625,-39.301483154296875,-12.658719062805176,-24.200668334960938
1776017220386622000,5.2576220703125,-39.172088623046875,-12.626444816589355,-24.136947631835938
1776017220396683000,5.26768310546875,-39.380462646484375,-12.463147163391113,-24.217021942138672
1776017220406744000,5.277744140625,-39.178314208984375,-12.207816123962402,-24.306476593017578
1776017220416805000,5.28780517578125,-39.282684326171875,-12.348738670349121,-24.24700927734375
1776017220426866200,5.2978662109375,-39.3768310546875,-12.302960395812988,-24.504390716552734
1776017220436926700,5.3079267578125,-39.54022216796875,-12.101204872131348,-24.156015396118164
1776017220446987800,5.31798779296875,-39.162322998046875,-12.090426445007324,-24.126113891601562
1776017220457048000,5.328048095703125,-39.254119873046875,-12.046772956848145,-24.2330322265625
1776017220467108900,5.33810888671875,-39.960113525390625,-12.1392183303833,-24.332862854003906
1776017220477170000,5.348169921875,-39.7095947265625,-12.395628929138184,-24.382858276367188
1776017220487231000,5.35823095703125,-39.71051025390625,-12.224577903747559,-24.3702449798584
1776017220497292000,5.3682919921875,-39.50970458984375,-12.194954872131348,-24.289020538330078
1776017220507353000,5.37835302734375,-39.565216064453125,-12.210625648498535,-24.406314849853516
1776017220517414000,5.388413818359375,-39.707550048828125,-12.027199745178223,-24.17070770263672
1776017220527475000,5.398474853515625,-39.566375732421875,-12.026890754699707,-24.30484390258789
1776017220537536000,5.408535888671875,-39.43475341796875,-12.374924659729004,-24.463390350341797
1776017220547596000,5.418595947265625,-39.68023681640625,-12.320029258728027,-24.297332763671875
1776017220557657000,5.428656982421875,-39.71014404296875,-12.264496803283691,-24.256643295288086
1776017220567718100,5.43871826171875,-39.8841552734375,-12.324231147766113,-24.382431030273438
1776017220577779000,5.448779052734375,-39.720977783203125,-12.215533256530762,-24.35662078857422
1776017220587839700,5.45883984375,-39.5382080078125,-12.039217948913574,-24.417945861816406
1776017220597900800,5.46890087890625,-39.281097412109375,-12.167437553405762,-24.549331665039062
1776017220607961900,5.4789619140625,-39.38983154296875,-12.325032234191895,-24.25537872314453
1776017220618023000,5.48902294921875,-39.48223876953125,-12.256478309631348,-24.40534210205078
1776017220628084000,5.499083984375,-39.498260498046875,-11.934845924377441,-24.686702728271484
1776017220638144000,5.50914404296875,-39.510650634765625,-11.97652530670166,-24.637195587158203
1776017220648205000,5.519205078125,-39.70635986328125,-12.068467140197754,-24.44158363342285
1776017220658265900,5.529265869140625,-39.596466064453125,-11.973837852478027,-24.422391891479492
1776017220668327000,5.539326904296875,-39.60333251953125,-12.06729793548584,-24.376869201660156
1776017220678388000,5.549387939453125,-39.74957275390625,-12.301802635192871,-24.37308120727539
1776017220688449000,5.559448974609375,-39.489105224609375,-12.109333992004395,-24.378597259521484
1776017220698509800,5.569509765625,-39.36993408203125,-12.177525520324707,-24.329723358154297
1776017220708571000,5.57957080078125,-39.382080078125,-11.93750286102295,-24.464773178100586
1776017220718632000,5.5896318359375,-39.268524169921875,-11.76743221282959,-24.400545120239258
1776017220728693000,5.59969287109375,-39.3323974609375,-11.916171073913574,-24.558252334594727
1776017220738752800,5.609752685546875,-38.977203369140625,-12.114241600036621,-24.581512451171875
1776017220748813800,5.619813720703125,-39.18939208984375,-12.134799003601074,-24.432722091674805
1776017220758875000,5.629875,-39.429229736328125,-12.197457313537598,-24.609535217285156
1776017220768936000,5.63993603515625,-39.495697021484375,-12.039498329162598,-24.874542236328125
1776017220778997000,5.6499970703125,-39.4332275390625,-12.066697120666504,-24.750301361083984
1776017220789058000,5.66005810546875,-39.500732421875,-11.978377342224121,-24.50582504272461
1776017220799119000,5.670119140625,-39.054443359375,-12.174408912658691,-24.53582000732422
1776017220809180000,5.680179931640625,-38.991668701171875,-12.137436866760254,-24.53759765625
1776017220819241000,5.690240966796875,-39.26324462890625,-11.94465160369873,-24.17567253112793
1776017220829301000,5.700301025390625,-39.30926513671875,-12.014006614685059,-24.21625518798828
1776017220839361800,5.71036181640625,-39.6380615234375,-11.913592338562012,-24.244091033935547
1776017220849422800,5.7204228515625,-39.775054931640625,-11.780919075012207,-24.04944610595703
1776017220859484000,5.73048388671875,-39.629730224609375,-11.636858940124512,-24.019033432006836
1776017220869545000,5.740544921875,-39.957672119140625,-11.799059867858887,-24.11834716796875
1776017220879606000,5.75060595703125,-39.793121337890625,-11.873440742492676,-24.142074584960938
1776017220889667000,5.7606669921875,-39.647552490234375,-11.727999687194824,-24.00543212890625
1776017220899728100,5.77072802734375,-39.61688232421875,-11.739876747131348,-24.262760162353516
1776017220909789000,5.780788818359375,-39.139404296875,-11.90424633026123,-24.24396514892578
1776017220919849000,5.790848876953125,-39.464996337890625,-12.142865180969238,-24.103748321533203
1776017220929910000,5.800909912109375,-39.29742431640625,-11.876093864440918,-24.015037536621094
1776017220939971000,5.81097119140625,-39.32550048828125,-11.878228187561035,-24.23239517211914
1776017220950032000,5.821031982421875,-39.6712646484375,-11.783528327941895,-24.076812744140625
1776017220960093000,5.831093017578125,-39.473419189453125,-11.805315971374512,-24.31501579284668
1776017220970154000,5.841154052734375,-39.423126220703125,-11.936274528503418,-24.10776138305664
1776017220980214800,5.85121484375,-39.1126708984375,-12.114876747131348,-24.292800903320312
1776017220990275800,5.86127587890625,-39.452423095703125,-12.10595417022705,-24.309202194213867
1776017221000337000,5.8713369140625,-38.6859130859375,-12.239012718200684,-24.222219467163086
1776017221010398000,5.88139794921875,-38.892181396484375,-12.148053169250488,-24.2277774810791
1776017221020458000,5.8914580078125,-38.808685302734375,-11.99815845489502,-24.219402313232422
1776017221030519000,5.90151904296875,-38.82647705078125,-12.160313606262207,-24.179786682128906
1776017221040580000,5.911580078125,-39.264434814453125,-12.078213691711426,-24.158456802368164
1776017221050641200,5.92164111328125,-39.22930908203125,-11.922425270080566,-24.254396438598633
1776017221060702000,5.931701904296875,-39.229339599609375,-11.773402214050293,-24.282344818115234
1776017221070762800,5.9417626953125,-39.07965087890625,-11.958170890808105,-24.336833953857422
1776017221080823800,5.95182373046875,-39.042449951171875,-11.828593254089355,-24.476795196533203
1776017221090884900,5.961884765625,-38.881866455078125,-11.889117240905762,-24.328941345214844
1776017221100946000,5.97194580078125,-38.4652099609375,-11.75439167022705,-24.246646881103516
1776017221111006000,5.982005859375,-39.106842041015625,-12.011216163635254,-24.286602020263672
1776017221121067000,5.99206689453125,-39.488494873046875,-12.125802040100098,-24.314544677734375
1776017221131127800,6.0021279296875,-39.569915771484375,-12.092339515686035,-24.331241607666016
1776017221141188900,6.01218896484375,-39.6971435546875,-11.848057746887207,-24.152080535888672
1776017221151250000,6.02225,-39.252471923828125,-12.009787559509277,-24.05898666381836
1776017221161311000,6.03231103515625,-39.232025146484375,-11.872920036315918,-24.15158462524414
1776017221171372000,6.0423720703125,-39.18414306640625,-11.718670845031738,-24.307937622070312
1776017221181433000,6.05243310546875,-38.94757080078125,-12.109784126281738,-24.31304168701172
1776017221191494000,6.062493896484375,-38.901336669921875,-11.973982810974121,-24.221521377563477
1776017221201555000,6.072554931640625,-38.935516357421875,-11.841595649719238,-24.265914916992188
1776017221211614700,6.08261474609375,-38.967254638671875,-11.779738426208496,-24.167129516601562
1776017221221675800,6.09267578125,-39.094268798828125,-11.541565895080566,-24.22071075439453
1776017221231736800,6.10273681640625,-38.972259521484375,-11.840130805969238,-24.43829917907715
1776017221241798000,6.1127978515625,-39.189544677734375,-11.903939247131348,-24.376068115234375
1776017221251858400,6.1228583984375,-39.20977783203125,-11.882309913635254,-24.330150604248047
1776017221261919500,6.13291943359375,-39.89739990234375,-11.935395240783691,-24.280567169189453
1776017221271980500,6.14298046875,-39.76788330078125,-11.830155372619629,-24.19989013671875
1776017221282041600,6.15304150390625,-39.711761474609375,-11.739150047302246,-24.131332397460938
1776017221292102700,6.1631025390625,-39.706512451171875,-11.76384449005127,-24.362537384033203
1776017221302162700,6.17316259765625,-39.44732666015625,-11.895905494689941,-24.24524688720703
1776017221312223700,6.1832236328125,-39.66595458984375,-11.705489158630371,-24.374351501464844
1776017221322284500,6.193284423828125,-39.856719970703125,-11.759526252746582,-24.361591339111328
1776017221332345600,6.203345703125,-39.587921142578125,-11.61020565032959,-24.22351837158203
1776017221342406400,6.213406494140625,-39.416046142578125,-11.754075050354004,-24.34146499633789
1776017221352467500,6.223467529296875,-39.364105224609375,-11.61575984954834,-24.382719039916992
1776017221362528500,6.233528564453125,-39.208587646484375,-11.6768217086792,-24.363143920898438
1776017221372589600,6.243589599609375,-39.671875,-11.743277549743652,-24.374980926513672
1776017221382650600,6.253650634765625,-39.45111083984375,-11.554144859313965,-24.444446563720703
1776017221392710700,6.263710693359375,-39.325103759765625,-11.788912773132324,-24.628875732421875
1776017221402771500,6.273771484375,-39.14678955078125,-11.658848762512207,-24.376220703125
1776017221412832500,6.28383251953125,-39.17108154296875,-11.601243019104004,-24.491880416870117
1776017221422893600,6.2938935546875,-39.431365966796875,-11.72460651397705,-24.274953842163086
1776017221432954600,6.30395458984375,-39.779052734375,-11.692112922668457,-24.225910186767578
1776017221443015700,6.314015625,-39.551605224609375,-11.54881763458252,-24.376388549804688
1776017221453076500,6.324076416015625,-39.792266845703125,-11.524310111999512,-24.549762725830078
1776017221463137500,6.334137451171875,-39.573394775390625,-11.435202598571777,-24.519515991210938
1776017221473198600,6.344198486328125,-39.406402587890625,-11.631207466125488,-24.435632705688477
1776017221483258400,6.35425830078125,-39.7987060546875,-11.587897300720215,-24.422346115112305
1776017221493319400,6.3643193359375,-39.651458740234375,-11.730338096618652,-24.4848575592041
1776017221503380500,6.37438037109375,-39.146575927734375,-11.788342475891113,-24.42557144165039
1776017221513441500,6.384441650390625,-39.450164794921875,-11.463257789611816,-24.5474853515625
1776017221523502600,6.394502685546875,-39.163665771484375,-11.712002754211426,-24.3844051361084
1776017221533563600,6.404563720703125,-39.0701904296875,-11.898507118225098,-24.367475509643555
1776017221543624700,6.414624755859375,-39.1944580078125,-12.11620044708252,-24.475496292114258
1776017221553685800,6.424685791015625,-39.42138671875,-12.205710411071777,-24.390727996826172
1776017221563746800,6.434746826171875,-39.45538330078125,-12.025811195373535,-24.619186401367188
1776017221573807400,6.444807373046875,-39.262420654296875,-11.956982612609863,-24.37497901916504
1776017221583867600,6.45486767578125,-39.641326904296875,-11.663727760314941,-24.4194278717041
1776017221593928400,6.464928466796875,-39.681396484375,-11.552844047546387,-24.41659927368164
1776017221603989500,6.474989501953125,-39.45782470703125,-11.734463691711426,-24.404693603515625
1776017221614050600,6.485050537109375,-39.130615234375,-11.60994815826416,-24.37738800048828
1776017221624111600,6.495111572265625,-39.00738525390625,-11.547701835632324,-24.067188262939453
1776017221634172700,6.505172607421875,-38.88775634765625,-11.710383415222168,-24.297386169433594
1776017221644233500,6.5152333984375,-38.868377685546875,-11.749554634094238,-24.45323371887207
1776017221654294500,6.52529443359375,-39.14202880859375,-12.017863273620605,-24.492197036743164
1776017221664355600,6.53535546875,-39.45794677734375,-11.805933952331543,-24.327625274658203
1776017221674415600,6.54541552734375,-39.421478271484375,-11.71338176727295,-24.297401428222656
1776017221684476700,6.5554765625,-39.08013916015625,-11.575163841247559,-24.47026824951172
1776017221694537700,6.565537841796875,-39.382049560546875,-11.633818626403809,-24.433012008666992
1776017221704598800,6.575598876953125,-39.35723876953125,-11.810027122497559,-24.395729064941406
1776017221714659600,6.58565966796875,-39.46044921875,-11.740386009216309,-24.37994384765625
1776017221724720400,6.595720458984375,-39.11370849609375,-11.714287757873535,-24.30116844177246
1776017221734781400,6.605781494140625,-38.87725830078125,-11.887701988220215,-24.458059310913086
1776017221744842500,6.615842529296875,-39.057373046875,-11.840367317199707,-24.112329483032227
1776017221754903600,6.625903564453125,-39.309844970703125,-11.923283576965332,-24.070846557617188
1776017221764963600,6.635963623046875,-39.3170166015625,-12.136210441589355,-24.019176483154297
1776017221775024600,6.646024658203125,-39.126434326171875,-11.929871559143066,-23.99166488647461
1776017221785085700,6.656085693359375,-39.40008544921875,-11.783293724060059,-24.110088348388672
1776017221795146500,6.666146484375,-39.102203369140625,-11.779891014099121,-24.027746200561523
1776017221805207600,6.67620751953125,-39.182952880859375,-11.807816505432129,-24.185876846313477
1776017221815268600,6.6862685546875,-39.4088134765625,-11.809281349182129,-24.18434715270996
1776017221825329700,6.69632958984375,-39.128204345703125,-11.849595069885254,-23.99493408203125
1776017221835390500,6.706390380859375,-39.428314208984375,-11.86980152130127,-23.920406341552734
1776017221845451500,6.716451416015625,-39.774688720703125,-11.907841682434082,-23.989601135253906
1776017221855511600,6.726511474609375,-39.61358642578125,-11.935479164123535,-24.043405532836914
1776017221865572600,6.736572509765625,-39.311553955078125,-11.778416633605957,-24.212242126464844
1776017221875633400,6.74663330078125,-39.391815185546875,-12.009419441223145,-24.080890655517578
1776017221885694500,6.756694580078125,-39.34344482421875,-12.146588325500488,-24.142261505126953
1776017221895755500,6.766755615234375,-39.398681640625,-11.81286907196045,-24.153934478759766
1776017221905816600,6.776816650390625,-39.289398193359375,-11.9295072555542,-24.298126220703125
1776017221915877600,6.786877685546875,-39.1785888671875,-11.865113258361816,-24.254924774169922
1776017221925938700,6.796938720703125,-39.421630859375,-11.871478080749512,-24.314937591552734
1776017221935999700,6.806999755859375,-39.6187744140625,-11.6513032913208,-24.369667053222656
1776017221946059500,6.8170595703125,-39.695892333984375,-11.751887321472168,-24.20699691772461
1776017221956120600,6.82712060546875,-39.453460693359375,-11.720541954040527,-24.09090232849121
1776017221966181600,6.837181640625,-39.616729736328125,-11.75609302520752,-24.262001037597656
1776017221976242400,6.847242431640625,-39.724456787109375,-11.90129566192627,-24.168067932128906
1776017221986303500,6.857303466796875,-39.859039306640625,-11.83680248260498,-24.323654174804688
1776017221996364500,6.867364501953125,-39.759674072265625,-11.830586433410645,-24.472740173339844
1776017222006425600,6.877425537109375,-39.9066162109375,-11.753813743591309,-24.524253845214844
1776017222016486700,6.887486572265625,-39.930206298828125,-11.843928337097168,-24.336715698242188
1776017222026547700,6.897547607421875,-40.32275390625,-11.744379997253418,-24.07453155517578
1776017222036607500,6.907607421875,-39.88958740234375,-11.898192405700684,-24.179019927978516
1776017222046668500,6.91766845703125,-39.6658935546875,-11.80605411529541,-24.138534545898438
1776017222056729600,6.9277294921875,-39.824127197265625,-11.915722846984863,-24.29682159423828
1776017222066790700,6.937790771484375,-39.669097900390625,-11.862271308898926,-24.166561126708984
1776017222076851700,6.947851806640625,-39.6341552734375,-12.140273094177246,-24.495052337646484
1776017222086912500,6.95791259765625,-39.827423095703125,-11.90796184539795,-24.490814208984375
1776017222096973600,6.9679736328125,-40.039825439453125,-11.889252662658691,-24.483386993408203
1776017222107034600,6.97803466796875,-39.99078369140625,-11.690091133117676,-24.468608856201172
1776017222117095400,6.988095458984375,-39.855987548828125,-11.981661796569824,-24.66854476928711
1776017222127156500,6.998156494140625,-39.654510498046875,-11.900141716003418,-24.552494049072266
1776017222137216500,7.008216552734375,-39.792510986328125,-11.94031810760498,-24.574974060058594
1776017222147277600,7.018277587890625,-39.639801025390625,-11.926133155822754,-24.355464935302734
1776017222157338600,7.028338623046875,-40.126007080078125,-11.883681297302246,-24.368375778198242
1776017222167399700,7.038399658203125,-39.55364990234375,-11.808777809143066,-24.467849731445312
1776017222177460700,7.048460693359375,-39.42230224609375,-11.895146369934082,-24.506771087646484
1776017222187521500,7.058521484375,-39.219757080078125,-11.885004997253418,-24.6446590423584
1776017222197582600,7.06858251953125,-39.29876708984375,-11.95828914642334,-24.668991088867188
1776017222207643400,7.078643310546875,-39.290435791015625,-11.96839427947998,-24.60608673095703
1776017222217704400,7.088704345703125,-39.808349609375,-11.953957557678223,-24.534282684326172
1776017222227764500,7.098764404296875,-39.9259033203125,-11.993054389953613,-24.394641876220703
1776017222237825500,7.108825439453125,-39.569122314453125,-11.989729881286621,-24.506206512451172
1776017222247886800,7.118886962890625,-39.763397216796875,-12.003432273864746,-24.45415496826172
1776017222257948000,7.128947998046875,-39.849609375,-11.963154792785645,-24.486160278320312
1776017222268008700,7.1390087890625,-39.5928955078125,-11.814139366149902,-24.48650360107422
1776017222278069800,7.14906982421875,-39.882965087890625,-11.879490852355957,-24.510845184326172
1776017222288130800,7.159130859375,-40.028076171875,-12.106465339660645,-24.350257873535156
1776017222298192000,7.16919189453125,-39.80194091796875,-12.187384605407715,-24.50647735595703
1776017222308253000,7.1792529296875,-39.603240966796875,-12.141753196716309,-24.48206901550293
1776017222318313000,7.18931298828125,-39.739410400390625,-12.339760780334473,-24.32529067993164
1776017222328374000,7.1993740234375,-39.846771240234375,-12.072915077209473,-24.46117401123047
1776017222338434800,7.209434814453125,-39.854644775390625,-11.905142784118652,-24.50341796875
1776017222348495600,7.21949560546875,-39.578704833984375,-11.9563570022583,-24.41597557067871
1776017222358556700,7.229556640625,-39.589813232421875,-12.031638145446777,-24.705928802490234
1776017222368617700,7.23961767578125,-39.734588623046875,-11.838454246520996,-24.541236877441406
1776017222378678800,7.2496787109375,-39.539794921875,-11.78885555267334,-24.681026458740234
1776017222388739800,7.25973974609375,-39.406829833984375,-11.984599113464355,-24.552488327026367
1776017222398801000,7.26980078125,-39.6728515625,-11.905735969543457,-24.42388153076172
1776017222408861000,7.27986083984375,-39.462158203125,-11.981480598449707,-24.501789093017578
1776017222418921700,7.289921630859375,-39.537139892578125,-12.080628395080566,-24.534202575683594
1776017222428982800,7.299982666015625,-39.570343017578125,-12.194941520690918,-24.377197265625
1776017222439043800,7.3100439453125,-39.505218505859375,-12.189118385314941,-24.513521194458008
1776017222449105000,7.32010498046875,-39.40625,-11.856925010681152,-24.535072326660156
1776017222459165700,7.330165771484375,-39.863616943359375,-11.709818840026855,-24.464555740356445
1776017222469226800,7.340226806640625,-39.988067626953125,-11.788485527038574,-24.353500366210938
1776017222479287800,7.350287841796875,-39.75115966796875,-11.89199161529541,-24.597652435302734
1776017222489348900,7.360348876953125,-39.575653076171875,-12.012839317321777,-24.43484878540039
1776017222499408600,7.37040869140625,-39.922637939453125,-11.88625431060791,-24.39568519592285
1776017222509469700,7.3804697265625,-39.682891845703125,-11.86774730682373,-24.719440460205078
1776017222519530800,7.39053076171875,-39.451324462890625,-12.227675437927246,-24.613906860351562
1776017222529591800,7.400591796875,-39.802093505859375,-12.23763370513916,-24.704679489135742
1776017222539652900,7.41065283203125,-39.31494140625,-12.32860279083252,-24.729137420654297
1776017222549714000,7.4207138671875,-39.787078857421875,-12.334757804870605,-24.633522033691406
1776017222559775000,7.43077490234375,-39.61944580078125,-12.290816307067871,-24.71141815185547
1776017222569835800,7.440835693359375,-39.561767578125,-12.224635124206543,-24.556367874145508
1776017222579896800,7.450896728515625,-39.591949462890625,-12.229378700256348,-24.499664306640625
1776017222589956900,7.460956787109375,-39.722930908203125,-12.235487937927246,-24.361385345458984
1776017222600017700,7.471017578125,-40.051666259765625,-12.195755958557129,-24.356786727905273
1776017222610078700,7.48107861328125,-40.002349853515625,-12.200657844543457,-24.20305824279785
1776017222620139800,7.491139892578125,-39.7120361328125,-12.107848167419434,-24.57804298400879
1776017222630200800,7.501200927734375,-39.959625244140625,-11.93466854095459,-24.620712280273438
1776017222640262000,7.511261962890625,-39.794189453125,-12.080296516418457,-24.777198791503906
1776017222650323000,7.521322998046875,-39.542083740234375,-12.193909645080566,-24.92539405822754
1776017222660384000,7.531384033203125,-39.5357666015625,-12.277451515197754,-24.627517700195312
1776017222670444800,7.54144482421875,-39.583404541015625,-12.371548652648926,-24.578346252441406
1776017222680505900,7.551505859375,-39.56365966796875,-12.347636222839355,-24.557048797607422
1776017222690566000,7.56156591796875,-39.56414794921875,-12.333495140075684,-24.436664581298828
1776017222700627000,7.571626953125,-39.589874267578125,-12.38679027557373,-24.540935516357422
1776017222710688000,7.58168798828125,-39.683868408203125,-12.379841804504395,-24.741622924804688
1776017222720748800,7.591748779296875,-39.6036376953125,-12.414137840270996,-24.729991912841797
1776017222730809900,7.601809814453125,-39.59857177734375,-12.42585277557373,-24.724651336669922
1776017222740870700,7.61187060546875,-39.51666259765625,-12.308117866516113,-24.675045013427734
1776017222750931700,7.621931640625,-39.725189208984375,-12.286498069763184,-24.67224884033203
1776017222760992800,7.63199267578125,-39.6458740234375,-12.311095237731934,-24.84735107421875
1776017222771052800,7.642052734375,-39.347137451171875,-12.21623706817627,-24.72185516357422
1776017222781113900,7.65211376953125,-39.446624755859375,-12.070080757141113,-24.88485336303711
1776017222791175000,7.6621748046875,-39.397125244140625,-12.207222938537598,-24.861316680908203
1776017222801236000,7.672236083984375,-39.624755859375,-11.977032661437988,-24.74551010131836
1776017222811297000,7.682297119140625,-39.533294677734375,-12.164616584777832,-24.67215347290039
1776017222821357800,7.69235791015625,-39.90087890625,-12.065115928649902,-24.701278686523438
1776017222831419000,7.7024189453125,-39.518463134765625,-12.047287940979004,-24.6669864654541
1776017222841479700,7.712479736328125,-39.7708740234375,-11.955235481262207,-24.74004554748535
1776017222851540700,7.722540771484375,-39.44598388671875,-11.930203437805176,-24.7352294921875
1776017222861600800,7.732600830078125,-39.67327880859375,-12.104809761047363,-24.970966339111328
1776017222871661800,7.742661865234375,-39.344879150390625,-12.033783912658691,-24.81147575378418
1776017222881723000,7.752722900390625,-39.746551513671875,-12.134627342224121,-24.804059982299805
1776017222891783700,7.76278369140625,-39.4615478515625,-11.995854377746582,-24.949554443359375
1776017222901844700,7.7728447265625,-39.350677490234375,-12.290421485900879,-24.86736297607422
1776017222911905800,7.78290576171875,-39.537445068359375,-12.347643852233887,-24.831153869628906
1776017222921966800,7.792966796875,-39.300201416015625,-12.469902992248535,-24.760723114013672
1776017222932028000,7.80302783203125,-39.2025146484375,-12.324902534484863,-24.659080505371094
1776017222942089000,7.8130888671875,-39.429412841796875,-12.227852821350098,-24.837905883789062
1776017222952149800,7.823149658203125,-39.19073486328125,-12.348469734191895,-24.850082397460938
1776017222962210000,7.8332099609375,-39.345916748046875,-12.403538703918457,-24.79252815246582
1776017222972270800,7.843270751953125,-39.461151123046875,-12.10510540008545,-24.847484588623047
1776017222982331600,7.85333154296875,-39.219451904296875,-12.220040321350098,-24.911155700683594
1776017222992392700,7.863392822265625,-38.94049072265625,-12.229172706604004,-24.877262115478516
1776017223002453800,7.873453857421875,-39.056884765625,-12.015023231506348,-24.92743492126465
1776017223012514800,7.883514892578125,-39.088592529296875,-12.0427885055542,-25.061986923217773
1776017223022575900,7.893575927734375,-39.127899169921875,-11.87984561920166,-24.949880599975586
1776017223032637000,7.903636962890625,-38.991943359375,-11.837237358093262,-24.918041229248047
1776017223042696700,7.91369677734375,-39.080352783203125,-12.103194236755371,-25.13515853881836
1776017223052757800,7.9237578125,-39.35498046875,-12.18102741241455,-24.93053436279297
1776017223062818800,7.93381884765625,-39.18511962890625,-12.018624305725098,-24.924345016479492
1776017223072879900,7.9438798828125,-39.292388916015625,-11.799983024597168,-25.0096492767334
1776017223082941000,7.95394091796875,-39.225067138671875,-11.824986457824707,-25.1874942779541
1776017223093001700,7.964001708984375,-39.351531982421875,-11.927781105041504,-25.249408721923828
1776017223103062800,7.974062744140625,-39.632476806640625,-12.068936347961426,-25.331249237060547
1776017223113123800,7.984123779296875,-38.9285888671875,-11.910679817199707,-25.24590492248535
1776017223123185000,7.994184814453125,-38.541259765625,-11.893628120422363,-25.168127059936523
1776017223133245700,8.00424560546875,-38.475799560546875,-11.919175148010254,-25.167451858520508
1776017223143305700,8.0143056640625,-39.205718994140625,-12.017901420593262,-25.109121322631836
1776017223153366800,8.02436669921875,-39.501861572265625,-11.83371639251709,-25.12826919555664
1776017223163427800,8.034427734375,-39.6455078125,-11.584053993225098,-25.26972198486328
1776017223173489000,8.044489013671875,-39.401763916015625,-11.578930854797363,-25.09624481201172
1776017223183550000,8.054550048828125,-39.082183837890625,-11.720210075378418,-25.299915313720703
1776017223193611000,8.064611083984374,-39.336212158203125,-11.7684965133667,-25.247108459472656
1776017223203671800,8.074671875,-39.18597412109375,-11.873431205749512,-25.202821731567383
1776017223213732600,8.084732666015626,-39.015472412109375,-11.922062873840332,-25.28970718383789
1776017223223793700,8.094793701171875,-39.082855224609375,-11.824822425842285,-25.22834014892578
1776017223233853700,8.104853759765625,-39.299835205078125,-11.631964683532715,-25.408246994018555
1776017223243914800,8.114914794921875,-39.440216064453125,-11.631852149963379,-25.285362243652344
1776017223253975000,8.12497509765625,-39.4859619140625,-11.55261516571045,-25.126752853393555
1776017223264036000,8.1350361328125,-38.9619140625,-11.43198299407959,-25.231204986572266
1776017223274097200,8.14509716796875,-39.1697998046875,-11.676924705505371,-25.20439910888672
1776017223284158200,8.155158203125,-39.16705322265625,-11.625763893127441,-25.229015350341797
1776017223294219000,8.165218994140625,-39.151123046875,-11.79106616973877,-25.127187728881836
1776017223304280000,8.175280029296875,-38.98297119140625,-11.75380802154541,-25.226512908935547
1776017223314341000,8.185341064453125,-39.372528076171875,-11.814835548400879,-24.97823715209961
1776017223324401200,8.195401123046874,-39.614227294921875,-11.787426948547363,-24.94463539123535
1776017223334462200,8.205462158203124,-39.254974365234375,-11.919646263122559,-25.06763458251953
1776017223344523300,8.215523193359376,-39.158843994140625,-11.751181602478027,-25.084150314331055
1776017223354584300,8.225584228515626,-38.87646484375,-11.737936973571777,-25.29071044921875
1776017223364645000,8.23564501953125,-38.81707763671875,-11.601418495178223,-25.4476318359375
1776017223374706000,8.245705810546875,-39.026885986328125,-11.528822898864746,-25.5559024810791
1776017223384767000,8.25576708984375,-39.07537841796875,-11.842595100402832,-25.470897674560547
1776017223394828000,8.265828125,-39.442169189453125,-11.748269081115723,-25.456966400146484
1776017223404889000,8.27588916015625,-39.508819580078125,-12.106724739074707,-25.409326553344727
1776017223414949000,8.28594921875,-39.518829345703125,-11.981223106384277,-25.359046936035156
1776017223425010200,8.29601025390625,-39.372314453125,-11.821978569030762,-25.446975708007812
1776017223435071200,8.3060712890625,-39.5164794921875,-11.943942070007324,-25.330102920532227
1776017223445132000,8.316132080078125,-39.439544677734375,-11.958220481872559,-25.396339416503906
1776017223455193000,8.326193115234375,-39.460174560546875,-12.23037052154541,-25.522911071777344
1776017223465254100,8.336254150390625,-39.205474853515625,-12.204375267028809,-25.387531280517578
1776017223475315200,8.346315185546874,-39.011016845703125,-12.045998573303223,-25.371410369873047
1776017223485376000,8.3563759765625,-39.275665283203125,-12.000365257263184,-25.249237060546875
1776017223495437000,8.36643701171875,-39.16168212890625,-12.03886890411377,-25.386520385742188
1776017223505497300,8.376497314453125,-38.945068359375,-12.235791206359863,-25.35994529724121
1776017223515558000,8.386557861328125,-39.186279296875,-12.227051734924316,-25.1909236907959
1776017223525619000,8.396618896484375,-39.424591064453125,-11.78880786895752,-25.65628433227539
1776017223535680000,8.406679931640625,-39.10675048828125,-11.843932151794434,-25.390308380126953
1776017223545741000,8.416740966796874,-39.061248779296875,-12.21745777130127,-25.237825393676758
1776017223555802000,8.426802001953124,-39.27001953125,-12.32242488861084,-25.29596710205078
1776017223565863200,8.43686328125,-38.7701416015625,-12.487875938415527,-25.23279571533203
1776017223575924200,8.44692431640625,-38.804656982421875,-12.362797737121582,-25.312702178955078
1776017223585985300,8.4569853515625,-38.90594482421875,-12.314963340759277,-25.347766876220703
1776017223596045000,8.467045166015625,-39.00244140625,-12.668246269226074,-25.23733139038086
1776017223606106000,8.477106201171875,-38.8309326171875,-12.749810218811035,-25.383724212646484
1776017223616167200,8.487167236328125,-39.1361083984375,-12.653975486755371,-25.404254913330078
1776017223626228000,8.49722802734375,-38.927001953125,-12.770560264587402,-25.362077713012695
1776017223636289000,8.5072890625,-38.919830322265625,-12.817824363708496,-25.23465919494629
1776017223646350000,8.51735009765625,-38.67041015625,-12.781258583068848,-25.386138916015625
1776017223656411100,8.5274111328125,-38.827850341796875,-12.61462116241455,-25.3782958984375
1776017223666472200,8.53747216796875,-38.75128173828125,-12.942313194274902,-25.379840850830078
1776017223676533200,8.547533203125,-38.898468017578125,-12.880864143371582,-25.273717880249023
1776017223686593000,8.557593017578125,-38.6778564453125,-13.103341102600098,-25.37635040283203
1776017223696654000,8.567654052734374,-38.83563232421875,-13.309212684631348,-25.32758903503418
1776017223706715100,8.577715087890626,-39.64532470703125,-13.406567573547363,-25.292827606201172
1776017223716776200,8.587776123046876,-39.483978271484375,-13.207551002502441,-25.294723510742188
1776017223726837200,8.597837158203125,-38.758331298828125,-13.27587604522705,-25.354385375976562
1776017223736898300,8.607898193359375,-39.071990966796875,-13.30129337310791,-25.123538970947266
1776017223746959000,8.617958984375,-39.099029541015625,-13.305394172668457,-25.28628921508789
1776017223757020000,8.62802001953125,-39.086212158203125,-13.37926197052002,-25.34278106689453
1776017223767080200,8.638080078125,-38.802337646484375,-13.3239164352417,-25.285724639892578
1776017223777141000,8.64814111328125,-38.879302978515625,-13.190752983093262,-25.216508865356445
1776017223787202000,8.6582021484375,-38.703826904296875,-13.2481050491333,-25.2275390625
1776017223797263000,8.66826318359375,-39.398712158203125,-13.066630363464355,-25.29140281677246
1776017223807324200,8.67832421875,-39.41180419921875,-13.112483024597168,-25.047061920166016
1776017223817385200,8.68838525390625,-39.421112060546875,-13.042834281921387,-25.098575592041016
1776017223827446300,8.6984462890625,-39.70550537109375,-13.079577445983887,-25.024742126464844
1776017223837507000,8.708507080078125,-39.59173583984375,-12.95778751373291,-24.625642776489258
1776017223847568100,8.718568115234374,-39.855682373046875,-13.069846153259277,-24.319278717041016
1776017223857628200,8.728628173828126,-39.848876953125,-13.041003227233887,-24.227521896362305
1776017223867689200,8.738689208984376,-39.536102294921875,-13.23142147064209,-23.823833465576172
1776017223877750300,8.748750244140625,-39.652740478515625,-13.480608940124512,-23.520618438720703
1776017223887811000,8.75881103515625,-39.86932373046875,-13.836470603942871,-23.367828369140625
1776017223897872100,8.7688720703125,-39.93206787109375,-13.885485649108887,-23.113229751586914
1776017223907933000,8.778932861328125,-40.14691162109375,-14.037610054016113,-22.846681594848633
1776017223917994000,8.788993896484374,-40.009918212890625,-14.001952171325684,-22.632469177246094
1776017223928055000,8.799054931640624,-40.585906982421875,-14.084250450134277,-22.793033599853516
1776017223938116000,8.8091162109375,-40.30029296875,-14.29198932647705,-22.677467346191406
1776017223948176100,8.819176025390625,-40.315582275390625,-14.412856101989746,-22.546966552734375
1776017223958237200,8.8292373046875,-40.4307861328125,-14.586531639099121,-22.439666748046875
1776017223968298200,8.83929833984375,-40.2073974609375,-14.810181617736816,-22.382091522216797
1776017223978359300,8.849359375,-40.00531005859375,-14.79535961151123,-22.30410385131836
1776017223988420000,8.859420166015624,-39.950408935546875,-14.880400657653809,-22.36065673828125
1776017223998481200,8.869481201171874,-40.022735595703125,-15.160124778747559,-22.349876403808594
1776017224008542000,8.8795419921875,-40.105682373046875,-15.16771411895752,-22.275856018066406
1776017224018603000,8.88960302734375,-40.138275146484375,-15.273150444030762,-22.328645706176758
1776017224028664000,8.8996640625,-40.05322265625,-15.164164543151855,-22.24896240234375
1776017224038724000,8.90972412109375,-39.826171875,-15.361824989318848,-22.293460845947266
1776017224048785200,8.91978515625,-39.731201171875,-15.53267765045166,-21.940452575683594
1776017224058846000,8.929845947265624,-39.47857666015625,-15.766833305358887,-22.218198776245117
1776017224068907000,8.939906982421874,-39.689117431640625,-16.026798248291016,-22.43118667602539
1776017224078968000,8.949968017578126,-39.878936767578125,-16.29421615600586,-22.086341857910156
1776017224089029000,8.960029052734376,-39.277099609375,-16.497421264648438,-21.90451431274414
1776017224099090200,8.970090087890625,-39.24993896484375,-16.726158142089844,-21.765644073486328
1776017224109151200,8.980151123046875,-38.8284912109375,-17.19833755493164,-21.83712387084961
1776017224119212000,8.9902119140625,-38.768096923828125,-17.61450958251953,-21.45825958251953
1776017224129272300,9.000272216796875,-38.662445068359375,-17.782459259033203,-21.330509185791016
1776017224139333000,9.0103330078125,-38.7200927734375,-18.332744598388672,-21.072513580322266
1776017224149394000,9.020393798828126,-38.74127197265625,-18.381629943847656,-20.860647201538086
1776017224159455000,9.030455078125,-38.75433349609375,-18.8553466796875,-20.568918228149414
1776017224169516000,9.04051611328125,-38.79986572265625,-19.166236877441406,-20.552871704101562
1776017224179577000,9.0505771484375,-38.97564697265625,-19.508506774902344,-20.507139205932617
1776017224189638100,9.06063818359375,-39.139373779296875,-19.58517837524414,-20.28628158569336
1776017224199699200,9.07069921875,-39.387451171875,-19.782791137695312,-20.190349578857422
1776017224209760300,9.08076025390625,-39.153594970703125,-20.109935760498047,-19.977649688720703
1776017224219820000,9.090820068359376,-39.025115966796875,-20.432769775390625,-19.537704467773438
1776017224229881000,9.100881103515626,-38.94036865234375,-20.95797348022461,-19.400070190429688
1776017224239942100,9.110942138671875,-38.813568115234375,-21.053375244140625,-19.099023818969727
1776017224250004000,9.12100390625,-38.006500244140625,-21.574462890625,-18.95469093322754
1776017224260064800,9.131064697265625,-38.3013916015625,-21.905101776123047,-18.902488708496094
1776017224270125800,9.141125732421875,-38.554779052734375,-22.257999420166016,-18.65108299255371
1776017224280187000,9.151186767578125,-38.40008544921875,-22.66742706298828,-18.270498275756836
1776017224290248000,9.161248046875,-38.354400634765625,-22.944461822509766,-17.967100143432617
1776017224300309000,9.17130908203125,-38.2265625,-23.649089813232422,-17.640064239501953
1776017224310369000,9.181369140625,-38.135223388671875,-24.026538848876953,-17.387983322143555
1776017224320430000,9.19143017578125,-37.985443115234375,-24.766796112060547,-16.86224365234375
1776017224330491100,9.2014912109375,-38.107452392578125,-25.10953140258789,-16.556514739990234
1776017224340552000,9.211552001953125,-37.586395263671875,-25.51119613647461,-16.30417823791504
1776017224350613000,9.221613037109375,-37.357391357421875,-26.063636779785156,-15.912817001342773
1776017224360673800,9.231673828125,-37.370330810546875,-26.550750732421875,-15.434085845947266
1776017224370734800,9.24173486328125,-37.429046630859375,-26.999378204345703,-14.94398307800293
1776017224380796000,9.2517958984375,-37.605194091796875,-27.301258087158203,-14.30877685546875
1776017224390857000,9.26185693359375,-37.112548828125,-27.54916000366211,-13.824604034423828
1776017224400917000,9.2719169921875,-37.045562744140625,-27.758193969726562,-13.487815856933594
1776017224410977800,9.281977783203125,-36.97564697265625,-27.95108413696289,-12.89352798461914
1776017224421038800,9.292038818359375,-36.851898193359375,-28.054840087890625,-12.818319320678711
1776017224431100000,9.302099853515625,-37.26336669921875,-28.155094146728516,-12.541360855102539
1776017224441161000,9.312160888671874,-37.2203369140625,-28.388553619384766,-12.439371109008789
1776017224451222000,9.322221923828126,-37.099853515625,-28.347564697265625,-12.385684967041016
1776017224461283000,9.332282958984376,-36.87451171875,-28.44845199584961,-12.14834213256836
1776017224471343900,9.34234375,-36.717926025390625,-28.172710418701172,-12.584619522094727
1776017224481404200,9.352404052734375,-36.521514892578125,-28.162147521972656,-12.856449127197266
1776017224491465000,9.36246484375,-36.544097900390625,-28.07227325439453,-12.585506439208984
1776017224501525800,9.37252587890625,-36.676849365234375,-28.219810485839844,-12.689697265625
1776017224511586800,9.3825869140625,-36.902374267578125,-28.14877700805664,-13.062450408935547
1776017224521647900,9.39264794921875,-36.8236083984375,-28.056568145751953,-13.178812026977539
1776017224531709000,9.402708984375,-36.953948974609375,-27.877765655517578,-13.149238586425781
1776017224541770000,9.41277001953125,-37.098541259765625,-28.247447967529297,-13.304431915283203
1776017224551831000,9.4228310546875,-36.776275634765625,-28.101638793945312,-13.082939147949219
1776017224561892000,9.43289208984375,-36.659423828125,-28.166919708251953,-12.744073867797852
1776017224571951900,9.442951904296875,-36.741455078125,-27.984905242919922,-12.767169952392578
1776017224582013000,9.453012939453124,-37.381439208984375,-28.000892639160156,-12.393583297729492
1776017224592074000,9.463073974609374,-37.0770263671875,-28.231250762939453,-12.215299606323242
1776017224602135000,9.473135009765626,-36.7264404296875,-28.322891235351562,-12.126537322998047
1776017224612196000,9.483196044921876,-37.508758544921875,-28.438865661621094,-12.00965690612793
1776017224622257000,9.4932568359375,-37.589385986328125,-28.143848419189453,-11.605979919433594
1776017224632318000,9.50331787109375,-37.62005615234375,-28.3065185546875,-11.110710144042969
1776017224642379000,9.51337890625,-37.2728271484375,-28.027725219726562,-11.130086898803711
1776017224652439800,9.523439697265625,-37.093109130859375,-27.984947204589844,-11.258821487426758
1776017224662499800,9.533499755859374,-37.2728271484375,-27.993534088134766,-10.802959442138672
1776017224672561000,9.543560791015626,-37.11309814453125,-28.05179214477539,-10.731609344482422
1776017224682622000,9.5536220703125,-37.43450927734375,-28.002811431884766,-10.862663269042969
1776017224692683000,9.56368310546875,-37.759857177734375,-27.834430694580078,-11.079498291015625
1776017224702744000,9.573744140625,-37.648468017578125,-28.004554748535156,-10.99464225769043
1776017224712805000,9.58380517578125,-37.9774169921875,-27.74695587158203,-11.44247817993164
1776017224722866200,9.5938662109375,-38.312225341796875,-27.337886810302734,-11.532047271728516
1776017224732926700,9.6039267578125,-38.890106201171875,-26.724075317382812,-11.638404846191406
1776017224742987800,9.61398779296875,-38.871917724609375,-25.62325668334961,-11.576347351074219
1776017224753048000,9.624048095703126,-40.313812255859375,-24.412742614746094,-11.767738342285156
1776017224763108900,9.63410888671875,-41.001312255859375,-22.676387786865234,-11.676742553710938
1776017224773170000,9.644169921875,-42.54510498046875,-20.85796356201172,-11.844396591186523
1776017224783231000,9.65423095703125,-42.96929931640625,-19.50168228149414,-11.938875198364258
1776017224793292000,9.6642919921875,-43.396270751953125,-18.717445373535156,-11.767606735229492
1776017224803352800,9.674352783203124,-43.749176025390625,-17.818466186523438,-11.416139602661133
1776017224813414000,9.684413818359374,-44.295379638671875,-17.858287811279297,-10.677665710449219
1776017224823475000,9.694474853515626,-43.996734619140625,-18.277488708496094,-10.095800399780273
1776017224833535000,9.704534912109375,-43.91217041015625,-19.004249572753906,-9.240718841552734
1776017224843596000,9.714595947265625,-43.160003662109375,-20.087833404541016,-8.519365310668945
1776017224853657000,9.724656982421875,-42.735382080078125,-22.041698455810547,-7.992815017700195
1776017224863718100,9.73471826171875,-41.7386474609375,-23.51544952392578,-8.964397430419922
1776017224873779000,9.744779052734375,-40.349273681640625,-24.270854949951172,-11.766256332397461
1776017224883839700,9.75483984375,-38.626861572265625,-24.996936798095703,-15.331672668457031
1776017224893900800,9.76490087890625,-36.162567138671875,-25.991363525390625,-19.142784118652344
1776017224903961900,9.7749619140625,-33.4388427734375,-27.082988739013672,-22.475982666015625
1776017224914023000,9.78502294921875,-30.7432861328125,-28.520641326904297,-24.183696746826172
1776017224924083000,9.7950830078125,-29.065948486328125,-29.08453369140625,-25.150020599365234
1776017224934144000,9.80514404296875,-28.74114990234375,-29.220897674560547,-25.67586326599121
1776017224944205000,9.815205078125,-28.84014892578125,-29.136577606201172,-25.768705368041992
1776017224954265900,9.825265869140624,-29.566802978515625,-28.49286651611328,-25.401935577392578
1776017224964327000,9.835326904296876,-30.625762939453125,-28.009197235107422,-24.52896499633789
1776017224974388000,9.845387939453126,-31.828338623046875,-27.309791564941406,-23.959697723388672
1776017224984449000,9.855448974609375,-32.0919189453125,-26.41577911376953,-24.213207244873047
1776017224994509800,9.865509765625,-32.20068359375,-25.681304931640625,-24.700265884399414
1776017225004571000,9.87557080078125,-31.7596435546875,-25.111919403076172,-25.88652801513672
1776017225014631000,9.885630859375,-31.408538818359375,-24.813373565673828,-27.098093032836914
1776017225024692000,9.89569189453125,-30.922027587890625,-24.370731353759766,-28.34626007080078
1776017225034752800,9.905752685546876,-29.850494384765625,-23.856216430664062,-29.403461456298828
1776017225044813800,9.915813720703126,-28.422760009765625,-23.953327178955078,-30.62561798095703
1776017225054875000,9.925875,-27.10101318359375,-24.079307556152344,-31.890300750732422
1776017225064936000,9.93593603515625,-25.025970458984375,-24.089599609375,-33.19088363647461
1776017225074997000,9.9459970703125,-22.6185302734375,-24.055500030517578,-34.73855972290039
1776017225085058000,9.95605810546875,-20.71881103515625,-23.822280883789062,-36.02750015258789
1776017225095119000,9.966119140625,-18.665435791015625,-23.466934204101562,-37.41456604003906
1776017225105179000,9.976178955078124,-16.828582763671875,-22.91925048828125,-38.41386413574219
1776017225115240000,9.986239990234376,-14.74176025390625,-22.278690338134766,-39.445472717285156
1776017225125301000,9.996301025390625,-12.25897216796875,-21.535388946533203,-40.41804504394531
1776017225135361800,10.00636181640625,-10.481201171875,-20.510169982910156,-41.54705810546875
1776017225145422800,10.0164228515625,-8.00048828125,-19.715560913085938,-42.446529388427734
1776017225155484000,10.02648388671875,-5.92156982421875,-18.82085418701172,-43.48827362060547
1776017225165545000,10.036544921875,-3.71868896484375,-17.567203521728516,-44.131202697753906
1776017225175606000,10.04660595703125,-1.665771484375,-16.240081787109375,-44.66093444824219
1776017225185665800,10.056665771484376,0.55682373046875,-15.07839298248291,-45.020240783691406
1776017225195726800,10.066726806640625,2.262939453125,-13.493538856506348,-45.430484771728516
1776017225205788000,10.076787841796875,4.43841552734375,-11.812689781188965,-45.82752227783203
1776017225215849000,10.086848876953125,6.31365966796875,-10.40645694732666,-45.720489501953125
1776017225225910000,10.096909912109375,8.57537841796875,-8.58696460723877,-45.7534294128418
1776017225235971000,10.10697119140625,10.7900390625,-6.948395729064941,-45.67759323120117
1776017225246032000,10.117031982421874,13.1483154296875,-5.402987480163574,-45.13531494140625
1776017225256092700,10.1270927734375,15.3748779296875,-3.770085334777832,-44.60888671875
1776017225266153700,10.13715380859375,17.1893310546875,-2.4151906967163086,-43.680301666259766
1776017225276213800,10.1472138671875,19.538116455078125,-1.599822998046875,-42.86183547973633
1776017225286274600,10.157274658203125,21.172119140625,-0.505976676940918,-42.050846099853516
1776017225296335600,10.167335693359375,23.331390380859375,0.5806608200073242,-41.105960845947266
1776017225306396700,10.177396728515625,23.985198974609375,1.4689350128173828,-40.42076873779297
1776017225316457700,10.187457763671874,24.5159912109375,2.578062057495117,-39.90366744995117
1776017225326518800,10.197518798828124,24.79168701171875,3.9803733825683594,-39.75239181518555
1776017225336579800,10.207579833984376,24.755523681640625,5.44488525390625,-39.549713134765625
1776017225346641000,10.217640869140626,24.582366943359375,6.392696857452393,-39.75926208496094
1776017225356702000,10.227701904296875,23.649017333984375,7.998516082763672,-39.895172119140625
1776017225366761700,10.23776171875,23.12744140625,8.899599075317383,-40.18196105957031
1776017225376822800,10.24782275390625,22.77850341796875,9.585436820983887,-40.601009368896484
1776017225386883800,10.2578837890625,21.66119384765625,10.566845893859863,-40.692657470703125
1776017225396944600,10.267944580078124,20.31005859375,11.459643363952637,-41.046546936035156
1776017225407005700,10.278005615234376,19.311737060546875,12.64469051361084,-41.146427154541016
1776017225417066800,10.288066650390626,18.11651611328125,13.265640258789062,-41.392608642578125
1776017225427127800,10.2981279296875,17.635894775390625,14.029233932495117,-41.24698257446289
1776017225437188600,10.308188720703125,17.336944580078125,14.428943634033203,-41.1669807434082
1776017225447249700,10.318249755859375,17.26519775390625,14.81606388092041,-41.12637710571289
1776017225457309700,10.328309814453124,17.575775146484375,15.17145824432373,-40.86378479003906
1776017225467370800,10.338370849609374,18.167144775390625,15.255327224731445,-40.66367721557617
1776017225477431800,10.348431884765626,18.233612060546875,15.77131175994873,-40.49111557006836
1776017225487492900,10.358492919921876,19.331085205078125,15.508947372436523,-40.25703048706055
1776017225497554000,10.368553955078125,20.09710693359375,15.408306121826172,-39.8510627746582
1776017225507615000,10.378614990234375,20.5791015625,15.594402313232422,-39.37907028198242
1776017225517675500,10.388675537109375,21.136810302734375,15.791709899902344,-39.078365325927734
1776017225527736600,10.398736572265625,21.8507080078125,16.089435577392578,-38.444820404052734
1776017225537796600,10.408796630859374,22.348785400390625,16.64307975769043,-38.05497360229492
1776017225547857700,10.418857666015626,22.163421630859375,16.843212127685547,-38.0654296875
1776017225557918700,10.428918701171876,22.4256591796875,17.413299560546875,-38.00566864013672
1776017225567979800,10.438979736328125,21.79876708984375,17.6916446685791,-38.09661102294922
1776017225578040800,10.449040771484375,21.387237548828125,17.870166778564453,-38.32858657836914
1776017225588101600,10.4591015625,20.483062744140625,17.863590240478516,-38.48019027709961
1776017225598162700,10.46916259765625,20.23248291015625,17.738826751708984,-38.865108489990234
1776017225608223700,10.4792236328125,19.617523193359375,17.853717803955078,-39.30473709106445
1776017225618284800,10.489284912109374,18.4739990234375,17.99275016784668,-39.674888610839844
1776017225628344800,10.4993447265625,17.12310791015625,17.80950164794922,-40.139320373535156
1776017225638406000,10.509406005859375,15.10986328125,17.764694213867188,-40.851829528808594
1776017225648467000,10.519467041015625,13.423126220703125,17.740108489990234,-41.85639572143555
1776017225658527700,10.52952783203125,11.010467529296875,17.418546676635742,-42.72860336303711
1776017225668588500,10.539588623046875,8.317779541015625,16.77198028564453,-43.44357681274414
1776017225678649600,10.549649658203125,4.9375,16.33882713317871,-44.10082244873047
1776017225688710700,10.559710693359374,1.22906494140625,15.664485931396484,-44.7197151184082
1776017225698771700,10.569771728515626,-1.828857421875,15.016185760498047,-44.772911071777344
1776017225708832800,10.579832763671876,-4.624298095703125,14.550422668457031,-44.473876953125
1776017225718892800,10.589892822265625,-7.494171142578125,14.376523971557617,-44.39637756347656
1776017225728953900,10.599953857421875,-9.91064453125,14.430928230285645,-43.99140167236328
1776017225739014700,10.6100146484375,-12.207275390625,14.224632263183594,-43.27827072143555
1776017225749075700,10.62007568359375,-14.39935302734375,14.442070960998535,-42.489444732666016
1776017225759136800,10.63013671875,-16.505706787109375,14.371644020080566,-41.734073638916016
1776017225769197800,10.64019775390625,-19.060455322265625,14.017504692077637,-41.003238677978516
1776017225779258600,10.650258544921876,-21.393218994140625,13.853608131408691,-40.007572174072266
1776017225789319700,10.660319580078125,-23.487091064453125,13.550697326660156,-38.804622650146484
1776017225799379700,10.670379638671875,-25.268310546875,13.277615547180176,-37.60749435424805
1776017225809440800,10.680440673828125,-26.560760498046875,12.851225852966309,-36.54125213623047
1776017225819501600,10.69050146484375,-28.41107177734375,12.507349014282227,-35.60837173461914
1776017225829562600,10.700562744140624,-30.148162841796875,12.322379112243652,-34.378108978271484
1776017225839623700,10.710623779296874,-31.4251708984375,12.135785102844238,-33.18902587890625
1776017225849684700,10.720684814453126,-32.78887939453125,12.076238632202148,-31.953330993652344
1776017225859745800,10.730745849609375,-33.914215087890625,12.105727195739746,-30.651248931884766
1776017225869806800,10.740806884765625,-34.928985595703125,11.96712589263916,-28.950725555419922
1776017225879868000,10.750867919921875,-36.331024169921875,11.985761642456055,-27.24765396118164
1776017225889927700,10.760927734375,-37.361724853515625,11.79065990447998,-25.480663299560547
1776017225899988700,10.77098876953125,-38.906890869140625,11.708223342895508,-23.47492218017578
1776017225910049800,10.7810498046875,-40.740753173828125,11.900242805480957,-20.334228515625
1776017225920110600,10.791110595703126,-41.70257568359375,12.162276268005371,-17.015335083007812
1776017225930171600,10.801171630859375,-43.013336181640625,12.575182914733887,-12.866182327270508
1776017225940232700,10.811232666015625,-44.3701171875,12.734618186950684,-8.596942901611328
1776017225950293800,10.821293701171875,-45.029998779296875,12.457252502441406,-4.395479202270508
1776017225960354800,10.831354736328125,-45.372314453125,12.168331146240234,0.2761688232421875
1776017225970414600,10.84141455078125,-45.319488525390625,12.238968849182129,4.5186309814453125
1776017225980475600,10.8514755859375,-44.336761474609375,12.222265243530273,8.829788208007812
1776017225990536700,10.86153662109375,-42.98260498046875,12.580609321594238,12.797843933105469
1776017226000597800,10.87159765625,-42.196533203125,13.066577911376953,16.03350830078125
1776017226010658800,10.881658935546875,-40.54779052734375,13.737360954284668,18.92230987548828
1776017226020719900,10.891719970703125,-39.189605712890625,13.840922355651855,20.929019927978516
1776017226030780700,10.90178076171875,-38.45458984375,14.084972381591797,22.361255645751953
1776017226040841700,10.911841796875,-38.099334716796875,13.971785545349121,22.82037353515625
1776017226050902800,10.92190283203125,-37.982086181640625,13.59798812866211,22.938663482666016
1776017226060962600,10.931962646484376,-37.986297607421875,13.149658203125,23.396831512451172
1776017226071023600,10.942023681640626,-38.18060302734375,12.78232192993164,23.586776733398438
1776017226081084700,10.952084716796875,-38.539642333984375,12.143502235412598,23.52911376953125
1776017226091145700,10.962145751953125,-38.508880615234375,12.090442657470703,23.498600006103516
1776017226101206800,10.972206787109375,-38.636962890625,11.65360164642334,23.249916076660156
1776017226111267800,10.982267822265625,-38.431884765625,11.271480560302734,23.48370361328125
1776017226121329000,10.992328857421874,-38.736846923828125,10.841806411743164,23.64065933227539
1776017226131390000,11.002389892578124,-38.70904541015625,10.487278938293457,24.218280792236328
1776017226141450800,11.01245068359375,-37.890045166015625,10.458826065063477,24.82720947265625
1776017226151510800,11.0225107421875,-37.29827880859375,10.602362632751465,25.865619659423828
1776017226161571800,11.03257177734375,-35.989837646484375,10.812861442565918,26.959518432617188
1776017226171632600,11.042632568359375,-35.895721435546875,10.750597953796387,27.236648559570312
1776017226181693700,11.052693603515625,-35.968353271484375,11.02316665649414,27.32546615600586
1776017226191754800,11.062754638671874,-35.865814208984375,11.244953155517578,27.28018569946289
1776017226201815800,11.07281591796875,-36.22161865234375,11.517236709594727,26.917678833007812
1776017226211876600,11.082876708984376,-36.211883544921875,11.512304306030273,26.802532196044922
1776017226221937700,11.092937744140626,-35.9158935546875,11.444564819335938,26.799266815185547
1776017226231997700,11.102997802734375,-35.70294189453125,11.733290672302246,27.11127471923828
1776017226242058800,11.113058837890625,-35.369842529296875,11.75733757019043,27.88964080810547
1776017226252119800,11.123119873046875,-34.406280517578125,11.760972023010254,28.618282318115234
1776017226262180900,11.133180908203125,-33.7806396484375,11.590702056884766,29.613990783691406
1776017226272242000,11.143241943359374,-32.549407958984375,11.920032501220703,30.823043823242188
1776017226282303000,11.153302978515624,-30.95458984375,12.238054275512695,32.453758239746094
1776017226292363500,11.163363525390626,-29.12109375,12.276311874389648,34.22626495361328
1776017226302424600,11.173424560546875,-27.738739013671875,11.717090606689453,35.519386291503906
1776017226312485600,11.183485595703125,-27.72174072265625,11.056406021118164,35.89038848876953
1776017226322545700,11.193545654296875,-27.58258056640625,10.32628059387207,36.22258758544922
1776017226332606700,11.203606689453125,-27.686309814453125,9.827306747436523,35.9337158203125
1776017226342667800,11.213667724609374,-28.425811767578125,9.97575855255127,35.731285095214844
1776017226352728800,11.223728759765624,-28.20623779296875,10.498727798461914,35.699195861816406
1776017226362789600,11.23378955078125,-27.134979248046875,10.894489288330078,36.362640380859375
1776017226372850700,11.2438505859375,-25.944549560546875,10.781307220458984,37.026161193847656
1776017226382911700,11.253911865234375,-25.048583984375,10.495439529418945,37.780174255371094
1776017226392972800,11.263972900390625,-24.99566650390625,10.051613807678223,38.258323669433594
1776017226403032800,11.27403271484375,-25.3968505859375,10.070621490478516,37.96446228027344
1776017226413094000,11.284093994140624,-25.868072509765625,10.09164047241211,37.71208190917969
1776017226423155000,11.294155029296874,-25.76947021484375,9.930619239807129,37.45985412597656
1776017226433215700,11.3042158203125,-26.243499755859375,10.105621337890625,37.25641632080078
1776017226443276500,11.314276611328125,-25.84063720703125,10.108926773071289,37.42938232421875
1776017226453337600,11.324337646484375,-25.49609375,10.435382843017578,37.66419982910156
1776017226463398700,11.334398681640625,-25.068145751953125,10.462711334228516,38.047813415527344
1776017226473459700,11.344459716796875,-24.575714111328125,10.818033218383789,38.175331115722656
1776017226483519700,11.354519775390624,-23.736785888671875,11.196820259094238,38.33013916015625
1776017226493580800,11.364580810546874,-23.161529541015625,11.540870666503906,38.582420349121094
1776017226503641900,11.374641845703126,-22.183746337890625,11.778504371643066,39.107818603515625
1776017226513702700,11.38470263671875,-21.9549560546875,11.995729446411133,39.33008575439453
1776017226523763700,11.394763671875,-21.90460205078125,12.556546211242676,38.92442321777344
1776017226533824800,11.40482470703125,-22.5980224609375,13.104103088378906,38.659454345703125
1776017226543885800,11.4148857421875,-22.185150146484375,13.77804946899414,38.52653503417969
1776017226553946600,11.424946533203125,-22.05902099609375,13.676438331604004,38.51783752441406
1776017226564007700,11.435007568359374,-21.825286865234375,13.400774002075195,38.765525817871094
1776017226574067700,11.445067626953126,-21.290679931640625,13.308781623840332,39.136505126953125
1776017226584128800,11.455128662109376,-20.82965087890625,13.01111888885498,39.52143859863281
1776017226594189600,11.465189453125,-20.711578369140625,12.798160552978516,39.61518096923828
1776017226604250600,11.475250732421875,-20.5933837890625,12.620487213134766,39.98625183105469
1776017226614311700,11.485311767578125,-20.430267333984375,12.40910530090332,40.03114318847656
1776017226624372700,11.495372802734375,-20.16204833984375,12.171034812927246,40.400657653808594
1776017226634433800,11.505433837890624,-18.958038330078125,12.1472806930542,40.74455261230469
1776017226644494800,11.515494873046874,-18.050628662109375,12.130094528198242,40.93696594238281
1776017226654555000,11.525554931640626,-17.666412353515625,12.064903259277344,41.342933654785156
1776017226664615700,11.53561572265625,-16.700836181640625,12.224061965942383,41.68059539794922
1776017226674676700,11.5456767578125,-16.604522705078125,12.02579116821289,41.80694580078125
1776017226684737800,11.55573779296875,-16.997344970703125,11.821613311767578,41.66779327392578
1776017226694798600,11.565798583984375,-16.75665283203125,11.833223342895508,41.50569152832031
1776017226704859600,11.575859619140624,-16.901214599609375,11.500249862670898,41.68425750732422
1776017226714920700,11.585920654296874,-17.18377685546875,11.020594596862793,41.85859680175781
1776017226724981800,11.595981689453126,-17.510284423828125,10.733920097351074,41.85914611816406
1776017226735041800,11.606041748046875,-17.898040771484375,10.257028579711914,41.803184509277344
1776017226745102600,11.6161025390625,-18.592315673828125,9.688690185546875,41.60398864746094
1776017226755163600,11.62616357421875,-18.960479736328125,9.038717269897461,41.33576965332031
1776017226765224700,11.636224609375,-20.017486572265625,8.806255340576172,41.04478454589844
1776017226775285800,11.64628564453125,-20.657470703125,8.166753768920898,41.082862854003906
1776017226785346800,11.656346923828124,-21.39959716796875,7.788999557495117,40.60438537597656
1776017226795408000,11.666407958984376,-22.4359130859375,7.558988094329834,40.1624755859375
1776017226805468700,11.67646875,-23.324615478515625,7.9262237548828125,39.90980529785156
1776017226815529700,11.68652978515625,-23.070648193359375,8.43414306640625,39.71961212158203
1776017226825589800,11.69658984375,-23.392547607421875,9.036299705505371,39.659690856933594
1776017226835650600,11.706650634765625,-23.05303955078125,9.84965991973877,39.466163635253906
1776017226845711600,11.716711669921875,-22.65142822265625,10.03529167175293,39.47227478027344
1776017226855772700,11.726772705078124,-23.163482666015625,10.214630126953125,39.29624938964844
1776017226865833700,11.736833740234376,-23.499481201171875,10.463872909545898,38.789947509765625
1776017226875894800,11.746894775390626,-24.0850830078125,10.989188194274902,37.97801971435547
1776017226885955800,11.756955810546875,-25.181304931640625,11.360368728637695,37.040771484375
1776017226896017000,11.767016845703125,-26.7652587890625,12.085198402404785,36.14105987548828
1776017226906076700,11.77707666015625,-28.16851806640625,12.870159149169922,34.512603759765625
1776017226916137700,11.7871376953125,-29.705169677734375,13.293569564819336,32.96820068359375
1776017226926198800,11.79719873046875,-30.907684326171875,14.110723495483398,31.501785278320312
1776017226936259800,11.807259765625,-32.1083984375,14.660152435302734,30.042770385742188
1776017226946321000,11.81732080078125,-32.63995361328125,15.435941696166992,28.579452514648438
1776017226956381700,11.827381591796875,-33.782470703125,16.548019409179688,27.141277313232422
1776017226966442800,11.83744287109375,-34.087432861328125,18.063692092895508,25.942577362060547
1776017226976503800,11.84750390625,-34.210357666015625,19.867403030395508,24.354766845703125
1776017226986564600,11.857564697265625,-34.07476806640625,21.64698028564453,22.81290054321289
1776017226996624600,11.867624755859374,-33.661041259765625,23.196060180664062,21.859600067138672
1776017227006685700,11.877685791015624,-32.912506103515625,23.941741943359375,21.48157501220703
1776017227016746800,11.887746826171876,-32.31890869140625,24.15376091003418,21.73154067993164
1776017227026807800,11.897807861328126,-32.258392333984375,24.350860595703125,21.925411224365234
1776017227036868900,11.907868896484375,-32.210968017578125,24.192827224731445,21.960567474365234
1776017227046930000,11.917929931640625,-32.66473388671875,24.206981658935547,21.805709838867188
1776017227056990700,11.92799072265625,-32.91265869140625,24.32352066040039,21.62390899658203
1776017227067051800,11.9380517578125,-32.860565185546875,24.2200870513916,21.647018432617188
1776017227077111800,11.94811181640625,-32.6441650390625,24.533573150634766,21.40784454345703
1776017227087172900,11.9581728515625,-32.745941162109375,24.937503814697266,20.97919464111328
1776017227097233700,11.968233642578125,-33.09246826171875,25.270294189453125,20.498455047607422
1776017227107294700,11.978294677734375,-32.384735107421875,25.070945739746094,20.226795196533203
1776017227117355800,11.988355712890625,-32.808807373046875,25.300098419189453,19.92232894897461
1776017227127416800,11.998416748046875,-33.278289794921875,25.3328857421875,19.426544189453125
1776017227137477600,12.0084775390625,-33.329803466796875,25.251232147216797,19.368858337402344
1776017227147538700,12.01853857421875,-33.679779052734375,25.216825485229492,18.98979949951172
1776017227157599700,12.028599853515624,-33.96673583984375,25.375019073486328,18.604564666748047
1776017227167659800,12.03865966796875,-34.24139404296875,25.142253875732422,18.469486236572266
1776017227177720800,12.048720947265625,-34.65704345703125,25.282764434814453,18.113998413085938
1776017227187782000,12.058781982421875,-34.230621337890625,25.279277801513672,17.652671813964844
1776017227197843000,12.068843017578125,-34.380584716796875,25.31888198852539,17.322113037109375
1776017227207903700,12.07890380859375,-34.59832763671875,25.479276657104492,17.28125
1776017227217964500,12.088964599609374,-34.7471923828125,25.639522552490234,17.088348388671875
1776017227228025600,12.099025634765624,-34.419189453125,26.033405303955078,17.017955780029297
1776017227238086700,12.109086669921876,-34.0628662109375,26.227344512939453,16.754920959472656
1776017227248146700,12.119146728515625,-34.154571533203125,26.63189697265625,16.58972930908203
1776017227258208000,12.1292080078125,-33.357818603515625,26.90290641784668,16.706005096435547
1776017227268269000,12.13926904296875,-33.2764892578125,27.458900451660156,17.039310455322266
1776017227278330000,12.149330078125,-32.913055419921875,27.392208099365234,17.8046875
1776017227288391200,12.15939111328125,-32.064239501953125,27.124069213867188,18.593395233154297
1776017227298452200,12.1694521484375,-32.256439208984375,27.13602066040039,19.120559692382812
1776017227308513300,12.17951318359375,-32.260833740234375,26.587322235107422,19.540592193603516
1776017227318574000,12.189573974609376,-32.891448974609375,25.859586715698242,19.776447296142578
1776017227328634000,12.199634033203125,-33.750091552734375,25.107505798339844,19.685245513916016
1776017227338695200,12.209695068359375,-34.35491943359375,24.18212890625,19.375572204589844
1776017227348756000,12.219755859375,-34.733306884765625,23.733413696289062,18.93012237548828
1776017227358817000,12.229817138671875,-35.722808837890625,23.002466201782227,18.584850311279297
1776017227368878000,12.239878173828124,-36.35400390625,22.61495018005371,17.97568130493164
1776017227378939100,12.249939208984374,-36.641021728515625,22.56109619140625,17.622650146484375
1776017227389000200,12.260000244140626,-36.455230712890625,22.238351821899414,17.012592315673828
1776017227399061000,12.27006103515625,-36.55230712890625,22.335494995117188,17.26821517944336
1776017227409122000,12.2801220703125,-35.933197021484375,22.354366302490234,18.280101776123047
1776017227419182000,12.29018212890625,-35.1697998046875,22.41811752319336,19.328414916992188
1776017227429243100,12.3002431640625,-34.68267822265625,22.334686279296875,20.8441162109375
1776017227439304200,12.31030419921875,-33.5987548828125,22.460458755493164,22.764366149902344
1776017227449365200,12.320365234375,-31.779571533203125,22.52261734008789,24.938690185546875
1776017227459426000,12.330426025390626,-29.62841796875,22.552827835083008,26.897571563720703
1776017227469487000,12.340487060546875,-27.819366455078125,22.79315185546875,28.50537872314453
1776017227479548000,12.3505478515625,-26.838623046875,22.9970703125,29.651885986328125
1776017227489609000,12.36060888671875,-25.34051513671875,23.35599708557129,30.37194061279297
1776017227499669000,12.3706689453125,-25.02642822265625,23.924251556396484,30.31604766845703
1776017227509730000,12.38072998046875,-24.6666259765625,24.556812286376953,29.911632537841797
1776017227519791000,12.390791015625,-24.758026123046875,25.35375213623047,29.32418441772461
1776017227529852200,12.40085205078125,-24.927276611328125,25.73724365234375,28.79233169555664
1776017227539913200,12.410913330078126,-25.177398681640625,26.1824951171875,28.007038116455078
1776017227549974000,12.42097412109375,-25.251251220703125,26.72113037109375,27.197860717773438
1776017227560035000,12.43103515625,-25.710540771484375,27.172767639160156,26.875354766845703
1776017227570096000,12.44109619140625,-25.39764404296875,27.361495971679688,26.4478759765625
1776017227580156200,12.45115625,-25.595977783203125,27.247127532958984,26.442127227783203
1776017227590217200,12.46121728515625,-25.25390625,26.925891876220703,27.004718780517578
1776017227600278000,12.471278076171876,-25.639007568359375,25.985748291015625,27.80849838256836
1776017227610339000,12.481339111328126,-24.534149169921875,25.07999038696289,29.023773193359375
1776017227620400000,12.491400146484375,-24.06182861328125,24.066131591796875,30.085556030273438
1776017227630461000,12.5014609375,-23.3995361328125,23.181236267089844,31.069793701171875
1776017227640522000,12.51152197265625,-22.63348388671875,22.843334197998047,31.774139404296875
1776017227650583000,12.5215830078125,-21.9412841796875,23.289306640625,32.365943908691406
1776017227660643000,12.53164306640625,-20.73638916015625,23.734272003173828,32.67443084716797
1776017227670704000,12.5417041015625,-18.093658447265625,25.102596282958984,33.200950622558594
1776017227680765200,12.55176513671875,-17.179229736328125,26.106224060058594,33.019874572753906
1776017227690826200,12.561826171875,-16.729034423828125,27.254873275756836,32.17021942138672
1776017227700887000,12.571886962890625,-16.939605712890625,28.53724479675293,31.139572143554688
1776017227710948000,12.581947998046875,-17.260955810546875,29.959686279296875,29.430767059326172
1776017227721009000,12.5920087890625,-17.27294921875,31.66071319580078,27.61947250366211
1776017227731070000,12.602070068359374,-16.95355224609375,33.301246643066406,25.809959411621094
1776017227741131000,12.612131103515624,-16.23846435546875,34.86690902709961,23.844249725341797
1776017227751191000,12.62219091796875,-15.76519775390625,36.244178771972656,22.08214569091797
1776017227761252000,12.632252197265625,-15.0213623046875,37.217933654785156,20.654354095458984
1776017227771313200,12.642313232421875,-14.025421142578125,38.41127395629883,19.061935424804688
1776017227781374000,12.6523740234375,-12.840484619140625,39.28919982910156,17.264644622802734
1776017227791435000,12.66243505859375,-11.799560546875,40.25778579711914,15.998245239257812
1776017227801496000,12.67249609375,-11.316680908203125,41.01323318481445,14.587303161621094
1776017227811557000,12.68255712890625,-10.91815185546875,41.48221206665039,13.559398651123047
1776017227821618200,12.6926181640625,-10.731231689453125,41.70502471923828,13.089527130126953
1776017227831678200,12.70267822265625,-11.194427490234375,41.7266731262207,12.407726287841797
1776017227841739300,12.7127392578125,-11.892181396484375,41.5472297668457,12.232261657714844
1776017227851800000,12.722800048828125,-12.4283447265625,41.551918029785156,11.818599700927734
1776017227861860900,12.73286083984375,-13.173614501953125,41.56865692138672,11.098052978515625
1776017227871922000,12.742921875,-13.33917236328125,41.62076187133789,10.106449127197266
1776017227881983000,12.75298291015625,-13.63250732421875,41.889312744140625,9.135791778564453
1776017227892044000,12.7630439453125,-13.906158447265625,41.8521614074707,8.522380828857422
1776017227902105000,12.77310498046875,-14.114776611328125,41.90532684326172,8.180728912353516
