time,seconds_elapsed,z,y,x
1776017215199457000,0.07045703125,-350.30352783203125,-22.582260131835938,9.441619873046875
1776017215209447000,0.080447021484375,-349.8918762207031,-22.58099365234375,9.245376586914062
1776017215219438000,0.09043798828125,-350.6551513671875,-23.092239379882812,9.413299560546875
1776017215229428000,0.100427978515625,-349.8079833984375,-23.03375244140625,9.352920532226562
1776017215239420000,0.110419921875,-350.14208984375,-23.38525390625,9.36761474609375
1776017215249410300,0.120410400390625,-350.3063659667969,-23.148193359375,9.609771728515625
1776017215259400400,0.130400390625,-349.98883056640625,-23.391586303710938,9.5233154296875
1776017215269389300,0.140389404296875,-350.4010925292969,-23.543746948242188,9.954483032226562
1776017215279379500,0.15037939453125,-350.1751708984375,-23.417327880859375,9.461883544921875
1776017215289370600,0.16037060546875,-350.5299987792969,-23.553604125976562,9.638870239257812
1776017215299362300,0.1703623046875,-350.4964599609375,-23.959716796875,9.470993041992188
1776017215309353500,0.180353515625,-350.37066650390625,-23.863967895507812,9.545761108398438
1776017215319344600,0.1903447265625,-350.225341796875,-23.860488891601562,9.433914184570312
1776017215329336300,0.20033642578125,-350.2132873535156,-23.698562622070312,9.391571044921875
1776017215339329500,0.21032958984375,-350.35479736328125,-23.517776489257812,9.394088745117188
1776017215349321500,0.220321533203125,-350.49371337890625,-23.434616088867188,9.4400634765625
1776017215359311400,0.230311279296875,-351.0400695800781,-23.808273315429688,9.36175537109375
1776017215369301500,0.240301513671875,-350.201171875,-23.77764892578125,9.503219604492188
1776017215379293400,0.25029345703125,-350.0178527832031,-23.953048706054688,9.452926635742188
1776017215389286400,0.260286376953125,-349.97454833984375,-23.791000366210938,9.650253295898438
1776017215399277600,0.270277587890625,-350.79803466796875,-23.4573974609375,9.26495361328125
1776017215409268500,0.2802685546875,-350.4115295410156,-23.82421875,9.398635864257812
1776017215419260400,0.290260498046875,-349.86236572265625,-24.051513671875,9.629486083984375
1776017215429252400,0.30025244140625,-350.0291748046875,-23.699752807617188,9.42144775390625
1776017215439245600,0.31024560546875,-349.8334045410156,-23.67657470703125,9.557281494140625
1776017215449237200,0.3202373046875,-350.0623779296875,-23.8270263671875,9.73760986328125
1776017215459230500,0.33023046875,-349.7306823730469,-23.946090698242188,9.541976928710938
1776017215469223400,0.340223388671875,-350.5135498046875,-24.112457275390625,9.747360229492188
1776017215479215400,0.35021533203125,-350.21356201171875,-23.7969970703125,9.657135009765625
1776017215489206500,0.36020654296875,-350.1683349609375,-24.200546264648438,9.907867431640625
1776017215499198500,0.370198486328125,-349.8760681152344,-23.703033447265625,9.738815307617188
1776017215509190700,0.380190673828125,-350.0006103515625,-23.723190307617188,9.466659545898438
1776017215519182300,0.390182373046875,-349.5879821777344,-23.977630615234375,9.494705200195312
1776017215529175600,0.400175537109375,-349.93841552734375,-23.848892211914062,9.693405151367188
1776017215539168300,0.410168212890625,-349.63824462890625,-24.134765625,9.446853637695312
1776017215549160400,0.420160400390625,-349.8211669921875,-24.421966552734375,9.762405395507812
1776017215559152400,0.43015234375,-349.9348449707031,-24.2926025390625,9.89208984375
1776017215569144600,0.44014453125,-350.05224609375,-24.076065063476562,9.888336181640625
1776017215579136300,0.45013623046875,-350.406494140625,-23.716415405273438,9.698272705078125
1776017215589128400,0.46012841796875,-350.9087829589844,-24.175674438476562,9.774002075195312
1776017215599121400,0.470121337890625,-350.1331787109375,-24.152084350585938,9.6656494140625
1776017215609112600,0.480112548828125,-350.17657470703125,-24.29827880859375,9.603851318359375
1776017215619103500,0.490103515625,-350.5859375,-24.06451416015625,9.588470458984375
1776017215629093400,0.50009326171875,-349.460693359375,-24.226791381835938,9.637496948242188
1776017215639084300,0.510084228515625,-349.7691955566406,-24.354888916015625,9.757736206054688
1776017215649075500,0.520075439453125,-350.1428527832031,-24.286636352539062,9.66259765625
1776017215659066400,0.53006640625,-349.6363220214844,-24.051803588867188,9.748092651367188
1776017215669056500,0.540056396484375,-349.9600830078125,-24.245620727539062,9.614791870117188
1776017215679046400,0.55004638671875,-350.1968994140625,-24.137725830078125,9.759109497070312
1776017215689037600,0.56003759765625,-350.04144287109375,-24.58746337890625,9.487091064453125
1776017215699028500,0.570028564453125,-349.951904296875,-24.014678955078125,9.777694702148438
1776017215709017600,0.580017578125,-350.26806640625,-24.21478271484375,9.655548095703125
1776017215719008500,0.590008544921875,-350.0038146972656,-24.058990478515625,9.714950561523438
1776017215728999400,0.59999951171875,-350.7595520019531,-24.242752075195312,9.8739013671875
1776017215738990600,0.609990478515625,-350.51397705078125,-24.204452514648438,9.767593383789062
1776017215748981500,0.6199814453125,-350.2341613769531,-24.729827880859375,9.592727661132812
1776017215758971400,0.629971435546875,-350.782958984375,-24.5316162109375,9.868362426757812
1776017215768962300,0.63996240234375,-350.37335205078125,-24.203689575195312,9.840469360351562
1776017215778955500,0.64995556640625,-350.30352783203125,-24.709518432617188,9.861862182617188
1776017215788945400,0.6599453125,-350.15228271484375,-24.239608764648438,10.020584106445312
1776017215798936300,0.669936279296875,-350.2379150390625,-24.450653076171875,9.80712890625
1776017215808926500,0.679926513671875,-350.37152099609375,-24.529510498046875,9.791015625
1776017215818918400,0.68991845703125,-350.00787353515625,-24.577423095703125,9.82269287109375
1776017215828909300,0.699909423828125,-350.13397216796875,-24.545211791992188,9.89776611328125
1776017215838901500,0.709901611328125,-349.9773254394531,-24.739959716796875,9.688278198242188
1776017215848892400,0.719892333984375,-350.3490905761719,-24.526702880859375,9.885223388671875
1776017215858883300,0.72988330078125,-349.9970397949219,-24.573883056640625,9.79779052734375
1776017215868875500,0.73987548828125,-350.51800537109375,-24.234939575195312,9.805877685546875
1776017215878865400,0.749865478515625,-350.15264892578125,-24.665054321289062,9.746841430664062
1776017215888856300,0.759856201171875,-350.032470703125,-24.680908203125,9.563323974609375
1776017215898847200,0.76984716796875,-350.06390380859375,-24.533615112304688,9.909423828125
1776017215908839400,0.77983935546875,-350.2632751464844,-24.421005249023438,9.88525390625
1776017215918831400,0.789831298828125,-349.94232177734375,-24.945877075195312,9.83575439453125
1776017215928822500,0.799822509765625,-350.06610107421875,-24.614089965820312,9.819686889648438
1776017215938813400,0.8098134765625,-350.0425720214844,-24.977935791015625,9.802413940429688
1776017215948805400,0.819805419921875,-350.4414978027344,-24.739776611328125,9.479278564453125
1776017215958798300,0.82979833984375,-350.1672668457031,-24.9656982421875,9.550537109375
1776017215968790500,0.83979052734375,-350.4373779296875,-24.457015991210938,9.771087646484375
1776017215978782500,0.849782470703125,-350.274658203125,-24.907821655273438,9.724319458007812
1776017215988774700,0.859774658203125,-350.4686279296875,-24.834152221679688,9.387924194335938
1776017215998766300,0.869766357421875,-350.39447021484375,-24.754226684570312,9.9075927734375
1776017216008757200,0.87975732421875,-350.04296875,-24.871612548828125,9.746002197265625
1776017216018749400,0.88974951171875,-349.8764343261719,-24.994659423828125,10.26287841796875
1776017216028740400,0.899740234375,-350.28564453125,-24.565383911132812,10.017333984375
1776017216038732500,0.909732666015625,-350.181884765625,-24.201629638671875,10.056259155273438
1776017216048725200,0.919725341796875,-349.7049560546875,-24.600067138671875,10.066436767578125
1776017216058716400,0.92971630859375,-349.89215087890625,-24.368728637695312,9.73480224609375
1776017216068707600,0.93970751953125,-349.6967468261719,-24.404830932617188,9.45977783203125
1776017216078697500,0.949697509765625,-350.17938232421875,-24.253448486328125,9.313156127929688
1776017216088688400,0.9596884765625,-350.37030029296875,-24.275894165039062,9.307662963867188
1776017216098677500,0.969677490234375,-349.69793701171875,-24.380416870117188,9.597549438476562
1776017216108668700,0.979668701171875,-350.7314453125,-24.049102783203125,9.646347045898438
1776017216118657300,0.9896572265625,-349.9862365722656,-24.404281616210938,9.872665405273438
1776017216128647700,0.999647705078125,-350.17596435546875,-24.307769775390625,9.549484252929688
1776017216138638600,1.009638671875,-349.71240234375,-24.2060546875,9.692413330078125
1776017216148628500,1.01962841796875,-350.5712890625,-24.38385009765625,9.801101684570312
1776017216158620400,1.029620361328125,-350.38482666015625,-24.680679321289062,9.466888427734375
1776017216168611600,1.039611572265625,-350.59747314453125,-24.620864868164062,9.680465698242188
1776017216178603500,1.049603515625,-350.468017578125,-24.709259033203125,9.602584838867188
1776017216188595500,1.059595458984375,-349.92694091796875,-24.512924194335938,9.686264038085938
1776017216198586400,1.06958642578125,-349.9642333984375,-24.6494140625,9.895614624023438
1776017216208577300,1.079577392578125,-350.505126953125,-24.341110229492188,9.798507690429688
1776017216218568400,1.089568359375,-350.416259765625,-24.3560791015625,9.423019409179688
1776017216228559600,1.0995595703125,-350.04962158203125,-24.417236328125,9.884521484375
1776017216238550500,1.109550537109375,-349.95062255859375,-24.328872680664062,9.663833618164062
1776017216248541700,1.119541748046875,-350.017333984375,-24.450454711914062,9.739944458007812
1776017216258532900,1.129532958984375,-349.6104736328125,-24.487335205078125,9.429977416992188
1776017216268522800,1.139522705078125,-350.19366455078125,-24.0433349609375,9.593948364257812
1776017216278513700,1.149513671875,-350.24017333984375,-24.486114501953125,9.678482055664062
1776017216288506600,1.159506591796875,-350.23516845703125,-24.348007202148438,9.695892333984375
1776017216298498600,1.16949853515625,-350.73779296875,-23.886978149414062,9.289947509765625
1776017216308491800,1.17949169921875,-350.39422607421875,-24.077499389648438,9.415740966796875
1776017216318484700,1.189484619140625,-349.96173095703125,-24.237655639648438,9.47308349609375
1776017216328477700,1.199477783203125,-350.2396240234375,-24.053390502929688,9.45849609375
1776017216338468900,1.20946875,-350.4437561035156,-23.80157470703125,9.353256225585938
1776017216348461600,1.219461669921875,-350.5979919433594,-24.50482177734375,9.536102294921875
1776017216358453800,1.229453857421875,-349.70880126953125,-24.377273559570312,9.67938232421875
1776017216368445700,1.23944580078125,-350.04949951171875,-24.589523315429688,9.719833374023438
1776017216378436900,1.249436767578125,-349.2077941894531,-24.038864135742188,9.515045166015625
1776017216388427800,1.259427734375,-349.62738037109375,-24.41497802734375,9.667709350585938
1776017216398418700,1.269418701171875,-350.052001953125,-23.854537963867188,9.458587646484375
1776017216408409600,1.27940966796875,-349.84796142578125,-24.145263671875,9.6552734375
1776017216418401800,1.28940185546875,-349.801513671875,-23.81317138671875,9.552291870117188
1776017216428393700,1.299393798828125,-350.06402587890625,-24.171279907226562,9.498092651367188
1776017216438385700,1.3093857421875,-350.5384216308594,-24.092758178710938,9.544967651367188
1776017216448377600,1.319377685546875,-350.1246337890625,-23.98175048828125,9.68780517578125
1776017216458370600,1.32937060546875,-350.1514892578125,-23.860931396484375,9.612396240234375
1776017216468362800,1.33936279296875,-350.110595703125,-23.947097778320312,9.736465454101562
1776017216478355700,1.349355712890625,-350.1739196777344,-24.298309326171875,9.465484619140625
1776017216488348700,1.3593486328125,-350.1427001953125,-24.052169799804688,9.581344604492188
1776017216498342000,1.369341796875,-350.0641174316406,-24.057861328125,9.760665893554688
1776017216508333600,1.37933349609375,-349.9281005859375,-24.083877563476562,9.326171875
1776017216518326800,1.389326904296875,-350.25018310546875,-24.3282470703125,9.676498413085938
1776017216528319500,1.399319580078125,-350.16534423828125,-24.49090576171875,9.690963745117188
1776017216538311700,1.409311767578125,-350.0631103515625,-24.43017578125,9.797775268554688
1776017216548303600,1.4193037109375,-350.182373046875,-24.044784545898438,9.810775756835938
1776017216558295800,1.4292958984375,-350.39044189453125,-23.929779052734375,9.7640380859375
1776017216568286700,1.43928662109375,-349.84283447265625,-23.968276977539062,9.756011962890625
1776017216578279700,1.44927978515625,-350.1439208984375,-23.81817626953125,9.561431884765625
1776017216588273000,1.45927294921875,-350.21258544921875,-24.2447509765625,9.548324584960938
1776017216598263800,1.469263916015625,-350.59295654296875,-24.129974365234375,9.724533081054688
1776017216608253700,1.479253662109375,-350.2891845703125,-24.040298461914062,9.651565551757812
1776017216618244600,1.48924462890625,-349.55487060546875,-24.132659912109375,9.767318725585938
1776017216628234800,1.49923486328125,-349.65093994140625,-24.290206909179688,9.56134033203125
1776017216638224600,1.509224609375,-349.65899658203125,-24.275985717773438,9.924560546875
1776017216648214800,1.51921484375,-349.83917236328125,-24.507431030273438,10.07415771484375
1776017216658204700,1.52920458984375,-349.84710693359375,-24.202713012695312,9.794723510742188
1776017216668194800,1.53919482421875,-350.0982666015625,-24.534500122070312,10.06231689453125
1776017216678186800,1.549186767578125,-349.69580078125,-24.285079956054688,9.923629760742188
1776017216688178700,1.5591787109375,-350.1961669921875,-24.5587158203125,9.891265869140625
1776017216698169600,1.569169677734375,-350.12847900390625,-24.197845458984375,9.430801391601562
1776017216708160500,1.579160400390625,-350.5087585449219,-24.342056274414062,9.927093505859375
1776017216718149600,1.589149658203125,-350.43048095703125,-24.202392578125,9.800125122070312
1776017216728139500,1.599139404296875,-349.83355712890625,-24.448684692382812,9.920578002929688
1776017216738130700,1.609130615234375,-350.1886291503906,-24.48968505859375,9.70556640625
1776017216748121900,1.619121826171875,-350.22027587890625,-24.260848999023438,9.965118408203125
1776017216758112800,1.62911279296875,-349.99847412109375,-24.634536743164062,9.624923706054688
1776017216768104700,1.639104736328125,-350.06939697265625,-24.259506225585938,9.90045166015625
1776017216778093800,1.64909375,-350.544677734375,-24.502731323242188,9.890457153320312
1776017216788084700,1.659084716796875,-350.4877014160156,-24.235137939453125,9.822036743164062
1776017216798075600,1.66907568359375,-349.95361328125,-24.349380493164062,9.807357788085938
1776017216808065500,1.6790654296875,-350.2378234863281,-24.194671630859375,9.8419189453125
1776017216818056700,1.689056640625,-350.50994873046875,-24.160980224609375,9.781570434570312
1776017216828048600,1.699048583984375,-350.5832824707031,-23.987197875976562,10.043899536132812
1776017216838040600,1.70904052734375,-350.50830078125,-24.077972412109375,9.795944213867188
1776017216848031700,1.71903173828125,-350.0462646484375,-24.259414672851562,9.979095458984375
1776017216858023700,1.729023681640625,-350.4937744140625,-24.540985107421875,9.717514038085938
1776017216868014800,1.739014892578125,-350.598388671875,-24.3248291015625,10.008087158203125
1776017216878007600,1.749007568359375,-350.20806884765625,-24.179977416992188,10.251113891601562
1776017216887998500,1.75899853515625,-350.2628479003906,-24.303298950195312,9.9964599609375
1776017216897989600,1.76898974609375,-350.0577087402344,-24.408401489257812,10.120697021484375
1776017216907981600,1.778981689453125,-350.256103515625,-24.56182861328125,9.93536376953125
1776017216917974800,1.788974853515625,-349.600341796875,-24.194488525390625,9.931182861328125
1776017216927966700,1.798966796875,-350.20562744140625,-24.243728637695312,9.782241821289062
1776017216937958000,1.8089580078125,-350.21002197265625,-24.681381225585938,9.593505859375
1776017216947949600,1.818949462890625,-350.4913024902344,-24.490463256835938,9.827987670898438
1776017216957940700,1.828940673828125,-349.88134765625,-24.333465576171875,9.602005004882812
1776017216967932700,1.8389326171875,-350.91583251953125,-24.022628784179688,9.925674438476562
1776017216977924600,1.848924560546875,-350.3603515625,-24.431594848632812,10.024017333984375
1776017216987917600,1.85891748046875,-350.4373779296875,-24.56793212890625,10.230545043945312
1776017216997909800,1.86890966796875,-350.16070556640625,-24.228988647460938,9.735504150390625
1776017217007901700,1.878901611328125,-350.5993347167969,-24.204360961914062,9.73651123046875
1776017217017892600,1.888892578125,-350.29913330078125,-24.141326904296875,9.529800415039062
1776017217027883800,1.8988837890625,-350.293212890625,-24.550186157226562,9.599380493164062
1776017217037874700,1.908874755859375,-350.05059814453125,-24.54156494140625,9.63861083984375
1776017217047864600,1.918864501953125,-350.3442687988281,-24.245956420898438,9.905502319335938
1776017217057855500,1.92885546875,-350.23858642578125,-24.21710205078125,9.991439819335938
1776017217067848700,1.9388486328125,-350.0863037109375,-24.418258666992188,9.678192138671875
1776017217077839600,1.948839599609375,-350.1656494140625,-24.288192749023438,9.71441650390625
1776017217087830800,1.958830810546875,-350.53411865234375,-24.376510620117188,9.839614868164062
1776017217097822700,1.96882275390625,-350.58575439453125,-24.169784545898438,10.143966674804688
1776017217107813600,1.978813720703125,-350.4079284667969,-24.45538330078125,9.802841186523438
1776017217117805800,1.988805908203125,-350.76483154296875,-24.17816162109375,9.872650146484375
1776017217127796700,1.998796630859375,-350.55096435546875,-24.003860473632812,9.704254150390625
1776017217137788700,2.00878857421875,-350.6240234375,-23.97735595703125,9.788238525390625
1776017217147779600,2.018779541015625,-350.55029296875,-24.196395874023438,9.775787353515625
1776017217157770800,2.028770751953125,-350.50994873046875,-24.1199951171875,9.724563598632812
1776017217167763700,2.038763671875,-350.74072265625,-24.2017822265625,9.8321533203125
1776017217177755600,2.048755615234375,-350.1510314941406,-24.153427124023438,9.989334106445312
1776017217187748600,2.05874853515625,-350.7879638671875,-24.301666259765625,9.648361206054688
1776017217197740800,2.06874072265625,-350.7230529785156,-24.011032104492188,10.201873779296875
1776017217207731700,2.078731689453125,-350.94915771484375,-24.200775146484375,9.802169799804688
1776017217217722600,2.08872265625,-350.63616943359375,-24.572967529296875,9.736175537109375
1776017217227714800,2.09871484375,-350.920654296875,-24.11663818359375,9.815139770507812
1776017217237705700,2.108705810546875,-350.74224853515625,-23.926528930664062,9.677703857421875
1776017217247695600,2.118695556640625,-350.1325988769531,-24.070068359375,9.53582763671875
1776017217257686500,2.1286865234375,-350.5405578613281,-24.227569580078125,9.799072265625
1776017217267677400,2.138677490234375,-350.1307678222656,-24.281097412109375,10.128158569335938
1776017217277669600,2.148669677734375,-350.773193359375,-24.001907348632812,9.692489624023438
1776017217287660500,2.15866064453125,-350.94146728515625,-24.432571411132812,9.656143188476562
1776017217297652500,2.168652587890625,-350.55023193359375,-24.5859375,9.799179077148438
1776017217307642400,2.178642333984375,-350.891357421875,-24.233901977539062,9.678314208984375
1776017217317635600,2.188635498046875,-350.94873046875,-24.311141967773438,9.81072998046875
1776017217327627800,2.198627685546875,-350.2550048828125,-24.440567016601562,9.803421020507812
1776017217337620500,2.208620361328125,-350.6826477050781,-24.413360595703125,9.669631958007812
1776017217347612700,2.21861279296875,-350.55120849609375,-24.427871704101562,10.117156982421875
1776017217357603600,2.228603515625,-350.77740478515625,-24.220489501953125,9.716110229492188
1776017217367594500,2.238594482421875,-350.7193298339844,-24.016372680664062,9.969451904296875
1776017217377586700,2.248586669921875,-350.40216064453125,-24.2698974609375,9.938446044921875
1776017217387576600,2.25857666015625,-350.76171875,-24.148300170898438,9.618179321289062
1776017217397567500,2.2685673828125,-350.6031494140625,-24.216049194335938,9.92559814453125
1776017217407557400,2.278557373046875,-350.7801513671875,-24.251068115234375,9.762039184570312
1776017217417548500,2.288548583984375,-350.2467346191406,-24.583984375,10.045257568359375
1776017217427538700,2.29853857421875,-350.1875,-23.944107055664062,10.072830200195312
1776017217437531400,2.308531494140625,-350.33984375,-24.198135375976562,9.706024169921875
1776017217447524600,2.318524658203125,-350.8389892578125,-24.091781616210938,9.932281494140625
1776017217457517600,2.328517578125,-350.5242004394531,-24.296585083007812,9.786102294921875
1776017217467510500,2.338510498046875,-350.3746337890625,-24.226852416992188,9.797927856445312
1776017217477502500,2.34850244140625,-350.1291198730469,-23.942855834960938,10.005722045898438
1776017217487495700,2.35849560546875,-350.3895263671875,-24.146896362304688,9.905838012695312
1776017217497486600,2.368486572265625,-350.043212890625,-24.022079467773438,9.767852783203125
1776017217507476500,2.3784765625,-349.3598327636719,-24.088058471679688,9.648056030273438
1776017217517468700,2.38846875,-350.3049621582031,-24.030288696289062,9.75567626953125
1776017217527459600,2.39845947265625,-350.0222473144531,-24.008514404296875,9.822433471679688
1776017217537450500,2.408450439453125,-349.66094970703125,-24.210067749023438,9.730819702148438
1776017217547441400,2.41844140625,-350.60809326171875,-24.226104736328125,9.921157836914062
1776017217557434600,2.4284345703125,-350.53436279296875,-24.463027954101562,9.951644897460938
1776017217567426600,2.438426513671875,-350.7068786621094,-24.247406005859375,9.857559204101562
1776017217577417700,2.448417724609375,-350.1362609863281,-24.095657348632812,9.859466552734375
1776017217587409400,2.458409423828125,-350.98175048828125,-24.190658569335938,10.2156982421875
1776017217597400600,2.468400634765625,-350.21673583984375,-24.123825073242188,9.577789306640625
1776017217607391500,2.4783916015625,-350.4050598144531,-24.0501708984375,9.699737548828125
1776017217617383400,2.488383544921875,-350.9302978515625,-24.25244140625,9.960739135742188
1776017217627374600,2.49837451171875,-350.561279296875,-24.17486572265625,10.035079956054688
1776017217637366500,2.508366455078125,-350.2090148925781,-24.126617431640625,9.828720092773438
1776017217647359500,2.518359375,-350.16436767578125,-24.034133911132812,9.84796142578125
1776017217657351400,2.528351318359375,-350.10400390625,-24.2989501953125,9.77069091796875
1776017217667343600,2.538343505859375,-350.0279846191406,-24.171279907226562,9.64166259765625
1776017217677336600,2.548336669921875,-350.1899108886719,-24.212936401367188,9.664932250976562
1776017217687328500,2.55832861328125,-350.22564697265625,-24.666290283203125,9.6231689453125
1776017217697321700,2.56832177734375,-350.451416015625,-24.236526489257812,9.9647216796875
1776017217707312600,2.578312744140625,-350.3228759765625,-24.175186157226562,9.79705810546875
1776017217717305600,2.5883056640625,-350.7257080078125,-24.012985229492188,9.682861328125
1776017217727299600,2.598299560546875,-350.48272705078125,-24.248016357421875,9.730911254882812
1776017217737292500,2.60829248046875,-350.67742919921875,-24.33746337890625,9.71954345703125
1776017217747284700,2.61828466796875,-351.094970703125,-24.233749389648438,9.901473999023438
1776017217757276400,2.6282763671875,-351.5445251464844,-24.525955200195312,9.82452392578125
1776017217767267600,2.638267578125,-350.635498046875,-24.168060302734375,9.870880126953125
1776017217777258800,2.6482587890625,-350.2486572265625,-24.713775634765625,9.873367309570312
1776017217787249700,2.658249755859375,-350.5871887207031,-24.10052490234375,9.67913818359375
1776017217797239600,2.668239501953125,-350.32122802734375,-24.221343994140625,9.655029296875
1776017217807229400,2.6782294921875,-350.5299377441406,-24.013900756835938,9.682907104492188
1776017217817219600,2.688219482421875,-350.28326416015625,-24.294235229492188,9.774627685546875
1776017217827208400,2.69820849609375,-350.6607666015625,-24.04168701171875,9.778671264648438
1776017217837198600,2.708198486328125,-350.12933349609375,-24.299331665039062,9.618789672851562
1776017217847188500,2.7181884765625,-350.6255798339844,-24.407119750976562,9.760452270507812
1776017217857179600,2.7281796875,-350.39385986328125,-24.30670166015625,9.897811889648438
1776017217867170600,2.738170654296875,-349.96844482421875,-24.424163818359375,9.8734130859375
1776017217877162500,2.74816259765625,-350.31439208984375,-24.60101318359375,9.729110717773438
1776017217887153700,2.758153564453125,-350.0694580078125,-24.540130615234375,9.683197021484375
1776017217897143600,2.7681435546875,-349.8970947265625,-24.453201293945312,9.630386352539062
1776017217907134500,2.778134521484375,-350.20880126953125,-24.247589111328125,9.774078369140625
1776017217917126700,2.788126708984375,-349.8819885253906,-24.217361450195312,9.582275390625
1776017217927119600,2.79811962890625,-350.04437255859375,-23.8665771484375,9.680938720703125
1776017217937110800,2.80811083984375,-350.1094970703125,-23.754531860351562,9.505813598632812
1776017217947103500,2.818103515625,-350.04888916015625,-24.033798217773438,9.764205932617188
1776017217957095700,2.828095703125,-349.7418212890625,-24.288345336914062,9.743270874023438
1776017217967088400,2.83808837890625,-350.263427734375,-24.356582641601562,9.9437255859375
1776017217977078800,2.848078857421875,-350.44451904296875,-24.202239990234375,9.431549072265625
1776017217987070500,2.858070556640625,-350.25823974609375,-24.544036865234375,9.818145751953125
1776017217997061400,2.868061279296875,-350.2665100097656,-24.39019775390625,9.925827026367188
1776017218007052500,2.878052490234375,-350.32135009765625,-24.39007568359375,9.88226318359375
1776017218017042700,2.888042724609375,-350.19696044921875,-24.6658935546875,9.852569580078125
1776017218027033600,2.89803369140625,-350.20257568359375,-24.218048095703125,9.712631225585938
1776017218037024500,2.9080244140625,-350.2317199707031,-24.216033935546875,9.795135498046875
1776017218047016700,2.9180166015625,-349.8179931640625,-24.539505004882812,9.5908203125
1776017218057007600,2.928007568359375,-350.43084716796875,-24.439071655273438,9.643417358398438
1776017218066999600,2.93799951171875,-350.0304870605469,-24.093414306640625,9.578582763671875
1776017218076992500,2.947992431640625,-349.85516357421875,-24.272308349609375,9.467971801757812
1776017218086984700,2.957984619140625,-350.7275390625,-24.190093994140625,9.665267944335938
1776017218096977400,2.967977294921875,-349.9752197265625,-24.35919189453125,9.935806274414062
1776017218106969600,2.977969482421875,-349.88201904296875,-24.314041137695312,9.818374633789062
1776017218116962600,2.987962646484375,-349.9072570800781,-24.724258422851562,10.057403564453125
1776017218126955500,2.99795556640625,-350.35028076171875,-24.310745239257812,9.778961181640625
1776017218136947700,3.00794775390625,-350.1498718261719,-24.287567138671875,9.801345825195312
1776017218146939400,3.017939453125,-350.0434265136719,-24.245758056640625,9.452590942382812
1776017218156932600,3.0279326171875,-349.9909362792969,-24.493820190429688,9.546524047851562
1776017218166924500,3.037924560546875,-350.17987060546875,-24.493820190429688,9.5555419921875
1776017218176916500,3.04791650390625,-350.61358642578125,-24.37060546875,9.81396484375
1776017218186907600,3.05790771484375,-350.0263977050781,-24.563491821289062,10.04833984375
1776017218196898600,3.067898681640625,-350.726806640625,-24.482803344726562,9.784896850585938
1776017218206888700,3.077888671875,-350.1378173828125,-24.456130981445312,9.821380615234375
1776017218216879600,3.087879638671875,-349.97540283203125,-24.249053955078125,9.5494384765625
1776017218226871600,3.09787158203125,-350.71160888671875,-24.086898803710938,9.907012939453125
1776017218236863500,3.107863525390625,-350.7950134277344,-24.618453979492188,9.810501098632812
1776017218246855000,3.11785498046875,-350.28985595703125,-24.54022216796875,9.926681518554688
1776017218256846000,3.12784619140625,-350.7691650390625,-24.19024658203125,9.82025146484375
1776017218266837200,3.137837158203125,-350.577880859375,-24.380142211914062,9.5343017578125
1776017218276829000,3.147828857421875,-349.94964599609375,-24.474227905273438,9.690170288085938
1776017218286821000,3.157821044921875,-350.0621643066406,-24.697280883789062,9.929107666015625
1776017218296813000,3.16781298828125,-350.494140625,-24.491195678710938,9.90966796875
1776017218306805200,3.17780517578125,-350.3560791015625,-24.525527954101562,9.70257568359375
1776017218316797000,3.187796875,-350.54376220703125,-24.432113647460938,9.7198486328125
1776017218326789000,3.1977890625,-350.51019287109375,-24.599746704101562,9.754852294921875
1776017218336781000,3.207781005859375,-351.04278564453125,-24.505523681640625,9.577743530273438
1776017218346772000,3.21777197265625,-350.6373596191406,-24.702392578125,9.759429931640625
1776017218356764200,3.22776416015625,-350.5660400390625,-24.729583740234375,9.519577026367188
1776017218366755000,3.237755126953125,-350.01953125,-24.644805908203125,9.712265014648438
1776017218376747000,3.2477470703125,-350.61590576171875,-24.585784912109375,9.68670654296875
1776017218386738200,3.25773828125,-350.05792236328125,-24.634841918945312,9.701492309570312
1776017218396731100,3.267731201171875,-350.028076171875,-24.524520874023438,9.534378051757812
1776017218406723000,3.27772314453125,-350.19635009765625,-24.461380004882812,9.671966552734375
1776017218416715300,3.28771533203125,-349.6920471191406,-24.494873046875,9.426712036132812
1776017218426706200,3.2977060546875,-350.063232421875,-24.242919921875,9.792068481445312
1776017218436697900,3.30769775390625,-349.79852294921875,-24.456832885742188,9.217315673828125
1776017218446690000,3.31768994140625,-349.8079833984375,-24.63116455078125,9.494110107421875
1776017218456682000,3.327681884765625,-349.5003662109375,-24.654739379882812,9.767929077148438
1776017218466673200,3.337673095703125,-349.7198486328125,-24.486190795898438,9.661407470703125
1776017218476665000,3.3476650390625,-349.42645263671875,-24.549240112304688,9.305130004882812
1776017218486656300,3.35765625,-349.9520263671875,-25.025054931640625,9.663970947265625
1776017218496649000,3.36764892578125,-349.6351318359375,-24.772537231445312,9.710617065429688
1776017218506641200,3.37764111328125,-349.640625,-24.843429565429688,9.535125732421875
1776017218516630300,3.38763037109375,-349.6988525390625,-24.946334838867188,9.491455078125
1776017218526620200,3.3976201171875,-349.89971923828125,-25.045700073242188,9.113174438476562
1776017218536611000,3.407611083984375,-349.4500732421875,-25.023590087890625,9.262832641601562
1776017218546603000,3.41760302734375,-349.528076171875,-25.024078369140625,9.51617431640625
1776017218556594200,3.42759423828125,-349.8774719238281,-25.146484375,9.359649658203125
1776017218566586000,3.437586181640625,-349.92608642578125,-25.272674560546875,9.324951171875
1776017218576577300,3.447577392578125,-349.5230407714844,-25.09503173828125,9.449478149414062
1776017218586570000,3.457570068359375,-349.405029296875,-25.140167236328125,9.567245483398438
1776017218596562200,3.467562255859375,-348.5205078125,-25.327285766601562,9.499862670898438
1776017218606555000,3.477554931640625,-349.61907958984375,-25.014404296875,9.473876953125
1776017218616549000,3.487549072265625,-349.75054931640625,-25.14996337890625,9.739837646484375
1776017218626541000,3.497541015625,-349.88836669921875,-25.046981811523438,9.662322998046875
1776017218636533000,3.507532958984375,-349.92596435546875,-25.390167236328125,9.6083984375
1776017218646525200,3.517525146484375,-349.90850830078125,-25.39715576171875,9.437484741210938
1776017218656517000,3.52751708984375,-349.55908203125,-25.157546997070312,9.492889404296875
1776017218666510000,3.537510009765625,-350.30010986328125,-25.387344360351562,9.40655517578125
1776017218676503300,3.54750341796875,-349.82415771484375,-25.483016967773438,9.074737548828125
1776017218686494200,3.557494140625,-349.70526123046875,-25.462738037109375,9.081939697265625
1776017218696486000,3.56748583984375,-349.63818359375,-25.474472045898438,9.131317138671875
1776017218706478000,3.57747802734375,-349.41265869140625,-25.474700927734375,9.361495971679688
1776017218716470000,3.587469970703125,-349.62738037109375,-25.645645141601562,9.379837036132812
1776017218726462200,3.597462158203125,-349.529052734375,-25.436111450195312,9.115570068359375
1776017218736454000,3.607453857421875,-349.7947998046875,-25.419448852539062,9.711868286132812
1776017218746447000,3.617447021484375,-349.6783447265625,-25.337326049804688,9.372207641601562
1776017218756440000,3.627440185546875,-349.670654296875,-25.338058471679688,9.4683837890625
1776017218766433000,3.63743310546875,-349.4603271484375,-25.0848388671875,9.250274658203125
1776017218776427000,3.647427001953125,-349.40435791015625,-25.3192138671875,9.363433837890625
1776017218786419200,3.657419189453125,-349.7077331542969,-25.500152587890625,9.205612182617188
1776017218796413200,3.6674130859375,-349.53204345703125,-25.057754516601562,9.36590576171875
1776017218806406100,3.67740625,-350.44512939453125,-25.266921997070312,9.299148559570312
1776017218816400100,3.687400146484375,-349.911865234375,-25.48565673828125,9.367523193359375
1776017218826393000,3.69739306640625,-349.46466064453125,-25.503433227539062,9.294830322265625
1776017218836385000,3.707385009765625,-349.2249755859375,-25.7427978515625,9.256805419921875
1776017218846378000,3.7173779296875,-349.7314453125,-25.490707397460938,9.258316040039062
1776017218856371200,3.72737109375,-349.50006103515625,-25.444961547851562,9.131744384765625
1776017218866364000,3.737364013671875,-349.8685607910156,-25.367156982421875,9.29022216796875
1776017218876356000,3.747356201171875,-349.95379638671875,-25.792831420898438,9.608078002929688
1776017218886347000,3.757346923828125,-350.26678466796875,-25.50042724609375,9.058074951171875
1776017218896338000,3.767337890625,-349.85284423828125,-25.136444091796875,9.39556884765625
1776017218906331100,3.7773310546875,-350.15264892578125,-25.6051025390625,9.156463623046875
1776017218916323000,3.787322998046875,-349.7005310058594,-25.507492065429688,9.3643798828125
1776017218926316000,3.79731591796875,-349.66790771484375,-24.912841796875,9.5699462890625
1776017218936308200,3.80730810546875,-349.7365417480469,-25.610214233398438,9.506912231445312
1776017218946301000,3.817301025390625,-349.8313903808594,-25.408218383789062,9.60040283203125
1776017218956292000,3.8272919921875,-350.1322937011719,-25.197418212890625,9.615585327148438
1776017218966283000,3.837282958984375,-349.7823486328125,-25.098922729492188,9.112060546875
1776017218976274000,3.84727392578125,-349.72259521484375,-25.322463989257812,9.444793701171875
1776017218986266000,3.85726611328125,-350.09869384765625,-25.148696899414062,9.351654052734375
1776017218996257000,3.867257080078125,-349.3197937011719,-25.391830444335938,9.473480224609375
1776017219006248000,3.877248046875,-349.5870056152344,-25.655807495117188,9.41131591796875
1776017219016240000,3.887240234375,-350.21923828125,-25.347976684570312,9.514572143554688
1776017219026231000,3.89723095703125,-350.0780029296875,-25.477920532226562,9.389434814453125
1776017219036223200,3.90722314453125,-349.72076416015625,-25.409683227539062,9.322097778320312
1776017219046215200,3.917215087890625,-349.7699279785156,-25.3167724609375,9.482513427734375
1776017219056206000,3.9272060546875,-349.4095458984375,-25.216812133789062,9.528289794921875
1776017219066197200,3.937197265625,-349.7837829589844,-25.46160888671875,9.583343505859375
1776017219076189000,3.94718896484375,-350.5740661621094,-25.182281494140625,9.717529296875
1776017219086181000,3.95718115234375,-349.4996337890625,-25.290985107421875,9.436874389648438
1776017219096174000,3.967174072265625,-349.700927734375,-25.531982421875,9.455108642578125
1776017219106167000,3.9771669921875,-350.2752380371094,-25.391799926757812,9.818679809570312
1776017219116159000,3.987158935546875,-349.5779724121094,-25.3878173828125,9.489303588867188
1776017219126150100,3.997150146484375,-349.3186950683594,-25.397842407226562,9.37127685546875
1776017219136141000,4.00714111328125,-349.9705810546875,-25.586715698242188,9.391632080078125
1776017219146133200,4.01713330078125,-349.93505859375,-25.284408569335938,9.363906860351562
1776017219156126000,4.0271259765625,-349.4282531738281,-25.392837524414062,9.242401123046875
1776017219166117000,4.0371171875,-349.131103515625,-25.51416015625,9.748672485351562
1776017219176109000,4.047109130859375,-349.5513916015625,-25.547683715820312,9.524368286132812
1776017219186100000,4.057099853515625,-350.017822265625,-25.91455078125,9.633438110351562
1776017219196091100,4.067091064453125,-349.48193359375,-25.756561279296875,9.622665405273438
1776017219206083000,4.0770830078125,-349.67474365234375,-25.361862182617188,9.37054443359375
1776017219216075300,4.0870751953125,-349.31524658203125,-25.628463745117188,9.863372802734375
1776017219226068000,4.09706787109375,-349.89105224609375,-25.54888916015625,9.6688232421875
1776017219236061200,4.107061279296875,-349.6051940917969,-25.491973876953125,9.365249633789062
1776017219246051600,4.117051513671875,-350.061279296875,-25.907745361328125,9.314682006835938
1776017219256044300,4.127044189453125,-349.55072021484375,-25.712875366210938,9.271743774414062
1776017219266036500,4.137036376953125,-350.0913391113281,-25.447021484375,9.828628540039062
1776017219276028400,4.1470283203125,-349.8348388671875,-25.358566284179688,9.808731079101562
1776017219286020600,4.1570205078125,-349.44403076171875,-25.614913940429688,9.357818603515625
1776017219296011500,4.167011474609375,-349.18121337890625,-25.647384643554688,9.50927734375
1776017219306002400,4.17700244140625,-349.88763427734375,-25.92242431640625,9.328384399414062
1776017219315994600,4.18699462890625,-349.5445861816406,-25.595535278320312,9.417816162109375
1776017219325986300,4.196986328125,-349.8844299316406,-25.402114868164062,9.3548583984375
1776017219335977500,4.2069775390625,-350.11517333984375,-25.52325439453125,9.268218994140625
1776017219345969400,4.216969482421875,-349.64501953125,-25.440933227539062,9.3973388671875
1776017219355961600,4.226961669921875,-349.50787353515625,-25.560134887695312,9.25872802734375
1776017219365954300,4.236954345703125,-349.86883544921875,-25.920257568359375,9.788909912109375
1776017219375947500,4.246947509765625,-349.671875,-25.63916015625,9.6142578125
1776017219385940500,4.2569404296875,-349.57958984375,-25.573394775390625,9.67718505859375
1776017219395933400,4.266933349609375,-350.5885314941406,-25.325546264648438,9.530868530273438
1776017219405927400,4.276927490234375,-349.94366455078125,-25.730682373046875,9.682373046875
1776017219415920400,4.28692041015625,-349.7259521484375,-25.744735717773438,9.51800537109375
1776017219425912300,4.296912353515625,-350.03179931640625,-25.483383178710938,9.5032958984375
1776017219435904500,4.306904541015625,-349.6866455078125,-25.66961669921875,9.58502197265625
1776017219445897200,4.316897216796875,-350.20452880859375,-25.43988037109375,9.6085205078125
1776017219455891500,4.326891357421875,-350.4913330078125,-25.939956665039062,9.051834106445312
1776017219465883400,4.33688330078125,-349.66180419921875,-25.380859375,9.618896484375
1776017219475875300,4.346875244140625,-349.74896240234375,-25.944122314453125,9.468734741210938
1776017219485867500,4.356867431640625,-350.0992431640625,-25.93646240234375,9.609725952148438
1776017219495859500,4.366859375,-350.056640625,-25.40338134765625,9.412841796875
1776017219505851400,4.376851318359375,-349.95941162109375,-25.996490478515625,9.768203735351562
1776017219515843300,4.38684326171875,-350.1954345703125,-25.76806640625,9.603057861328125
1776017219525835500,4.39683544921875,-350.069091796875,-25.546859741210938,9.220428466796875
1776017219535828200,4.406828125,-350.0806884765625,-25.641159057617188,9.43463134765625
1776017219545820400,4.4168203125,-350.1239013671875,-25.759246826171875,9.622360229492188
1776017219555813600,4.426813720703125,-349.4842529296875,-25.503326416015625,9.247802734375
1776017219565806300,4.436806396484375,-349.96142578125,-25.454483032226562,9.550537109375
1776017219575799600,4.446799560546875,-349.81585693359375,-25.471420288085938,9.403289794921875
1776017219585793500,4.45679345703125,-349.47186279296875,-25.7135009765625,9.576980590820312
1776017219595786200,4.4667861328125,-349.3746337890625,-25.732620239257812,9.5084228515625
1776017219605779500,4.476779541015625,-349.3118591308594,-25.5107421875,9.540481567382812
1776017219615773400,4.4867734375,-350.25201416015625,-25.518051147460938,9.621353149414062
1776017219625766400,4.496766357421875,-349.70166015625,-25.467605590820312,9.401840209960938
1776017219635759400,4.50675927734375,-350.2955322265625,-25.49273681640625,9.397125244140625
1776017219645752300,4.51675244140625,-349.18621826171875,-25.43353271484375,9.566253662109375
1776017219655743500,4.526743408203125,-349.71502685546875,-25.726699829101562,9.24981689453125
1776017219665736400,4.536736328125,-350.169677734375,-25.521957397460938,9.491485595703125
1776017219675728600,4.546728759765625,-350.25946044921875,-25.456512451171875,9.525588989257812
1776017219685719600,4.556719482421875,-350.12091064453125,-25.814956665039062,9.778732299804688
1776017219695712500,4.56671240234375,-349.67071533203125,-25.853118896484375,9.882797241210938
1776017219705704400,4.576704345703125,-349.8321533203125,-26.071380615234375,9.519744873046875
1776017219715696400,4.5866962890625,-349.7647705078125,-26.001861572265625,9.460403442382812
1776017219725688600,4.5966884765625,-349.6874694824219,-25.860671997070312,9.522384643554688
1776017219735680300,4.60668017578125,-349.3856201171875,-26.206893920898438,9.53106689453125
1776017219745673500,4.616673583984375,-349.7144775390625,-26.075119018554688,9.150466918945312
1776017219755666400,4.62666650390625,-350.3319091796875,-25.866668701171875,9.671890258789062
1776017219765659400,4.636659423828125,-349.315185546875,-25.677337646484375,9.462692260742188
1776017219775651300,4.6466513671875,-350.5478820800781,-25.721572875976562,9.765289306640625
1776017219785643300,4.656643310546875,-350.09954833984375,-25.963287353515625,9.685134887695312
1776017219795635500,4.666635498046875,-350.28271484375,-25.780960083007812,9.43817138671875
1776017219805626400,4.67662646484375,-349.8948974609375,-25.87042236328125,9.32061767578125
1776017219815618600,4.68661865234375,-349.4373779296875,-25.442916870117188,9.350433349609375
1776017219825610500,4.696610595703125,-349.9310302734375,-26.055709838867188,9.494491577148438
1776017219835601400,4.706601318359375,-349.5131530761719,-25.323776245117188,9.377853393554688
1776017219845594400,4.716594482421875,-349.50384521484375,-25.546829223632812,9.16162109375
1776017219855588400,4.72658837890625,-349.6920166015625,-25.52923583984375,9.503173828125
1776017219865582600,4.73658251953125,-349.6488952636719,-25.069290161132812,9.361984252929688
1776017219875575600,4.746575439453125,-349.1853942871094,-25.61334228515625,9.464019775390625
1776017219885567500,4.7565673828125,-349.3446044921875,-25.561965942382812,9.416046142578125
1776017219895561500,4.7665615234375,-349.0665283203125,-25.395889282226562,9.236770629882812
1776017219905556500,4.776556396484375,-349.6104431152344,-25.171630859375,9.09161376953125
1776017219915549400,4.786549560546875,-349.98529052734375,-25.37298583984375,9.092514038085938
1776017219925542400,4.79654248046875,-349.69488525390625,-25.556564331054688,9.350387573242188
1776017219935534600,4.80653466796875,-349.5484619140625,-25.807281494140625,9.346481323242188
1776017219945528600,4.816528564453125,-349.51348876953125,-25.655120849609375,9.269851684570312
1776017219955523600,4.826523681640625,-349.8343505859375,-25.64385986328125,9.464889526367188
1776017219965516500,4.8365166015625,-349.8317565917969,-25.770050048828125,9.343887329101562
1776017219975509500,4.846509521484375,-349.87725830078125,-25.603469848632812,9.453399658203125
1776017219985502500,4.85650244140625,-349.47723388671875,-25.531143188476562,9.796554565429688
1776017219995494400,4.866494384765625,-350.1097412109375,-25.560928344726562,9.581314086914062
1776017220005487400,4.8764873046875,-349.6031494140625,-25.58563232421875,9.53851318359375
1776017220015480600,4.88648046875,-350.12762451171875,-25.626434326171875,9.787551879882812
1776017220025473300,4.896473388671875,-349.98345947265625,-25.657821655273438,9.433303833007812
1776017220035467300,4.90646728515625,-349.6955261230469,-25.363784790039062,9.367950439453125
1776017220045460500,4.91646044921875,-349.4251708984375,-25.420394897460938,9.864593505859375
1776017220055454500,4.926454345703125,-349.7311706542969,-25.587509155273438,9.973220825195312
1776017220065448400,4.936448486328125,-349.29119873046875,-25.358230590820312,9.878189086914062
1776017220075442400,4.9464423828125,-349.5518798828125,-25.3614501953125,9.574127197265625
1776017220085436400,4.9564365234375,-349.7009582519531,-25.602142333984375,9.84454345703125
1776017220095429400,4.966429443359375,-349.66387939453125,-25.18035888671875,9.663101196289062
1776017220105424400,4.97642431640625,-350.41900634765625,-25.54638671875,9.876800537109375
1776017220115418400,4.98641845703125,-349.6116027832031,-25.43548583984375,9.747299194335938
1776017220125412400,4.996412353515625,-349.33172607421875,-25.617507934570312,9.626708984375
1776017220135405600,5.006405517578125,-349.337646484375,-25.178955078125,9.668380737304688
1776017220145400600,5.016400634765625,-349.8258361816406,-25.337631225585938,9.562042236328125
1776017220155392500,5.026392578125,-349.4263610839844,-25.5189208984375,9.645904541015625
1776017220165384400,5.036384521484375,-349.7105712890625,-25.301193237304688,9.722320556640625
1776017220175377400,5.04637744140625,-349.989013671875,-25.475067138671875,9.54925537109375
1776017220185370400,5.056370361328125,-350.0236511230469,-25.52911376953125,9.81109619140625
1776017220195363600,5.066363525390625,-350.05816650390625,-25.543807983398438,9.634658813476562
1776017220205357600,5.076357666015625,-349.8245544433594,-25.470932006835938,9.736770629882812
1776017220215351300,5.086351318359375,-350.24981689453125,-25.092208862304688,9.609375
1776017220225346600,5.0963466796875,-350.03509521484375,-25.33905029296875,9.534500122070312
1776017220235340300,5.10634033203125,-349.8690185546875,-25.2327880859375,9.635574340820312
1776017220245334000,5.116333984375,-349.897216796875,-25.437637329101562,9.857818603515625
1776017220255328000,5.126327880859375,-349.82110595703125,-25.424163818359375,9.52142333984375
1776017220265322000,5.136322021484375,-349.5167236328125,-25.425247192382812,9.768295288085938
1776017220275316000,5.14631591796875,-349.822021484375,-25.184005737304688,9.459335327148438
1776017220285310000,5.15631005859375,-349.799560546875,-25.475372314453125,9.560958862304688
1776017220295303000,5.166302978515625,-349.91058349609375,-25.130599975585938,9.754470825195312
1776017220305296000,5.1762958984375,-350.07861328125,-25.4744873046875,9.366943359375
1776017220315289000,5.1862890625,-349.5677185058594,-25.232162475585938,9.783096313476562
1776017220325281800,5.19628173828125,-349.31646728515625,-25.488861083984375,9.476211547851562
1776017220335275800,5.20627587890625,-349.83648681640625,-25.1190185546875,9.828506469726562
1776017220345270000,5.21627001953125,-349.27197265625,-25.046005249023438,9.8680419921875
1776017220355263000,5.226262939453125,-350.06878662109375,-25.139419555664062,9.77496337890625
1776017220365257000,5.236257080078125,-349.6959228515625,-25.135086059570312,9.559295654296875
1776017220375250000,5.24625,-350.0299987792969,-25.546920776367188,9.982376098632812
1776017220385242000,5.2562421875,-349.768798828125,-25.38385009765625,9.9698486328125
1776017220395233800,5.26623388671875,-350.111572265625,-25.168426513671875,9.832565307617188
1776017220405226000,5.27622607421875,-349.74609375,-24.876480102539062,9.7393798828125
1776017220415217000,5.286216796875,-349.972412109375,-25.175048828125,9.85809326171875
1776017220425207800,5.296207763671875,-350.0625,-25.05499267578125,9.474655151367188
1776017220435200000,5.306199951171875,-350.25341796875,-24.791183471679688,10.06402587890625
1776017220445192000,5.31619189453125,-349.6601867675781,-24.85638427734375,9.96722412109375
1776017220455184000,5.326183837890625,-349.9388427734375,-24.799652099609375,9.805877685546875
1776017220465175000,5.336175048828125,-350.88916015625,-24.946243286132812,9.7088623046875
1776017220475167000,5.3461669921875,-350.25811767578125,-25.26788330078125,9.678695678710938
1776017220485160000,5.356159912109375,-350.35906982421875,-24.926773071289062,9.716217041015625
1776017220495153000,5.36615283203125,-350.0780029296875,-24.953414916992188,9.824737548828125
1776017220505146000,5.37614599609375,-350.2354736328125,-24.987106323242188,9.628463745117188
1776017220515138800,5.386138916015625,-350.412353515625,-24.724472045898438,10.004470825195312
1776017220525132000,5.396132080078125,-350.15838623046875,-24.797012329101562,9.723236083984375
1776017220535126000,5.4061259765625,-350.03057861328125,-25.28363037109375,9.554977416992188
1776017220545119000,5.416118896484375,-350.42608642578125,-25.068435668945312,9.850173950195312
1776017220555114000,5.426114013671875,-350.3702392578125,-25.012649536132812,9.840988159179688
1776017220565107000,5.43610693359375,-350.6015625,-25.118240356445312,9.648971557617188
1776017220575100000,5.446099853515625,-350.30426025390625,-24.942535400390625,9.735092163085938
1776017220585094000,5.456093994140625,-350.11370849609375,-24.73931884765625,9.63909912109375
1776017220595087000,5.466087158203125,-349.8269958496094,-24.988693237304688,9.479843139648438
1776017220605079800,5.476079833984375,-350.081298828125,-25.157974243164062,9.943008422851562
1776017220615073000,5.486072998046875,-350.16717529296875,-24.99945068359375,9.616439819335938
1776017220625065000,5.49606494140625,-350.15283203125,-24.577133178710938,9.282806396484375
1776017220635056000,5.50605615234375,-350.16375732421875,-24.763351440429688,9.463943481445312
1776017220645048800,5.516048828125,-350.43243408203125,-24.875289916992188,9.717681884765625
1776017220655041000,5.526041015625,-350.200927734375,-24.706436157226562,9.66668701171875
1776017220665035000,5.536034912109375,-350.2542419433594,-24.874725341796875,9.722686767578125
1776017220675029000,5.546029052734375,-350.4559326171875,-25.16534423828125,9.709869384765625
1776017220685022700,5.556022705078125,-350.03369140625,-24.803009033203125,9.700653076171875
1776017220695017000,5.566016845703125,-349.970703125,-24.974899291992188,9.771163940429688
1776017220705009000,5.5760087890625,-350.03509521484375,-24.612258911132812,9.562942504882812
1776017220715002000,5.586002197265625,-349.87152099609375,-24.470016479492188,9.706451416015625
1776017220724994800,5.595994873046875,-350.0059814453125,-24.745590209960938,9.46044921875
1776017220734987000,5.605987060546875,-349.48406982421875,-24.963287353515625,9.490676879882812
1776017220744979000,5.61597900390625,-349.9219970703125,-24.913223266601562,9.707916259765625
1776017220754971100,5.62597119140625,-350.1728210449219,-24.992630004882812,9.401565551757812
1776017220764962800,5.635962890625,-350.17034912109375,-24.746902465820312,9.101470947265625
1776017220774956000,5.6459560546875,-350.0565490722656,-24.847763061523438,9.380569458007812
1776017220784950000,5.655949951171875,-350.17578125,-24.713485717773438,9.672882080078125
1776017220794943000,5.66594287109375,-349.52508544921875,-25.02264404296875,9.53369140625
1776017220804935000,5.675934814453125,-349.6148986816406,-24.892974853515625,9.543136596679688
1776017220814929000,5.685928955078125,-350.01947021484375,-24.638198852539062,10.049758911132812
1776017220824923100,5.695923095703125,-349.97576904296875,-24.811843872070312,9.849044799804688
1776017220834914800,5.705914794921875,-350.41705322265625,-24.643890380859375,9.826278686523438
1776017220844908000,5.715907958984375,-350.4777526855469,-24.498382568359375,10.10943603515625
1776017220854900700,5.725900634765625,-350.2201232910156,-24.34979248046875,10.074508666992188
1776017220864894000,5.73589404296875,-350.736328125,-24.633834838867188,9.923583984375
1776017220874888000,5.745887939453125,-350.3758544921875,-24.67327880859375,9.929931640625
1776017220884883000,5.755883056640625,-350.23785400390625,-24.440383911132812,10.13037109375
1776017220894877000,5.765876953125,-350.25286865234375,-24.514846801757812,9.71630859375
1776017220904871000,5.775870849609375,-349.59765625,-24.739883422851562,9.844955444335938
1776017220914862800,5.78586279296875,-350.24273681640625,-25.008041381835938,10.033477783203125
1776017220924856800,5.79585693359375,-349.87896728515625,-24.540206909179688,10.101699829101562
1776017220934850000,5.80585009765625,-349.98486328125,-24.649322509765625,9.7625732421875
1776017220944842000,5.815842041015625,-350.4570007324219,-24.516098022460938,10.0665283203125
1776017220954834000,5.825833984375,-350.04290771484375,-24.584228515625,9.671661376953125
1776017220964824800,5.835824951171875,-350.05133056640625,-24.758621215820312,10.056137084960938
1776017220974818000,5.845818115234375,-349.6373596191406,-24.9561767578125,9.71502685546875
1776017220984810000,5.85581005859375,-350.23577880859375,-24.872650146484375,9.765716552734375
1776017220994802000,5.865802001953125,-349.0291748046875,-25.06219482421875,9.893829345703125
1776017221004792800,5.875792724609375,-349.6224365234375,-24.882110595703125,9.851455688476562
1776017221014783000,5.885782958984375,-349.42364501953125,-24.708770751953125,9.865371704101562
1776017221024772900,5.89577294921875,-349.48175048828125,-24.995071411132812,9.91741943359375
1776017221034764000,5.905763916015625,-350.0868835449219,-24.8157958984375,9.931472778320312
1776017221044756000,5.915755859375,-349.863525390625,-24.630691528320312,9.78887939453125
1776017221054747000,5.925746826171875,-349.8775634765625,-24.484359741210938,9.787979125976562
1776017221064739000,5.935739013671875,-349.66827392578125,-24.801925659179688,9.722930908203125
1776017221074732000,5.94573193359375,-349.67584228515625,-24.547286987304688,9.548965454101562
1776017221084724000,5.955723876953125,-349.4661865234375,-24.683441162109375,9.811325073242188
1776017221094716000,5.9657158203125,-348.9476318359375,-24.471038818359375,9.867538452148438
1776017221104708900,5.975708984375,-350.01031494140625,-24.883636474609375,9.778945922851562
1776017221114699800,5.98569970703125,-350.28851318359375,-24.941635131835938,9.755783081054688
1776017221124690200,5.995690185546875,-350.2505187988281,-24.849273681640625,9.743560791015625
1776017221134681900,6.005681884765625,-350.39593505859375,-24.5211181640625,10.000640869140625
1776017221144672800,6.0156728515625,-349.7237548828125,-24.844375610351562,10.059494018554688
1776017221154666000,6.025666015625,-349.8721008300781,-24.588714599609375,9.893020629882812
1776017221164659000,6.035658935546875,-349.81329345703125,-24.42755126953125,9.7113037109375
1776017221174649900,6.04564990234375,-349.50164794921875,-25.035629272460938,9.766372680664062
1776017221184643000,6.05564306640625,-349.5311279296875,-24.690200805664062,9.896331787109375
1776017221194635000,6.065635009765625,-349.5972900390625,-24.559173583984375,9.797866821289062
1776017221204628000,6.0756279296875,-349.6280822753906,-24.525375366210938,9.95361328125
1776017221214621200,6.08562109375,-349.7929992675781,-24.217056274414062,9.83941650390625
1776017221224614000,6.09561376953125,-349.5719299316406,-24.729156494140625,9.55657958984375
1776017221234606000,6.105606201171875,-349.9241943359375,-24.699569702148438,9.730133056640625
1776017221244597000,6.115596923828125,-349.86602783203125,-24.643951416015625,9.769561767578125
1776017221254588700,6.125588623046875,-350.81915283203125,-24.726760864257812,9.820602416992188
1776017221264580600,6.13558056640625,-350.36456298828125,-24.55853271484375,9.913650512695312
1776017221274571800,6.14557177734375,-350.337646484375,-24.473190307617188,9.977386474609375
1776017221284562700,6.155562744140625,-350.3526306152344,-24.543914794921875,9.626922607421875
1776017221294553600,6.1655537109375,-349.9924011230469,-24.71868896484375,9.882858276367188
1776017221304544800,6.175544677734375,-350.401123046875,-24.399978637695312,9.655731201171875
1776017221314536400,6.185536376953125,-350.580810546875,-24.55126953125,9.724929809570312
1776017221324528400,6.1955283203125,-350.1291809082031,-24.321044921875,9.912857055664062
1776017221334520600,6.2055205078125,-349.995849609375,-24.581558227539062,9.69305419921875
1776017221344514600,6.2155146484375,-349.99163818359375,-24.330978393554688,9.68231201171875
1776017221354508500,6.225508544921875,-349.794921875,-24.471359252929688,9.726089477539062
1776017221364502800,6.235502685546875,-350.50439453125,-24.539962768554688,9.701751708984375
1776017221374495500,6.24549560546875,-350.011474609375,-24.2491455078125,9.609359741210938
1776017221384487700,6.25548779296875,-349.92315673828125,-24.652557373046875,9.379196166992188
1776017221394479600,6.265479736328125,-349.72406005859375,-24.377349853515625,9.805740356445312
1776017221404472600,6.27547265625,-349.82891845703125,-24.34857177734375,9.543548583984375
1776017221414464500,6.285464599609375,-350.18310546875,-24.543930053710938,9.892791748046875
1776017221424458500,6.29545849609375,-350.5655517578125,-24.449432373046875,9.875045776367188
1776017221434451500,6.305451416015625,-350.10931396484375,-24.262054443359375,9.645187377929688
1776017221444444700,6.315444580078125,-350.53619384765625,-24.284805297851562,9.46270751953125
1776017221454439700,6.325439697265625,-350.134521484375,-24.169998168945312,9.573959350585938
1776017221464433700,6.33543359375,-349.9881591796875,-24.47943115234375,9.679183959960938
1776017221474427400,6.345427490234375,-350.60296630859375,-24.340911865234375,9.664382934570312
1776017221484420600,6.355420654296875,-350.2410888671875,-24.5572509765625,9.57171630859375
1776017221494413600,6.36541357421875,-349.5939025878906,-24.5816650390625,9.679458618164062
1776017221504406800,6.37540673828125,-350.2191162109375,-24.104171752929688,9.485458374023438
1776017221514399500,6.3853994140625,-349.6978759765625,-24.581207275390625,9.761917114257812
1776017221524392700,6.395392822265625,-349.68121337890625,-24.742950439453125,9.720703125
1776017221534384400,6.40538427734375,-349.89208984375,-24.973052978515625,9.562973022460938
1776017221544376600,6.41537646484375,-350.15985107421875,-25.011566162109375,9.724441528320312
1776017221554369800,6.425369873046875,-350.1170959472656,-24.7244873046875,9.371368408203125
1776017221564361500,6.435361572265625,-349.8338623046875,-24.699844360351562,9.803619384765625
1776017221574353400,6.445353515625,-350.4402770996094,-24.317306518554688,9.644332885742188
1776017221584345600,6.455345703125,-350.3455505371094,-24.278976440429688,9.665969848632812
1776017221594337500,6.465337646484375,-350.01708984375,-24.57696533203125,9.681488037109375
1776017221604329500,6.47532958984375,-349.64862060546875,-24.330657958984375,9.714920043945312
1776017221614322700,6.48532275390625,-349.6065673828125,-24.293182373046875,10.137664794921875
1776017221624315400,6.4953154296875,-349.48834228515625,-24.54534912109375,9.692474365234375
1776017221634306600,6.505306640625,-349.50885009765625,-24.535385131835938,9.566207885742188
1776017221644298500,6.515298583984375,-349.89910888671875,-24.894851684570312,9.573745727539062
1776017221654289400,6.525289306640625,-350.2318115234375,-24.491867065429688,9.819290161132812
1776017221664280600,6.535280517578125,-350.05517578125,-24.446807861328125,9.796066284179688
1776017221674271500,6.545271484375,-349.592529296875,-24.290420532226562,9.542404174804688
1776017221684262400,6.555262451171875,-350.1503601074219,-24.427398681640625,9.663253784179688
1776017221694254600,6.565254638671875,-349.99554443359375,-24.650375366210938,9.700546264648438
1776017221704246500,6.57524658203125,-350.1496887207031,-24.482925415039062,9.707778930664062
1776017221714239500,6.585239501953125,-349.62396240234375,-24.474151611328125,9.811614990234375
1776017221724231400,6.5952314453125,-349.63189697265625,-24.503707885742188,9.796279907226562
1776017221734223600,6.6052236328125,-349.4683837890625,-24.721481323242188,9.556411743164062
1776017221744216600,6.615216552734375,-349.7772216796875,-24.591781616210938,10.106658935546875
1776017221754208500,6.62520849609375,-350.0585021972656,-24.726516723632812,10.027099609375
1776017221764199400,6.635199462890625,-349.96807861328125,-24.991165161132812,10.08282470703125
1776017221774190600,6.645190673828125,-349.6988220214844,-24.618026733398438,10.100723266601562
1776017221784182500,6.6551826171875,-350.15716552734375,-24.495223999023438,9.924240112304688
1776017221794174700,6.6651748046875,-349.63189697265625,-24.548782348632812,10.086456298828125
1776017221804165600,6.67516552734375,-349.86328125,-24.58917236328125,9.832656860351562
1776017221814157600,6.685157470703125,-350.1468811035156,-24.580108642578125,9.897705078125
1776017221824148700,6.695148681640625,-349.6647644042969,-24.635879516601562,10.161865234375
1776017221834138600,6.705138671875,-350.1959228515625,-24.648086547851562,10.190689086914062
1776017221844127700,6.715127685546875,-350.5606689453125,-24.693222045898438,10.064315795898438
1776017221854119400,6.725119384765625,-350.19769287109375,-24.716720581054688,10.016632080078125
1776017221864110600,6.735110595703125,-349.839599609375,-24.486175537109375,9.802032470703125
1776017221874102500,6.7451025390625,-350.07196044921875,-24.871566772460938,10.052810668945312
1776017221884093400,6.755093505859375,-349.9723815917969,-24.971405029296875,9.914764404296875
1776017221894085600,6.765085693359375,-350.06884765625,-24.450347900390625,9.922866821289062
1776017221904077600,6.77507763671875,-349.89410400390625,-24.74615478515625,9.7259521484375
1776017221914069800,6.78506982421875,-349.7826843261719,-24.6097412109375,9.843704223632812
1776017221924060700,6.795060791015625,-350.1665344238281,-24.644256591796875,9.742630004882812
1776017221934052400,6.80505224609375,-350.34539794921875,-24.333953857421875,9.69000244140625
1776017221944044500,6.81504443359375,-350.374755859375,-24.562149047851562,9.939163208007812
1776017221954035500,6.825035400390625,-350.00518798828125,-24.478317260742188,10.036727905273438
1776017221964027600,6.835027587890625,-350.32989501953125,-24.540481567382812,9.751373291015625
1776017221974019600,6.84501953125,-350.41552734375,-24.72930908203125,9.95074462890625
1776017221984010500,6.855010498046875,-350.560791015625,-24.581390380859375,9.695892333984375
1776017221994002700,6.865002685546875,-350.36834716796875,-24.598358154296875,9.549392700195312
1776017222003993600,6.87499365234375,-350.6132507324219,-24.493515014648438,9.536697387695312
1776017222013983500,6.8849833984375,-350.5877685546875,-24.6500244140625,9.8193359375
1776017222023974700,6.894974609375,-351.12713623046875,-24.475021362304688,10.111221313476562
1776017222033965600,6.904965576171875,-350.3654479980469,-24.729629516601562,9.860855102539062
1776017222043957500,6.91495751953125,-350.22509765625,-24.539642333984375,9.959014892578125
1776017222053949700,6.92494970703125,-350.5352783203125,-24.729598999023438,9.721649169921875
1776017222063940600,6.934940673828125,-350.255615234375,-24.611251831054688,9.966705322265625
1776017222073930500,6.944930419921875,-350.2684631347656,-25.0211181640625,9.455703735351562
1776017222083922700,6.954922607421875,-350.552490234375,-24.585784912109375,9.592315673828125
1776017222093913600,6.96491357421875,-350.77252197265625,-24.652053833007812,9.60101318359375
1776017222103903500,6.974903564453125,-350.61944580078125,-24.381103515625,9.61871337890625
1776017222113894400,6.984894287109375,-350.4505615234375,-24.867904663085938,9.333358764648438
1776017222123885600,6.994885498046875,-350.2225341796875,-24.637954711914062,9.575119018554688
1776017222133877500,7.00487744140625,-350.49560546875,-24.726547241210938,9.497528076171875
1776017222143869700,7.01486962890625,-350.22723388671875,-24.69073486328125,9.813308715820312
1776017222153860600,7.024860595703125,-350.9676208496094,-24.637039184570312,9.707931518554688
1776017222163852800,7.034852783203125,-349.97412109375,-24.549224853515625,9.574020385742188
1776017222173844500,7.044844482421875,-350.01824951171875,-24.699752807617188,9.559188842773438
1776017222183837700,7.054837646484375,-349.7873840332031,-24.651214599609375,9.381927490234375
1776017222193829600,7.06482958984375,-349.9783935546875,-24.7576904296875,9.40277099609375
1776017222203824600,7.07482470703125,-349.935302734375,-24.742660522460938,9.500381469726562
1776017222213817600,7.084817626953125,-350.66259765625,-24.718460083007812,9.575729370117188
1776017222223811600,7.0948115234375,-350.620849609375,-24.778854370117188,9.742355346679688
1776017222233804500,7.104804443359375,-350.07537841796875,-24.758651733398438,9.530853271484375
1776017222243795700,7.114795654296875,-350.4888916015625,-24.779129028320312,9.647994995117188
1776017222253787600,7.12478759765625,-350.5321044921875,-24.717376708984375,9.582550048828125
1776017222263778800,7.13477880859375,-350.13897705078125,-24.525100708007812,9.594802856445312
1776017222273770800,7.144770751953125,-350.64654541015625,-24.675735473632812,9.5609130859375
1776017222283763000,7.154762939453125,-350.7340087890625,-24.967010498046875,9.795074462890625
1776017222293756700,7.164756591796875,-350.36016845703125,-24.989822387695312,9.5128173828125
1776017222303748900,7.174748779296875,-350.17236328125,-24.893844604492188,9.609085083007812
1776017222313740800,7.18474072265625,-350.4417724609375,-25.18878173828125,9.818527221679688
1776017222323732700,7.194732666015625,-350.53765869140625,-24.73699951171875,9.566207885742188
1776017222333727000,7.20472705078125,-350.5059814453125,-24.608642578125,9.56121826171875
1776017222343721000,7.214720947265625,-350.11712646484375,-24.746978759765625,9.70025634765625
1776017222353713000,7.224712890625,-350.242431640625,-24.831832885742188,9.260162353515625
1776017222363704800,7.234704833984375,-350.44036865234375,-24.531845092773438,9.605728149414062
1776017222373695700,7.24469580078125,-350.1104736328125,-24.53936767578125,9.344802856445312
1776017222383689000,7.25468896484375,-350.00213623046875,-24.832717895507812,9.580093383789062
1776017222393681700,7.264681640625,-350.4268798828125,-24.644607543945312,9.708724975585938
1776017222403673900,7.274673828125,-350.0265197753906,-24.7818603515625,9.548660278320312
1776017222413664800,7.284664794921875,-350.21514892578125,-24.89031982421875,9.534347534179688
1776017222423657000,7.294656982421875,-350.23175048828125,-25.010665893554688,9.766708374023438
1776017222433649000,7.30464892578125,-350.12750244140625,-24.957046508789062,9.513687133789062
1776017222443640800,7.314640869140625,-350.01507568359375,-24.495010375976562,9.537796020507812
1776017222453632800,7.3246328125,-350.69378662109375,-24.421539306640625,9.644943237304688
1776017222463624700,7.334624755859375,-350.6857604980469,-24.59002685546875,9.772125244140625
1776017222473617000,7.344616943359375,-350.30511474609375,-24.703414916992188,9.38665771484375
1776017222483607800,7.35460791015625,-350.1540222167969,-24.831161499023438,9.71136474609375
1776017222493600000,7.36460009765625,-350.7088623046875,-24.60614013671875,9.701339721679688
1776017222503591700,7.374591796875,-350.2356872558594,-24.630630493164062,9.233200073242188
1776017222513585000,7.3845849609375,-350.00738525390625,-25.14111328125,9.509521484375
1776017222523579000,7.394578857421875,-350.58984375,-25.0118408203125,9.340652465820312
1776017222533570800,7.40457080078125,-349.7693176269531,-25.135040283203125,9.342575073242188
1776017222543564800,7.414564697265625,-350.62310791015625,-25.107452392578125,9.4859619140625
1776017222553555700,7.4245556640625,-350.2009582519531,-25.0435791015625,9.339035034179688
1776017222563547000,7.434546875,-350.18701171875,-24.968551635742188,9.586761474609375
1776017222573538800,7.444538818359375,-350.25213623046875,-25.001510620117188,9.604339599609375
1776017222583529700,7.45452978515625,-350.4232482910156,-25.008163452148438,9.775070190429688
1776017222593521000,7.46452099609375,-350.8306579589844,-24.9501953125,9.726486206054688
1776017222603513600,7.474513671875,-350.63092041015625,-24.972854614257812,9.939544677734375
1776017222613506800,7.4845068359375,-350.2447509765625,-24.841171264648438,9.354217529296875
1776017222623499800,7.494499755859375,-350.706298828125,-24.636016845703125,9.443756103515625
1776017222633492700,7.50449267578125,-350.3765869140625,-24.908477783203125,9.241989135742188
1776017222643485000,7.51448486328125,-350.0899963378906,-25.009353637695312,9.097091674804688
1776017222653475800,7.524475830078125,-350.18145751953125,-25.0809326171875,9.572433471679688
1776017222663467800,7.5344677734375,-350.25054931640625,-25.179229736328125,9.522659301757812
1776017222673459700,7.544459716796875,-350.2039794921875,-25.108367919921875,9.532867431640625
1776017222683448800,7.55444873046875,-350.2125244140625,-25.098114013671875,9.692672729492188
1776017222693439700,7.564439697265625,-350.2483215332031,-25.178237915039062,9.4990234375
1776017222703431000,7.574430908203125,-350.36944580078125,-25.147323608398438,9.259979248046875
1776017222713421800,7.584421875,-350.21990966796875,-25.198028564453125,9.3560791015625
1776017222723412700,7.594412841796875,-350.2447509765625,-25.200759887695312,9.358917236328125
1776017222733404000,7.60440380859375,-350.13226318359375,-25.031524658203125,9.426132202148438
1776017222743393800,7.614393798828125,-350.45635986328125,-25.048141479492188,9.410308837890625
1776017222753384700,7.624384765625,-350.26251220703125,-25.09112548828125,9.1644287109375
1776017222763375900,7.6343759765625,-349.87646484375,-24.948745727539062,9.409515380859375
1776017222773367000,7.644366943359375,-350.1343994140625,-24.782180786132812,9.131744384765625
1776017222783358000,7.65435791015625,-350.025634765625,-25.032028198242188,9.2294921875
1776017222793347800,7.664347900390625,-350.363525390625,-24.65570068359375,9.382003784179688
1776017222803338800,7.6743388671875,-350.14508056640625,-25.009490966796875,9.4384765625
1776017222813330000,7.684329833984375,-350.6953125,-24.7957763671875,9.368576049804688
1776017222823320800,7.69432080078125,-350.0144958496094,-24.810440063476562,9.4281005859375
1776017222833314000,7.70431396484375,-350.5195007324219,-24.688858032226562,9.312332153320312
1776017222843305700,7.7143056640625,-349.96490478515625,-24.69049072265625,9.348129272460938
1776017222853295900,7.7242958984375,-350.4118957519531,-24.94451904296875,9.016693115234375
1776017222863287800,7.734287841796875,-349.8624267578125,-24.775772094726562,9.333419799804688
1776017222873279700,7.74427978515625,-350.5545654296875,-24.944992065429688,9.28033447265625
1776017222883272000,7.75427197265625,-349.996337890625,-24.710891723632812,9.074005126953125
1776017222893264000,7.764263916015625,-349.95477294921875,-25.1778564453125,9.246780395507812
1776017222903256000,7.774256103515625,-350.25994873046875,-25.140655517578125,9.264694213867188
1776017222913247700,7.784247802734375,-349.85400390625,-25.288787841796875,9.348739624023438
1776017222923238700,7.79423876953125,-349.81182861328125,-25.037460327148438,9.462799072265625
1776017222933229800,7.804229736328125,-350.1678771972656,-24.959487915039062,9.172393798828125
1776017222943221800,7.8142216796875,-349.7439880371094,-25.166702270507812,9.226516723632812
1776017222953214000,7.8242138671875,-350.05584716796875,-25.195693969726562,9.311813354492188
1776017222963206000,7.834205810546875,-350.1551818847656,-24.756622314453125,9.21209716796875
1776017222973197800,7.84419775390625,-349.771484375,-25.0360107421875,9.14495849609375
1776017222983191800,7.85419189453125,-349.47772216796875,-25.0030517578125,9.217666625976562
1776017222993184800,7.864184814453125,-349.75140380859375,-24.7000732421875,9.134048461914062
1776017223003178800,7.8741787109375,-349.7493896484375,-24.824081420898438,8.965927124023438
1776017223013173000,7.884173095703125,-349.791748046875,-24.58526611328125,9.176162719726562
1776017223023166000,7.894166015625,-349.5860595703125,-24.590530395507812,9.176071166992188
1776017223033159700,7.90415966796875,-349.76373291015625,-24.979248046875,8.859909057617188
1776017223043153700,7.914153564453125,-350.1124267578125,-24.98223876953125,9.232315063476562
1776017223053147000,7.92414697265625,-349.7657470703125,-24.724258422851562,9.159561157226562
1776017223063139800,7.934139892578125,-349.9832763671875,-24.483245849609375,9.037857055664062
1776017223073133800,7.9441337890625,-349.84649658203125,-24.605178833007812,8.823196411132812
1776017223083127800,7.9541279296875,-350.0500183105469,-24.738922119140625,8.807403564453125
1776017223093120800,7.964120849609375,-350.3924255371094,-24.895339965820312,8.717636108398438
1776017223103114800,7.97411474609375,-349.2967529296875,-24.617965698242188,8.869491577148438
1776017223113109000,7.98410888671875,-349.0353698730469,-24.657089233398438,8.944259643554688
1776017223123103000,7.99410302734375,-349.0979309082031,-24.6995849609375,8.914260864257812
1776017223133097000,8.004096923828126,-350.1443176269531,-24.827423095703125,8.995529174804688
1776017223143089700,8.014089599609376,-350.26788330078125,-24.530685424804688,8.945556640625
1776017223153084000,8.024083984375,-350.350830078125,-24.254974365234375,8.755447387695312
1776017223163076900,8.034076904296874,-349.9530029296875,-24.347137451171875,9.054214477539062
1776017223173068800,8.04406884765625,-349.6032409667969,-24.546661376953125,8.70050048828125
1776017223183061800,8.054061767578125,-350.1285400390625,-24.513778686523438,8.813690185546875
1776017223193053700,8.0640537109375,-349.9721374511719,-24.551315307617188,8.84619140625
1776017223203046000,8.0740458984375,-349.7744140625,-24.6854248046875,8.896240234375
1776017223213039900,8.084039794921875,-349.5958251953125,-24.711654663085938,8.757171630859375
1776017223223032800,8.09403271484375,-349.75787353515625,-24.556381225585938,8.877517700195312
1776017223233025800,8.10402587890625,-350.03436279296875,-24.325485229492188,8.60162353515625
1776017223243018800,8.114018798828125,-350.1442565917969,-24.402053833007812,8.844970703125
1776017223253010000,8.124010009765625,-350.1523742675781,-24.291336059570312,9.017791748046875
1776017223263002000,8.134002197265625,-349.4016418457031,-24.15423583984375,8.808685302734375
1776017223272993000,8.143992919921875,-349.90069580078125,-24.54461669921875,8.887710571289062
1776017223282986200,8.153986328125,-349.81414794921875,-24.375656127929688,8.842636108398438
1776017223292980200,8.163980224609375,-349.79296875,-24.6270751953125,8.994766235351562
1776017223302972200,8.17397216796875,-349.56427001953125,-24.509231567382812,8.815414428710938
1776017223312966100,8.183966064453125,-350.17572021484375,-24.609359741210938,9.201980590820312
1776017223322959000,8.193958984375,-350.35858154296875,-24.546768188476562,9.150177001953125
1776017223332952000,8.2039521484375,-349.76025390625,-24.74249267578125,8.964874267578125
1776017223342944300,8.2139443359375,-349.768798828125,-24.45440673828125,8.99072265625
1776017223352937200,8.223937255859376,-349.4123229980469,-24.502914428710938,8.70855712890625
1776017223362930200,8.23393017578125,-349.441650390625,-24.317352294921875,8.571380615234375
1776017223372924200,8.243924072265624,-349.758544921875,-24.270187377929688,8.482467651367188
1776017223382918100,8.253918212890625,-349.74285888671875,-24.7376708984375,8.644363403320312
1776017223392911000,8.2639111328125,-350.2362976074219,-24.480987548828125,8.630020141601562
1776017223402903000,8.273903076171875,-350.18353271484375,-25.019577026367188,8.691070556640625
1776017223412896300,8.283896240234375,-350.1710205078125,-24.7015380859375,8.742401123046875
1776017223422889200,8.29388916015625,-349.96221923828125,-24.52886962890625,8.5994873046875
1776017223432881200,8.303881103515625,-350.2220153808594,-24.762710571289062,8.797836303710938
1776017223442872000,8.3138720703125,-350.05712890625,-24.734146118164062,8.65875244140625
1776017223452864300,8.3238642578125,-350.1165771484375,-25.10888671875,8.5081787109375
1776017223462857000,8.33385693359375,-349.7523193359375,-24.964279174804688,8.747772216796875
1776017223472850200,8.34385009765625,-349.58184814453125,-24.75323486328125,8.716445922851562
1776017223482843100,8.353843017578125,-350.0291442871094,-24.752456665039062,8.880813598632812
1776017223492835000,8.3638349609375,-349.7645263671875,-24.824432373046875,8.640304565429688
1776017223502828000,8.373828125,-349.507080078125,-25.084381103515625,8.732070922851562
1776017223512821200,8.3838212890625,-349.930419921875,-24.993820190429688,8.957763671875
1776017223522814000,8.39381396484375,-350.1676025390625,-24.38470458984375,8.240020751953125
1776017223532807200,8.40380712890625,-349.62847900390625,-24.6361083984375,8.796951293945312
1776017223542799000,8.413799072265626,-349.69134521484375,-25.136306762695312,8.904281616210938
1776017223552791000,8.423791015625,-350.0012512207031,-25.134429931640625,8.762344360351562
1776017223562783000,8.433782958984375,-349.219482421875,-25.323944091796875,8.873779296875
1776017223572775200,8.443775146484375,-349.4665832519531,-25.083282470703125,8.736953735351562
1776017223582766000,8.45376611328125,-349.59442138671875,-25.066177368164062,8.7197265625
1776017223592758300,8.46375830078125,-349.68902587890625,-25.57904052734375,8.888046264648438
1776017223602750000,8.47375,-349.410888671875,-25.552505493164062,8.639480590820312
1776017223612742100,8.4837421875,-349.9057312011719,-25.386093139648438,8.669021606445312
1776017223622734000,8.493734130859375,-349.49200439453125,-25.587188720703125,8.73614501953125
1776017223632727000,8.50372705078125,-349.565185546875,-25.60687255859375,8.897476196289062
1776017223642721300,8.51372119140625,-349.2193603515625,-25.536956787109375,8.635040283203125
1776017223652713000,8.523712890625,-349.5386962890625,-25.318572998046875,8.706268310546875
1776017223662706200,8.5337060546875,-349.3690185546875,-25.842926025390625,8.70098876953125
1776017223672699100,8.54369921875,-349.605224609375,-25.626663208007812,8.849945068359375
1776017223682691000,8.553691162109375,-349.23828125,-25.96209716796875,8.664260864257812
1776017223692683300,8.563683349609375,-349.5466003417969,-26.161361694335938,8.77325439453125
1776017223702675200,8.57367529296875,-350.61566162109375,-26.215545654296875,8.802444458007812
1776017223712667100,8.583667236328125,-350.0679931640625,-25.89862060546875,8.785964965820312
1776017223722660000,8.59366015625,-349.1178283691406,-26.07330322265625,8.703323364257812
1776017223732653000,8.603653076171875,-349.844970703125,-26.081649780273438,9.04974365234375
1776017223742645000,8.61364501953125,-349.7579650878906,-26.0772705078125,8.73040771484375
1776017223752636200,8.62363623046875,-349.72930908203125,-26.17889404296875,8.7161865234375
1776017223762627000,8.633626953125,-349.33758544921875,-26.0721435546875,8.81842041015625
1776017223772621000,8.64362109375,-349.55810546875,-25.90802001953125,8.892471313476562
1776017223782614300,8.6536142578125,-349.2822265625,-26.041168212890625,8.849517822265625
1776017223792608000,8.66360791015625,-350.3233642578125,-25.764678955078125,8.764633178710938
1776017223802603000,8.67360302734375,-350.0652160644531,-25.900970458984375,9.131591796875
1776017223812597000,8.683596923828125,-350.072998046875,-25.785369873046875,8.962371826171875
1776017223822590200,8.693590087890625,-350.46685791015625,-25.86444091796875,9.086074829101562
1776017223832584200,8.703584228515625,-350.1946716308594,-25.679580688476562,9.614578247070312
1776017223842577200,8.7135771484375,-350.60888671875,-25.884674072265625,9.884048461914062
1776017223852570000,8.723570068359376,-350.4943542480469,-25.799774169921875,9.890426635742188
1776017223862564000,8.733564208984374,-350.05987548828125,-26.077423095703125,10.418212890625
1776017223872556300,8.743556396484376,-350.34735107421875,-26.349990844726562,10.68145751953125
1776017223882550000,8.753550048828124,-350.60369873046875,-26.748291015625,10.774398803710938
1776017223892543000,8.76354296875,-350.605224609375,-26.67523193359375,11.069503784179688
1776017223902536200,8.7735361328125,-350.8805847167969,-26.868377685546875,11.340805053710938
1776017223912530200,8.7835302734375,-350.6036071777344,-26.758010864257812,11.534194946289062
1776017223922523100,8.793523193359375,-351.4632568359375,-26.887237548828125,11.224533081054688
1776017223932517000,8.80351708984375,-350.8348388671875,-27.144882202148438,11.449951171875
1776017223942510000,8.813510009765626,-350.9698791503906,-27.231185913085938,11.586395263671875
1776017223952503300,8.82350341796875,-351.12481689453125,-27.425872802734375,11.684463500976562
1776017223962496000,8.83349609375,-350.7667236328125,-27.669403076171875,11.722259521484375
1776017223972490000,8.843489990234374,-350.5730895996094,-27.559707641601562,11.808364868164062
1776017223982481000,8.85348095703125,-350.5767517089844,-27.684478759765625,11.698287963867188
1776017223992475100,8.86347509765625,-350.69970703125,-28.041656494140625,11.735855102539062
1776017224002468000,8.873468017578125,-350.7868957519531,-27.94097900390625,11.835037231445312
1776017224012459000,8.883458984375,-350.7994384765625,-28.085342407226562,11.731796264648438
1776017224022451200,8.893451171875,-350.6675720214844,-27.89105224609375,11.864181518554688
1776017224032443100,8.903443115234374,-350.384033203125,-28.210708618164062,11.770278930664062
1776017224042434300,8.913434326171876,-350.34161376953125,-28.370895385742188,12.28143310546875
1776017224052427000,8.923427001953126,-350.0262451171875,-28.630233764648438,11.75274658203125
1776017224062418200,8.933418212890626,-350.4210510253906,-28.900466918945312,11.565521240234375
1776017224072410000,8.94341015625,-350.6026611328125,-29.170852661132812,12.132293701171875
1776017224082402300,8.95340234375,-349.68585205078125,-29.3485107421875,12.249267578125
1776017224092394200,8.963394287109375,-349.8873291015625,-29.58740234375,12.371047973632812
1776017224102385200,8.97338525390625,-349.30902099609375,-30.15643310546875,12.21588134765625
1776017224112376300,8.983376220703125,-349.3922424316406,-30.550323486328125,12.773910522460938
1776017224122367200,8.9933671875,-349.26861572265625,-30.619522094726562,12.8017578125
1776017224132358100,9.003358154296874,-349.3912048339844,-31.321914672851562,13.111572265625
1776017224142351000,9.01335107421875,-349.39788818359375,-31.17132568359375,13.305084228515625
1776017224152343000,9.023343017578124,-349.40771484375,-31.814056396484375,13.628585815429688
1776017224162337000,9.0333369140625,-349.4661560058594,-32.06016540527344,13.534957885742188
1776017224172330200,9.043330322265625,-349.6937561035156,-32.4149169921875,13.592498779296875
1776017224182323200,9.0533232421875,-349.8526916503906,-32.38592529296875,13.883026123046875
1776017224192317000,9.06331689453125,-350.13433837890625,-32.63165283203125,13.92926025390625
1776017224202309000,9.07330908203125,-349.708740234375,-33.01033020019531,14.18841552734375
1776017224212301000,9.083301025390625,-349.6221923828125,-33.331451416015625,14.718765258789062
1776017224222294000,9.0932939453125,-349.5548400878906,-33.937164306640625,14.736129760742188
1776017224232289000,9.1032890625,-349.41131591796875,-33.861572265625,15.102188110351562
1776017224242281200,9.11328125,-348.3336181640625,-34.55201721191406,15.184173583984375
1776017224252275000,9.12327490234375,-349.06689453125,-34.806884765625,15.199722290039062
1776017224262269000,9.13326904296875,-349.30377197265625,-35.16864013671875,15.530380249023438
1776017224272262000,9.143261962890625,-348.9867248535156,-35.600555419921875,15.962356567382812
1776017224282256000,9.153255859375,-348.98443603515625,-35.824920654296875,16.23504638671875
1776017224292249000,9.1632490234375,-348.82391357421875,-36.69966125488281,16.571487426757812
1776017224302242000,9.173241943359375,-348.7470703125,-36.94694519042969,16.793746948242188
1776017224312235800,9.18323583984375,-348.57403564453125,-37.83154296875,17.428359985351562
1776017224322229800,9.193229736328124,-348.80419921875,-38.01612854003906,17.646560668945312
1776017224332224000,9.20322412109375,-348.02728271484375,-38.44123840332031,17.877655029296875
1776017224342218000,9.213218017578125,-347.91448974609375,-39.05366516113281,18.324325561523438
1776017224352213000,9.223212890625,-348.0236511230469,-39.51478576660156,18.837814331054688
1776017224362207000,9.23320703125,-348.1006164550781,-39.94810485839844,19.332443237304688
1776017224372201000,9.243200927734375,-348.323486328125,-40.19160461425781,20.025375366210938
1776017224382194000,9.25319384765625,-347.56475830078125,-40.41802978515625,20.449462890625
1776017224392188000,9.26318798828125,-347.6671142578125,-40.611602783203125,20.727615356445312
1776017224402180900,9.273180908203125,-347.59600830078125,-40.798065185546875,21.424346923828125
1776017224412173000,9.283173095703125,-347.45086669921875,-40.866363525390625,21.293045043945312
1776017224422165800,9.293165771484375,-348.07525634765625,-40.96522521972656,21.6502685546875
1776017224432159000,9.303158935546875,-347.8514099121094,-41.251678466796875,21.682647705078125
1776017224442152000,9.31315185546875,-347.70013427734375,-41.10150146484375,21.717117309570312
1776017224452145000,9.323144775390626,-347.43304443359375,-41.25883483886719,22.02752685546875
1776017224462137900,9.333137939453126,-347.3038330078125,-40.833251953125,21.323257446289062
1776017224472131000,9.343131103515624,-347.091552734375,-40.928192138671875,21.116851806640625
1776017224482123000,9.353123046875,-347.2012939453125,-40.8067626953125,21.603729248046875
1776017224492116000,9.363115966796874,-347.37786865234375,-41.04875183105469,21.350296020507812
1776017224502110000,9.37310986328125,-347.6402893066406,-40.89076232910156,20.870697021484375
1776017224512104000,9.38310400390625,-347.4404602050781,-40.790130615234375,20.856338500976562
1776017224522097000,9.393096923828125,-347.65399169921875,-40.576873779296875,20.9439697265625
1776017224532091000,9.4030908203125,-347.80426025390625,-41.164764404296875,20.71527099609375
1776017224542084900,9.4130849609375,-347.2962646484375,-40.813873291015625,21.086624145507812
1776017224552078000,9.423078125,-347.2611083984375,-40.963134765625,21.472183227539062
1776017224562072000,9.433072021484374,-347.42230224609375,-40.6827392578125,21.305084228515625
1776017224572065800,9.443065673828125,-348.28424072265625,-40.777496337890625,21.83648681640625
1776017224582058000,9.45305810546875,-347.6041259765625,-41.0931396484375,21.93707275390625
1776017224592050000,9.4630498046875,-347.23516845703125,-41.12959289550781,21.990219116210938
1776017224602041000,9.473041015625,-348.4681701660156,-41.2552490234375,22.1182861328125
1776017224612032800,9.48303271484375,-348.2696533203125,-40.796722412109375,22.636062622070312
1776017224622026000,9.49302587890625,-348.28045654296875,-41.1414794921875,23.167770385742188
1776017224632018000,9.503017822265624,-347.78289794921875,-40.68705749511719,22.943649291992188
1776017224642009900,9.513009765625,-347.6697998046875,-40.73817443847656,22.771408081054688
1776017224652003000,9.523003173828124,-348.19403076171875,-40.51371765136719,23.006317138671875
1776017224661995000,9.5329951171875,-347.8636779785156,-40.83592224121094,23.407562255859375
1776017224671988000,9.542988037109374,-347.69775390625,-40.84521484375,23.378219604492188
1776017224681982000,9.55298193359375,-348.2105712890625,-40.753570556640625,23.166641235351562
1776017224691977000,9.56297705078125,-348.5374755859375,-40.537689208984375,22.915679931640625
1776017224701971000,9.572970947265626,-348.2523498535156,-40.84248352050781,23.120559692382812
1776017224711965000,9.58296484375,-348.7564697265625,-40.41471862792969,22.460800170898438
1776017224721961000,9.5929609375,-349.0936279296875,-39.94538879394531,22.513763427734375
1776017224731956000,9.6029560546875,-349.7682189941406,-39.2501220703125,22.400726318359375
1776017224741949000,9.612948974609376,-349.51287841796875,-37.95555114746094,22.52978515625
1776017224751942000,9.62294189453125,-351.53564453125,-36.70140075683594,22.237564086914062
1776017224761936000,9.632935791015624,-351.92303466796875,-34.75584411621094,22.440902709960938
1776017224771927800,9.642927734375,-353.8074645996094,-32.90476989746094,22.17034912109375
1776017224781921800,9.652921875,-353.7862548828125,-31.732345581054688,22.10498046875
1776017224791915000,9.6629150390625,-354.2143249511719,-31.175689697265625,22.381973266601562
1776017224801908000,9.672907958984375,-354.53778076171875,-30.231063842773438,22.805130004882812
1776017224811901000,9.68290087890625,-355.1608581542969,-30.644378662109375,23.69757080078125
1776017224821896000,9.69289599609375,-354.526123046875,-31.214508056640625,24.217132568359375
1776017224831892000,9.70289208984375,-354.5267028808594,-32.063629150390625,25.180908203125
1776017224841887000,9.712886962890625,-353.50897216796875,-33.28916931152344,25.84906005859375
1776017224851881000,9.722880859375,-353.21466064453125,-35.589263916015625,26.298110961914062
1776017224861873000,9.732872802734375,-351.99029541015625,-36.87200927734375,24.730514526367188
1776017224871865000,9.742864990234375,-350.4447021484375,-37.34162902832031,21.20050048828125
1776017224881857800,9.75285791015625,-348.5898132324219,-38.05604553222656,17.331314086914062
1776017224891851800,9.762851806640626,-345.83038330078125,-39.1572265625,13.422454833984375
1776017224901843000,9.772843017578126,-343.00341796875,-40.28752136230469,10.279388427734375
1776017224911835000,9.7828349609375,-340.319091796875,-41.86283874511719,9.218353271484375
1776017224921828000,9.792828125,-339.0468444824219,-42.07911682128906,8.546981811523438
1776017224931820000,9.802820068359376,-339.2601318359375,-42.04539489746094,8.196380615234375
1776017224941813000,9.81281298828125,-339.5277404785156,-41.87327575683594,8.275802612304688
1776017224951804000,9.822803955078125,-340.50408935546875,-41.00701904296875,8.825424194335938
1776017224961796000,9.832796142578125,-341.69525146484375,-40.58702087402344,9.8997802734375
1776017224971788000,9.8427880859375,-342.9549560546875,-39.801788330078125,10.348220825195312
1776017224981782000,9.852781982421876,-342.844970703125,-38.830352783203125,9.767379760742188
1776017224991776000,9.86277587890625,-342.89215087890625,-38.15934753417969,9.187408447265625
1776017225001771000,9.87277099609375,-342.23236083984375,-37.6556396484375,7.7229766845703125
1776017225011765000,9.882764892578125,-341.91705322265625,-37.46484375,6.5013427734375
1776017225021759000,9.892759033203125,-341.37664794921875,-36.964874267578125,5.238616943359375
1776017225031753000,9.9027529296875,-340.0723876953125,-36.42176818847656,4.25738525390625
1776017225041747000,9.912746826171874,-338.5029296875,-36.76220703125,2.9696044921875
1776017225051740000,9.922739990234374,-337.2233581542969,-36.89967346191406,1.6880035400390625
1776017225061733000,9.932733154296875,-334.8486328125,-36.86393737792969,0.373138427734375
1776017225071725800,9.942725830078125,-332.3089599609375,-36.81217956542969,-1.2728424072265625
1776017225081719000,9.952718994140625,-330.6112060546875,-36.49974060058594,-2.4588470458984375
1776017225091713000,9.962713134765625,-328.4967346191406,-36.09580993652344,-3.88494873046875
1776017225101707000,9.97270703125,-326.7460021972656,-35.47160339355469,-4.72998046875
1776017225111700000,9.982699951171876,-324.55975341796875,-34.794097900390625,-5.774444580078125
1776017225121693000,9.99269287109375,-321.91943359375,-34.009918212890625,-6.7235260009765625
1776017225131685000,10.00268505859375,-320.422119140625,-32.87254333496094,-7.9147796630859375
1776017225141677800,10.012677734375,-317.6617431640625,-32.169677734375,-8.722930908203125
1776017225151670000,10.022669921875,-315.7427062988281,-31.235153198242188,-9.821273803710938
1776017225161662000,10.032661865234376,-313.490478515625,-29.838699340820312,-10.3055419921875
1776017225171654000,10.04265380859375,-311.49725341796875,-28.482345581054688,-10.790237426757812
1776017225181647000,10.052647216796874,-309.2071533203125,-27.386474609375,-11.081741333007812
1776017225191639000,10.06263916015625,-307.70648193359375,-25.633270263671875,-11.512252807617188
1776017225201632000,10.072632080078124,-305.34429931640625,-23.914230346679688,-11.904037475585938
1776017225211626000,10.0826259765625,-303.5885009765625,-22.61724853515625,-11.596466064453125
1776017225221619000,10.092618896484375,-301.17303466796875,-20.633346557617188,-11.685089111328125
1776017225231612000,10.10261181640625,-298.9770812988281,-19.066757202148438,-11.56597900390625
1776017225241606000,10.11260595703125,-296.5616455078125,-17.55841064453125,-10.838134765625
1776017225251600000,10.122599853515625,-294.38751220703125,-15.890701293945312,-10.318008422851562
1776017225261593900,10.13259375,-292.73699951171875,-14.646408081054688,-9.22943115234375
1776017225271586600,10.142586669921876,-290.1756286621094,-14.045684814453125,-8.45477294921875
1776017225281579800,10.152579833984374,-288.82598876953125,-12.841049194335938,-7.646759033203125
1776017225291572000,10.162572021484374,-286.457763671875,-11.757278442382812,-6.6486053466796875
1776017225301564700,10.172564697265624,-286.40289306640625,-10.947921752929688,-6.0667266845703125
1776017225311556900,10.182556884765624,-285.9210205078125,-9.750930786132812,-5.6165008544921875
1776017225321548800,10.192548828125,-285.746826171875,-8.231979370117188,-5.6107635498046875
1776017225331541800,10.202541748046874,-285.90704345703125,-6.7427215576171875,-5.38763427734375
1776017225341533700,10.21253369140625,-286.13470458984375,-6.0004730224609375,-5.7611846923828125
1776017225351526000,10.22252587890625,-287.3704833984375,-4.13287353515625,-5.8677978515625
1776017225361517600,10.232517578125,-287.7282409667969,-3.5121612548828125,-6.2146148681640625
1776017225371510800,10.2425107421875,-288.0085144042969,-2.911956787109375,-6.686279296875
1776017225381503700,10.252503662109374,-289.4315185546875,-1.812957763671875,-6.647674560546875
1776017225391496700,10.26249658203125,-290.87567138671875,-0.955413818359375,-7.10589599609375
1776017225401490700,10.27249072265625,-291.7336120605469,0.3459014892578125,-7.1047210693359375
1776017225411483600,10.282483642578125,-293.0072021484375,0.742431640625,-7.4091033935546875
1776017225421478000,10.292477783203125,-293.2034912109375,1.562774658203125,-7.10760498046875
1776017225431473000,10.302472900390624,-293.43017578125,1.817718505859375,-7.0537109375
1776017225441465900,10.3124658203125,-293.41156005859375,2.1998291015625,-7.028778076171875
1776017225451459600,10.32245947265625,-292.9488525390625,2.5426025390625,-6.6778717041015625
1776017225461453600,10.33245361328125,-292.24578857421875,2.5184478759765625,-6.50262451171875
1776017225471446800,10.34244677734375,-292.38812255859375,3.2063446044921875,-6.3410186767578125
1776017225481440800,10.352440673828125,-290.8804931640625,2.6343231201171875,-6.08245849609375
1776017225491432700,10.3624326171875,-290.246337890625,2.5980224609375,-5.6081085205078125
1776017225501425700,10.37242578125,-289.8773193359375,2.898193359375,-5.1098480224609375
1776017225511419600,10.382419677734376,-289.2895202636719,3.0999603271484375,-4.877288818359375
1776017225521414000,10.392413818359374,-288.51348876953125,3.4376373291015625,-4.111328125
1776017225531408000,10.402407958984375,-288.10125732421875,4.0930938720703125,-3.8184356689453125
1776017225541401600,10.412401611328125,-288.5585021972656,4.152587890625,-3.9881439208984375
1776017225551395600,10.4223955078125,-288.11822509765625,4.8698577880859375,-3.90045166015625
1776017225561389600,10.4323896484375,-289.09881591796875,5.032135009765625,-4.0513458251953125
1776017225571382800,10.4423828125,-289.4246826171875,5.1709442138671875,-4.3394317626953125
1776017225581376800,10.452376708984374,-290.52484130859375,5.090728759765625,-4.4590606689453125
1776017225591371800,10.462371826171875,-290.515380859375,4.9189453125,-4.936798095703125
1776017225601366800,10.47236669921875,-291.27532958984375,5.129180908203125,-5.398193359375
1776017225611359700,10.48235986328125,-292.6291198730469,5.2778167724609375,-5.7407073974609375
1776017225621353700,10.492353759765624,-294.0625,4.9663543701171875,-6.242645263671875
1776017225631345700,10.502345703125,-296.33929443359375,4.97662353515625,-7.0538482666015625
1776017225641340000,10.51233984375,-297.8961181640625,4.9600830078125,-8.174606323242188
1776017225651332900,10.522332763671875,-300.5975646972656,4.5203704833984375,-8.994155883789062
1776017225661328000,10.532327880859375,-303.40167236328125,3.7445068359375,-9.646575927734375
1776017225671323000,10.542322998046876,-307.05548095703125,3.3962554931640625,-10.280853271484375
1776017225681318000,10.55231787109375,-310.89447021484375,2.6259613037109375,-10.884490966796875
1776017225691311900,10.562311767578125,-313.693603515625,1.9880218505859375,-10.712631225585938
1776017225701304600,10.5723046875,-316.3846435546875,1.594879150390625,-10.273468017578125
1776017225711298800,10.582298828125,-319.28411865234375,1.5370941162109375,-10.284103393554688
1776017225721293600,10.59229345703125,-321.52020263671875,1.6823272705078125,-9.74884033203125
1776017225731287800,10.602287841796874,-323.7691650390625,1.372314453125,-8.913116455078125
1776017225741282800,10.61228271484375,-325.9196472167969,1.758331298828125,-8.09417724609375
1776017225751277600,10.622277587890625,-327.99188232421875,1.5733795166015625,-7.35211181640625
1776017225761272600,10.6322724609375,-330.72503662109375,1.1063690185546875,-6.63104248046875
1776017225771267600,10.642267578125,-332.969482421875,1.018157958984375,-5.5300140380859375
1776017225781261600,10.652261474609375,-334.96832275390625,0.659942626953125,-4.244598388671875
1776017225791257900,10.6622578125,-336.6251220703125,0.3987274169921875,-3.0497894287109375
1776017225801254000,10.67225390625,-337.72314453125,-0.088653564453125,-2.035614013671875
1776017225811249000,10.682248779296875,-339.79541015625,-0.3997039794921875,-1.155792236328125
1776017225821243600,10.69224365234375,-341.4874267578125,-0.521453857421875,0.192779541015625
1776017225831238700,10.70223876953125,-342.5814208984375,-0.7086944580078125,1.365478515625
1776017225841233000,10.71223291015625,-343.9796142578125,-0.7176971435546875,2.619720458984375
1776017225851227000,10.722226806640625,-345.0101013183594,-0.6527862548828125,3.948211669921875
1776017225861222000,10.732221923828124,-345.98089599609375,-0.8582611083984375,5.8072509765625
1776017225871217000,10.742216796875,-347.5369873046875,-0.777069091796875,7.5113372802734375
1776017225881208600,10.75220849609375,-348.41998291015625,-1.0572052001953125,9.303756713867188
1776017225891202800,10.762202880859375,-350.1698303222656,-1.094818115234375,11.40447998046875
1776017225901196800,10.77219677734375,-352.1185302734375,-0.793609619140625,14.9967041015625
1776017225911189800,10.782189697265625,-352.7333984375,-0.50372314453125,18.386489868164062
1776017225921182700,10.7921826171875,-354.1829833984375,-0.030792236328125,22.865951538085938
1776017225931175700,10.80217578125,-355.5580749511719,0.027801513671875,27.182968139648438
1776017225941167900,10.81216796875,-355.94073486328125,-0.42333984375,31.357467651367188
1776017225951159800,10.822159912109376,-356.15667724609375,-0.71685791015625,36.21617126464844
1776017225961153800,10.83215380859375,-355.9466552734375,-0.503173828125,40.28788757324219
1776017225971147800,10.842147705078125,-354.593994140625,-0.55462646484375,44.626373291015625
1776017225981141800,10.852141845703125,-353.0920715332031,-0.0470733642578125,48.45793151855469
1776017225991135700,10.8621357421875,-352.531982421875,0.4896697998046875,51.4022216796875
1776017226001128700,10.872128662109375,-350.5400390625,1.233978271484375,54.15303039550781
1776017226011122700,10.882122802734376,-349.2974548339844,1.11187744140625,55.808807373046875
1776017226021117700,10.89211767578125,-348.81036376953125,1.4118194580078125,57.01249694824219
1776017226031111700,10.902111572265625,-348.606201171875,1.1565093994140625,57.08447265625
1776017226041106700,10.912106689453125,-348.5836181640625,0.6790313720703125,57.067169189453125
1776017226051101700,10.922101806640624,-348.63616943359375,0.2010498046875,57.660552978515625
1776017226061097700,10.93209765625,-348.9060974121094,-0.134063720703125,57.74378967285156
1776017226071091700,10.942091796875,-349.3306884765625,-0.880889892578125,57.587615966796875
1776017226081086700,10.952086669921876,-349.14483642578125,-0.7009124755859375,57.567901611328125
1776017226091082000,10.96208203125,-349.33612060546875,-1.290435791015625,57.232421875
1776017226101076700,10.97207666015625,-348.99847412109375,-1.650787353515625,57.65815734863281
1776017226111070700,10.98207080078125,-349.50634765625,-2.0993804931640625,57.7845458984375
1776017226121064700,10.992064697265626,-349.34619140625,-2.42401123046875,58.52952575683594
1776017226131058700,11.00205859375,-348.21240234375,-2.3227386474609375,59.150909423828125
1776017226141053700,11.0120537109375,-347.7110595703125,-2.11077880859375,60.36018371582031
1776017226151049700,11.0220498046875,-346.82781982421875,-1.6887359619140625,60.69981384277344
1776017226161043700,11.032043701171874,-346.43585205078125,-2.010009765625,61.26191711425781
1776017226171037700,11.04203759765625,-346.5064697265625,-2.0444183349609375,61.4283447265625
1776017226181031700,11.05203173828125,-346.64544677734375,-1.638641357421875,61.44224548339844
1776017226191026700,11.062026611328125,-346.47320556640625,-1.4370574951171875,61.34361267089844
1776017226201020700,11.072020751953126,-347.0113525390625,-1.144683837890625,60.85490417480469
1776017226211014700,11.0820146484375,-346.856201171875,-1.2599029541015625,60.838165283203125
1776017226221009700,11.092009765625,-346.44635009765625,-1.352630615234375,60.87940979003906
1776017226231004700,11.102004638671875,-346.26641845703125,-0.922088623046875,61.31684875488281
1776017226240998700,11.11199853515625,-345.885498046875,-1.0033416748046875,62.28074645996094
1776017226250991900,11.121991943359374,-344.6711120605469,-1.0078277587890625,62.98960876464844
1776017226260985900,11.13198583984375,-344.179931640625,-1.247283935546875,64.09156799316406
1776017226270978800,11.141978759765625,-342.707763671875,-0.7191925048828125,65.385498046875
1776017226280973600,11.1519736328125,-340.96832275390625,-0.405670166015625,67.1839599609375
1776017226290966800,11.161966796875,-339.03985595703125,-0.4787139892578125,69.01287841796875
1776017226300960800,11.171960693359376,-337.83697509765625,-1.275634765625,70.11528015136719
1776017226310953700,11.18195361328125,-338.3631896972656,-1.9766845703125,70.11943054199219
1776017226320947700,11.19194775390625,-338.1754150390625,-2.73443603515625,70.43618774414062
1776017226330942700,11.201942626953125,-338.3757629394531,-3.141448974609375,69.90023803710938
1776017226340937700,11.211937744140625,-339.36822509765625,-2.7354278564453125,69.73219299316406
1776017226350932700,11.2219326171875,-338.76708984375,-2.0634613037109375,69.76786804199219
1776017226360927700,11.231927734375,-337.35699462890625,-1.7183074951171875,70.70802307128906
1776017226370921700,11.241921630859375,-336.119140625,-2.033966064453125,71.37158203125
1776017226380915700,11.251915771484375,-335.34033203125,-2.3885345458984375,72.16159057617188
1776017226390908700,11.26190869140625,-335.622802734375,-2.89520263671875,72.52999877929688
1776017226400902700,11.271902587890626,-336.20465087890625,-2.6920623779296875,71.92900085449219
1776017226410896000,11.281895751953124,-336.7037353515625,-2.6702423095703125,71.693115234375
1776017226420889900,11.291889892578125,-336.37841796875,-2.9036865234375,71.44094848632812
1776017226430884900,11.301884765625,-337.0802917480469,-2.595001220703125,71.25692749023438
1776017226440878600,11.311878662109375,-336.32855224609375,-2.660003662109375,71.57963562011719
1776017226450873900,11.321873779296874,-336.0072021484375,-2.204986572265625,71.83906555175781
1776017226460867600,11.33186767578125,-335.54608154296875,-2.296661376953125,72.28187561035156
1776017226470861600,11.341861572265625,-335.02801513671875,-1.81085205078125,72.30751037597656
1776017226480856600,11.351856689453125,-334.05120849609375,-1.4227294921875,72.47317504882812
1776017226490850600,11.3618505859375,-333.58087158203125,-1.092498779296875,72.76423645019531
1776017226500843800,11.37184375,-332.44293212890625,-0.8972015380859375,73.39828491210938
1776017226510838800,11.3818388671875,-332.51214599609375,-0.6880950927734375,73.49995422363281
1776017226520832800,11.391832763671875,-332.53277587890625,0.0094146728515625,72.844482421875
1776017226530825700,11.40182568359375,-333.5220947265625,0.55169677734375,72.63548278808594
1776017226540820700,11.41182080078125,-332.6690673828125,1.2759246826171875,72.55509948730469
1776017226550815700,11.421815673828124,-332.65704345703125,0.8657684326171875,72.5958251953125
1776017226560809700,11.431809814453125,-332.3804931640625,0.5208587646484375,72.94551086425781
1776017226570804700,11.4418046875,-331.7261962890625,0.5019378662109375,73.36553955078125
1776017226580800800,11.45180078125,-331.29443359375,0.1224517822265625,73.75602722167969
1776017226590796800,11.461796875,-331.31280517578125,-0.0568084716796875,73.73391723632812
1776017226600791800,11.471791748046876,-331.1945495605469,-0.2204437255859375,74.21531677246094
1776017226610786600,11.48178662109375,-331.0135803222656,-0.4452362060546875,74.13044738769531
1776017226620781600,11.491781494140625,-330.70355224609375,-0.6939239501953125,74.62910461425781
1776017226630776600,11.501776611328125,-329.1272277832031,-0.632415771484375,74.96281433105469
1776017226640771600,11.511771484375,-328.33782958984375,-0.6469879150390625,75.09495544433594
1776017226650768000,11.521767822265625,-328.1617431640625,-0.7312774658203125,75.58589172363281
1776017226660764700,11.5317646484375,-326.96490478515625,-0.4828643798828125,75.89637756347656
1776017226670760700,11.5417607421875,-327.2143859863281,-0.823333740234375,75.93865966796875
1776017226680756700,11.5517568359375,-327.80181884765625,-1.0298614501953125,75.69387817382812
1776017226690752800,11.561752685546875,-327.30908203125,-0.932403564453125,75.52264404296875
1776017226700748800,11.571748779296875,-327.6069030761719,-1.4024658203125,75.83674621582031
1776017226710745900,11.581745849609375,-327.94439697265625,-1.9404754638671875,76.0093994140625
1776017226720741600,11.59174169921875,-328.2883605957031,-2.1503753662109375,75.94081115722656
1776017226730735900,11.60173583984375,-328.70050048828125,-2.70294189453125,75.86236572265625
1776017226740731000,11.61173095703125,-329.5167236328125,-3.3076629638671875,75.60618591308594
1776017226750724900,11.621724853515625,-329.7551574707031,-3.9901123046875,75.31050109863281
1776017226760718800,11.63171875,-331.086181640625,-4.0564727783203125,75.01046752929688
1776017226770712800,11.641712890625,-331.5602722167969,-4.85791015625,75.17945861816406
1776017226780706600,11.65170654296875,-332.3430480957031,-5.13153076171875,74.49546813964844
1776017226790699800,11.66169970703125,-333.49639892578125,-5.302764892578125,74.068115234375
1776017226800692700,11.671692626953124,-334.3263854980469,-4.6979217529296875,73.89073181152344
1776017226810686700,11.681686767578125,-333.6177978515625,-4.134033203125,73.72538757324219
1776017226820681700,11.691681640625,-334.1688232421875,-3.494384765625,73.71730041503906
1776017226830676700,11.7016767578125,-333.566162109375,-2.5970001220703125,73.47061157226562
1776017226840671700,11.711671630859374,-333.13983154296875,-2.661102294921875,73.55615234375
1776017226850666800,11.721666748046875,-334.015380859375,-2.4842681884765625,73.30766296386719
1776017226860660700,11.73166064453125,-334.2813415527344,-2.20721435546875,72.66996765136719
1776017226870654700,11.74165478515625,-334.96624755859375,-1.5720672607421875,71.7364501953125
1776017226880649000,11.75164892578125,-336.265625,-1.26220703125,70.74934387207031
1776017226890642700,11.761642578125,-338.0436096191406,-0.3966827392578125,69.86456298828125
1776017226900636700,11.77163671875,-339.375,0.412200927734375,67.94618225097656
1776017226910630700,11.781630615234375,-340.9647216796875,0.6917724609375,66.43522644042969
1776017226920622800,11.791622802734375,-342.0343017578125,1.6655731201171875,64.99983215332031
1776017226930614800,11.80161474609375,-343.2342834472656,2.108489990234375,63.54376220703125
1776017226940606700,11.811606689453125,-343.4996337890625,2.974334716796875,62.0787353515625
1776017226950599700,11.821599609375,-344.88519287109375,4.2201995849609375,60.65055847167969
1776017226960593700,11.83159375,-344.85693359375,5.8964385986328125,59.54713439941406
1776017226970588700,11.841588623046874,-344.9074401855469,7.8147430419921875,57.80451965332031
1776017226980583700,11.851583740234375,-344.66900634765625,9.584716796875,56.28092956542969
1776017226990576600,11.86157666015625,-344.1446533203125,11.042098999023438,55.56178283691406
1776017227000571600,11.871571533203126,-343.2629089355469,11.468154907226562,55.412628173828125
1776017227010564900,11.88156494140625,-342.73095703125,11.467864990234375,55.91242980957031
1776017227020557600,11.8915576171875,-342.88250732421875,11.659027099609375,56.083984375
1776017227030551600,11.901551513671874,-342.8403015136719,11.359710693359375,56.055999755859375
1776017227040545800,11.9115458984375,-343.4934387207031,11.442367553710938,55.82554626464844
1776017227050539800,11.921539794921875,-343.65948486328125,11.599639892578125,55.633026123046875
1776017227060533800,11.93153369140625,-343.488037109375,11.40869140625,55.73765563964844
1776017227070526700,11.941526611328126,-343.2062683105469,11.888046264648438,55.394134521484375
1776017227080519700,11.951519775390626,-343.43463134765625,12.327957153320312,54.890106201171875
1776017227090516000,11.961515869140625,-343.8785400390625,12.6324462890625,54.388641357421875
1776017227100509700,11.971509765625,-342.7513732910156,12.221389770507812,54.200164794921875
1776017227110503700,11.981503662109375,-343.625732421875,12.621017456054688,53.88264465332031
1776017227120496600,11.99149658203125,-344.1132507324219,12.57568359375,53.31074523925781
1776017227130489900,12.00148974609375,-343.99847412109375,12.448501586914062,53.42735290527344
1776017227140482600,12.011482666015626,-344.46722412109375,12.432891845703125,52.920440673828125
1776017227150476800,12.021476806640624,-344.7290954589844,12.667709350585938,52.532745361328125
1776017227160470800,12.031470703125,-344.99884033203125,12.279403686523438,52.4971923828125
1776017227170463700,12.041463623046875,-345.4705810546875,12.56842041015625,52.05401611328125
1776017227180457700,12.051457763671875,-344.70916748046875,12.507644653320312,51.55058288574219
1776017227190451700,12.06145166015625,-345.08843994140625,12.56439208984375,51.27204895019531
1776017227200443600,12.071443603515625,-345.3331298828125,12.772842407226562,51.346435546875
1776017227210438000,12.08143798828125,-345.4546203613281,12.933029174804688,51.093048095703125
1776017227220430800,12.091430908203124,-344.9368896484375,13.41986083984375,51.07139587402344
1776017227230423800,12.101423828125,-344.5693054199219,13.534255981445312,50.731719970703125
1776017227240418600,12.11141845703125,-344.8392639160156,14.022598266601562,50.60545349121094
1776017227250413600,12.12141357421875,-343.68902587890625,14.240478515625,50.833709716796875
1776017227260408000,12.131407958984376,-343.892333984375,14.90985107421875,51.25335693359375
1776017227270400000,12.14139990234375,-343.4166564941406,14.595428466796875,52.19062805175781
1776017227280394000,12.15139404296875,-342.3747253417969,14.247146606445312,52.988616943359375
1776017227290387200,12.16138720703125,-342.9810791015625,14.370529174804688,53.41172790527344
1776017227300381200,12.171381103515625,-342.9107666015625,13.598785400390625,53.78913879394531
1776017227310374100,12.1813740234375,-343.79052734375,12.799819946289062,53.95172119140625
1776017227320366000,12.191365966796875,-344.7398681640625,12.038055419921875,53.73040771484375
1776017227330358000,12.20135791015625,-345.2437438964844,11.043731689453125,53.33381652832031
1776017227340350200,12.21135009765625,-345.53204345703125,10.784652709960938,52.8343505859375
1776017227350343000,12.221343017578125,-346.7646484375,9.941421508789062,52.5289306640625
1776017227360337000,12.2313369140625,-347.2533264160156,9.690536499023438,51.81477355957031
1776017227370330000,12.241330078125,-347.40338134765625,9.769424438476562,51.56364440917969
1776017227380324000,12.251323974609376,-347.0295104980469,9.339706420898438,50.85133361816406
1776017227390318000,12.261318115234374,-347.2391357421875,9.603897094726562,51.45135498046875
1776017227400312000,12.27131201171875,-346.3350830078125,9.591629028320312,52.76411437988281
1776017227410305000,12.281304931640625,-345.5142822265625,9.673233032226562,53.82691955566406
1776017227420299000,12.291299072265625,-345.1370849609375,9.53125,55.528564453125
1776017227430293000,12.30129296875,-343.81573486328125,9.740249633789062,57.60975646972656
1776017227440288000,12.3112880859375,-341.70404052734375,9.777099609375,59.885162353515625
1776017227450282000,12.321281982421874,-339.4208068847656,9.794601440429688,61.758331298828125
1776017227460277000,12.331277099609375,-337.74786376953125,10.118515014648438,63.226470947265625
1776017227470272000,12.34127197265625,-337.09661865234375,10.307952880859375,64.189453125
1776017227480266000,12.351265869140626,-335.3927001953125,10.728546142578125,64.73985290527344
1776017227490261000,12.361260986328125,-335.5496826171875,11.380081176757812,64.37525939941406
1776017227500254200,12.371254150390625,-335.1716613769531,12.038223266601562,63.832183837890625
1776017227510248200,12.381248291015625,-335.44256591796875,12.900558471679688,63.17192077636719
1776017227520241000,12.391240966796875,-335.642822265625,13.11956787109375,62.66218566894531
1776017227530234000,12.401234130859375,-335.92510986328125,13.589385986328125,61.77606201171875
1776017227540229000,12.41122900390625,-335.9288330078125,14.165176391601562,60.95738220214844
1776017227550223000,12.42122314453125,-336.54144287109375,14.582199096679688,60.8284912109375
1776017227560216000,12.431216064453125,-335.9213562011719,14.666336059570312,60.3592529296875
1776017227570210000,12.4412099609375,-336.3230895996094,14.431381225585938,60.52128601074219
1776017227580203000,12.451203125,-335.7660217285156,14.027847290039062,61.30998229980469
1776017227590196200,12.4611962890625,-336.4404296875,12.841476440429688,62.209716796875
1776017227600190200,12.471190185546876,-334.7427978515625,11.94940185546875,63.58869934082031
1776017227610185200,12.481185302734374,-334.5220947265625,10.892532348632812,64.58941650390625
1776017227620179200,12.49117919921875,-333.78424072265625,10.058944702148438,65.54280090332031
1776017227630173000,12.5011728515625,-332.9769287109375,9.93865966796875,66.13580322265625
1776017227640167000,12.5111669921875,-332.3140869140625,10.696487426757812,66.68283081054688
1776017227650161200,12.5211611328125,-330.90521240234375,11.14105224609375,66.87860107421875
1776017227660155100,12.531155029296874,-329.24066162109375,11.856842041015625,66.99716186523438
1776017227670148000,12.541148193359374,-328.3006591796875,12.62261962890625,67.42318725585938
1776017227680144100,12.55114404296875,-327.463623046875,13.735260009765625,67.02928161621094
1776017227690139100,12.56113916015625,-327.1981201171875,14.941604614257812,65.91363525390625
1776017227700135000,12.571135009765625,-327.67156982421875,16.277175903320312,64.81098937988281
1776017227710130000,12.5811298828125,-328.0369873046875,17.755340576171875,62.83238220214844
1776017227720126200,12.591126220703124,-327.9259033203125,19.56719970703125,60.980316162109375
1776017227730121200,12.601121337890625,-327.47467041015625,21.183670043945312,59.1715087890625
1776017227740116200,12.6111162109375,-326.6021728515625,22.71954345703125,57.14366149902344
1776017227750112000,12.621112060546874,-326.2251281738281,24.021865844726562,55.462554931640625
1776017227760107000,12.63110693359375,-325.3736267089844,24.8350830078125,54.16777038574219
1776017227770101000,12.64110107421875,-324.27740478515625,26.11578369140625,52.509857177734375
1776017227780093000,12.651093017578125,-323.01727294921875,26.86822509765625,50.63105773925781
1776017227790086100,12.661086181640625,-322.03363037109375,27.872879028320312,49.57586669921875
1776017227800079000,12.6710791015625,-321.77276611328125,28.543533325195312,48.107421875
1776017227810072000,12.681072021484376,-321.40777587890625,28.898544311523438,47.231903076171875
1776017227820065000,12.69106494140625,-321.3050537109375,29.023422241210938,46.984039306640625
1776017227830057200,12.70105712890625,-322.02691650390625,28.965042114257812,46.217926025390625
1776017227840050000,12.7110498046875,-322.8179626464844,28.705596923828125,46.243896484375
1776017227850046200,12.721046142578125,-323.2898254394531,28.783538818359375,45.7354736328125
1776017227860042000,12.7310419921875,-324.1182861328125,28.805068969726562,44.89283752441406
1776017227870036200,12.7410361328125,-324.05322265625,28.871246337890625,43.79339599609375
1776017227880029000,12.75102880859375,-324.39739990234375,29.225906372070312,42.83106994628906
1776017227890022100,12.761022216796874,-324.6632080078125,29.067138671875,42.35978698730469
1776017227900016000,12.77101611328125,-324.845947265625,29.156234741210938,42.126251220703125
1776017227910011100,12.78101123046875,-325.1405334472656,28.871978759765625,42.14805603027344
1776017227920003000,12.791003173828125,-325.69586181640625,28.743026733398438,42.425933837890625
1776017227929996000,12.80099609375,-325.54998779296875,28.79864501953125,42.80265808105469
1776017227939990000,12.810989990234376,-326.03045654296875,28.6243896484375,43.31004333496094
1776017227949984000,12.82098388671875,-326.0724792480469,28.201858520507812,43.7698974609375
1776017227959977200,12.830977294921874,-326.84063720703125,28.049514770507812,43.964263916015625
1776017227969970000,12.840969970703124,-326.6265869140625,28.0238037109375,44.03337097167969
1776017227979964000,12.8509638671875,-326.43194580078125,27.765472412109375,44.24772644042969
1776017227989958100,12.860958251953125,-327.0234680175781,27.990036010742188,44.40989685058594
1776017227999951000,12.870951171875,-326.6047058105469,27.853973388671875,44.3623046875
1776017228009943000,12.880943115234375,-327.16729736328125,28.006973266601562,43.92787170410156
1776017228019937000,12.89093701171875,-327.458251953125,27.725296020507812,44.83673095703125
1776017228029930200,12.90093017578125,-327.31329345703125,27.3970947265625,44.4908447265625
1776017228039923200,12.910923095703126,-327.9429931640625,27.478958129882812,44.77653503417969
1776017228049917000,12.9209169921875,-327.8407897949219,27.2335205078125,44.96319580078125
