time,seconds_elapsed,z,y,x
1776019989396806400,0.074806396484375,0.1446668296098709,-0.08763926661685109,-0.444786232868582
1776019989406866400,0.084866455078125,0.07433247966766357,-0.07464359144344926,-0.44801630083099003
1776019989416927500,0.094927490234375,-0.013356325179338454,0.0033440497308969497,-0.35367519848793744
1776019989426987800,0.10498779296875,-0.0628027853935957,0.09854600668698549,-0.323100173612684
1776019989437048300,0.11504833984375,-0.061325114056468004,0.18415581330284475,-0.35172494120299813
1776019989447108600,0.125108642578125,-0.05767886650860309,0.15320523311346768,-0.3946466758236289
1776019989457169400,0.13516943359375,-0.025175357788801193,0.0841032014451921,-0.43447877386584877
1776019989467229700,0.145229736328125,-0.13734160128831863,0.007904051122814417,-0.440114441665262
1776019989477289500,0.15528955078125,-0.39459728372395036,-0.04554653016626835,-0.313095350818336
1776019989487350500,0.1653505859375,-0.4664338549226522,-0.028943185889720915,-0.2134197555795312
1776019989497410600,0.17541064453125,-0.3550070316135883,0.02436900984197855,-0.3212187437802553
1776019989507471600,0.1854716796875,-0.20686521936953067,0.0792635063290596,-0.4647570077516138
1776019989517531600,0.19553173828125,-0.11958616436719893,0.1320090080887079,-0.5183481665551662
1776019989527592700,0.2055927734375,0.014562778359651564,0.20609189690947533,-0.5343902236871421
1776019989537652500,0.215652587890625,0.18094050451815127,0.2527802905872464,-0.4256975015170872
1776019989547713500,0.225713623046875,0.21512918984591958,0.21242986775934694,-0.23308497164472936
1776019989557773600,0.235773681640625,0.22370120335817337,0.14835633177757263,-0.15440174942165613
1776019989567833600,0.24583349609375,0.1856312926828861,0.13315847038477657,-0.06481631717309355
1776019989577894400,0.255894287109375,-0.009185176974534987,0.1184267651990056,0.05378507394045591
1776019989587954400,0.265954345703125,-0.3153419607013464,0.17736469185799358,0.031833500503748655
1776019989598015500,0.276015380859375,-0.4516442820698023,0.19828443802893161,-0.15027999331653116
1776019989608075500,0.286075439453125,-0.3017284458905458,0.14356880524009466,-0.37989509689360856
1776019989618136600,0.296136474609375,-0.21930910587906835,0.08811638260930776,-0.5714648397147655
1776019989628196400,0.3061962890625,-0.2408236030727625,0.08836626571714877,-0.7168009468883275
1776019989638257400,0.31625732421875,-0.1423047766536474,0.037841654877364635,-0.6506536733724176
1776019989648317700,0.326317626953125,0.014598434194922447,0.047804245965182776,-0.45246232045441864
1776019989658378500,0.33637841796875,0.02400514496564865,0.13474018661826848,-0.3165811471074819
1776019989668438500,0.3464384765625,0.009200959065556525,0.2695508081242442,-0.2893624469228089
1776019989678498600,0.35649853515625,0.09521277061104774,0.3481210714921355,-0.22910525435879825
1776019989688559600,0.3665595703125,0.21033844843804836,0.2753931044116616,-0.2140606838315725
1776019989698619600,0.37661962890625,0.2541588854640722,0.2548778473883867,-0.3709707628123462
1776019989708680700,0.3866806640625,0.3084364190965891,0.29427228466570376,-0.5679667684659362
1776019989718740500,0.396740478515625,0.47657998588383194,0.28631811079084873,-0.6061454002127051
1776019989728801500,0.406801513671875,0.567616347593069,0.3663049629583955,-0.6136985920712351
1776019989738861600,0.416861572265625,0.6837976719528436,0.40262598413974043,-0.7011139868043362
1776019989748922600,0.426922607421875,0.7183242109328508,0.30618484077751634,-0.6843005069084465
1776019989758982700,0.436982666015625,0.75292147706151,0.1616609267696738,-0.5073514101140201
1776019989769043500,0.44704345703125,0.7150263384312391,0.10254881258755921,-0.38184740000516176
1776019989779103500,0.457103515625,0.6133411569356918,0.06963000106513499,-0.2493874332785606
1776019989789163500,0.46716357421875,0.6494675323277711,0.16872808867692946,-0.09210603676736354
1776019989799224600,0.477224609375,0.6965905180305242,0.2598720024138689,-0.15971607631221413
1776019989809284400,0.487284423828125,0.8068488820821046,0.276720261362195,-0.2589139710366726
1776019989819346000,0.497345947265625,0.8658522751927376,0.1540776320338249,-0.27734789174124597
1776019989829405700,0.50740576171875,0.47817456159889693,0.012502630959451198,-0.28173049073964357
1776019989839466800,0.517466796875,0.05802139633595943,-0.10484978300631045,-0.3902715294793248
1776019989849526800,0.52752685546875,0.05933598606586456,-0.11475947486311197,-0.38671573669388887
1776019989859587800,0.537587890625,0.14929682749807835,-0.02513970195353031,-0.2105164353534579
1776019989869648000,0.54764794921875,0.18218319805562494,0.20051029738485812,-0.039188393311202524
1776019989879709000,0.557708984375,0.34780806002020836,0.44605508376061914,-0.01390460671186447
1776019989889769000,0.56776904296875,0.6187742879003286,0.5816235378965735,-0.18450258091390132
1776019989899829000,0.5778291015625,0.7171569207191467,0.6016720541909336,-0.40293972626402974
1776019989909890000,0.58789013671875,0.5576835671216249,0.5795970005050302,-0.4420275818102061
1776019989919949800,0.59794970703125,0.6524228750020266,0.5697060133486986,-0.4552957903146744
1776019989930011000,0.608010986328125,0.6939198375165462,1.2831123493626713,-0.442639576228708
1776019989940071000,0.61807080078125,-0.3340706265687942,1.9340804955117403,-1.1567900086082517
1776019989950132000,0.628132080078125,-2.103750395083427,1.7002821149006484,-2.1094313633292914
1776019989960192000,0.63819189453125,-3.156841398155689,0.7375429984048009,-2.543097213377058
1776019989970253000,0.648253173828125,-3.854909587523341,0.35591172536835075,-2.4662419372335074
1776019989980312800,0.658312744140625,-4.476026054635644,1.232949849833548,-2.789422336475551
1776019989990374000,0.668373779296875,-3.8490135152220724,2.6830916672617193,-3.1298706813827155
1776019990000434000,0.678433837890625,-1.5746142925322055,3.299812822024524,-3.501463229355216
1776019990010495000,0.688494873046875,0.750778619813919,3.0891572704613206,-3.4562288338780403
1776019990020554800,0.6985546875,2.8656939675122497,2.2346331756211817,-3.6303716410800813
1776019990030614800,0.70861474609375,5.7647699801445,0.56253246845752,-3.0304215883761643
1776019990040675800,0.71867578125,7.290558574709296,0.9587086919359862,-1.617599740038812
1776019990050735900,0.72873583984375,-1.6134551875799894,-5.586896461981534,8.871283459076285
1776019990060797000,0.738796875,-3.2861154283225535,-9.988213020330667,16.556176867181062
1776019990070856700,0.748856689453125,4.583721874722838,-1.5510997075624764,5.833614968311786
1776019990080917800,0.758917724609375,3.0829233445078135,-0.977541987221688,5.939326921105384
1776019990090977800,0.768977783203125,6.8845210285604,-0.9661620766818523,4.617707146432996
1776019990101038800,0.779038818359375,5.534892718499899,-1.934816846962273,0.6815519388526677
1776019990111099000,0.789098876953125,0.6433142703950405,-0.08924071046411991,-3.2537595113798976
1776019990121159700,0.79915966796875,2.8030191924124956,3.235529734945297,-2.6817548657000065
1776019990131220000,0.809219970703125,3.2735522993475197,1.8945700306393205,-0.3840148071721196
1776019990141280000,0.819280029296875,-3.8484073660224674,-1.2135495683148503,0.7676119734540581
1776019990151341000,0.829341064453125,-2.69075591827929,-0.34171880323439835,-1.8520099689379332
1776019990161400800,0.83940087890625,1.1924305001795292,1.2009290100641548,-2.65775468917042
1776019990171462000,0.8494619140625,0.1610527317434549,0.8625160434421152,-1.825958120575547
1776019990181522000,0.85952197265625,-0.5124579394727945,0.19295776311345397,-1.5772978325277567
1776019990191583000,0.8695830078125,-1.4455425069391727,0.4047366926833987,-0.9473647294923663
1776019990201643000,0.87964306640625,-2.1636709030389785,1.1327666703987866,-0.41577421952635046
1776019990211703800,0.889703857421875,-1.1644137814849616,1.0964863465540111,-0.8955464255802332
1776019990221763800,0.899763916015625,0.09484218373298645,0.5023543324790894,-1.2194947404548524
1776019990231825000,0.909824951171875,0.006855272722244263,0.15183595405425876,-1.2165041803367436
1776019990241885000,0.919885009765625,-0.46359366306066513,0.03232906546834856,-1.6120038197278976
1776019990251946000,0.929946044921875,-0.6761193924099207,-0.2821975967947393,-1.9006996194355188
1776019990262005800,0.940005859375,-0.9670534725636243,-0.439742247352004,-1.4547772221438586
1776019990272065800,0.950065673828125,-1.1336585777372121,-0.13008929207250475,-0.9525802721835672
1776019990282126800,0.960126953125,-1.3654706068366764,-0.025966435101255774,-0.5433063744619488
1776019990292187000,0.970186767578125,-1.1827186689823865,0.19870354022383688,-0.251266671153903
1776019990302248000,0.980248046875,-0.712284930768609,0.2377603065120056,-0.2755127852685749
1776019990312307700,0.9903076171875,-0.5411252310305833,-0.29417850543502716,-0.3130535575032234
1776019990322368800,1.00036865234375,-0.4698989006847143,-0.5141023091463371,-0.16848142043948172
1776019990332429000,1.010428955078125,-0.6253758781224489,-0.41676980643495914,-0.11417524523437023
1776019990342489900,1.02048974609375,-0.9496446571230888,-0.5183973394591361,0.05125058702677488
1776019990352550000,1.0305498046875,-1.0539899977385998,-0.7800912235379218,0.22976693313792346
1776019990362611000,1.04061083984375,-0.7477092953711748,-0.7256877254381775,0.34909006265476344
1776019990372671000,1.0506708984375,-0.7807441344887017,-0.7869904815323651,0.010989888308942318
1776019990382732000,1.06073193359375,-0.6030681847244501,-0.8247537374112754,-0.009893179113417864
1776019990392792000,1.0707919921875,-0.4581757296651601,-0.8087046660166233,0.15106661364957688
1776019990402851800,1.080851806640625,-0.37215924194455147,-0.8407813276264816,0.2914318005427718
1776019990412913000,1.090912841796875,-0.33682314014732834,-0.5288683915257454,0.3640260582409799
1776019990422973000,1.100972900390625,-0.3938157779574394,-0.42624395641870794,0.4874101535864174
1776019990433034000,1.111033935546875,-0.2991735007107258,-0.44038222575597463,0.56249988136217
1776019990443093800,1.12109375,0.04138064265847206,-0.4384839909192174,0.5375086479686201
1776019990453154800,1.13115478515625,0.1540916605591774,-0.6083463443230838,0.6405393988542258
1776019990463214800,1.14121484375,0.2591495333582163,-0.7114759524732828,0.7520246743522584
1776019990473276000,1.15127587890625,0.28787644614875313,-0.7833818625811487,0.6994814171664416
1776019990483336000,1.1613359375,0.47419104492068287,-0.7088677427362651,0.7488792159333825
1776019990493397000,1.17139697265625,0.5833914243519306,-0.4641680288825184,0.9821830910257995
1776019990503456800,1.181456787109375,0.5022416658848524,-0.18549487988688051,0.9682305535189807
1776019990513517800,1.191517822265625,0.4479828369528055,-0.16415296278111635,0.8280417461059987
1776019990523577900,1.201577880859375,0.23872400044500827,-0.08104490985311567,0.781520525688678
1776019990533638000,1.211637939453125,0.11737725614607333,0.004159165506064892,0.7194909166246652
1776019990543698700,1.22169873046875,0.11154138959944247,0.18361089277118445,0.7359820326983928
1776019990553759000,1.231759033203125,0.3875590556502342,0.6923597485929727,0.7781488572984934
1776019990563819800,1.24181982421875,0.10083236405849456,0.12603636341989038,0.4973515557557344
1776019990573880000,1.251880126953125,0.3237643366098404,-0.35313458880521353,0.34663740880563854
1776019990583940900,1.26194091796875,0.5701029037117957,0.5032730547592044,0.6240325006894767
1776019990594001000,1.2720009765625,0.28524960477650163,0.8853723106335848,0.619938217113167
1776019990604062000,1.28206201171875,0.5584136349618435,2.40809516095221,0.633098581328988
1776019990614122000,1.2921220703125,0.799680890148878,1.8759240746192634,1.0580956794917582
1776019990624183000,1.30218310546875,0.8407458909869193,1.3233477675087748,1.2429989501610397
1776019990634242800,1.312242919921875,0.9902356107085942,2.517057055452466,1.5954004754513502
1776019990644304000,1.322303955078125,1.612543917953968,3.4468583634644743,1.9645210803523658
1776019990654364000,1.332364013671875,2.594227388894558,3.6784205094560978,2.3813363333642483
1776019990664424000,1.342423828125,3.3027953449666496,3.7241339206218718,2.2755936931714413
1776019990674485000,1.352485107421875,3.977188644236326,3.371485434833169,1.976486535695195
1776019990684544800,1.362544677734375,4.3231566293478005,2.788108915789425,1.8317872651204465
1776019990694605800,1.372605712890625,3.383775007563829,3.435934233868122,2.6821272061437367
1776019990704665900,1.382665771484375,2.16831200684309,5.2174932407468555,3.5172102490633725
1776019990714727000,1.392726806640625,2.0336691431194542,6.429505808752775,3.304970935440063
1776019990724787000,1.402786865234375,1.907375005546212,7.624700512948632,3.3747213480144738
1776019990734847700,1.41284765625,2.1329653836518525,8.673966404774784,3.877054783836007
1776019990744907800,1.42290771484375,2.5382009657680986,8.621751648890971,4.30506859947145
1776019990754968800,1.43296875,2.3763082760691643,8.183549032196401,4.916300801429152
1776019990765028900,1.44302880859375,1.9114064530193804,7.634585947147011,4.211591858872771
1776019990775090000,1.45308984375,2.3643512962937354,6.657340166392922,1.946460230743885
1776019990785149700,1.463149658203125,2.3721429730832577,6.248226866060495,0.27693594993948933
1776019990795210800,1.473210693359375,1.5737269883036613,6.19927900301814,-0.48661096603274345
1776019990805270800,1.483270751953125,0.6651750968083738,6.3003960292369126,-1.3125111700654029
1776019990815330000,1.493330078125,-0.2899529601618647,5.888609125781059,-1.85168994320333
1776019990825391000,1.50339111328125,-0.7357976160421967,5.612618932259083,-2.671514626714587
1776019990835451100,1.513451171875,-0.5520084440946579,5.50818240622878,-3.6622359751135107
1776019990845512000,1.523511962890625,-0.17194120550453662,5.616211988314986,-5.210675961947441
1776019990855572000,1.533572021484375,0.9188885765925049,4.582417514126003,-6.471927484896779
1776019990865633000,1.543633056640625,2.1124726307213306,3.0013042149633167,-7.736749852070212
1776019990875693000,1.553693115234375,2.4222256853744386,1.3565017029613256,-8.776376393413543
1776019990885754000,1.563754150390625,2.4560145577296613,-0.26970190703272817,-9.681948100054264
1776019990895814000,1.57381396484375,2.032820709596574,-1.0161083031117915,-10.238635057353973
1776019990905875000,1.583875,1.3090227434277533,-0.6428706182807683,-10.395441237568855
1776019990915935000,1.59393505859375,0.33322833052575584,-0.08625380360782146,-10.407646054625511
1776019990925996000,1.60399609375,-0.7537547130152583,-0.0353401934504509,-9.824100316494702
1776019990936055800,1.614055908203125,-0.46548809850513934,-0.5769605145215988,-9.632107672086358
1776019990946116900,1.624116943359375,0.3719146195337176,-1.6328566381424665,-10.084434675723314
1776019990956177000,1.634177001953125,1.345904028840363,-3.273115076974034,-10.361531953704356
1776019990966237200,1.6442373046875,2.7267493149414657,-4.947902977395057,-10.27248822711706
1776019990976298000,1.654298095703125,3.8667128380417823,-6.597244886392355,-9.238183173057436
1776019990986358000,1.66435791015625,4.247520958127081,-6.913534357076883,-8.928927254271507
1776019990996419000,1.674419189453125,4.2981165883764625,-7.267944591841101,-9.361697909045219
1776019991006479000,1.68447900390625,5.19314731951952,-6.4941299643546335,-7.536498497882485
1776019991016540200,1.6945400390625,4.487215557169914,-3.94596114680171,-5.103623700460791
1776019991026600200,1.70460009765625,2.763977221834659,-2.646732652157545,-3.8197307221144436
1776019991036661000,1.714660888671875,1.2354852135300636,-3.0984172662377354,-2.799342549726367
1776019991046721000,1.724720947265625,1.2212561971694231,-3.7526077354341743,-1.5327432360082864
1776019991056782000,1.734781982421875,3.0102973764970895,-3.4988930866062637,0.7314864748448133
1776019991066842000,1.744842041015625,4.299666448166966,-2.941166849386692,2.878918190744519
1776019991076903200,1.754903076171875,4.609284186002612,-1.6177689591258764,5.733224502801895
1776019991086963000,1.764962890625,3.467907581233978,-0.010310381612181663,7.077636539518832
1776019991097024000,1.77502392578125,0.6874924348175525,-0.21243571297824382,7.089889871892333
1776019991107084000,1.785083984375,-2.733417832919955,-0.012305939343571663,7.179332242408394
1776019991117144000,1.79514404296875,-2.639911866226792,0.8411310909122228,4.607421899262071
1776019991127204900,1.805204833984375,-2.1344242041580377,-0.5723495135948061,3.1564901004999872
1776019991137265000,1.815264892578125,-0.7608294006418437,1.2518190932154654,2.522449854406714
1776019991147326000,1.825325927734375,0.4117471559673547,1.5928043214783072,2.0290701248914003
1776019991157386000,1.835385986328125,1.1845336094498633,1.3136825519323347,1.2376146267741919
1776019991167447000,1.845447021484375,0.39597913000378754,1.7185665441319344,-0.3920218802779913
1776019991177506800,1.8555068359375,0.4196738938460126,2.7451912728220225,-1.5560533844470976
1776019991187567900,1.86556787109375,1.3556687592685221,4.074434381979704,-1.627487804585695
1776019991197628000,1.8756279296875,2.4259505511164665,4.798910978062451,-0.9788713361293077
1776019991207689000,1.88568896484375,2.4291817881226536,3.1129464345887303,0.19792554158866404
1776019991217749000,1.8957490234375,1.8544214139938353,-0.13565788598507642,0.5483809012472629
1776019991227809800,1.905809814453125,2.027557966762781,-0.6834346838593482,-0.14115619114041328
1776019991237870000,1.9158701171875,2.0480244162082673,-0.9269175692692398,-2.2601263671875
1776019991247931000,1.925930908203125,2.014702576842904,-0.7186705401524901,-3.8483547590523957
1776019991257991200,1.9359912109375,-0.049240123987197876,-0.5365040009707213,-3.72689695559442
1776019991268051000,1.946051025390625,-1.5674714350402355,1.5151368521690367,-3.172861974108219
1776019991278112000,1.956112060546875,-3.1065783608615396,4.11364469486177,-2.6797809352785347
1776019991288172000,1.966172119140625,-1.2221429168760776,2.0886595011964437,-2.105672303056717
1776019991298233000,1.976233154296875,0.3154267163753509,-1.8751567435085772,-1.9240356329679489
1776019991308293000,1.986293212890625,-0.15810498785376548,-2.961306843356788,-0.5130635041505098
1776019991318354200,1.996354248046875,-0.376324544930458,-3.1282457105293866,1.6602672076374292
1776019991328414000,2.0064140625,-0.5604161338906735,-3.441092639544606,3.4803941378414627
1776019991338475000,2.01647509765625,-0.6796060654819012,-3.7223216105028984,4.480705152362585
1776019991348535000,2.02653515625,-1.0274923783700913,-3.770703948616981,4.383890207251906
1776019991358596000,2.03659619140625,-1.6687971355736255,-3.0687451815515754,3.993983127170801
1776019991368656000,2.04665576171875,-2.032352069171518,-2.209398342730105,3.748116269233823
1776019991378717000,2.056717041015625,-2.0351462299346923,-1.535755861827731,3.6936990348696708
1776019991388777000,2.06677685546875,-1.4731563439212738,-1.3424345991641282,3.9431513500779865
1776019991398838000,2.076838134765625,-0.4439491975225508,-1.0792074411034582,3.8551813902020453
1776019991408898000,2.08689794921875,0.9379974739491939,-0.6559165623366833,3.5660657576471566
1776019991418958800,2.096958740234375,2.247069317215681,-0.6806348240077496,3.2913854776799676
1776019991429019000,2.107018798828125,2.631191384154558,-0.82520929915905,2.732469153892994
1776019991439079200,2.1170791015625,2.380077273213863,-1.3348095111131668,1.81450149153769
1776019991449140000,2.127139892578125,1.4388158290326594,-3.150025288400054,1.5210890385717153
1776019991459200000,2.137199951171875,0.3212625829219818,-4.8443771364688875,2.403836334463954
1776019991469261000,2.147260986328125,0.03680496877338737,-5.598194101065397,2.7643141987040636
1776019991479321000,2.157321044921875,-0.0483586649775505,-6.029781099012494,2.7942317825838923
1776019991489382100,2.167382080078125,0.5805518170118331,-5.303157261767983,2.4910607366696
1776019991499442200,2.177442138671875,-0.19324410577416418,-6.098934130215644,2.3318778904512523
1776019991509503200,2.187503173828125,-0.9524094456613064,-7.178418050172924,1.9808760028257966
1776019991519563000,2.19756298828125,-0.39419217352177943,-3.6431191867113113,-0.25809359456449743
1776019991529624000,2.2076240234375,0.09924304904043674,0.7426280465841293,-2.497375911165774
1776019991539684000,2.21768408203125,-1.9897721337258814,-9.251070711681246,1.7800199607431888
1776019991549745200,2.2277451171875,-0.8772720793515443,-4.167693680435419,0.13981924344822763
1776019991559805000,2.237804931640625,0.3170347726264968,1.1120049643337726,-1.1818436397135257
1776019991569866000,2.247865966796875,0.10311083038449287,1.9525731606662273,-2.6630706234961745
1776019991579926000,2.257926025390625,-0.37201954121291636,9.31775647598803,-4.989136905059218
1776019991589987000,2.267987060546875,-1.6587813529938458,15.913274100196361,-5.492198655155301
1776019991600047000,2.278047119140625,-2.925985646867752,20.55462340350151,-3.7805604489818214
1776019991610107000,2.28810693359375,-6.172462892284989,18.104274908709524,-0.8736042775589973
1776019991620168000,2.29816796875,-7.29898095061779,15.464952825069426,0.8919691516153514
1776019991630228000,2.30822802734375,-5.5486640542209145,8.94540843347311,1.3117580136105418
1776019991640289000,2.3182890625,-3.649955754733085,3.300098360967636,0.9924221609674394
1776019991650348800,2.328348876953125,-1.4809984357237815,0.6826993553221226,1.2662842564195393
1776019991660409900,2.338409912109375,1.7687223216593264,0.19759820933043956,3.2383114746183157
1776019991670470000,2.348469970703125,5.676249985170364,-0.42712008166611193,6.862428439217806
1776019991680531000,2.358531005859375,3.956431102889776,-4.406770732101798,6.848821938669682
1776019991690591000,2.368591064453125,2.954773349934816,-6.641352323666214,5.462057783913612
1776019991700652000,2.378652099609375,2.184414415860176,-4.866864862608909,3.997246512880921
1776019991710712000,2.388712158203125,0.33314357485175133,-2.168061831474304,2.3847540328532455
1776019991720772900,2.39877294921875,-0.68626610789299,0.2229886711746454,0.9043049015752971
1776019991730833200,2.408833251953125,-0.7046200952291488,1.3292080378443,0.11116831850335002
1776019991740894000,2.41889404296875,-0.14681551381004973,1.7253654104918241,-0.6527711039178073
1776019991750954000,2.4289541015625,-0.20810265220999716,2.30014916549623,-1.1154773166194558
1776019991761015000,2.43901513671875,-0.98601010196805,2.602115511795878,-0.9143151311971247
1776019991771075000,2.449074951171875,-1.7354057429909706,2.341819146490097,-0.196831755002588
1776019991781136100,2.45913623046875,-2.0165011506974695,1.3320628427535295,0.6992082993134856
1776019991791196200,2.469196044921875,-1.1201648899137973,-0.2123836905300617,1.7256660008735953
1776019991801257000,2.479257080078125,0.5256394926071166,-1.3171820844858884,2.4922911552473903
1776019991811317000,2.48931689453125,1.849032122170925,-1.4351000233799218,2.367411414516717
1776019991821377800,2.499377685546875,2.1440309675455094,-0.6239759481966495,1.5378886360727249
1776019991831438800,2.50943896484375,1.175572888880968,0.2166980465978384,0.7640320691406727
1776019991841498600,2.51949853515625,0.01763034923672676,0.5208329691082239,0.28101415916383266
1776019991851559700,2.5295595703125,-0.7015105118412525,0.3707067050486803,0.00810322695672512
1776019991861619700,2.53961962890625,-0.9107587538897991,0.24289807125926016,-0.13343597215190528
1776019991871680800,2.5496806640625,-0.925429084277153,-0.04641162256300449,0.04205824965909123
1776019991881740500,2.559740478515625,-0.5074666705241426,-0.3556096736818552,0.3930329570166766
1776019991891801600,2.569801513671875,-0.1121065857341513,-0.4325514590650797,0.5661179257288574
1776019991901861600,2.579861572265625,0.21995445457790044,-0.1446884569197893,0.782026867775619
1776019991911922700,2.589922607421875,0.3876724163642153,0.19108429739177227,0.6849949189133941
1776019991921982700,2.599982666015625,0.22958613321091978,0.31458909650743005,0.27877719389200206
1776019991932043800,2.610043701171875,-0.046354997004941105,0.22541034536361693,-0.07683598692119122
1776019991942103600,2.620103515625,-0.2516308648237958,0.08586626559495926,-0.2492873339049518
1776019991952164600,2.63016455078125,-0.31540329896714536,0.029451135411858557,-0.2778912048377096
1776019991962224600,2.640224609375,-0.3942074076235294,-0.030257775619626042,-0.18502149022147057
1776019991972285700,2.65028564453125,-0.4886543814938515,-0.08770926311314106,-0.16857275198474525
1776019991982345500,2.660345458984375,-0.555098153738305,-0.08376198679208754,-0.19480507148057222
1776019991992406500,2.670406494140625,-0.5711492344269529,-0.0468774865090847,-0.24879808908328413
1776019992002466600,2.680466552734375,-0.45081952168345446,0.009684943190217017,-0.3018678543612361
1776019992012527600,2.690527587890625,-0.29809330425858493,-0.0029962592065334317,-0.3550933947227895
1776019992022588000,2.700587890625,-0.22732651771586387,-0.08685118497908115,-0.40445919091627
1776019992032648400,2.7106484375,-0.24453827621433882,-0.26861937249302864,-0.5197070338182151
1776019992042708700,2.720708740234375,-0.27274492799043654,-0.4330722680687904,-0.7075738304682075
1776019992052768800,2.730768798828125,-0.2871673480313271,-0.5095698168158531,-0.9019315965726971
1776019992062829800,2.740829833984375,-0.22681557251904158,-0.45057343796789645,-1.073911672782898
1776019992072889600,2.7508896484375,-0.12144034086652099,-0.2768342431306839,-1.2090130939289927
1776019992082950700,2.76095068359375,0.08133395592756569,-0.043866614255309105,-1.331434043330699
1776019992093010700,2.7710107421875,0.3913876374950632,0.22176760494709014,-1.4252791788503527
1776019992103071700,2.78107177734375,0.7317746441364288,0.4485235197007656,-1.4659372063226996
1776019992113131800,2.7911318359375,1.0078444057006388,0.5679775821208953,-1.5010076429210601
1776019992123192800,2.80119287109375,1.1202875664453953,0.5097328984230757,-1.519250717228651
1776019992133252600,2.811252685546875,1.0865664986293762,0.36186756503283973,-1.4640940626740455
1776019992143313700,2.821313720703125,0.9548504090726375,0.17135493004918098,-1.3128490237176418
1776019992153373700,2.831373779296875,0.8350047169864178,0.039974282991886136,-1.1299059472054243
1776019992163434800,2.841434814453125,0.7488859379351138,-0.017613982623815534,-0.8899687715783715
1776019992173494500,2.85149462890625,0.6643921297371387,-0.027401217144727704,-0.5733265419334173
1776019992183555600,2.8615556640625,0.5353950898807496,0.0023497779965400696,-0.172463621943444
1776019992193615600,2.87161572265625,0.47609074106216426,-0.020059622210264205,0.25596023579761384
1776019992203676700,2.8816767578125,0.46010870702173556,-0.054827568730711936,0.6324382177241146
1776019992213736700,2.89173681640625,0.4081365642547607,-0.08891980794668197,0.8813279306136071
1776019992223797500,2.901797607421875,0.23445403150822966,-0.06693243254423141,1.0412572112850844
1776019992233857500,2.911857421875,-0.05462130556888878,-0.0587462034791708,1.1056588101774454
1776019992243918600,2.921918701171875,-0.31875615305900573,-0.036305823612213135,1.1221316599421203
1776019992253978600,2.931978515625,-0.48674072989225386,-0.06213409235179424,1.1419481210462747
1776019992264039700,2.942039794921875,-0.5361329026360064,-0.10310440064370631,1.1157330449461935
1776019992274099700,2.952099609375,-0.49796837247982617,-0.1390466516405344,1.0483074220575392
1776019992284160500,2.962160400390625,-0.4590403106052428,-0.1957581344217062,0.8863893056564033
1776019992294220800,2.972220703125,-0.5133143371064216,-0.2987830400884151,0.6362332260929048
1776019992304280800,2.98228076171875,-0.5678116875020787,-0.4046557364016771,0.4146761951565742
1776019992314342000,2.992341796875,-0.4741957576284185,-0.41601299671828745,0.2236414359949529
1776019992324401700,3.002401611328125,-0.20931615618560462,-0.338416546818614,0.07149228780567646
1776019992334462700,3.012462646484375,0.14911737927794455,-0.15674129828512667,-0.020144231753796336
1776019992344522800,3.022522705078125,0.4758593434590846,0.04652852694094181,-0.09072948771715164
1776019992354583800,3.032583740234375,0.6746879713673144,0.2238829896658659,-0.1820546032398939
1776019992364643600,3.0426435546875,0.687838471776247,0.3367021441161632,-0.2756638841770589
1776019992374704600,3.05270458984375,0.5615572667498141,0.28520927276611324,-0.3316882614769041
1776019992384764700,3.0627646484375,0.4254477645397186,0.13665478806793688,-0.3686971187919378
1776019992394825700,3.07282568359375,0.3124737117886543,-0.0034907647252082822,-0.41924642568156123
1776019992404885800,3.0828857421875,0.2377028407037258,-0.07587035675942898,-0.4350133191339671
1776019992414946800,3.09294677734375,0.2059890210568905,-0.103985275131464,-0.42758872209116816
1776019992425006600,3.103006591796875,0.2712823811572045,-0.14957973609268665,-0.43174145785644646
1776019992435067600,3.113067626953125,0.3511597085356712,-0.14523556940853594,-0.4426410375334322
1776019992445127700,3.123127685546875,0.45770402050018305,-0.08777589860856533,-0.4841090662144124
1776019992455188700,3.133188720703125,0.5827777494329959,0.013594225588440895,-0.4817885143123567
1776019992465248500,3.14324853515625,0.6752502083599567,0.13212415890097617,-0.49979412660226225
1776019992475309600,3.1533095703125,0.7621335420429706,0.16998714882731436,-0.5435561114393175
1776019992485369600,3.16336962890625,0.8033341519594192,0.1399222654312849,-0.6464556371606885
1776019992495430700,3.1734306640625,0.8279939614415168,0.11186463020443915,-0.8365067921124398
1776019992505490700,3.18349072265625,0.7659867103397846,0.09315116190612316,-1.049396240207553
1776019992515551500,3.193551513671875,0.6833633721888065,0.13368015617132187,-1.3045000053063034
1776019992525611500,3.203611572265625,0.57297053156998,0.18684417560398578,-1.5036315616838634
1776019992535672600,3.213672607421875,0.5368003170361743,0.20899989331066607,-1.609774160979688
1776019992545732900,3.22373291015625,0.579304447299242,0.23534254131317137,-1.6154074906915425
1776019992555793700,3.233793701171875,0.6557914746522903,0.24662907448112964,-1.517905293969065
1776019992565853700,3.243853759765625,0.7067115145504475,0.24707564920485017,-1.3733737811766564
1776019992575914500,3.25391455078125,0.67835869576931,0.26160803242623804,-1.173755756456405
1776019992585974800,3.263974853515625,0.5923357783079147,0.3529161968141794,-0.9178007813557982
1776019992596034800,3.274034912109375,0.4426046510457992,0.42155543327629563,-0.6410876803867519
1776019992606096000,3.284095947265625,0.3120084323644638,0.4681517647564411,-0.37080446633473035
1776019992616155600,3.29415576171875,0.20812954021692276,0.42471828122138977,-0.05323021653667092
1776019992626216700,3.304216796875,0.14292148377988487,0.3267214328497648,0.2437415363460779
1776019992636276700,3.31427685546875,0.11729597107078879,0.2105453691869974,0.5121550110034644
1776019992646337800,3.324337890625,0.09797284644152969,0.17746084570884704,0.6897605258800089
1776019992656397600,3.3343974609375,0.031489363241195674,0.29136604183018205,0.8106773543290794
1776019992666458600,3.344458740234375,-0.12415950016472488,0.4441372674405574,0.8548631175361573
1776019992676518700,3.3545185546875,-0.21038111853599548,0.4925006085932255,0.94142233383134
1776019992686579700,3.364579833984375,-0.21632453711032867,0.36469431289136406,1.0992449976123868
1776019992696639700,3.3746396484375,-0.19043960628006606,0.17669103038012982,1.2262770940713583
1776019992706700500,3.384700439453125,-0.25411040667984636,-0.03113631201982498,1.3050083932198584
1776019992716760600,3.394760498046875,-0.46981648309826846,-0.21738895147144793,1.3155875087708233
1776019992726821600,3.404821533203125,-0.7030944930970668,-0.3435387121379375,1.2932500047564506
1776019992736881700,3.414881591796875,-0.9005728023748845,-0.4320663058966398,1.2725203743301332
1776019992746942700,3.424942626953125,-1.0413362678706646,-0.4932476275682449,1.2939853332936764
1776019992757002500,3.43500244140625,-1.169410859119892,-0.46495209193229675,1.2972514954827725
1776019992767063600,3.4450634765625,-1.1974632336497306,-0.39353111579716205,1.3381130827032028
1776019992777123600,3.45512353515625,-1.2174176419198512,-0.35720600296258925,1.440560626873374
1776019992787184600,3.4651845703125,-1.2536229277670383,-0.295816006976366,1.4972341157317162
1776019992797244700,3.47524462890625,-1.3285644792437552,-0.25502923855781556,1.5174411835886537
1776019992807305500,3.485305419921875,-1.379502054798603,-0.26162790617048737,1.5336578666351735
1776019992817364700,3.49536474609375,-1.3348971893966197,-0.2701186711400747,1.5703623341761528
1776019992827425800,3.50542578125,-1.160626664161682,-0.2391875263035297,1.572753320965916
1776019992837485800,3.51548583984375,-0.9603964258272201,-0.13401684077978132,1.470186972721666
1776019992847547000,3.525546875,-0.8204548711735755,-0.06243044494986534,1.243322336896509
1776019992857606700,3.535606689453125,-0.7918075264252722,-0.024808862563967703,0.9436191132232546
1776019992867667700,3.545667724609375,-0.8658394157111644,-0.09009703503251075,0.6673686613298953
1776019992877727700,3.555727783203125,-0.8537959997612983,-0.18480711681842804,0.44235155306756496
1776019992887788800,3.565788818359375,-0.8036250977300107,-0.2366045240730047,0.21643559626936912
1776019992897848800,3.575848876953125,-0.7886929015360772,-0.23974048401117323,0.06925020796731114
1776019992907910000,3.585909912109375,-0.8113362566292286,-0.09529694176316261,0.0024941549032926557
1776019992917969700,3.5959697265625,-0.8323146011196076,0.09762626149356364,0.012934884896874428
1776019992928030700,3.60603076171875,-0.874420050921291,0.3593231412470341,0.10374386759102344
1776019992938090800,3.6160908203125,-1.0370013074062765,0.7031979534715413,0.25299919403493404
1776019992948151800,3.62615185546875,-1.1763900504827498,0.9796984346032142,0.3943213893920183
1776019992958211600,3.636211669921875,-1.3619899251140652,1.2124018595844506,0.5293816017448901
1776019992968272600,3.646272705078125,-1.4759890831291675,1.3080448383063077,0.659409226758033
1776019992978332700,3.656332763671875,-1.4830162052869795,1.1552192521601914,0.7800568828769028
1776019992988393700,3.666393798828125,-1.4340262566685675,0.7739847233563661,0.8576603470392524
1776019992998453800,3.676453857421875,-1.422524034923315,0.24399872597754,0.8994114304453134
1776019993008514600,3.6865146484375,-1.3435267783150076,-0.2452981181383133,0.8932295269399881
1776019993018574600,3.69657470703125,-1.1433198477908968,-0.6384142233937978,0.8838985117539763
1776019993028635000,3.706634765625,-0.9504135956689714,-0.8084756065011024,0.8745698346555233
1776019993038696000,3.716696044921875,-0.9244413884140551,-0.770461809927225,0.8424066638059914
1776019993048755700,3.726755615234375,-1.056994147990644,-0.6310480785399675,0.7379401810288428
1776019993058816800,3.736816650390625,-1.2543079874217509,-0.4865045830488205,0.596478431070596
1776019993068876800,3.746876708984375,-1.409202196535468,-0.4285375472486019,0.4880623338848352
1776019993078937900,3.756937744140625,-1.4496595868691802,-0.4683662842899561,0.5708507994696498
1776019993088998000,3.766997802734375,-1.381829620963335,-0.5467705434411764,0.8458449676916002
1776019993099059000,3.777058837890625,-1.2081234516128896,-0.6935550958573817,1.1969424246460199
1776019993109118700,3.78711865234375,-0.9294444573983549,-0.842229407542944,1.5197738643199203
1776019993119179800,3.7971796875,-0.7944859518542885,-0.8046616011708975,1.7146914562642572
1776019993129239800,3.80723974609375,-0.8287002100147306,-0.6297089388906956,1.8074471891120074
1776019993139300900,3.81730078125,-0.9381951884783803,-0.3966273282468319,1.742640954941511
1776019993149360600,3.827360595703125,-1.0571253731548786,-0.28715397709310053,1.5403762151047586
1776019993159421700,3.837421630859375,-1.1377212971314787,-0.22916940563619134,1.3307108436226844
1776019993169481700,3.847481689453125,-1.028514341828972,-0.16778642391264437,1.2120837335459886
1776019993179542800,3.857542724609375,-0.7810168139502406,-0.17073182971477507,1.113332121284306
1776019993189602800,3.867602783203125,-0.48662543294951316,-0.2595195357143879,1.0347060360759497
1776019993199663900,3.877663818359375,-0.21833149301856755,-0.29254794509112836,1.0323337539866566
1776019993209723600,3.8877236328125,-0.04300765933841467,-0.30616788964271546,1.0769657996565103
1776019993219784700,3.89778466796875,0.0909682649090886,-0.39874680461883544,1.0823042380750179
1776019993229844700,3.9078447265625,0.2809285267069936,-0.5516033704251051,0.9996706707909703
1776019993239905800,3.91790576171875,0.42695816910266876,-0.7163280686795711,0.7929828538149595
1776019993249965600,3.927965576171875,0.3814040401518345,-0.8059025411427021,0.4907216162219643
1776019993260026600,3.938026611328125,0.23533698835521935,-0.7543436188191175,0.16177257045060395
1776019993270086700,3.948086669921875,0.06136076989173889,-0.6713327426552772,-0.25959844616949557
1776019993280147700,3.958147705078125,-0.15285539676249027,-0.5502542939037084,-0.7189268530011177
1776019993290207700,3.968207763671875,-0.38432986447066064,-0.41933658818304537,-1.2809414350643753
1776019993300268500,3.9782685546875,-0.6563366874448955,-0.26265900278389454,-1.933063865815103
1776019993310328800,3.988328857421875,-0.8447846449837088,-0.14321195462644098,-2.569965638819337
1776019993320389600,3.9983896484375,-0.8965040185660124,-0.0771025289028883,-3.0886706559881567
1776019993330450000,4.008449951171875,-0.7512146731436252,0.016959902629256247,-3.3971652350127695
1776019993340510700,4.0185107421875,-0.27796733881384134,0.13033318383097647,-3.481334049040079
1776019993350570800,4.02857080078125,0.2624254862889647,0.2794809582471847,-3.425888932932913
1776019993360631800,4.0386318359375,0.5821057684555649,0.29214111785590646,-3.2941455900430676
1776019993370691800,4.04869189453125,0.6319926659137011,0.1389110425621271,-3.0821807094469666
1776019993380753000,4.0587529296875,0.3518970828995108,-0.04755670094490051,-2.7878362363278866
1776019993390813000,4.06881298828125,-0.06989157461076974,-0.10723170970678329,-2.303373680500686
1776019993400873700,4.078873779296875,-0.4602630573332309,-0.0027478374034166334,-1.609272641198337
1776019993410933800,4.088933837890625,-0.614372253549099,0.17021335879862307,-0.7792091800063848
1776019993420994800,4.098994873046875,-0.6920742096498608,0.2963449992865324,0.07680734534859657
1776019993431054800,4.109054931640625,-0.7591410822287201,0.2869675146102905,0.8762988504052162
1776019993441116000,4.119115966796875,-0.9912672918438911,0.10043664273917674,1.5570198913916944
1776019993451175700,4.12917578125,-1.2596319589234888,-0.11043547418415546,2.1434256951287387
1776019993461236700,4.13923681640625,-1.3646179355300962,-0.3062964844584465,2.7223709537267684
1776019993471296800,4.149296875,-1.428633749975264,-0.538658548656106,3.2967703855887054
1776019993481357800,4.15935791015625,-1.4734722780026495,-0.8528753047198057,3.7771778208062052
1776019993491417600,4.16941748046875,-1.441355284382403,-1.1549801827073096,4.266345193323493
1776019993501478700,4.179478759765625,-1.2830240865573286,-1.3706477172136307,4.7144820517942305
1776019993511538700,4.18953857421875,-0.979714655085653,-1.4819406850099563,5.035025965052843
1776019993521599700,4.199599853515625,-0.6439755107827484,-1.5007067602783442,4.998685070127248
1776019993531659800,4.20965966796875,-0.4915840782701969,-1.4584528419166802,4.623305989353359
1776019993541720800,4.219720947265625,-0.5962438916623592,-1.2629787851333618,4.230661593262851
1776019993551780600,4.229780517578125,-0.7739385461270809,-1.1474702454686163,3.9130782833755013
1776019993561841700,4.239841552734375,-0.893974646218866,-1.2799258282810448,3.6730551830306646
1776019993571901700,4.249901611328125,-0.9786942259967326,-1.4789093544900416,3.401385483056307
1776019993581962800,4.259962646484375,-1.085755109181255,-1.533732247045636,3.0952167166307567
1776019993592022800,4.270022705078125,-1.1786300844945012,-1.4743886621952056,2.799332905115187
1776019993602083600,4.28008349609375,-1.310206838645786,-1.319969084855914,2.4176143921867013
1776019993612143900,4.290143798828125,-1.558424059101194,-1.1074468626379965,1.946407623773813
1776019993622204700,4.30020458984375,-1.9680945549249649,-0.9450608364641666,1.451144272468984
1776019993632265000,4.310264892578125,-2.443285278407484,-0.8186538861662149,1.0678267999112605
1776019993642325800,4.32032568359375,-2.59901696125865,-0.7734153990358114,1.0445721810519695
1776019993652385800,4.3303857421875,-2.4090111067533493,-0.8987982669830322,1.2096201199114323
1776019993662446800,4.34044677734375,-2.0039805456899105,-1.1194465125113724,1.2932424059718846
1776019993672507000,4.3505068359375,-1.5145663588047027,-1.2093880647212267,0.8936392767846584
1776019993682568000,4.36056787109375,-1.185744738805294,-0.9351227952957153,0.027318215036392212
1776019993692627700,4.370627685546875,-1.1253883236505091,-0.4286760789364576,-0.8695242417037486
1776019993702688800,4.380688720703125,-1.449117442816496,-0.06462474012374878,-1.496753346477449
1776019993712748800,4.390748779296875,-1.8580663463674485,0.01632102020382881,-1.7985946050927042
1776019993722809900,4.400809814453125,-2.0016426042616366,-0.0779039084136486,-1.8683564158439636
1776019993732870000,4.410869873046875,-1.578811159700155,-0.12099018594622611,-1.7241250550419092
1776019993742930700,4.4209306640625,-0.6110171709675342,0.09000643413960933,-1.4719710796594618
1776019993752990700,4.43099072265625,0.43943771144747734,0.7173439677238463,-1.252730070580542
1776019993763051800,4.4410517578125,1.074297457230091,1.6572306164205073,-1.2618567953661084
1776019993773111800,4.45111181640625,1.3167968845605849,2.5592729798913,-1.4781927306532858
1776019993783172900,4.4611728515625,1.3953963740229607,3.240300018087029,-1.7542136115744709
1776019993793232600,4.471232666015625,1.6845698742449282,3.5734050144940612,-1.90130796059221
1776019993803293700,4.481293701171875,2.221525710636377,3.447144779190421,-1.7861898815497754
1776019993813353700,4.491353759765625,2.7984160825312134,2.8559441423922776,-1.6270780547410248
1776019993823414800,4.501414794921875,3.294991977739334,1.9917612617164848,-1.612974710586667
1776019993833474800,4.511474853515625,3.3692215815544126,1.0247317545503378,-1.77816205791682
1776019993843536000,4.521535888671875,3.1784991032123564,-0.030661095723509786,-1.9753595774918793
1776019993853595600,4.531595703125,3.118302700924873,-1.1771277171075343,-2.142093277481198
1776019993863656700,4.54165673828125,2.954124530637264,-1.7926023789405823,-2.2397461347207424
1776019993873716700,4.551716796875,2.3287597584307194,-1.7796423596024513,-2.381241933079064
1776019993883777800,4.56177783203125,1.7607646406531332,-1.4066267930895089,-2.4723835087284445
1776019993893837600,4.571837646484375,1.465448984414339,-0.6895657339602709,-2.4014871409893033
1776019993903898600,4.581898681640625,1.4533458741664886,0.3340238648176193,-2.184042075416446
1776019993913959000,4.591958984375,1.9724644405722618,1.3810101212739945,-1.8554244535565376
1776019993924019700,4.602019775390625,2.97910465811491,2.3946628479272127,-1.6286530489727853
1776019993934080000,4.612080078125,3.862084593719244,3.3557594579130408,-1.5312243558779357
1776019993944140800,4.622140869140625,3.856563199949264,4.607099243178963,-0.9523436869487166
1776019993954200800,4.632200927734375,6.7797641845345495,5.519378923025727,-2.1262249694809316
1776019993964262000,4.642261962890625,5.905725095754861,5.121133638188242,-2.088064165651798
1776019993974322000,4.652322021484375,3.2870681990027424,3.994964539423585,-2.3700590064160525
1776019993984383000,4.662383056640625,1.647094714592397,3.2894811053633686,-3.1392870367646215
1776019993994442800,4.67244287109375,1.0439010037921368,1.9937872145861386,-3.448221468511224
1776019994004503800,4.68250390625,1.212406097368151,0.6164122349441051,-3.4213726245522498
1776019994014563800,4.692563720703125,1.104080016553402,-0.07110825692415237,-2.966416149194538
1776019994024625000,4.702625,0.998227778506279,-0.35873043605089183,-2.3072667424164712
1776019994034685000,4.712684814453125,1.1282418133854866,-0.6507680935323238,-1.727269782808423
1776019994044746000,4.72274609375,1.1566260502181946,-0.8524415894776582,-1.411906194797158
1776019994054805800,4.7328056640625,0.7338204707503319,-0.9180313752412795,-1.4300607140384614
1776019994064866800,4.74286669921875,0.19471797771900892,-1.1790145537674426,-1.6541776585906742
1776019994074926800,4.7529267578125,-0.24364056018963454,-1.5760948864787816,-1.9213582304522394
1776019994084988000,4.76298779296875,-0.6637269438266754,-2.1537451368302105,-2.0829526678569614
1776019994095047700,4.773047607421875,-0.7524211263239383,-2.7917823436051608,-2.075038241470605
1776019994105108700,4.783108642578125,-0.6253052971042692,-3.2604373817086216,-1.955804543802887
1776019994115168800,4.793168701171875,-0.47575654067173595,-3.4823750825256106,-1.6524181015722452
1776019994125229800,4.803229736328125,-0.06617343087047338,-3.3180256473243235,-1.2154516025438904
1776019994135289900,4.813289794921875,0.5631216665223241,-2.89784617857635,-0.766313311945647
1776019994145350700,4.8233505859375,1.3578925727978348,-2.323642269286513,-0.44253392389714713
1776019994155410700,4.83341064453125,2.210157052142918,-1.529075361150503,-0.3769656193129718
1776019994165471700,4.8434716796875,1.4082088015839456,-2.0809318295538426,-0.2097993731252849
1776019994175531800,4.85353173828125,0.05764467197805643,-2.063047213295102,-0.6784839295841754
1776019994185592800,4.8635927734375,-1.4640098915219306,-2.5180127487421036,-1.1286742134533823
1776019994195652600,4.873652587890625,-2.517771048940718,-3.060980392768979,-1.4182671081312
1776019994205713700,4.883713623046875,-3.04479878103584,-3.6156390591114755,-1.3732799654133616
1776019994215773700,4.893773681640625,-3.2413138713046905,-4.041335245454311,-1.0886550684064626
1776019994225834800,4.903834716796875,-3.2420974228978157,-3.91315485574305,-0.6685182697564364
1776019994235895000,4.91389501953125,-3.0167449452012773,-3.6824405587524174,-0.19045359827280042
1776019994245955600,4.92395556640625,-2.3087089040488005,-3.44496451254189,0.3800447344973683
1776019994256016000,4.934015869140625,-1.1381649492457508,-3.278627702915668,0.9277148571267724
1776019994266077000,4.944076904296875,0.041325113078951835,-3.060349693650007,1.300242201731354
1776019994276137000,4.954136962890625,0.28552696041315795,-2.6211305933892723,1.5480102171145378
1776019994286198000,4.964197998046875,-0.2577010881155729,-2.3252999733656643,1.165552430126071
1776019994296257800,4.9742578125,-1.6010206534206866,-2.164232044053078,0.7658540238708257
1776019994306318800,4.98431884765625,-3.1257454181462525,-2.022218359300494,0.20526640587076544
1776019994316379000,4.99437890625,-3.908267668223381,-1.944170073980093,-0.1960923348121345
1776019994326440000,5.00443994140625,-3.266858062405884,-2.3354653935492036,-0.08127499228194356
1776019994336499700,5.014499755859375,-2.2402365485861897,-2.9329297669172285,0.17351934154145418
1776019994346560800,5.024560791015625,-1.945663527408242,-2.923019782799482,-0.11699746304824947
1776019994356620800,5.034620849609375,-2.650934195500612,-2.3946195933073757,-0.8994453327149152
1776019994366681900,5.044681884765625,-3.1254128251910207,-2.122411840933561,-1.4439485157459973
1776019994376742000,5.054741943359375,-2.398580313631892,-2.311128240150213,-1.3722250495329498
1776019994386803000,5.064802978515625,-1.0647402320727706,-2.689778597679734,-0.8579052617110311
1776019994396862700,5.07486279296875,-0.859517811474204,-2.649226222538948,-0.6979217666342854
1776019994406923800,5.084923828125,-1.0672352637588978,-1.4049737651854752,-1.1079378610253334
1776019994416983800,5.09498388671875,-0.46983927945196624,-0.36344109795987606,-1.2841225493185222
1776019994427044900,5.105044921875,0.7925058839529753,0.3528986611574888,-1.023929205995798
1776019994437104600,5.115104736328125,1.8025532795906065,0.9679758481055497,-0.407217549713701
1776019994447165700,5.125165771484375,1.829231443157792,1.325293494749069,0.2326728106472641
1776019994457225700,5.135225830078125,1.5993109268933534,1.7141817531764507,0.7797638182144612
1776019994467286800,5.145286865234375,1.7903361875742674,1.9508757090985773,1.268597501797974
1776019994477346800,5.155346923828125,2.2406045051157473,2.137433468976617,1.496085530218482
1776019994487407600,5.16540771484375,2.6906787613898513,2.4538059417694806,1.3078497541256249
1776019994497467600,5.175467529296875,3.0960733334600925,2.6626287249475715,0.7046892149426043
1776019994507528700,5.18552880859375,2.718833427250385,2.0336504384189844,0.03762377434298396
1776019994517588700,5.195588623046875,1.60468852827847,1.329006962314248,-0.5385708703726529
1776019994527649800,5.20564990234375,1.174873800700903,0.06950023720562458,-0.5013242587789893
1776019994537709800,5.215709716796875,0.8438245677798986,-0.8457797935009003,-0.6934516354829072
1776019994547770600,5.2257705078125,0.40805356214642524,-1.0633359182327986,-1.1693486075386403
1776019994557831000,5.235830810546875,0.01316869365274906,-1.5344827731519937,-1.271538523685932
1776019994567891700,5.2458916015625,0.14061726195812224,-2.072715205350518,-1.0269970691338182
1776019994577952000,5.255951904296875,-0.7229840194374323,-1.9975842687815426,-1.0947112997055053
1776019994588012800,5.2660126953125,-1.1165110435813665,-1.5102899966597556,-1.3857047088310122
1776019994598072800,5.27607275390625,0.4060866459876299,-1.1109060631811618,-0.6399670057937502
1776019994608134000,5.2861337890625,1.1495195792138575,-0.21296821241974828,-0.13135112870186566
1776019994618194000,5.29619384765625,0.8883423394203186,1.0168260959923268,-0.11318652645796537
1776019994628255000,5.3062548828125,1.6332365773707627,1.6733844633638857,0.003300502850115299
1776019994638314800,5.316314697265625,2.444192894771695,2.1473142269998786,-0.23102584715783595
1776019994648375800,5.326375732421875,2.435875148281455,2.1080992379426955,-0.47554041370302436
1776019994658435800,5.336435791015625,2.1673913848668334,1.4482733932077885,-1.0840908292308449
1776019994668497000,5.346496826171875,2.033345317992568,0.7007382853597403,-1.6931988786414265
1776019994678557000,5.356556884765625,1.2514233718961476,-0.3709451899796724,-1.9464850729241967
1776019994688617700,5.36661767578125,0.4838642976731062,-1.4141145184963941,-1.9190321255922316
1776019994698678800,5.3766787109375,-0.28578970300257206,-2.3761697443813086,-1.656264986258745
1776019994708738800,5.38673876953125,-1.0914677877396344,-2.7328999465256927,-1.2166565944194794
1776019994718800000,5.3967998046875,-1.3366735514193773,-2.354281153178215,-0.4136828002050519
1776019994728860000,5.40685986328125,-1.5264111103773117,-1.804469926866889,0.5205319403350352
1776019994738920700,5.416920654296875,-1.9047499177396296,-0.9758014271646738,1.1239859095066784
1776019994748980700,5.426980712890625,-2.1541987258166073,-0.08257599187791347,1.3505562385603784
1776019994759041800,5.437041748046875,-2.0469331138402223,0.7924146985381841,1.4190373618513346
1776019994769101800,5.447101806640625,-1.47840900375247,1.8788281254976986,0.9290890680894255
1776019994779163000,5.457162841796875,-0.26463936294615265,3.174656456309557,-0.28146219519227744
1776019994789222700,5.46722265625,1.0213029491454362,4.228560529330372,-1.4735726696372031
1776019994799283700,5.47728369140625,1.8957067795842886,4.682274603411555,-2.4613573800623416
1776019994809343700,5.48734375,2.538709499812126,4.575860055306554,-3.2602120485201476
1776019994819405800,5.49740576171875,3.3763767140060663,4.224809067842364,-3.783011641526222
1776019994829465900,5.5074658203125,4.491224792811274,3.8062189141124483,-3.9105452577665445
1776019994839527000,5.51752685546875,5.324450225165486,3.6271085476309057,-3.668871467605233
1776019994849587000,5.5275869140625,4.611199664235115,3.0210505334407087,-3.3866333196043965
1776019994859648000,5.53764794921875,4.676452765390277,2.283132564243674,-2.470940616443753
1776019994869707800,5.547707763671875,4.224344957461953,2.1399574344962833,-1.5369982631042598
1776019994879768800,5.557768798828125,3.488644079792499,2.1379788278996945,-0.8323965803146361
1776019994889828900,5.567828857421875,2.506208329179883,1.9834797555834054,-0.2414914193317294
1776019994899890000,5.577889892578125,1.6982108615845442,2.4752871212154623,-0.0394312621563673
1776019994909949700,5.58794970703125,1.9539023634433745,4.012078171309828,-0.01948211458325386
1776019994920010800,5.5980107421875,3.1416438290238378,2.0386253042221067,-0.07321399703174829
1776019994930070800,5.60807080078125,3.4643279691815376,-1.3008587261945008,-1.1360551174849272
1776019994940131800,5.6181318359375,1.3455442556172608,-3.9948827063590286,-2.331352113011479
1776019994950191900,5.62819189453125,0.09820260007679461,-5.393924743407965,-2.9421061760634184
1776019994960253000,5.6382529296875,-1.3721867633491753,-3.893250131833553,-2.3860414423152805
1776019994970313000,5.64831298828125,-3.142102678707242,-1.7048194660693405,-1.5336799323365091
1776019994980373800,5.658373779296875,-3.628659868726134,-0.684973729994893,-0.8570064131751656
1776019994990434000,5.66843408203125,-3.406166872113943,-0.3933692032337188,-0.3075010379426181
1776019995000494800,5.678494873046875,-3.5123201389342547,-0.5340840803474187,-0.12850275353342294
1776019995010555000,5.688554931640625,-3.352036053475737,-1.2006722588241099,-0.2435781624779105
1776019995020616000,5.698615966796875,-0.4602577966362238,-1.855895578199625,0.4660086152479052
1776019995030676000,5.708676025390625,5.790811014851927,-1.3017080365002154,1.9859008452504872
1776019995040737000,5.718737060546875,11.349147152781486,1.523124343791604,1.2139786073818801
1776019995050797800,5.7287978515625,8.16337425917387,5.327127335420251,-2.2511239994339642
1776019995060857900,5.73885791015625,-0.7488765855848789,6.50448769223988,-3.1465824544698
1776019995070919000,5.7489189453125,-4.31838400811851,5.565134127506614,-1.1956905248887837
1776019995080979000,5.75897900390625,-4.12017029723823,3.6044366970956325,0.039405250932276245
1776019995091040000,5.7690400390625,-4.029332088449597,1.649834660950303,0.93562000422813
1776019995101100000,5.77910009765625,-3.596298983347416,-0.09333002560436725,2.631651987403631
1776019995111161000,5.7891611328125,-3.2700726405382152,-1.3073591941297054,5.123026320067048
1776019995121220900,5.799220947265625,-4.222997634506226,-1.5099240859568117,7.404779997172951
1776019995131282000,5.809281982421875,-4.848072483855486,-0.8353098374128342,8.672304609042406
1776019995141342000,5.819342041015625,-3.7387615809112784,0.09367489351928233,8.950494942957162
1776019995151403000,5.829403076171875,-1.5632459262996912,1.0904314304292202,8.993425737667083
1776019995161462800,5.839462890625,-0.014225509229302406,1.8253034560590982,8.59788269752562
1776019995171523800,5.84952392578125,-0.11171733068823814,2.123244200104475,6.87096245880723
1776019995181584000,5.859583984375,-0.4137579112678766,1.4543553434699772,3.61812123131603
1776019995191645000,5.86964501953125,-0.26419278822243214,1.05620884283185,0.8660781198378652
1776019995201705000,5.879705078125,0.08999182109236717,1.2543717003077268,-1.1664810162130743
1776019995211766000,5.88976611328125,0.630487522047758,1.5069962158113717,-2.642090087048709
1776019995221825800,5.89982568359375,1.0913117203950882,1.3857324736207723,-3.8158869061678646
1776019995231886800,5.909886962890625,1.2111883921414612,0.7579016035616397,-4.64894721108824
1776019995241947000,5.91994677734375,1.2133312493890522,-0.17624387113451956,-5.0196717440545555
1776019995252008000,5.930008056640625,0.8888900364309549,-1.1392214725613594,-5.050060452577472
1776019995262067700,5.940067626953125,0.3870844238758087,-1.3883201520264148,-3.8673686716020104
1776019995272128800,5.950128662109375,0.068671385166049,-0.7900888859391212,-1.6281335551433265
1776019995282188800,5.960188720703125,-0.13774082973897456,-0.9432458959966897,0.17018226954061538
1776019995292249900,5.970249755859375,-0.5392436550676822,-1.5837936242878436,1.5868658713400363
1776019995302311000,5.980310791015625,-1.0926596278727054,-2.0783242774039508,2.4920275358751414
1776019995312370700,5.99037060546875,-1.2978612979441881,-2.021933112618327,3.0353537840813396
1776019995322431700,6.000431640625,-1.1297656619518994,-1.4585264916747807,3.116128571756184
1776019995332491800,6.01049169921875,-0.6222364110529423,-0.6893710881710052,2.3880546818338333
1776019995342552800,6.020552734375,0.019309680625796317,-0.06308218685686588,1.0628338139295577
1776019995352612900,6.03061279296875,0.4078799591451883,0.3206739693790674,-0.3240557938370853
1776019995362674000,6.040673828125,0.5606237122267484,0.49581484770774836,-1.587753321699053
1776019995372734000,6.05073388671875,1.0059516507565975,0.4018605527251959,-2.360036940225959
1776019995382794800,6.060794677734375,1.5931430519133805,0.08728197761178016,-2.5671669480115176
1776019995392855000,6.07085498046875,1.7504951755732296,-0.229373403775692,-2.486922029429674
1776019995402915800,6.080915771484375,1.6681775423705576,-0.35625440132617947,-2.0676561683952808
1776019995412975900,6.090975830078125,1.244794601406157,-0.015759294667840002,-1.0156920504610985
1776019995423037000,6.101036865234375,0.5762210943311452,0.27944530241191384,0.0251085761629045
1776019995433097000,6.111096923828125,0.07394435713291168,0.21917583488821982,0.7215825551416725
1776019995443158000,6.121157958984375,-0.3025172581806779,-0.07762041529715061,1.164920635028556
1776019995453218000,6.131218017578125,-0.6003606793314218,-0.4372685507148504,1.3196071196757255
1776019995463278800,6.14127880859375,-0.5655252205327153,-0.770070180261135,1.3854144937127828
1776019995473339000,6.1513388671875,-0.1614724184602499,-0.9445423655480146,1.3516414034485815
1776019995483400000,6.16139990234375,0.17070464944690464,-0.9132517397493124,1.1316110706228761
1776019995493460000,6.1714599609375,0.229882522341609,-0.6229840145498514,0.7570225557047874
1776019995503521000,6.18152099609375,0.19475334129333494,-0.18693360745310783,0.31683446428142487
1776019995513582000,6.19158203125,0.17881518292725085,0.23629472747147082,-0.018009777008369563
1776019995523641900,6.201641845703125,0.31900895877629515,0.557472554719448,-0.13009937507510186
1776019995533703000,6.211702880859375,0.5986319558426737,0.666797437313199,-0.29293299888595936
1776019995543763000,6.221762939453125,0.7546890712559223,0.5860790560007095,-0.5488020492687821
1776019995553824000,6.231823974609375,0.8772294092535972,0.28539748881459237,-0.8598162829641253
1776019995563883800,6.2418837890625,0.9314832697495817,-0.15936112539470196,-1.164625670669973
1776019995573944800,6.25194482421875,0.9367828374624252,-0.39460254442095755,-1.2443208464145659
1776019995584004900,6.2620048828125,0.7882853436484932,-0.3319382907152176,-1.1035302006509153
1776019995594066000,6.27206591796875,0.5809510454624891,-0.14181611635386943,-0.8203769105665385
1776019995604126000,6.2821259765625,0.4186412993952632,-0.0355623117685318,-0.5710544322829694
1776019995614187000,6.29218701171875,0.26271336331963535,-0.06229191326200962,-0.3807902921676635
1776019995624246800,6.302246826171875,0.17223171288371086,-0.19167232641279697,-0.06947758698239923
1776019995634307800,6.312307861328125,0.03960720324516296,-0.2846282580077648,0.30868126070313157
1776019995644368000,6.322367919921875,-0.06179419287294149,-0.39083880797326565,0.6238257260710001
1776019995654429000,6.332428955078125,-0.0530032759130001,-0.6004670623153447,0.985730408243835
1776019995664488700,6.34248876953125,0.06830605898499488,-0.8006447667449712,1.3418511001877487
1776019995674549800,6.3525498046875,0.21637977442890405,-1.0183610504746436,1.54726933561936
1776019995684609800,6.36260986328125,0.30751345903277394,-1.1627309429645538,1.5504359829567371
1776019995694670800,6.3726708984375,0.3648983110308647,-1.216824936723709,1.3552359208092093
1776019995704731000,6.38273095703125,0.43564051112160085,-1.3022937274336814,1.0433606863703577
1776019995714791700,6.392791748046875,0.6315709333702921,-1.384619543942809,0.7964408853143453
1776019995724852700,6.402852783203125,0.8740848276175558,-1.3663041350513696,0.5706851605791599
1776019995734912800,6.412912841796875,1.1578666979290544,-1.2264134338021278,0.39630971366502343
1776019995744973800,6.422973876953125,1.3689407671652734,-1.0159779547303915,0.2820861175105907
1776019995755033900,6.433033935546875,1.5153447958312927,-0.7302928811460733,0.25133195494245736
1776019995765095000,6.443094970703125,1.5252245309412478,-0.5059978035479784,0.2736595951499417
1776019995775155000,6.453155029296875,1.5177181008338927,-0.39214930604994297,0.16521270096711813
1776019995785215700,6.4632158203125,1.5536346328675745,-0.3888403276324272,-0.045419935511378566
1776019995795276000,6.473276123046875,1.4960942980468273,-0.44480479143857954,-0.3954548504013568
1776019995805336800,6.4833369140625,1.4373147768199444,-0.4991150582969188,-0.7588279246263205
1776019995815396900,6.49339697265625,1.3969804283440113,-0.5042436533570289,-1.02696791610457
1776019995825457200,6.50345703125,1.0027215827941893,-0.39663668059706686,-1.4000862854048608
1776019995835517000,6.513516845703125,-0.017850677456520497,0.04104804970324039,-1.9950540196515618
1776019995845578000,6.523577880859375,-1.277892861148715,0.7160065816402434,-2.387894084444642
1776019995855638000,6.533637939453125,-2.3520422882102427,1.229139643895626,-2.552916596601903
1776019995865699000,6.543698974609375,-2.9071383230566976,1.422130651691556,-2.172204045845568
1776019995875759000,6.553759033203125,-3.409605614390969,1.5025059186547993,-1.2836384190633892
1776019995885820000,6.56381982421875,-3.92729210216701,1.4430115271568298,-0.12423472082540392
1776019995895881000,6.573880859375,-4.59375227034986,1.2854951528459786,0.4290861210420727
1776019995905941000,6.58394091796875,-4.552773778751492,0.6325812794566155,0.667139821010083
1776019995916002000,6.594001953125,-3.7638182807564733,0.32641046720445155,0.45505869362317025
1776019995926062000,6.60406201171875,-2.437835634699464,0.2139659912854433,0.17956190964132546
1776019995936123000,6.614122802734375,-1.22982236546278,0.6365484295219183,-0.07311930448561907
1776019995946183000,6.624182861328125,-0.2980729921229183,1.232957156357169,-0.15306450946852565
1776019995956244000,6.634243896484375,0.044387277128547425,1.7002981892526148,0.042916181662678715
1776019995966304000,6.644303955078125,-0.1984673933804035,1.8967963283866642,0.37156200670376416
1776019995976365000,6.654364990234375,-0.5404601912505924,1.647833842521906,0.8287320664577186
1776019995986424800,6.6644248046875,-0.8772073435522615,1.1276070226132868,1.2627229106761515
1776019995996486000,6.67448583984375,-1.0392072930179537,0.4840893386006355,1.5688639123119412
1776019996006546000,6.6845458984375,-0.8759341087460517,-0.2186795758038759,1.7905771567232907
1776019996016607000,6.69460693359375,-0.709960141082853,-1.1744874317318201,2.0981866234764457
1776019996026667000,6.7046669921875,-0.4792353957634419,-1.589214480292797,2.0172607368931175
1776019996036727800,6.714727783203125,-0.4948940796010196,-1.7474316963493823,1.7809814992517232
1776019996046788900,6.724788818359375,-0.558070374482125,-1.5932646324664352,1.3760484072133898
1776019996056849000,6.734848876953125,-0.5179156203567982,-1.1764677918940782,0.7994748461827635
1776019996066910000,6.744909912109375,-0.4210100743532181,-0.6384072091311216,0.23921441431045531
1776019996076970000,6.754969970703125,-0.24340558238998053,0.036544308543205256,-0.19964228237867354
1776019996087031000,6.765031005859375,-0.15914711731784045,0.4839151510775089,-0.766961400590837
1776019996097091000,6.775091064453125,-0.15248656345009803,0.7216933951050043,-1.2666741325199604
1776019996107152000,6.78515185546875,-0.30399697534441944,0.8881938708603382,-1.679723018735647
1776019996117212200,6.795212158203125,-0.48348560055382545,1.060798508709669,-1.976367293229699
1776019996127273000,6.80527294921875,-0.4665285474687814,1.1050742882877587,-1.9556553445905447
1776019996137333000,6.8153330078125,-0.5450934770744293,0.9966191742658614,-1.7010151053503155
1776019996147394000,6.82539404296875,-0.587625627855584,0.7194330489575862,-1.2685571697875857
1776019996157454000,6.8354541015625,-0.5547510938663035,0.43353754749298096,-0.7075918045163154
1776019996167515100,6.84551513671875,-0.5649925018955022,0.06226677882075309,-0.20464812784194944
1776019996177576200,6.855576171875,-0.5809153530946001,-0.3716635673820972,0.24136954651772974
1776019996187636000,6.865635986328125,-0.5993634849876165,-0.7198264321893453,0.609541764652729
1776019996197697000,6.875697021484375,-0.6157277598112821,-0.9072147976726294,0.9045964318677783
1776019996207757000,6.885757080078125,-0.502345162791945,-0.9745213242262601,1.1361311053305865
1776019996217818000,6.895818115234375,-0.3132236533731222,-0.9154273302227258,1.3057590654566884
1776019996227878100,6.905878173828125,-0.10824236632036044,-0.7841004591792822,1.3562921518638729
1776019996237939200,6.915939208984375,0.07517066579116508,-0.5908657057553529,1.283385321085155
1776019996247999000,6.9259990234375,0.2521720955610275,-0.4356722214341163,1.0812293023198842
1776019996258060000,6.93606005859375,0.34551965682208535,-0.290650002515316,0.7880866062059998
1776019996268120000,6.9461201171875,0.3550339196205139,-0.12376841848790644,0.4718324990957975
1776019996278181000,6.95618115234375,0.25595862836241723,0.24424656325876712,0.2908829344883561
1776019996288241000,6.966240966796875,-0.10663199024796485,0.6367185253918171,0.18728344380408524
1776019996298302000,6.976302001953125,-0.6243243232429028,0.9760141931325197,0.14635902048051355
1776019996308363000,6.986363037109375,-1.0738917990386485,0.9491863919615745,0.05523205787837505
1776019996318423000,6.996423095703125,-1.193570317864418,0.13281272568702698,-0.3316211875900626
1776019996328484000,7.006484130859375,-0.5604173759996891,-1.4359171849817036,-0.9802800338834523
1776019996338544000,7.016544189453125,0.4452185964038595,-2.2919050687640903,-1.1783850236922502
1776019996348605000,7.02660498046875,0.8597627261459827,-2.042569657933712,-1.0232713266089557
1776019996358665000,7.0366650390625,0.6456348222970962,-1.3548632881045342,-0.7809475481063127
1776019996368726000,7.04672607421875,0.3254313930392265,-0.5984995616346598,-0.3817416015431285
1776019996378786000,7.0567861328125,0.048986368421837685,0.25751228754520417,0.18688596891909837
1776019996388847000,7.06684716796875,-0.26692060575112697,0.979126187673211,0.608879793612659
1776019996398907000,7.076906982421875,-0.5114285964250564,1.5657336514621971,0.9368301837354898
1776019996408968000,7.086968017578125,-0.6983646150309593,1.9748264935284852,1.0832117083087562
1776019996419028000,7.097028076171875,-0.8276842379052192,2.0126532430976627,1.0826280632019043
1776019996429089000,7.107089111328125,-0.9005648382641375,1.3309013977587223,0.6503858162164687
1776019996439150000,7.117150146484375,-0.5964158141631632,0.045270051312446595,-0.05653524943143129
1776019996449209900,7.1272099609375,-0.10372443223819136,-0.951844797515869,-0.5022857972875238
1776019996459271000,7.13727099609375,0.31001747774295507,-1.1743138287305832,-0.57167088368088
1776019996469331000,7.1473310546875,0.48373394929170604,-0.7719026563853025,-0.3958882003173232
1776019996479392000,7.15739208984375,0.44749227695688604,-0.023829788398742675,-0.16449907280504703
1776019996489452000,7.1674521484375,0.2662029590010643,0.6304454364717006,-0.07151303833276033
1776019996499512800,7.177512939453125,-0.04398892546072602,1.0587164417386055,-0.0693207889854908
1776019996509572900,7.18757275390625,-0.32547128665819763,0.969109236049652,-0.20812311047613619
1776019996519634000,7.197634033203125,-0.43932782133221626,0.4525841932684183,-0.3732189801305532
1776019996529694200,7.207694091796875,-0.528525861698389,-0.27399405126869675,-0.5054080209612846
1776019996539755000,7.217755126953125,-0.5661749166131019,-1.1776350821077823,-0.5599795691043138
1776019996549815800,7.22781591796875,-0.4311879156269133,-1.9078017065256834,-0.4375555509626865
1776019996559875800,7.237875732421875,-0.20649170988202095,-2.3492203626573085,-0.1645522642970085
1776019996569937000,7.24793701171875,0.09805924608334898,-2.571678872478008,0.18705138861387968
1776019996579997200,7.2579970703125,0.42365664333924646,-2.62137784614861,0.5318427311614156
1776019996590058000,7.26805810546875,0.7959608467124402,-2.534638889372349,0.7597939931795
1776019996600118000,7.278117919921875,1.1290475768104196,-2.179190543732047,0.8488172615006565
1776019996610179000,7.288178955078125,1.3981135240271687,-1.5180156224757433,0.7951996530815959
1776019996620239000,7.298239013671875,1.681799240487814,-0.5296732781678438,0.5958785654813051
1776019996630300200,7.308300048828125,1.9779028322339056,0.6058166066497565,0.2578130240574479
1776019996640361000,7.31836083984375,2.1113456725180146,1.6692238365530967,-0.060444239568710326
1776019996650421000,7.3284208984375,2.0248682892873884,2.4927134723126887,-0.34959085178375243
1776019996660482000,7.33848193359375,1.621848337393999,2.9043969153940674,-0.6590332330524921
1776019996670542000,7.3485419921875,1.0893149936199187,2.6880139260947704,-1.0318395407289267
1776019996680603100,7.35860302734375,0.5686437909446657,1.749146099051833,-1.479162452468276
1776019996690663200,7.3686630859375,0.19905103848725555,0.49851709240376946,-1.7722551719605921
1776019996700724200,7.37872412109375,-0.03455225794315338,-0.41316812868118286,-1.7323907790839672
1776019996710784000,7.388783935546875,-0.22833967681378126,-0.754913527661562,-1.32221481795609
1776019996720845000,7.398844970703125,-0.42839696973413227,-0.6529951219320297,-0.7359563137352466
1776019996730905000,7.408905029296875,-0.6065526658393442,-0.4500029446035623,-0.1743511892557144
1776019996740966100,7.418966064453125,-0.7245674892365932,-0.22626374732255936,0.1746948881268501
1776019996751027200,7.429027099609375,-0.633175153696537,-0.2006675337731838,0.250317407605052
1776019996761087000,7.4390869140625,-0.4130350038208067,-0.3732072896927595,0.145617846724391
1776019996771148000,7.44914794921875,-0.22678616376146674,-0.6487719512790441,0.04580430431962013
1776019996781208000,7.4592080078125,0.01801145750880241,-1.1509364602744578,0.00001052139401435852
1776019996791269000,7.46926904296875,0.2904125404976308,-1.6517875485837459,0.10754793604910373
1776019996801329000,7.479328857421875,0.5388436959646642,-2.0089111339598893,0.3824479962468147
1776019996811390000,7.489389892578125,0.76926850848943,-2.1065864952921864,0.7600257561087608
1776019996821450000,7.499449951171875,0.8777171927705406,-1.8877561128407716,1.1278022529244423
1776019996831510800,7.5095107421875,0.8885179882481694,-1.4335720831602812,1.4273387417286634
1776019996841571800,7.51957177734375,0.8208148635923862,-0.868783067947626,1.539042043891549
1776019996851631900,7.5296318359375,0.8611278770193457,-0.25219606095850466,1.5300386532247066
1776019996861693000,7.53969287109375,0.9437272497728466,0.4426689484536648,1.492491889640689
1776019996871753000,7.5497529296875,1.054899513798952,0.8789134168177842,1.273493164885044
1776019996881814000,7.55981396484375,1.0192224896095692,0.7712140895992518,0.8306529515177011
1776019996891873800,7.569873779296875,0.6822584796868264,0.35082302392721176,0.35564825212657447
1776019996901934800,7.579934814453125,0.22465499695166943,-0.009594342297315596,-0.008273322826623917
1776019996911995000,7.589994873046875,-0.16000804499611257,-0.25761224078834055,-0.13695289423167706
1776019996922056000,7.600055908203125,-0.49656639672741293,-0.4952946232259273,-0.1144336039096117
1776019996932117000,7.610116943359375,-0.6798514185450971,-0.6625386108249426,0.010904840373992919
1776019996942176800,7.6201767578125,-0.7337864223502576,-0.6959808616995811,0.15720131701231002
1776019996952237800,7.63023779296875,-0.625419571133703,-0.6227379308342933,0.36313013231456276
1776019996962297900,7.6402978515625,-0.3897336232103407,-0.4611918626159429,0.49464755749404427
1776019996972359000,7.65035888671875,-0.10784648060426115,-0.3906225348740816,0.5100339271962643
1776019996982418700,7.660418701171875,0.18708222214356063,-0.37754035046100615,0.4208604367494583
1776019996992479700,7.670479736328125,0.4501496595978737,-0.38101767118275165,0.2989922989249229
1776019997002539800,7.680539794921875,0.5770853099450469,-0.37630291762053963,0.2153513081640005
1776019997012600800,7.690600830078125,0.5531527918241917,-0.36487726824283595,0.1350210493862629
1776019997022662000,7.700661865234375,0.41829920795932407,-0.3103133188843727,0.10546703812181948
1776019997032722000,7.710721923828125,0.21685762107372283,-0.18719313517212866,0.17025602889657018
1776019997042782700,7.72078271484375,-0.00035538930892944334,-0.05926935057044029,0.2587222478568554
1776019997052842800,7.7308427734375,-0.15865093129873276,-0.018601824617385864,0.3280015357881784
1776019997062903800,7.74090380859375,-0.23946064415648577,-0.06727028619647026,0.4161445141434669
1776019997072963800,7.7509638671875,-0.2086388049133122,-0.14116203635931016,0.4908458271235227
1776019997083025000,7.76102490234375,-0.10462488820925354,-0.20971008740663527,0.553919830673933
1776019997093085000,7.7710849609375,0.09149754948019981,-0.2120271321773529,0.6310679522842169
1776019997103145700,7.781145751953125,0.2892470038495958,-0.19326047238707542,0.6456394984722137
1776019997113206800,7.791206787109375,0.40941798236742616,-0.1939098762065172,0.5888648873269557
1776019997123266800,7.801266845703125,0.3893583601571619,-0.1939578070014715,0.4913742349117994
1776019997133328000,7.811327880859375,0.25108839197754856,-0.2108902371019125,0.4360983378916979
1776019997143388000,7.821387939453125,0.051059009977430105,-0.25514322032630443,0.35434769092202184
1776019997153448700,7.83144873046875,-0.14097250513657927,-0.3219897281527519,0.28042554562091826
1776019997163509000,7.841509033203125,-0.28135727351307865,-0.3939852893054485,0.20854396623671054
1776019997173569800,7.85156982421875,-0.33569691259637474,-0.4405710993915796,0.14284370583593844
1776019997183630000,7.861630126953125,-0.33301176516562697,-0.44011458779573437,0.09731763393580913
1776019997193691000,7.87169091796875,-0.26677242945209145,-0.3856301334142685,0.0737865362226963
1776019997203751700,7.881751708984375,-0.18027385730296372,-0.19664777673780917,0.09041384589672088
1776019997213812000,7.89181201171875,-0.10104629907011985,-0.021447861698269843,0.09671206925809382
1776019997223873000,7.901873046875,-0.042052842831611634,0.11111878027319907,0.006560089167952537
1776019997233933000,7.91193310546875,0.008150427099317311,0.15999883877635002,-0.09188450297117233
1776019997243994000,7.921994140625,0.042864451475441455,0.14807517674863338,-0.16477613618075845
1776019997254054000,7.932053955078125,0.04836217210888862,0.0896855316221714,-0.1586269659012556
1776019997264115000,7.942114990234375,0.06103928285241127,0.09181494486629962,-0.057421676877141
1776019997274175000,7.952175048828125,0.05359335076063871,0.2337555643826723,0.05279343255460262
1776019997284236000,7.962236083984375,0.008260463345050812,0.4250818538367748,0.10482640213072299
1776019997294297000,7.972297119140625,-0.03179945210367441,0.6524678831875323,0.006129881057143211
1776019997304356900,7.98235693359375,-0.022587971644103526,0.8115595439910889,-0.14357494271993637
1776019997314418000,7.99241796875,-0.01973696612715721,0.8484387835770845,-0.2971019551336765
1776019997324478000,8.00247802734375,-0.02385331540480256,0.6844581816881895,-0.447390716278553
1776019997334539000,8.0125390625,0.004937602532655,0.3890677066475153,-0.5619061532527208
1776019997344598800,8.022598876953126,0.03299187675863504,0.07563245635032653,-0.5999345628738403
1776019997354659800,8.032659912109375,0.07856178780049085,-0.2180517992943525,-0.5592383953481912
1776019997364721000,8.042720947265625,0.16113398028612136,-0.4113660476952791,-0.449358216959238
1776019997374781000,8.052781005859375,0.20690876625031232,-0.5760030676662922,-0.30403730735480783
1776019997384842000,8.062842041015625,0.2628545253559947,-0.701710345262289,-0.09925240139067172
1776019997394902000,8.072902099609376,0.29269144521504636,-0.8566203364670276,0.13611702792942523
1776019997404962800,8.082962890625,0.3224244663082063,-1.0312614485800267,0.31586569231450556
1776019997415022800,8.09302294921875,0.45938510545492167,-1.1192676488131283,0.5298293455123901
1776019997425084000,8.103083984375,0.5463606474660336,-1.1314221969872713,0.6949287222981453
1776019997435145000,8.11314501953125,0.6460612310156226,-1.0588187330693006,0.7593664154171943
1776019997445205000,8.123205078125,0.661347939735651,-0.8030559195399284,0.754631788110733
1776019997455266000,8.13326611328125,0.5661515357375144,-0.5029267255395651,0.62567223072052
1776019997465325800,8.143325927734375,0.3479576976239681,-0.15846446881592272,0.529298015114665
1776019997475387000,8.153386962890625,0.11003156955838203,0.09778466692566871,0.4329717303037643
1776019997485447000,8.163447021484375,-0.10778232932686806,0.24995617307722567,0.2947217819988727
1776019997495508000,8.173508056640625,-0.2936602902472019,0.27642507780790326,0.1798585545003414
1776019997505567700,8.183567626953124,-0.3596633329868316,0.24391630839109418,0.09470715917646884
1776019997515628800,8.19362890625,-0.37033918691053985,0.17579904997646809,-0.021156185275316236
1776019997525689900,8.20368994140625,-0.2837853774428367,0.1713409015238285,-0.15435352636575697
1776019997535750000,8.21375,-0.15220029385462402,0.2247796462446451,-0.2910188358277082
1776019997545811000,8.22381103515625,-0.02584288178682327,0.3520972816467285,-0.3840145149111748
1776019997555870700,8.23387060546875,0.07293401104658842,0.44964872433841224,-0.48711131677031516
1776019997565931800,8.243931884765624,0.10341112850531935,0.42118426187634467,-0.6033756432384252
1776019997575991800,8.25399169921875,0.08790040177106857,0.27674773389101026,-0.7204694062680006
1776019997586052900,8.264052978515625,0.07607464715987443,0.08443886314034461,-0.7286345925450325
1776019997596114000,8.274114013671875,0.0963898515664041,-0.06396013873517513,-0.593420650935173
1776019997606174000,8.284174072265625,0.13812632192522287,-0.10323357998132705,-0.3547159397125244
1776019997616234800,8.29423486328125,0.2172064345113933,-0.15222469764351843,-0.11057692848145961
1776019997626294800,8.304294677734376,0.2581973471999168,-0.1838759734481573,0.06468669944405556
1776019997636355800,8.31435595703125,0.3106486883185804,-0.276220495146513,0.1383101540595293
1776019997646416000,8.324415771484375,0.34662747193351384,-0.3593821779578924,0.17523732444047926
1776019997656477000,8.334476806640625,0.40462694869861004,-0.3992401410937309,0.2016436853289604
1776019997666538000,8.3445380859375,0.4515535350464284,-0.338280353218317,0.18081950848698614
1776019997676597800,8.35459765625,0.44740006862878795,-0.16931261056661606,0.13994739987254143
1776019997686658800,8.364658935546874,0.42249256799593565,0.02660451380908489,0.0802653768479824
1776019997696718800,8.37471875,0.29414821989461776,0.20078210006356237,-0.05377776741683483
1776019997706780000,8.38477978515625,0.14527122524380684,0.24782500626742837,-0.262908009108901
1776019997716839700,8.394839599609375,-0.04036167487427592,0.20120295582413672,-0.4116302515894174
1776019997726900700,8.404900634765625,-0.2728326062738895,0.1491419291973114,-0.4232663288474083
1776019997736960800,8.414960693359374,-0.411516415951401,0.17630232332348822,-0.27647067051529883
1776019997747021800,8.425021728515626,-0.4928573130764067,0.13059446511566639,-0.07309972300231456
1776019997757083000,8.435082763671875,-0.4921547177650034,0.043164603465795516,0.11595569891035556
1776019997767142700,8.445142578125,-0.3761480193197727,-0.17760054644048212,0.24500001197457313
1776019997777203700,8.45520361328125,-0.17308146158084273,-0.4271797028988599,0.3273275820493698
1776019997787263700,8.465263671875,0.020096885480731724,-0.6341682563871145,0.4024456591367721
1776019997797324800,8.47532470703125,0.22636194700002668,-0.7216898879736662,0.4772743978887796
1776019997807385000,8.485385009765626,0.3535619473718107,-0.6608399902135134,0.5464256755262613
1776019997817446000,8.49544580078125,0.4043674209795892,-0.5687666866719723,0.5614490571349859
1776019997827507500,8.505507568359375,0.33864509487748146,-0.4434896171867847,0.5121072263389825
1776019997837567200,8.515567138671875,0.16570158046260475,-0.3396440427869558,0.4538765711665153
1776019997847628300,8.525628173828125,-0.04596592462211847,-0.22591128062307833,0.3822860836833715
1776019997857688300,8.535688232421874,-0.2472971830010414,-0.10136895515322684,0.37806232850849625
1776019997867749400,8.545749267578126,-0.35422976363077757,-0.00885083045363426,0.33075814101994033
1776019997877809400,8.555809326171875,-0.356765419588238,0.047751346734166145,0.2773696651816368
1776019997887870200,8.5658701171875,-0.29148265394717454,0.031499884635210036,0.14390402854382991
1776019997897931300,8.57593115234375,-0.14966478402763606,-0.06774784058034419,0.010505611923336981
1776019997907991300,8.5859912109375,0.001996872905641794,-0.10379004482030868,-0.05778408044874668
1776019997918052400,8.59605224609375,0.10475801306962966,-0.04892389764487743,-0.03663023326098919
1776019997928112400,8.6061123046875,0.18419804500937462,0.05765139397978782,-0.0021036942809820173
1776019997938173200,8.616173095703125,0.22477438554763793,0.1776017154842615,0.045483986324071884
1776019997948233500,8.6262333984375,0.25315380007475613,0.29669921955168244,0.09658639705181121
1776019997958294300,8.636294189453125,0.24211466579660773,0.2753729384064674,0.08378653671145439
1776019997968355300,8.646355224609374,0.19562296373471616,0.12503157029151915,0.08107260157763957
1776019997978415600,8.65641552734375,0.10375731159448623,-0.08585691324472428,0.10253273823559284
1776019997988476200,8.66647607421875,-0.02257423537969589,-0.3320323987394571,0.15879998438060283
1776019997998536400,8.676536376953125,-0.13125059093683958,-0.5352373420357703,0.2949760490208864
1776019998008597200,8.68659716796875,-0.230949274790287,-0.6617401539236307,0.5021446352511644
1776019998018657500,8.696657470703125,-0.28805355628132817,-0.7023422134250402,0.7103507478356361
1776019998028718600,8.706718505859374,-0.2800409302175045,-0.7337222710728645,0.9111474609464406
1776019998038779400,8.716779296875,-0.23532748987451194,-0.6986889516144991,1.083266361105442
1776019998048839400,8.72683935546875,-0.17678382323011754,-0.6694692868709564,1.1401181291401385
1776019998058900500,8.736900390625,-0.07414543266296386,-0.5704612156301736,1.0940081198722122
1776019998068960500,8.74696044921875,0.050609074252843854,-0.37866964675188064,0.9124702339828014
1776019998079021600,8.757021484375,0.12447028314694762,-0.209007492095232,0.6344061567962169
1776019998089081300,8.767081298828124,0.1727519373655319,-0.021633739659190177,0.27015958767235276
1776019998099142400,8.777142333984376,0.17091171632632612,0.18621756813824175,-0.06698562403619289
1776019998109203500,8.787203369140625,0.09144508864060044,0.3627110301196575,-0.38042847311794753
1776019998119263500,8.797263427734375,-0.01969970285668969,0.5514888041347265,-0.5945441020071506
1776019998129324500,8.807324462890625,-0.13303586691841482,0.7291928109496831,-0.7228828971505165
1776019998139384300,8.81738427734375,-0.26579481659159065,0.8456792557358741,-0.8324468491971492
1776019998149445400,8.8274453125,-0.38167394313439723,0.9008604602098464,-0.9007412177443503
1776019998159505400,8.83750537109375,-0.46143780020102854,0.8472118721306323,-0.8817512705922126
1776019998169566500,8.84756640625,-0.474945224288851,0.6571990033626556,-0.8317711418926715
1776019998179627500,8.85762744140625,-0.47401802644133567,0.37187867143750186,-0.7183814940780401
1776019998189687600,8.8676875,-0.42186683731302616,0.05402969635128975,-0.5511696551829576
1776019998199748400,8.877748291015624,-0.3262637522101402,-0.10242810881733894,-0.3726268594563007
1776019998209808400,8.887808349609376,-0.19573416902422905,-0.1168646304488182,-0.1899889033704996
1776019998219869400,8.897869384765626,-0.044713732603937385,-0.09556815991997718,-0.08056874370872974
1776019998229929500,8.907929443359375,0.06080196696519851,-0.09061609047055244,-0.015529577565193175
1776019998239990500,8.917990478515625,0.16953122175335883,-0.17096271586120126,0.03704173667132854
1776019998250051600,8.928051513671875,0.2987221036814153,-0.302144040954113,0.06624971097707748
1776019998260111400,8.938111328125,0.3526933478437364,-0.43678339754641055,0.11285890193879604
1776019998270172400,8.94817236328125,0.3809985280908644,-0.4468307443082332,0.1551800403177738
1776019998280232400,8.958232421875,0.3676432258248329,-0.34087972206175327,0.16567629989087582
1776019998290293500,8.96829345703125,0.3137902012147009,-0.2113952640146017,0.14841887561976908
1776019998300354600,8.9783544921875,0.25454861543402074,-0.06545242311954498,0.0952975262850523
1776019998310414300,8.988414306640625,0.17569544347152113,-0.0012748422414064406,-0.023752631509304047
1776019998320475400,8.998475341796874,0.08246317915320396,-0.07867313922047614,-0.14440730189085005
1776019998330535400,9.008535400390626,0.005372925209999084,-0.19888123487830162,-0.20536533620059488
1776019998340596500,9.018596435546876,-0.047564007468521595,-0.3041121261566877,-0.0983428853303194
1776019998350656300,9.02865625,-0.05815525184869766,-0.31008009465038777,0.18786007464826107
1776019998360717300,9.03871728515625,0.0028476445160806178,-0.24402795207202432,0.5463362436771393
1776019998370778400,9.0487783203125,0.14990414574146269,-0.19713585251569746,0.8655272810220718
1776019998380838400,9.05883837890625,0.30877734148874875,-0.16972236041128635,1.0207850627511739
1776019998390899500,9.0688994140625,0.4260017451606691,-0.2537596570134163,0.8680845642894506
1776019998400959500,9.07895947265625,0.5007691091142594,-0.43958793357312675,0.4970920280367136
1776019998411020300,9.089020263671875,0.501292986857891,-0.6609744302481413,0.10478373203277587
1776019998421080300,9.099080322265625,0.4819757074475288,-0.8142273018956184,-0.15001520490050316
1776019998431141400,9.109141357421874,0.5305645279191434,-0.8348702769517898,-0.16500702232718467
1776019998441202400,9.119202392578124,0.6330193786129356,-0.6684352676481008,-0.02314063709080219
1776019998451262500,9.129262451171876,0.762812610348314,-0.45275019748508927,0.140610247695446
1776019998461323500,9.139323486328125,0.9625462242722511,-0.2733610140621662,0.23297698122560975
1776019998471383300,9.14938330078125,1.1621123726747928,-0.1429886672645807,0.21259821006357668
1776019998481444400,9.1594443359375,1.1949800385318696,-0.061356678238511084,0.03404372389912605
1776019998491504400,9.16950439453125,1.0506909561932087,-0.030865093863010406,-0.2162093862980604
1776019998501565400,9.1795654296875,0.8499334060490131,-0.04792670330107212,-0.3379056746870279
1776019998511626500,9.18962646484375,0.6860379982255399,-0.19796236646771428,-0.30478198824226854
1776019998521686300,9.199686279296875,0.5508673112355172,-0.48314007505178447,-0.12001520343422889
1776019998531747300,9.209747314453125,0.519037756254524,-0.8746779712051153,0.10568155765533446
1776019998541807400,9.219807373046875,0.7231259121261536,-1.4306991580724715,0.33981238509118555
1776019998551868400,9.229868408203124,1.115749411559105,-2.112354557299614,0.5816261682450771
1776019998561929500,9.239929443359374,1.5505143088899551,-2.766536843189597,0.80821900139153
1776019998571989200,9.2499892578125,1.8871090471088885,-3.2709961851239204,0.8565408414900303
1776019998582050300,9.26005029296875,2.0550433550596234,-3.451967669302225,0.7381967861384153
1776019998592110300,9.2701103515625,2.1441617543183265,-3.2292198211461303,0.44610418359935283
1776019998602171400,9.28017138671875,2.124858649563789,-2.5705875701099634,0.32944647389948367
1776019998612231400,9.2902314453125,1.9936909146048127,-1.6255436847805975,0.343327115213871
1776019998622292200,9.300292236328126,1.509564020472765,-0.5808873325765133,0.2515554249674082
1776019998632353300,9.310353271484376,0.928295579624176,0.35283027209639545,0.1111743098527193
1776019998642413300,9.320413330078125,0.28337489694580437,0.8775508962929248,-0.13076689907312392
1776019998652474400,9.330474365234375,-0.3079587916474789,0.9942834247946739,-0.5131225408613681
1776019998662534400,9.340534423828124,-0.8212542779229581,0.9726315649569034,-1.0053998620927334
1776019998672595500,9.350595458984374,-1.2733610629379748,0.9283370806783438,-1.6098405042141675
1776019998682655200,9.3606552734375,-1.5814847628235815,1.0284989981293677,-2.0676731195300815
1776019998692716300,9.37071630859375,-1.6731670212209224,1.4957856704890726,-2.3700240812331437
1776019998702777300,9.38077734375,-1.6177181057214736,2.2200439476460216,-2.5216519820272922
1776019998712837400,9.39083740234375,-1.2776806797027587,2.891048773521185,-2.66371301305294
1776019998722898400,9.4008984375,-0.3231681242823601,3.3527982700198886,-3.1124475451558826
1776019998732958200,9.410958251953126,0.6413952850311995,3.707719376915693,-3.6871401147454974
1776019998743019300,9.421019287109376,0.6298620836257934,3.4684307283252473,-3.7504385747015476
1776019998753079300,9.431079345703125,0.37824119220674035,2.564133863925934,-3.3867455478072164
1776019998763140400,9.441140380859375,0.3733371266175061,1.4740964012503623,-2.7630367261141537
1776019998773201400,9.451201416015625,0.20560970288310199,0.40785716279149054,-1.9724644405722618
1776019998783261200,9.46126123046875,-0.26134083285741505,-0.5574807380259037,-1.075108773612976
1776019998793322200,9.471322265625,-0.9075468791712075,-1.2545961567133663,-0.2329629527002573
1776019998803382300,9.48138232421875,-1.4187515306472778,-1.884195205488801,0.47967678285539145
1776019998813443300,9.491443359375,-1.7469997346729038,-1.9459961203634737,0.8882236814767122
1776019998823504000,9.50150390625,-1.4555249717712402,-1.7460165688544511,0.7163233925044536
1776019998833564200,9.511564208984375,-1.8762264185667037,-1.505367737826705,0.9889964243024587
1776019998843625000,9.521625,-2.61600667450428,-1.873085197931528,1.514151348263025
1776019998853685200,9.531685302734376,-2.8977877263873815,-2.373759176108241,2.3472037621378896
1776019998863746000,9.54174609375,-2.830186016279459,-2.496476039716601,3.0130203717201947
1776019998873806000,9.55180615234375,-2.5711200695514678,-1.9307196407765148,3.3589100308984516
1776019998883867100,9.5618671875,-2.099105784147978,-1.1078075126439333,3.3144565566658972
1776019998893928000,9.571927978515625,-1.6310172938860952,-0.1455167244374752,2.8189462448626754
1776019998903988200,9.58198828125,-1.4859585423491894,0.5092401464700699,2.3609096314072606
1776019998914049000,9.592049072265626,-1.7388561757057903,0.7364660168230533,1.9481208574324844
1776019998924109000,9.602109130859375,-2.2231500969678164,0.8572884449869393,1.6216197893351316
1776019998934170000,9.612170166015625,-2.7475591709971425,1.0306395172894,1.4001906225621699
1776019998944231000,9.62223095703125,-2.98747851870656,1.2391928358763455,1.1470341921389102
1776019998954291200,9.632291259765625,-2.0744161640495062,1.5409844101309775,0.8005851455122232
1776019998964352300,9.642352294921874,-0.02425824294388294,2.13082544901371,0.4057499613791704
1776019998974412000,9.652412109375,1.0520961468160153,1.6248481037318705,0.735021078711748
1776019998984473000,9.66247314453125,1.7416577891230582,2.0155863739401103,0.5407458763241768
1776019998994533000,9.672533203125,1.0860124449431896,1.9917735366761684,0.3209440184921026
1776019999004594200,9.68259423828125,-0.22909356392100452,1.8661276338785886,0.06424187828600406
1776019999014655200,9.6926552734375,-1.6413883196443317,1.5922832202136517,-0.06116203244924545
1776019999024715000,9.702715087890626,-2.99329801864028,1.1930956860899924,-0.0925917744576931
1776019999034776000,9.712776123046876,-3.9264240871608256,0.674546444004774,-0.06658055036664008
1776019999044836000,9.722836181640625,-4.120189001938701,0.0016413374662399291,-0.2554045016109943
1776019999054897200,9.732897216796875,-3.7387411226451395,-0.5826753850370645,-0.5487357060343027
1776019999064957200,9.742957275390625,-2.9030969387114047,-1.3659721266180276,-0.5212473951280117
1776019999075018200,9.753018310546874,-1.5904657955281436,-2.0721715999931094,-0.43911388632059095
1776019999085079000,9.7630791015625,-1.0971331200249492,-2.5769161886095997,-0.36093583714067934
1776019999095139000,9.77313916015625,-1.4624568168610335,-2.259456505101919,-0.27748423147201534
1776019999105200000,9.7832001953125,-2.454043549917638,-1.6308920600712298,-0.5228758731126785
1776019999115260200,9.79326025390625,-3.1034441544890403,-1.1401532004535198,-0.7865665570318698
1776019999125321200,9.8033212890625,-2.7718811268270014,-1.0600725325226783,-0.9850286897152661
1776019999135382000,9.813382080078124,-1.748208964332193,-1.0240870269060134,-1.182462063872814
1776019999145442000,9.823442138671876,-1.0630565167695283,-0.8131903600633144,-0.8956231440782546
1776019999155503000,9.833503173828126,-0.8115501916408538,-0.44296588557362554,-0.28604572359025476
1776019999165563100,9.843563232421875,-0.6474947709500789,0.17095803968608378,0.5414695144236088
1776019999175624200,9.853624267578125,-0.4876104984641075,0.9829150585621594,1.3223568567752837
1776019999185684000,9.86368408203125,-0.5281994062229991,1.5439438444584608,1.8099176708787679
1776019999195745000,9.8737451171875,-0.6846595494791865,2.1134020205259323,2.03660519657135
1776019999205806000,9.88380615234375,-0.8835229564398527,2.498776133352518,2.5281390059590336
1776019999215866000,9.8938662109375,-0.8183294765174388,2.1814088043034077,3.173384536677599
1776019999225927200,9.90392724609375,-0.1627437535703182,1.7293389902979135,3.6240374696224924
1776019999235987000,9.913987060546875,0.8281845155775547,1.8911060077905655,3.760903854614496
1776019999246048000,9.924048095703125,1.8020599431157112,2.1492729598522184,3.71003759073019
1776019999256109000,9.934109130859374,2.699564663156867,2.3123808705598115,3.737926883652806
1776019999266169000,9.944169189453126,3.3629233581930396,2.5046909103542565,3.7725592210948466
1776019999276230100,9.954230224609375,3.7438439987421033,2.963457007128,3.4875615452527997
1776019999286290200,9.964290283203125,4.314843559032679,4.396899326428771,3.0871897697806356
1776019999296351000,9.97435107421875,3.9040100107789035,5.102742825973033,2.3505402130842206
1776019999306411000,9.984410888671874,4.123828819745778,5.301384406876564,1.5929957523971796
1776019999316472000,9.99447216796875,4.368350692814588,4.801016718170047,0.4997691382914781
1776019999326533000,10.004533203125,4.479229819113016,3.3259348130136726,-0.6254869372814893
1776019999336593200,10.01459326171875,4.078351847684383,0.6948328607082367,-1.477132992467284
1776019999346654000,10.024654052734375,3.38627208507657,-1.9096581480473278,-1.5413316161334514
1776019999356714000,10.0347138671875,3.28136618796885,-2.781501772609353,-0.6078437285631895
1776019999366775000,10.044775146484374,3.620152152621746,-2.0041285758584735,0.8451432491630315
1776019999376836000,10.054836181640624,3.9690842482358213,-0.6155640936821699,1.9905723441928624
1776019999386896100,10.064896240234376,3.969700918829441,0.4015530942112207,2.4125410344451663
1776019999396957200,10.074957275390625,3.868033272990584,-0.39532968965172766,2.173106839904189
1776019999407017000,10.085016845703125,3.5930040334552524,-0.5287205074876546,1.6372931592851876
1776019999417078000,10.095078125,3.095530897146463,-0.9380676165759563,0.608681932953
1776019999427138000,10.105137939453124,2.6961189066171642,-0.36382863597273823,-0.533800002709031
1776019999437199000,10.11519921875,2.419123919966817,0.4253153703317046,-1.7013468215227125
1776019999447260200,10.12526025390625,2.223896531420946,1.2637047613203525,-2.7354262501329183
1776019999457320000,10.13531982421875,1.8496517153739929,1.6357760327205062,-3.657826926499605
1776019999467381000,10.145381103515625,1.3402964180916548,1.3665689234673977,-4.506577844765782
1776019999477441000,10.15544091796875,0.7661836942166089,0.8770815252155065,-5.256608276560902
1776019999487502000,10.165502197265624,0.4376607649028301,0.33149873025417326,-5.773982045125961
1776019999497563100,10.175563232421876,0.1586702205210924,-0.20185119059979914,-5.988212824827432
1776019999507623000,10.185622802734375,0.03455225794315338,-0.5442877867147327,-6.001499591901898
1776019999517684000,10.19568408203125,0.08356091126203537,-0.5202589686125516,-5.733428500941395
1776019999527744000,10.205743896484375,0.13521043447852135,-0.23677608124762772,-5.319030538204312
1776019999537805000,10.21580517578125,0.016989713245630263,0.05761982979774475,-4.7659278691321605
1776019999547865000,10.225864990234374,-0.36227789939939975,0.37318244751244783,-4.108134407007694
1776019999557926000,10.23592578125,-0.06543021128773689,0.8315785419300198,-3.4818209557741877
1776019999567987000,10.245987060546875,-0.6328010596871375,0.09017740679234265,-3.2921704905778166
1776019999578047000,10.256046875,-1.1804156527370213,-0.4842141340240836,-3.059844666737318
1776019999588108000,10.26610791015625,-0.9276648805052041,-0.28612638761103154,-2.5829203974604606
1776019999598168000,10.27616796875,-0.8302133910566568,0.053641573816537856,-1.925952280244231
1776019999608229000,10.28622900390625,-0.8986305092006921,0.313179229709506,-1.1185200453162192
1776019999618290000,10.2962900390625,-1.0152619154155254,0.2222249933257699,-0.298095057824254
1776019999628350000,10.306349853515625,-0.7111176405549049,0.2748077057391405,0.37314766846001146
1776019999638411000,10.316410888671875,-1.3075848195791244,0.3756356858834624,1.1842851876467466
1776019999648471000,10.326470947265625,0.5402852730751038,-0.18093232121169567,0.9790437700867652
1776019999658532000,10.336531982421874,0.40276656165421004,-2.252201127146184,3.322353447395563
1776019999668593200,10.34659326171875,1.2807447434484958,-2.2182257923081514,3.404458314630389
1776019999678653000,10.35665283203125,2.7807056537955996,-2.8508734149992465,5.047326059177518
1776019999688714000,10.3667138671875,4.016562038725614,-2.5549048478096723,5.646224264740944
1776019999698774000,10.37677392578125,4.404337367475033,-2.1769474409803746,5.723996655729413
1776019999708835000,10.3868349609375,3.7867081579565998,-2.1485043135672806,5.040962369364499
1776019999718894800,10.396894775390624,3.049913055309653,-2.3643884134337303,3.665905603536963
1776019999728956000,10.406955810546876,2.891264462098479,-2.6163214395418763,2.6138047805458307
1776019999739017000,10.417016845703126,2.96433378996253,-2.53625918405056,1.9446932210713623
1776019999749077000,10.427076904296875,2.7267420084178444,-1.9031144254922865,1.5353934582561253
1776019999759138000,10.437137939453125,2.1667373048722744,-0.7890846773326397,1.2613847939401863
1776019999769197800,10.44719775390625,1.5080816729605198,0.5248968575462699,0.8797118737190961
1776019999779259000,10.4572587890625,0.7124749003827572,1.5619617317080496,0.34003508793115617
1776019999789320000,10.46731982421875,-0.36167934898436066,2.084813639423251,-0.23890403318703174
1776019999799380000,10.4773798828125,-1.297518183594942,2.1510563361376525,-0.7679840216368437
1776019999809441000,10.48744091796875,-1.6521604735493658,1.5763108673170207,-1.818013299050927
1776019999819501000,10.4975009765625,-1.1277098984658718,1.033648051455617,-3.3123446790784596
1776019999829562400,10.507562255859375,-1.2106155606895685,0.7118675821393727,-4.144784514012932
1776019999839622400,10.517622314453124,-1.2471557775795459,0.3077440529182553,-3.657250003394484
1776019999849683500,10.527683349609376,-0.6484492951959371,0.6565165740564465,-3.3008915571719406
1776019999859744500,10.53774462890625,-0.08964461508989334,1.1796882152453063,-2.8979408711224792
1776019999869804500,10.547804443359375,0.4304518564373255,1.1008283212810754,-2.8016759611099955
1776019999879865300,10.557865234375,0.3173714207023382,0.7017790265843272,-3.0754689368486403
1776019999889925400,10.56792529296875,0.011915478721261023,0.15835107156932354,-3.4194086310029026
1776019999899986400,10.577986328125,-0.18745967715382575,-0.15858488032519816,-3.4875264739394187
1776019999910047500,10.588047607421874,-0.22143618103563784,-0.44162966853380203,-3.2711686190813776
1776019999920107500,10.598107421875,-0.21349311307668684,-0.5617953863546252,-2.8755355625689027
1776019999930168600,10.60816845703125,-0.36317397145628927,-0.4388765704333782,-2.370868715363741
1776019999940228400,10.618228271484375,-0.708116705173254,-0.11552782888710499,-1.8587404462367294
1776019999950289400,10.628289306640625,-1.127412961345911,0.20427549513727425,-1.3287632166862486
1776019999960350500,10.6383505859375,-1.458854408454895,0.42540217183232304,-0.7436416075408459
1776019999970410500,10.648410400390626,-1.615609735265374,0.403826007579267,-0.14137363328337668
1776019999980471600,10.658471435546875,-1.6418436621963977,0.20791355937868355,0.5133902518868446
1776019999990531300,10.66853125,-1.554896615627408,-0.147438047888875,1.114514316806197
1776020000000592400,10.67859228515625,-1.6808873863399028,-0.6009302959129214,1.8453391128718852
1776020000010652400,10.68865234375,-1.6746195581167935,-1.1315626283712685,2.950983894523978
1776020000020713500,10.69871337890625,-0.43832127463817594,-1.2521321046873926,3.7334739958971737
1776020000030774500,10.7087744140625,1.2437620434880257,-1.2548518850401043,4.4100282725930215
1776020000040834300,10.718834228515625,2.4469226119965315,-1.4743074136525391,4.612036699581146
1776020000050895400,10.728895263671875,2.628569803479314,-1.4417736559249459,4.054078991693258
1776020000060955600,10.73895556640625,1.9692858105361462,-1.1923116961054503,2.8789515084922312
1776020000071016400,10.749016357421874,1.1089783099889754,-0.7755822216808795,1.7436439945042133
1776020000081077500,10.759077392578124,0.5493401016682387,-0.3181692930817604,1.085700310254097
1776020000091137500,10.769137451171876,0.22959669113755224,-0.07858560706749558,0.7533668827414512
1776020000101198300,10.7791982421875,-0.12852876475751399,0.1169037934154272,0.46958676599562166
1776020000111258600,10.789258544921875,-0.5515127695322036,-0.15555837211087345,0.26628245397806166
1776020000121319400,10.7993193359375,-0.7985802354305982,-0.4746665534779429,0.09044891721010208
1776020000131380500,10.80938037109375,-0.9318114787906407,-0.8147516180306672,0.007799860095977783
1776020000141440500,10.8194404296875,-1.114934003522992,-1.0415513719260692,0.13575053270459175
1776020000151501300,10.829501220703126,-1.2069833416670561,-0.943418914476037,0.29416005646288396
1776020000161561600,10.8395615234375,-1.1251017617940902,-0.556715306611359,0.403840912887454
1776020000171622400,10.849622314453125,-0.8233025887548923,-0.05473945205584168,0.515399838143587
1776020000181682700,10.8596826171875,-0.42084523918032646,0.3076771251618862,0.5838461823821067
1776020000191743500,10.869743408203124,-0.25453940921425816,0.6858166105598211,0.7707821279227733
1776020000201804300,10.87980419921875,-0.421008320787549,0.9438969072513281,1.114715976858139
1776020000211864600,10.889864501953125,-0.8829127155870199,0.8057938200712204,1.3066396476835012
1776020000221925400,10.89992529296875,-1.2685066086441277,0.31410701207891106,1.2777514068514109
1776020000231985700,10.909985595703125,-1.3345710261821746,-0.23721111166402697,1.0991519125014544
1776020000242046700,10.920046630859375,-1.2280910116255284,-0.6774035870015621,0.8099281433969736
1776020000252107500,10.930107421875,-1.0561194109827279,-0.7488673793651163,0.5035346283048391
1776020000262167600,10.94016748046875,-0.7634235818535089,-0.527519753395766,0.34754736325740815
1776020000272228400,10.950228271484375,-0.46930853357613084,-0.20745931280516086,0.3292845613360405
1776020000282288600,10.96028857421875,-0.3438631217867136,0.06804791950546205,0.4375689949661493
1776020000292349700,10.970349609375,-0.5255430464953184,0.3114684802688658,0.6816705967962742
1776020000302410500,10.980410400390625,-0.8537526720762252,0.4887316845137626,0.9585667992472648
1776020000312470500,10.990470458984374,-1.2541805616497992,0.49133609485849733,1.1493529904752968
1776020000322531600,11.000531494140626,-1.596260307151079,0.4472469238936901,1.2146078451961277
1776020000332591600,11.010591552734375,-1.759368217858672,0.4093010049242526,1.1699901203125715
1776020000342652700,11.020652587890625,-1.703987106898427,0.3046994245253503,1.0726643030703067
1776020000352712400,11.03071240234375,-1.5915981605589389,0.1441409060396254,0.9247808495014905
1776020000362773500,11.0407734375,-1.5544447802066803,-0.0006376403164118527,0.8000842102527618
1776020000372834600,11.05083447265625,-1.6824223408222196,-0.24993805289864537,0.8130436450690031
1776020000382894600,11.06089453125,-1.9733482376694678,-0.47803697975911197,0.9064929131388664
1776020000392955600,11.07095556640625,-2.324299271890521,-0.5674783273618668,1.0965092890381813
1776020000403015700,11.081015625,-2.649405670759082,-0.4821173809405416,1.3250690383434296
1776020000413076500,11.091076416015625,-2.9063854588627813,-0.3045778439722955,1.5269740049570797
1776020000423137500,11.101137451171875,-3.0579800419092176,-0.218649107600376,1.6089543690294026
1776020000433197600,11.111197509765624,-3.0728572930455207,-0.3331611105084419,1.5187784235417843
1776020000443258600,11.121258544921876,-2.837150010073185,-0.4597376452196389,1.3262901045709847
1776020000453318700,11.131318603515625,-2.3705367069303986,-0.5098451996911317,1.170544831585884
1776020000463379700,11.141379638671875,-1.7532523653268812,-0.5251368037819862,1.1266349627107382
1776020000473440500,11.1514404296875,-1.0932149236679076,-0.538851587010175,1.1407821460068226
1776020000483500500,11.16150048828125,-0.5777408512443304,-0.712427042653039,1.1969862637877464
1776020000493561600,11.1715615234375,-0.24830548326075075,-0.8960203997675329,1.3165899638116358
1776020000503621600,11.18162158203125,-0.044045477953553194,-1.1077736834395677,1.4570441441625357
1776020000513682700,11.1916826171875,0.09630874915421009,-1.226313042167574,1.6359224554538725
1776020000523743700,11.20174365234375,0.416302919575572,-1.227300738030672,1.8395751425176858
1776020000533803500,11.211803466796875,1.0915274089723825,-0.9918114817231893,2.0691648193925616
1776020000543864600,11.221864501953124,1.762212501373887,-0.5381205693218857,2.14274268130064
1776020000553924600,11.231924560546876,1.932080992257595,-0.16846929161027072,1.7644482976019382
1776020000563985700,11.241985595703126,1.4354285246819256,0.12228950504176318,0.9616776247441768
1776020000574045400,11.25204541015625,0.714261783799529,0.3688551588978618,0.24761165577769279
1776020000584106500,11.2621064453125,0.11174772582650185,0.5946654633644968,-0.18927578666508196
1776020000594167600,11.27216748046875,-0.3367868997901678,0.8072366392906755,-0.5333370613723993
1776020000604227600,11.2822275390625,-0.6927163069456815,0.8328654399354011,-0.7996247760474682
1776020000614288600,11.29228857421875,-0.8204016066163777,0.7387536163035779,-0.9806734171152114
1776020000624348400,11.302348388671875,-0.5984925473719835,0.5658708190999925,-1.1254168190926312
1776020000634409500,11.312409423828125,-0.26353403205275533,0.3372768752641976,-1.1727093161433935
1776020000644470500,11.322470458984375,0.027928455889225004,0.17673910730555653,-1.2280109321266413
1776020000654530600,11.332530517578125,0.2574438984841108,0.15102379742115735,-1.2278051804214716
1776020000664591600,11.342591552734374,0.32690672628879547,0.35203035389035936,-1.122878825047612
1776020000674651600,11.352651611328126,0.2197036581546068,0.5665719531066715,-0.9576093523919582
1776020000684712400,11.36271240234375,0.019391513690352438,0.706173462150991,-0.7981377523601054
1776020000694773500,11.3727734375,-0.15191899269521236,0.672407386149466,-0.682821520397067
1776020000704833500,11.38283349609375,-0.22177695729732513,0.5195150183774531,-0.5324795677602291
1776020000714894600,11.39289453125,-0.17670798151493072,0.3310017405174672,-0.24322481899559498
1776020000724954600,11.40295458984375,0.1064554646372795,0.09337079600617289,0.1716238101184368
1776020000735015400,11.413015380859376,0.5433318011641503,-0.1892059362992644,0.6297241364598274
1776020000745075500,11.423075439453125,0.9056137922167777,-0.5855633615635335,0.9618909752339124
1776020000755136500,11.433136474609375,0.9908043505072593,-1.052502974051237,1.056219948747754
1776020000765197600,11.443197509765625,0.8785697179466485,-1.3214837272025644,0.969439490917325
1776020000775257600,11.453257568359374,0.7571282811015844,-1.1800566101662815,0.7775017915666103
1776020000785318700,11.463318603515624,0.7690612954795361,-0.7070970067366957,0.5398088877350091
1776020000795378400,11.47337841796875,0.7413537888646126,-0.14805530300438402,0.3041121261566877
1776020000805439500,11.483439453125,0.506416321220994,0.20816475766077636,0.09636837038695811
1776020000815500500,11.49350048828125,0.10457213510870933,0.2497645960278809,-0.06257365281283855
1776020000825560300,11.503560302734375,-0.3123451169729233,0.12357684143856167,-0.18153788588941097
1776020000835621400,11.513621337890624,-0.4873720135331154,-0.06944280792996287,-0.21790391525626182
1776020000845681400,11.523681396484376,-0.38436815065443514,-0.2931207765430212,-0.20400807637274265
1776020000855742500,11.533742431640626,-0.10744564471840858,-0.5291824259109795,-0.217713361120224
1776020000865803500,11.543803466796875,0.14894494532048702,-0.5859411088347435,-0.26644027488827704
1776020000875863300,11.55386328125,0.2730442031979561,-0.3494165181301534,-0.2805406964331865
1776020000885924400,11.56392431640625,0.3355179027676582,-0.004556932651996613,-0.22241174806952474
1776020000895984400,11.573984375,0.3363268810629845,0.292198839392513,-0.06540040067136288
1776020000906045400,11.58404541015625,0.3658697864115238,0.41583500980287785,0.03613689678609371
1776020000916106500,11.5941064453125,0.43201136083900926,0.2181387469254434,0.04588438381850719
1776020000926166300,11.604166259765625,0.48302317067384715,-0.12107055770605801,0.05753215151429176
1776020000936227300,11.614227294921875,0.5174363124072552,-0.39667496678084135,0.05348024577498436
1776020000946287400,11.624287353515625,0.5212310285151005,-0.6171513628736138,0.05653086551725864
1776020000956348400,11.634348388671874,0.38623219096064565,-0.6932327320352196,0.020640052446722984
1776020000966409500,11.644409423828124,0.16786299628019333,-0.6124208272203803,-0.003394318613409996
1776020000976469200,11.65446923828125,-0.04933832366466522,-0.4530874666154384,0.013913959062099456
1776020000986530300,11.6645302734375,-0.06278875686824321,-0.2377817511588335,0.06311082842946052
1776020000996590300,11.67459033203125,0.15016834963560102,-0.08377426175177097,0.039823476344347
1776020001006651400,11.6846513671875,0.44446810683012006,-0.11107961730659008,-0.030257775619626042
1776020001016712400,11.69471240234375,0.770607355877757,-0.18949615141749382,-0.08151333108246325
1776020001026772500,11.7047724609375,1.1678057620108127,-0.2091518690019846,0.007898059773445128
1776020001036833300,11.714833251953126,1.5591875908195971,-0.10983517020344734,0.22250702513754367
1776020001046893300,11.724893310546875,1.8388731317281721,0.2034805453673005,0.3941507090002298
1776020001056954400,11.734954345703125,1.8934633845716713,0.6183215756967664,0.42538054452240465
1776020001067014400,11.745014404296874,1.7637486248999834,0.8450263447850942,0.251600433152914
1776020001077075500,11.755075439453124,1.452341665560007,0.5655646757602691,-0.08817161992788314
1776020001087136300,11.76513623046875,0.9505606029242276,-0.17649638459086417,-0.4871931498348713
1776020001097196300,11.7751962890625,0.43925767870545385,-1.0732909105360506,-0.7668348516017198
1776020001107257300,11.78525732421875,0.05586860221624374,-1.8236080503180623,-0.8797995520025491
1776020001117317400,11.7953173828125,-0.11527239282131195,-2.137308673553169,-0.8108236309319734
1776020001127378400,11.80537841796875,-0.0679915862083435,-1.8371809408575295,-0.6414823787927627
1776020001137439500,11.815439453125,0.24971359649300573,-1.0640618944197893,-0.494707763248682
1776020001147499300,11.825499267578126,0.6015232933700084,-0.2676855987742543,-0.42154900353550906
1776020001157560300,11.835560302734375,0.8136772667974234,0.17805208960026503,-0.4839361938655376
1776020001167620400,11.845620361328125,1.0085007507175205,0.3160501089707017,-0.5720148748129605
1776020001177681400,11.855681396484375,1.3486024741441012,0.28379706788063047,-0.5860141740709542
1776020001187742500,11.865742431640625,1.7283821279644964,0.3204343154042959,-0.49379298649132247
1776020001197802200,11.87580224609375,1.9143039280265568,0.3967307886213064,-0.4052256452441215
1776020001207863300,11.88586328125,1.8399726174026727,0.4341624013930559,-0.35683950773775575
1776020001217923300,11.89592333984375,1.4325684590756893,0.4182493774682283,-0.40500644953548903
1776020001227984400,11.905984375,0.9673942488253116,0.2709624284878373,-0.6029694005250931
1776020001238045400,11.91604541015625,0.7734633298307657,0.06848901433646679,-0.8674374985575676
1776020001248105200,11.926105224609374,0.8324111933618783,0.017958558277785776,-1.1257324609130621
1776020001258166300,11.936166259765624,1.0672808564662932,0.1826461393922567,-1.3471768252551555
1776020001268226300,11.946226318359376,1.279005790826678,0.4499874547734856,-1.5274562355160712
1776020001278287400,11.956287353515625,1.372125973072648,0.5807493854105472,-1.533215529695153
1776020001288348400,11.966348388671875,1.3509943377166986,0.6951794821888208,-1.4361726210474968
1776020001298408200,11.976408203125,1.2184089910447597,0.7059212409555912,-1.333936235409975
1776020001308469200,11.98646923828125,0.9585369886308908,0.45468817981034515,-1.2185679809987544
1776020001318529300,11.996529296875,0.6702642366409302,0.14581395381838083,-1.1252899778425693
1776020001328590300,12.00659033203125,0.5457669193565845,-0.046054187427461146,-0.9686024555712938
1776020001338650400,12.016650390625,0.5985726268708705,-0.20617080736458301,-0.9025947366565465
1776020001348711400,12.02671142578125,0.728426502752304,-0.4078165385201573,-0.9562275426447391
1776020001358772200,12.036772216796875,0.7614402990818023,-0.5413634237006306,-0.9864701206952333
1776020001368832300,12.046832275390624,0.7069330483466386,-0.5716138927966355,-0.8899421758323908
1776020001378893300,12.056893310546876,0.6161135442584753,-0.5138619610518217,-0.6483207003802061
1776020001388953300,12.066953369140625,0.4793354220718145,-0.2985007160156965,-0.3690864103704691
1776020001399014400,12.077014404296875,0.3554547753810882,0.0854663064919412,-0.20399463236927984
1776020001409075500,12.087075439453125,0.32695524160563944,0.5877694933056831,-0.18177695534229277
1776020001419135200,12.09713525390625,0.4613794941425323,1.035472782664746,-0.19160744448304176
1776020001429196300,12.1071962890625,0.639135523405671,1.2591304391421376,-0.19235797058939932
1776020001439256300,12.11725634765625,0.7025193235576153,1.1102791634544729,-0.2274286994487047
1776020001449317400,12.1273173828125,0.4619938266485929,0.5690320596098899,-0.2989116349041462
1776020001459378400,12.13737841796875,0.0824526577591896,0.011372457885742187,-0.2289975562006235
1776020001469438200,12.147438232421875,-0.2803057186335325,-0.35279505465254185,-0.021931261301040648
1776020001479499300,12.157499267578125,-0.5598562349855899,-0.5357907381348311,0.22012509843707084
1776020001489559300,12.167559326171874,-0.7470388487637043,-0.5868047399267554,0.449835771343112
1776020001499620400,12.177620361328126,-0.8421142567306756,-0.5826638407297432,0.5555675978809594
1776020001509681400,12.187681396484376,-0.8152186510205268,-0.7222358314186335,0.5579997934639453
1776020001519741200,12.1977412109375,-0.5843968020021915,-0.9630411681823432,0.4701788866698742
1776020001529802200,12.20780224609375,-0.11937690553069114,-1.0887963765732944,0.43732758742570876
1776020001539862300,12.2178623046875,0.4415519271224737,-0.9970819694720208,0.4925736738294363
1776020001549923300,12.22792333984375,0.8828320515662431,-0.7940748868353664,0.5368436081886291
1776020001559984400,12.237984375,0.9866191737771034,-0.4304385585643351,0.5094324541717767
1776020001570044200,12.248044189453125,0.7280559158742428,-0.09683438046351074,0.3330342692583799
1776020001580105200,12.258105224609375,0.29755729768574235,0.12068725747689604,0.15532324818074703
1776020001590165500,12.26816552734375,-0.062197805237770076,0.15609394029229878,-0.011291793864965437
1776020001600226300,12.278226318359375,-0.33835283393263815,0.03900952961295843,-0.17047464008331298
1776020001610287400,12.288287353515624,-0.5856336503207683,-0.07557166607379913,-0.23465923522412777
1776020001620347400,12.298347412109376,-0.599517214244604,-0.13712357462346553,-0.2392190904855728
1776020001630408200,12.308408203125,-0.5102379253357648,-0.18830854906812308,-0.278686008477211
1776020001640468500,12.318468505859375,-0.5039490543246269,-0.28889380649775265,-0.31672318592667575
1776020001650529300,12.328529296875,-0.6118126321941614,-0.23370588002204892,-0.26856910361051556
1776020001660590300,12.33859033203125,-0.6568325081378221,0.0000957154594361782,-0.11853051783442496
1776020001670650400,12.348650390625,-0.5057943899303674,0.3167297617979348,0.038437574943900106
1776020001680711200,12.358711181640626,-0.16965280230641364,0.4804036358252167,0.08793079690933227
1776020001690771500,12.368771484375,0.28453005833029743,0.5431767567329109,0.04780804535746574
1776020001700832300,12.378832275390625,0.6981961996614933,0.39395372512340543,0.041971594288945195
1776020001710893300,12.388893310546875,0.9635837506264447,0.09957841847464442,0.09828384861946106
1776020001720953300,12.398953369140624,1.0380588536351918,-0.29381036624237894,0.1601642584711313
1776020001731014400,12.409014404296874,0.7857038027226925,-0.7403662391319871,0.12322773573994636
1776020001741074400,12.419074462890626,0.3604588672786951,-1.074941746482998,0.09875555778443813
1776020001751135200,12.42913525390625,0.0007400047123432159,-1.1575932878151536,0.09322773427367209
1776020001761195500,12.439195556640625,-0.139191028547287,-1.0100132011070846,0.1439431915104389
1776020001771256300,12.44925634765625,-0.06335749666690826,-0.7490364523217081,0.17440496526956556
1776020001781317400,12.4593173828125,0.10852116499543189,-0.540198033183068,0.16526012030541895
1776020001791377400,12.46937744140625,0.24083295542299746,-0.3196585817914456,0.1330067869544029
1776020001801438200,12.479438232421876,0.33599604167342184,-0.10246186495646833,0.13093173424601554
1776020001811498500,12.48949853515625,0.3219190010040998,0.05551774295195937,0.08957739507257938
1776020001821559600,12.4995595703125,0.3089507983595133,0.1340220284115523,-0.04112754468023777
1776020001831620400,12.509620361328125,0.32431320266425606,0.05934855328649282,-0.27738953892588614
1776020001841680400,12.519680419921874,0.26668811216950417,-0.18538506283685563,-0.6395055257618427
1776020001851741400,12.529741455078126,0.09490881922841071,-0.5310599102206528,-1.0745564004272221
1776020001861801500,12.539801513671875,-0.12673135994672774,-0.7552371335927397,-1.3897042998611926
1776020001871862500,12.549862548828125,-0.26912323036193847,-0.6612931408084929,-1.3761492372393607
1776020001881923300,12.55992333984375,-0.2959937016308308,-0.17223353951461612,-1.115444875654578
1776020001891983400,12.5699833984375,-0.2563467508971691,0.29220826480798423,-0.8772948757052421
1776020001902044400,12.58004443359375,-0.19795126055181025,0.5529441175095736,-0.7996668616235256
1776020001912104400,12.5901044921875,-0.22143442746996878,0.6878909326158463,-0.7993746006786823
1776020001922165500,12.60016552734375,-0.24655367115736007,0.834410477420315,-0.6848802064925432
1776020001932226300,12.610226318359375,-0.1978933928847313,0.8884171582221985,-0.4320259738862514
1776020001942286600,12.62028662109375,-0.3181844906508922,0.6367437328983098,0.027331074517965317
