time,seconds_elapsed,z,y,x
1776019989396806400,0.074806396484375,-0.11776874214410782,0.045013993978500366,0.39359909296035767
1776019989406866400,0.084866455078125,-0.11955678462982178,-0.019392691552639008,0.31553733348846436
1776019989416927500,0.094927490234375,-0.09035016596317291,-0.10588284581899643,0.21928057074546814
1776019989426987800,0.10498779296875,-0.036333002150058746,-0.17090551555156708,0.11674300581216812
1776019989437048300,0.11504833984375,0.008998527191579342,-0.19087162613868713,0.055743440985679626
1776019989447108600,0.125108642578125,0.021749742329120636,-0.1810123324394226,0.033110834658145905
1776019989457169400,0.13516943359375,0.01678268238902092,-0.21425631642341614,0.07343003153800964
1776019989467229700,0.145229736328125,-0.005758847109973431,-0.25871434807777405,0.15956969559192657
1776019989477289500,0.15528955078125,-0.06146232411265373,-0.2422458678483963,0.26815903186798096
1776019989487350500,0.1653505859375,-0.14055903255939484,-0.12891104817390442,0.35814303159713745
1776019989497410600,0.17541064453125,-0.2204899787902832,-0.006124210078269243,0.4097687602043152
1776019989507471600,0.1854716796875,-0.2754051685333252,0.05125679075717926,0.42509177327156067
1776019989517531600,0.19553173828125,-0.2653055787086487,0.03130530193448067,0.38620275259017944
1776019989527592700,0.2055927734375,-0.2086859792470932,-0.025459708645939827,0.2805327773094177
1776019989537652500,0.215652587890625,-0.12959861755371094,-0.1248968169093132,0.159393310546875
1776019989547713500,0.225713623046875,-0.05023375153541565,-0.2536287009716034,0.07393646240234375
1776019989557773600,0.235773681640625,0.0017102928832173347,-0.365078866481781,0.05725950747728348
1776019989567833600,0.24583349609375,0.02319561131298542,-0.4537019431591034,0.11155790090560913
1776019989577894400,0.255894287109375,0.011217931285500526,-0.49777311086654663,0.21100755035877228
1776019989587954400,0.265954345703125,-0.028820564970374107,-0.44563984870910645,0.329327255487442
1776019989598015500,0.276015380859375,-0.06923326849937439,-0.31173714995384216,0.4073933959007263
1776019989608075500,0.286075439453125,-0.10324449837207794,-0.21581673622131348,0.38962051272392273
1776019989618136600,0.296136474609375,-0.12497197836637497,-0.19585245847702026,0.29739707708358765
1776019989628196400,0.3061962890625,-0.13136117160320282,-0.19938966631889343,0.18339326977729797
1776019989638257400,0.31625732421875,-0.12717624008655548,-0.20275312662124634,0.11361400783061981
1776019989648317700,0.326317626953125,-0.11042122542858124,-0.25138163566589355,0.13153629004955292
1776019989658378500,0.33637841796875,-0.08635933697223663,-0.3438996970653534,0.22886408865451813
1776019989668438500,0.3464384765625,-0.07530882209539413,-0.42290425300598145,0.37284550070762634
1776019989678498600,0.35649853515625,-0.09787724167108536,-0.4393300712108612,0.49700263142585754
1776019989688559600,0.3665595703125,-0.14292222261428833,-0.42246773838996887,0.5596119165420532
1776019989698619600,0.37661962890625,-0.17549686133861542,-0.38299015164375305,0.5411832928657532
1776019989708680700,0.3866806640625,-0.18360592424869537,-0.3196127712726593,0.4625625014305115
1776019989718740500,0.396740478515625,-0.19828860461711884,-0.2605127692222595,0.3312743306159973
1776019989728801500,0.406801513671875,-0.22307837009429932,-0.2278275340795517,0.2026686817407608
1776019989738861600,0.416861572265625,-0.2473127692937851,-0.22654393315315247,0.09275162220001221
1776019989748922600,0.426922607421875,-0.2701885402202606,-0.2514146566390991,0.02677207440137863
1776019989758982700,0.436982666015625,-0.28800007700920105,-0.29529115557670593,0.001527344691567123
1776019989769043500,0.44704345703125,-0.2942795157432556,-0.31482064723968506,-0.013526173308491707
1776019989779103500,0.457103515625,-0.28436776995658875,-0.3014907240867615,-0.05374123901128769
1776019989789163500,0.46716357421875,-0.26653552055358887,-0.2693716585636139,-0.1199178546667099
1776019989799224600,0.477224609375,-0.2644580602645874,-0.2463507354259491,-0.1714823991060257
1776019989809284400,0.487284423828125,-0.2912853956222534,-0.26460111141204834,-0.1878560483455658
1776019989819346000,0.497345947265625,-0.3373572528362274,-0.3721359968185425,-0.1971927434206009
1776019989829405700,0.50740576171875,-0.36147138476371765,-0.46445125341415405,-0.1994340717792511
1776019989839466800,0.517466796875,-0.3595869839191437,-0.4181116819381714,-0.19126495718955994
1776019989849526800,0.52752685546875,-0.3370436131954193,-0.28584128618240356,-0.1367279440164566
1776019989859587800,0.537587890625,-0.3332161605358124,-0.1576737016439438,-0.031376712024211884
1776019989869648000,0.54764794921875,-0.31111058592796326,-0.04022776708006859,0.04367489367723465
1776019989879709000,0.557708984375,-0.21556852757930756,0.09487490355968475,-0.025798022747039795
1776019989889769000,0.56776904296875,-0.025030281394720078,0.25018006563186646,-0.3391101360321045
1776019989899829000,0.5778291015625,0.25104063749313354,0.5792846083641052,-0.8755136728286743
1776019989909890000,0.58789013671875,0.5730660557746887,1.3025450706481934,-1.5338926315307617
1776019989919949800,0.59794970703125,0.7650926113128662,2.3819096088409424,-2.278029441833496
1776019989930011000,0.608010986328125,1.0768704414367676,3.1367874145507812,-3.0239503383636475
1776019989940071000,0.61807080078125,1.586728811264038,3.2736706733703613,-3.623732805252075
1776019989950132000,0.628132080078125,2.157059907913208,3.224980115890503,-3.7875492572784424
1776019989960192000,0.63819189453125,2.408323049545288,3.060319423675537,-3.3120265007019043
1776019989970253000,0.648253173828125,2.21728515625,2.5586657524108887,-2.3197641372680664
1776019989980312800,0.658312744140625,1.530691385269165,1.5767050981521606,-1.0934853553771973
1776019989990374000,0.668373779296875,0.34274229407310486,0.7477958798408508,0.11574582010507584
1776019990000434000,0.678433837890625,-0.34765708446502686,-0.5030514597892761,1.3033347129821777
1776019990010495000,0.688494873046875,-0.4554852843284607,-1.8779057264328003,2.269878387451172
1776019990020554800,0.6985546875,-0.4248088002204895,-2.588507652282715,2.8583245277404785
1776019990030614800,0.70861474609375,-0.506589412689209,-3.2604098320007324,2.8836588859558105
1776019990040675800,0.71867578125,-1.7056964635849,-8.149642944335938,0.663282036781311
1776019990050735900,0.72873583984375,-2.289879322052002,-11.158040046691895,-0.7245769500732422
1776019990060797000,0.738796875,-1.8760429620742798,-11.899086952209473,-0.03676373139023781
1776019990070856700,0.748856689453125,-1.2861754894256592,-12.1875,1.2058414220809937
1776019990080917800,0.758917724609375,-0.665267825126648,-7.5077667236328125,1.5965996980667114
1776019990090977800,0.768977783203125,0.27948886156082153,-4.285118103027344,0.41731753945350647
1776019990101038800,0.779038818359375,0.6607488393783569,-2.095546007156372,-0.15877820551395416
1776019990111099000,0.789098876953125,0.7218444347381592,-1.1375412940979004,-1.3365625143051147
1776019990121159700,0.79915966796875,0.7351513504981995,-0.5778849124908447,-1.804298758506775
1776019990131220000,0.809219970703125,0.8529027700424194,-1.4734690189361572,-1.8845386505126953
1776019990141280000,0.819280029296875,0.8090022206306458,-1.2900151014328003,-1.911287784576416
1776019990151341000,0.829341064453125,0.7808201313018799,0.015060760080814362,-1.6420499086380005
1776019990161400800,0.83940087890625,0.7757205963134766,1.3784757852554321,-1.2007421255111694
1776019990171462000,0.8494619140625,0.7220227122306824,2.2608463764190674,-1.016732096672058
1776019990181522000,0.85952197265625,0.5756775140762329,2.511338710784912,-1.0170350074768066
1776019990191583000,0.8695830078125,0.33410876989364624,2.1619133949279785,-1.0705589056015015
1776019990201643000,0.87964306640625,0.2580486834049225,1.7102912664413452,-0.989486813545227
1776019990211703800,0.889703857421875,0.28536391258239746,1.2841581106185913,-0.7947346568107605
1776019990221763800,0.899763916015625,0.20484274625778198,0.8003504276275635,-0.5782103538513184
1776019990231825000,0.909824951171875,-0.04179845377802849,0.49450716376304626,-0.39320236444473267
1776019990241885000,0.919885009765625,-0.2823323905467987,0.4489080607891083,-0.3600602149963379
1776019990251946000,0.929946044921875,-0.4010523855686188,0.41866546869277954,-0.4702543616294861
1776019990262005800,0.940005859375,-0.44164368510246277,0.45394355058670044,-0.48626479506492615
1776019990272065800,0.950065673828125,-0.4031088352203369,0.49940794706344604,-0.2734143137931824
1776019990282126800,0.960126953125,-0.3322988450527191,0.43432191014289856,-0.039803147315979004
1776019990292187000,0.970186767578125,-0.29564762115478516,0.20931221544742584,0.10472580790519714
1776019990302248000,0.980248046875,-0.34460702538490295,-0.1289559155702591,0.23543992638587952
1776019990312307700,0.9903076171875,-0.4097314178943634,-0.37973809242248535,0.37712275981903076
1776019990322368800,1.00036865234375,-0.36425653100013733,-0.4488564729690552,0.45116329193115234
1776019990332429000,1.010428955078125,-0.26004597544670105,-0.4466998279094696,0.4193638265132904
1776019990342489900,1.02048974609375,-0.20188628137111664,-0.2853447496891022,0.3529305160045624
1776019990352550000,1.0305498046875,-0.20328949391841888,-0.012086842209100723,0.2998523712158203
1776019990362611000,1.04061083984375,-0.21291980147361755,0.18703238666057587,0.19728687405586243
1776019990372671000,1.0506708984375,-0.2774910628795624,0.36099353432655334,0.08278053998947144
1776019990382732000,1.06073193359375,-0.38347452878952026,0.5337395668029785,0.006282224785536528
1776019990392792000,1.0707919921875,-0.45241469144821167,0.6532872915267944,-0.043544985353946686
1776019990402851800,1.080851806640625,-0.4814223051071167,0.7242779731750488,-0.045172419399023056
1776019990412913000,1.090912841796875,-0.45070433616638184,0.7794658541679382,-0.0032747704535722733
1776019990422973000,1.100972900390625,-0.366447776556015,0.8080649971961975,0.012660786509513855
1776019990433034000,1.111033935546875,-0.26620906591415405,0.7208805680274963,-0.020540842786431313
1776019990443093800,1.12109375,-0.23697547614574432,0.5675791501998901,-0.021399276331067085
1776019990453154800,1.13115478515625,-0.26354265213012695,0.3655722737312317,0.017523355782032013
1776019990463214800,1.14121484375,-0.3026253283023834,0.15491315722465515,0.07592739909887314
1776019990473276000,1.15127587890625,-0.3211444318294525,-0.016464464366436005,0.10972318053245544
1776019990483336000,1.1613359375,-0.30259180068969727,-0.19243042171001434,0.09546919167041779
1776019990493397000,1.17139697265625,-0.2814076840877533,-0.3081194758415222,0.06648973375558853
1776019990503456800,1.181456787109375,-0.25069940090179443,-0.26792728900909424,0.0399104468524456
1776019990513517800,1.191517822265625,-0.20118829607963562,-0.22059917449951172,0.031257569789886475
1776019990523577900,1.201577880859375,-0.1452578455209732,-0.22425733506679535,0.02448582649230957
1776019990533638000,1.211637939453125,-0.10302597284317017,-0.26149630546569824,0.036549679934978485
1776019990543698700,1.22169873046875,-0.13976263999938965,-0.27266964316368103,0.10552547872066498
1776019990553759000,1.231759033203125,-0.02184879034757614,-0.4902895987033844,0.07500458508729935
1776019990563819800,1.24181982421875,0.07557988166809082,-0.6331241726875305,0.031981196254491806
1776019990573880000,1.251880126953125,0.05346818268299103,-0.8236286044120789,0.08288006484508514
1776019990583940900,1.26194091796875,0.04207361862063408,-1.0904489755630493,0.15539748966693878
1776019990594001000,1.2720009765625,-0.08167175948619843,-1.1714855432510376,0.27162981033325195
1776019990604062000,1.28206201171875,0.021070295944809914,-1.360397219657898,0.3322369158267975
1776019990614122000,1.2921220703125,0.2831205427646637,-1.6674984693527222,0.42426803708076477
1776019990624183000,1.30218310546875,0.6150872707366943,-2.1432528495788574,0.6204606294631958
1776019990634242800,1.312242919921875,1.0367940664291382,-2.5747954845428467,0.8668842315673828
1776019990644304000,1.322303955078125,1.5494105815887451,-2.951070547103882,1.1260298490524292
1776019990654364000,1.332364013671875,2.0153491497039795,-3.45007061958313,1.426735520362854
1776019990664424000,1.342423828125,2.484914779663086,-4.004150867462158,1.6869735717773438
1776019990674485000,1.352485107421875,2.945866346359253,-4.450451374053955,1.765812635421753
1776019990684544800,1.362544677734375,3.2422947883605957,-4.844360828399658,1.6260223388671875
1776019990694605800,1.372605712890625,3.522886037826538,-5.068574905395508,1.505484938621521
1776019990704665900,1.382665771484375,4.1572370529174805,-5.228912830352783,1.6047284603118896
1776019990714727000,1.392726806640625,5.005546569824219,-5.346678256988525,1.9973793029785156
1776019990724787000,1.402786865234375,5.901229381561279,-5.335323810577393,2.5742557048797607
1776019990734847700,1.41284765625,6.633878231048584,-5.2383928298950195,3.1508240699768066
1776019990744907800,1.42290771484375,6.95244836807251,-5.141018867492676,3.4497992992401123
1776019990754968800,1.43296875,7.024723052978516,-5.033442497253418,3.346122980117798
1776019990765028900,1.44302880859375,7.147010326385498,-4.729106903076172,3.024043083190918
1776019990775090000,1.45308984375,7.238628387451172,-4.489361763000488,2.7180850505828857
1776019990785149700,1.463149658203125,7.280261993408203,-4.4394354820251465,2.5870156288146973
1776019990795210800,1.473210693359375,7.305820941925049,-4.463550090789795,2.693772792816162
1776019990805270800,1.483270751953125,7.355332851409912,-4.525360107421875,3.0199506282806396
1776019990815330000,1.493330078125,7.367173194885254,-4.54990291595459,3.4427759647369385
1776019990825391000,1.50339111328125,7.265222549438477,-4.426668167114258,3.893148183822632
1776019990835451100,1.513451171875,7.131378173828125,-4.014605522155762,4.164460182189941
1776019990845512000,1.523511962890625,6.8302764892578125,-3.3319497108459473,4.022141933441162
1776019990855572000,1.533572021484375,6.267343997955322,-2.678098440170288,3.590953826904297
1776019990865633000,1.543633056640625,5.624414443969727,-2.171685218811035,3.103273391723633
1776019990875693000,1.553693115234375,4.993006229400635,-1.820314645767212,2.593862295150757
1776019990885754000,1.563754150390625,4.368874549865723,-1.5245623588562012,2.1585793495178223
1776019990895814000,1.57381396484375,3.7787280082702637,-1.2161738872528076,1.9014168977737427
1776019990905875000,1.583875,3.3166868686676025,-0.9528533816337585,1.8803091049194336
1776019990915935000,1.59393505859375,2.945396661758423,-0.6663904786109924,2.056720018386841
1776019990925996000,1.60399609375,2.504277229309082,-0.25508126616477966,2.2003252506256104
1776019990936055800,1.614055908203125,1.9215961694717407,0.10546146333217621,2.271949052810669
1776019990946116900,1.624116943359375,1.2182013988494873,0.4122668206691742,2.0671427249908447
1776019990956177000,1.634177001953125,0.41337549686431885,0.627870500087738,1.5769442319869995
1776019990966237200,1.6442373046875,-0.22452014684677124,0.8463677167892456,0.9571681618690491
1776019990976298000,1.654298095703125,-0.9160751700401306,0.905813992023468,0.2797792851924896
1776019990986358000,1.66435791015625,-1.5586695671081543,0.7297214269638062,-0.24778924882411957
1776019990996419000,1.674419189453125,-2.0226614475250244,0.6578075289726257,-0.684425950050354
1776019991006479000,1.68447900390625,-2.3509531021118164,0.6111528873443604,-1.0601742267608643
1776019991016540200,1.6945400390625,-2.5391056537628174,0.3925875723361969,-1.2884385585784912
1776019991026600200,1.70460009765625,-2.523475408554077,-0.14191514253616333,-1.237827181816101
1776019991036661000,1.714660888671875,-2.4153127670288086,-0.6859613656997681,-1.0801382064819336
1776019991046721000,1.724720947265625,-2.140428304672241,-1.1376700401306152,-1.1705108880996704
1776019991056782000,1.734781982421875,-1.5838804244995117,-1.572786808013916,-1.752069354057312
1776019991066842000,1.744842041015625,-0.7820443511009216,-2.237319231033325,-2.713423490524292
1776019991076903200,1.754903076171875,-0.6271562576293945,-2.793543815612793,-3.1646785736083984
1776019991086963000,1.764962890625,-1.0667765140533447,-3.6552817821502686,-2.8008108139038086
1776019991097024000,1.77502392578125,-1.2438678741455078,-4.720226764678955,-2.014754295349121
1776019991107084000,1.785083984375,-1.7413617372512817,-5.223438262939453,-1.500292420387268
1776019991117144000,1.79514404296875,-2.2882819175720215,-4.865764617919922,-1.2213784456253052
1776019991127204900,1.805204833984375,-2.5227277278900146,-3.599169969558716,-1.267464518547058
1776019991137265000,1.815264892578125,-2.2495481967926025,-1.9321032762527466,-1.6939668655395508
1776019991147326000,1.825325927734375,-1.8617817163467407,-0.3193182647228241,-2.1434166431427
1776019991157386000,1.835385986328125,-1.4836612939834595,0.7266966104507446,-2.2326927185058594
1776019991167447000,1.845447021484375,-1.1002545356750488,1.1792432069778442,-1.9355759620666504
1776019991177506800,1.8555068359375,-0.9037988185882568,1.1492054462432861,-1.46091890335083
1776019991187567900,1.86556787109375,-0.9789748191833496,0.7523994445800781,-1.0401742458343506
1776019991197628000,1.8756279296875,-1.2397429943084717,0.01618218421936035,-0.751116156578064
1776019991207689000,1.88568896484375,-1.582958459854126,-0.7073478698730469,-0.5846119523048401
1776019991217749000,1.8957490234375,-1.8176617622375488,-1.0658255815505981,-0.48366907238960266
1776019991227809800,1.905809814453125,-1.5402891635894775,-1.1443121433258057,-0.3007965087890625
1776019991237870000,1.9158701171875,-0.8296142220497131,-0.74798184633255,-0.27062398195266724
1776019991247931000,1.925930908203125,-0.13333940505981445,-0.3856397271156311,-0.08236806839704514
1776019991257991200,1.9359912109375,0.17637450993061066,-0.34345099329948425,-0.07414662092924118
1776019991268051000,1.946051025390625,-0.16244368255138397,-0.8859867453575134,-0.19931957125663757
1776019991278112000,1.956112060546875,-0.3201254606246948,-0.9229421019554138,-0.06515830755233765
1776019991288172000,1.966172119140625,0.06013373285531998,-0.8836191892623901,0.12092261016368866
1776019991298233000,1.976233154296875,0.5758175849914551,-0.9270103573799133,0.10277050733566284
1776019991308293000,1.986293212890625,1.0958229303359985,-0.9798303246498108,-0.07272396236658096
1776019991318354200,1.996354248046875,1.58482027053833,-1.113751769065857,-0.28906479477882385
1776019991328414000,2.0064140625,2.052614212036133,-1.078808307647705,-0.4669824242591858
1776019991338475000,2.01647509765625,2.6650078296661377,-1.1510180234909058,-0.5460919141769409
1776019991348535000,2.02653515625,3.4741451740264893,-1.267886757850647,-0.5059475898742676
1776019991358596000,2.03659619140625,4.377159595489502,-1.1566030979156494,-0.37725329399108887
1776019991368656000,2.04665576171875,5.232902526855469,-1.0153381824493408,-0.1448265165090561
1776019991378717000,2.056717041015625,5.912363529205322,-0.9773778319358826,0.23104006052017212
1776019991388777000,2.06677685546875,6.388917446136475,-1.090499997138977,0.7449902296066284
1776019991398838000,2.076838134765625,6.396911144256592,-1.0891153812408447,1.3375643491744995
1776019991408898000,2.08689794921875,6.1426825523376465,-1.0601128339767456,1.9967632293701172
1776019991418958800,2.096958740234375,5.649881839752197,-1.164536714553833,2.649657726287842
1776019991429019000,2.107018798828125,5.174529552459717,-1.2048227787017822,3.0151946544647217
1776019991439079200,2.1170791015625,4.855635643005371,-1.3472925424575806,3.1086184978485107
1776019991449140000,2.127139892578125,4.539246082305908,-1.715529441833496,3.152996063232422
1776019991459200000,2.137199951171875,4.2805938720703125,-2.088045597076416,3.243907928466797
1776019991469261000,2.147260986328125,4.17010498046875,-1.8955937623977661,3.2067105770111084
1776019991479321000,2.157321044921875,4.49999475479126,0.14628368616104126,2.3937697410583496
1776019991489382100,2.167382080078125,4.651519775390625,0.45935237407684326,2.178417205810547
1776019991499442200,2.177442138671875,4.75805139541626,0.019534261897206306,2.3082451820373535
1776019991509503200,2.187503173828125,4.8056440353393555,-3.2182700634002686,0.5555009841918945
1776019991519563000,2.19756298828125,4.941371917724609,-4.587934970855713,0.4293709993362427
1776019991529624000,2.2076240234375,5.022209644317627,-4.966714859008789,0.9672756791114807
1776019991539684000,2.21768408203125,4.952725410461426,-7.15303897857666,0.16046197712421417
1776019991549745200,2.2277451171875,4.388451099395752,-6.158161640167236,0.6755761504173279
1776019991559805000,2.237804931640625,3.6784005165100098,-3.138016939163208,2.048506021499634
1776019991569866000,2.247865966796875,3.420708417892456,-1.1697403192520142,2.1453964710235596
1776019991579926000,2.257926025390625,3.5679755210876465,1.8842787742614746,2.2043023109436035
1776019991589987000,2.267987060546875,4.10244083404541,3.4595389366149902,0.686047375202179
1776019991600047000,2.278047119140625,4.403553485870361,2.308448314666748,-1.6551308631896973
1776019991610107000,2.28810693359375,4.3170013427734375,0.5532996654510498,-2.85394287109375
1776019991620168000,2.29816796875,3.8260464668273926,-0.564474880695343,-2.8144168853759766
1776019991630228000,2.30822802734375,2.9436559677124023,-0.8684082627296448,-2.2183539867401123
1776019991640289000,2.3182890625,1.8840961456298828,-0.5330952405929565,-1.609743356704712
1776019991650348800,2.328348876953125,0.3819589912891388,0.48341235518455505,-0.695293128490448
1776019991660409900,2.338409912109375,-1.227872610092163,1.297412395477295,0.6007624864578247
1776019991670470000,2.348469970703125,-1.4761360883712769,0.3311278522014618,0.8139690160751343
1776019991680531000,2.358531005859375,-1.16438627243042,-0.5878978967666626,0.4427264630794525
1776019991690591000,2.368591064453125,-0.8773988485336304,-1.0625735521316528,0.1140001118183136
1776019991700652000,2.378652099609375,-0.8026058673858643,-1.1945465803146362,-0.009503715671598911
1776019991710712000,2.388712158203125,-0.8355198502540588,-0.9777058362960815,0.012316940352320671
1776019991720772900,2.39877294921875,-0.7638922929763794,-0.4106118083000183,-0.15147759020328522
1776019991730833200,2.408833251953125,-0.6281728148460388,0.5060888528823853,-0.2702938914299011
1776019991740894000,2.41889404296875,-0.4222771227359772,1.4016430377960205,-0.3451244533061981
1776019991750954000,2.4289541015625,-0.21058282256126404,1.8908536434173584,-0.3591041564941406
1776019991761015000,2.43901513671875,-0.12314379960298538,1.7412338256835938,-0.27060413360595703
1776019991771075000,2.449074951171875,-0.09801501035690308,1.057280421257019,-0.15053485333919525
1776019991781136100,2.45913623046875,-0.09068785607814789,0.3180220425128937,-0.11713322252035141
1776019991791196200,2.469196044921875,-0.06643162667751312,-0.2654128670692444,-0.06317953765392303
1776019991801257000,2.479257080078125,-0.001059278380125761,-0.5379381775856018,0.060292597860097885
1776019991811317000,2.48931689453125,0.06316646188497543,-0.4346589744091034,0.1489947885274887
1776019991821377800,2.499377685546875,0.07272641360759735,-0.15732668340206146,0.16259954869747162
1776019991831438800,2.50943896484375,0.052073296159505844,0.1776440292596817,0.12102330476045609
1776019991841498600,2.51949853515625,0.056406792253255844,0.48271313309669495,0.021266350522637367
1776019991851559700,2.5295595703125,0.06767679005861282,0.7486700415611267,-0.1033807322382927
1776019991861619700,2.53961962890625,0.04697337746620178,0.83165043592453,-0.13186350464820862
1776019991871680800,2.5496806640625,0.022696424275636673,0.8429018259048462,-0.12465572357177734
1776019991881740500,2.559740478515625,0.04728805273771286,0.7255770564079285,-0.11397724598646164
1776019991891801600,2.569801513671875,0.06461335718631744,0.5582361817359924,-0.07761624455451965
1776019991901861600,2.579861572265625,0.05069168657064438,0.3825186789035797,-0.01724717952311039
1776019991911922700,2.589922607421875,0.03606210649013519,0.2831151783466339,0.012448209337890148
1776019991921982700,2.599982666015625,0.03652656078338623,0.3284011781215668,-0.02223573438823223
1776019991932043800,2.610043701171875,0.04154878482222557,0.40692684054374695,-0.07725482434034348
1776019991942103600,2.620103515625,0.041164226830005646,0.47212475538253784,-0.10805881023406982
1776019991952164600,2.63016455078125,0.03665492683649063,0.47900718450546265,-0.1269693374633789
1776019991962224600,2.640224609375,0.02851870283484459,0.4339563548564911,-0.13317503035068512
1776019991972285700,2.65028564453125,0.018015233799815178,0.3531493544578552,-0.121271051466465
1776019991982345500,2.660345458984375,0.019445616751909256,0.281444787979126,-0.10694164782762527
1776019991992406500,2.670406494140625,0.032121576368808746,0.24922679364681244,-0.08556976914405823
1776019992002466600,2.680466552734375,0.04231961816549301,0.2514590620994568,-0.0646439790725708
1776019992012527600,2.690527587890625,0.04782132804393768,0.2783815264701843,-0.05208703503012657
1776019992022588000,2.700587890625,0.05568964034318924,0.30924275517463684,-0.04359128326177597
1776019992032648400,2.7106484375,0.06890534609556198,0.33188414573669434,-0.03282922878861427
1776019992042708700,2.720708740234375,0.07800749689340591,0.32302647829055786,-0.020165635272860527
1776019992052768800,2.730768798828125,0.07631000131368637,0.2940896153450012,-0.002778654918074608
1776019992062829800,2.740829833984375,0.076406329870224,0.2534378468990326,0.012211306020617485
1776019992072889600,2.7508896484375,0.08320789784193039,0.20745031535625458,0.01934601180255413
1776019992082950700,2.76095068359375,0.09488692134618759,0.17755286395549774,0.025036919862031937
1776019992093010700,2.7710107421875,0.11059162020683289,0.15307030081748962,0.029806211590766907
1776019992103071700,2.78107177734375,0.12127462029457092,0.11168637126684189,0.030746040865778923
1776019992113131800,2.7911318359375,0.12499122321605682,0.03096117079257965,0.026819581165909767
1776019992123192800,2.80119287109375,0.09980063885450363,-0.08271319419145584,0.004444767255336046
1776019992133252600,2.811252685546875,0.04838524013757706,-0.2317138910293579,-0.023103905841708183
1776019992143313700,2.821313720703125,0.005231641698628664,-0.36747997999191284,-0.0472039133310318
1776019992153373700,2.831373779296875,-0.021228576079010963,-0.45731353759765625,-0.05547620728611946
1776019992163434800,2.841434814453125,-0.04086112976074219,-0.49286702275276184,-0.06540793925523758
1776019992173494500,2.85149462890625,-0.06118618696928024,-0.49947014451026917,-0.08664317429065704
1776019992183555600,2.8615556640625,-0.07098636031150818,-0.4863031804561615,-0.10578491538763046
1776019992193615600,2.87161572265625,-0.0646311342716217,-0.46173176169395447,-0.11640512198209763
1776019992203676700,2.8816767578125,-0.04378578066825867,-0.426647812128067,-0.10025278478860855
1776019992213736700,2.89173681640625,-0.016835501417517662,-0.3827279508113861,-0.07404550164937973
1776019992223797500,2.901797607421875,0.007191537879407406,-0.34243565797805786,-0.049479976296424866
1776019992233857500,2.911857421875,0.03200048208236694,-0.2948535978794098,-0.03801784664392471
1776019992243918600,2.921918701171875,0.05532258003950119,-0.22536322474479675,-0.04108607396483421
1776019992253978600,2.931978515625,0.07700097560882568,-0.12375948578119278,-0.03830771893262863
1776019992264039700,2.942039794921875,0.10189008712768555,0.0020312017295509577,-0.021419014781713486
1776019992274099700,2.952099609375,0.130660280585289,0.1406429558992386,0.02193431183695793
1776019992284160500,2.962160400390625,0.15242309868335724,0.2503449320793152,0.06244232505559921
1776019992294220800,2.972220703125,0.1626037210226059,0.3005928695201874,0.09017600119113922
1776019992304280800,2.98228076171875,0.1574731469154358,0.3122103810310364,0.08662334829568863
1776019992314342000,2.992341796875,0.1453973799943924,0.3074202835559845,0.07835482060909271
1776019992324401700,3.002401611328125,0.13708645105361938,0.3060583174228668,0.06938689202070236
1776019992334462700,3.012462646484375,0.1373879611492157,0.31119149923324585,0.070537269115448
1776019992344522800,3.022522705078125,0.14458276331424713,0.3047434687614441,0.07689529657363892
1776019992354583800,3.032583740234375,0.15066763758659363,0.28696751594543457,0.08275268226861954
1776019992364643600,3.0426435546875,0.15132755041122437,0.24717801809310913,0.07699759304523468
1776019992374704600,3.05270458984375,0.14318332076072693,0.20223401486873627,0.07220957428216934
1776019992384764700,3.0627646484375,0.1399156153202057,0.15805962681770325,0.07083351165056229
1776019992394825700,3.07282568359375,0.14165762066841125,0.11437813937664032,0.06809274852275848
1776019992404885800,3.0828857421875,0.15105006098747253,0.08260369300842285,0.06163431331515312
1776019992414946800,3.09294677734375,0.16435350477695465,0.06711403280496597,0.06003182381391525
1776019992425006600,3.103006591796875,0.17296217381954193,0.06752309203147888,0.06586574763059616
1776019992435067600,3.113067626953125,0.17755745351314545,0.08244223892688751,0.08179875463247299
1776019992445127700,3.123127685546875,0.17927278578281403,0.11163821071386337,0.09402639418840408
1776019992455188700,3.133188720703125,0.18305782973766327,0.14736391603946686,0.09772637486457825
1776019992465248500,3.14324853515625,0.19109897315502167,0.16413810849189758,0.09907446801662445
1776019992475309600,3.1533095703125,0.20860008895397186,0.16379910707473755,0.10458814352750778
1776019992485369600,3.16336962890625,0.22540996968746185,0.15299253165721893,0.12067842483520508
1776019992495430700,3.1734306640625,0.23299111425876617,0.12057113647460938,0.13031668961048126
1776019992505490700,3.18349072265625,0.22664080560207367,0.0775405764579773,0.12252987176179886
1776019992515551500,3.193551513671875,0.2131558060646057,0.02931637316942215,0.09891867637634277
1776019992525611500,3.203611572265625,0.18362215161323547,-0.020670361816883087,0.05976328253746033
1776019992535672600,3.213672607421875,0.1441202014684677,-0.06483832746744156,0.02630235068500042
1776019992545732900,3.22373291015625,0.10612675547599792,-0.11028756946325302,-0.001507443143054843
1776019992555793700,3.233793701171875,0.07990070432424545,-0.1554117500782013,-0.018854547291994095
1776019992565853700,3.243853759765625,0.060000501573085785,-0.1916576325893402,-0.03324839845299721
1776019992575914500,3.25391455078125,0.03209380432963371,-0.20726393163204193,-0.03238493204116821
1776019992585974800,3.263974853515625,0.004657121375203133,-0.2091132253408432,-0.0225051362067461
1776019992596034800,3.274034912109375,-0.013081736862659454,-0.19172526895999908,-0.011119616217911243
1776019992606096000,3.284095947265625,-0.013373619876801968,-0.15609537065029144,-0.006532321684062481
1776019992616155600,3.29415576171875,-0.0064850118942558765,-0.11258307099342346,-0.006914575584232807
1776019992626216700,3.304216796875,0.007276873104274273,-0.04729008674621582,-0.013778074644505978
1776019992636276700,3.31427685546875,0.02086375094950199,0.03533834218978882,-0.024585552513599396
1776019992646337800,3.324337890625,0.022673901170492172,0.10518506914377213,-0.050036318600177765
1776019992656397600,3.3343974609375,0.024099454283714294,0.14706917107105255,-0.0959978699684143
1776019992666458600,3.344458740234375,0.02779432386159897,0.15735696256160736,-0.1528901755809784
1776019992676518700,3.3545185546875,0.028564509004354477,0.15680450201034546,-0.19346728920936584
1776019992686579700,3.364579833984375,0.02118435502052307,0.1529301404953003,-0.2045295238494873
1776019992696639700,3.3746396484375,0.02133113518357277,0.16605067253112793,-0.20690171420574188
1776019992706700500,3.384700439453125,0.02188720367848873,0.1893991380929947,-0.2147364765405655
1776019992716760600,3.394760498046875,0.026239491999149323,0.23861192166805267,-0.22878162562847137
1776019992726821600,3.404821533203125,0.0325477197766304,0.30943068861961365,-0.23744967579841614
1776019992736881700,3.414881591796875,0.026062773540616035,0.42239299416542053,-0.24358512461185455
1776019992746942700,3.424942626953125,0.030632490292191505,0.5513871908187866,-0.24497424066066742
1776019992757002500,3.43500244140625,0.03932131826877594,0.7118663191795349,-0.23405660688877106
1776019992767063600,3.4450634765625,0.06261838227510452,0.8688218593597412,-0.21468131244182587
1776019992777123600,3.45512353515625,0.1007034108042717,1.0147088766098022,-0.18764154613018036
1776019992787184600,3.4651845703125,0.14419443905353546,1.1204737424850464,-0.1606498658657074
1776019992797244700,3.47524462890625,0.19059167802333832,1.1727612018585205,-0.13996896147727966
1776019992807305500,3.485305419921875,0.22661092877388,1.1887515783309937,-0.13529404997825623
1776019992817364700,3.49536474609375,0.26305174827575684,1.1866264343261719,-0.1336204707622528
1776019992827425800,3.50542578125,0.30113041400909424,1.1873078346252441,-0.13783971965312958
1776019992837485800,3.51548583984375,0.3356885313987732,1.1877758502960205,-0.14738322794437408
1776019992847547000,3.525546875,0.3598490059375763,1.1803702116012573,-0.15733546018600464
1776019992857606700,3.535606689453125,0.36297449469566345,1.1661397218704224,-0.17277821898460388
1776019992867667700,3.545667724609375,0.35761621594429016,1.1653287410736084,-0.19824177026748657
1776019992877727700,3.555727783203125,0.3388267457485199,1.1807591915130615,-0.22438669204711914
1776019992887788800,3.565788818359375,0.2988013029098511,1.2072139978408813,-0.24630077183246613
1776019992897848800,3.575848876953125,0.24767611920833588,1.2250683307647705,-0.26882362365722656
1776019992907910000,3.585909912109375,0.19527657330036163,1.23160719871521,-0.2920919358730316
1776019992917969700,3.5959697265625,0.1382792890071869,1.2278642654418945,-0.31383049488067627
1776019992928030700,3.60603076171875,0.09126091003417969,1.2221206426620483,-0.3074261248111725
1776019992938090800,3.6160908203125,0.073418527841568,1.2455719709396362,-0.2931258976459503
1776019992948151800,3.62615185546875,0.07339003682136536,1.3036807775497437,-0.2760896384716034
1776019992958211600,3.636211669921875,0.09215832501649857,1.4068844318389893,-0.2677956223487854
1776019992968272600,3.646272705078125,0.12970755994319916,1.541745901107788,-0.2790834307670593
1776019992978332700,3.656332763671875,0.17755341529846191,1.679961085319519,-0.31368663907051086
1776019992988393700,3.666393798828125,0.23232293128967285,1.8003699779510498,-0.3740383982658386
1776019992998453800,3.676453857421875,0.27334660291671753,1.9127916097640991,-0.4397023320198059
1776019993008514600,3.6865146484375,0.29688867926597595,1.9955500364303589,-0.48266685009002686
1776019993018574600,3.69657470703125,0.3125738799571991,2.009164333343506,-0.49652695655822754
1776019993028635000,3.706634765625,0.32568061351776123,1.9223054647445679,-0.48271021246910095
1776019993038696000,3.716696044921875,0.33572137355804443,1.742632269859314,-0.4222363829612732
1776019993048755700,3.726755615234375,0.3606613278388977,1.5173640251159668,-0.327060341835022
1776019993058816800,3.736816650390625,0.3857085704803467,1.2690914869308472,-0.2287186086177826
1776019993068876800,3.746876708984375,0.4077579379081726,1.0142877101898193,-0.15271997451782227
1776019993078937900,3.756937744140625,0.41951364278793335,0.7638310194015503,-0.09225020557641983
1776019993088998000,3.766997802734375,0.4427318871021271,0.5757196545600891,-0.03231176361441612
1776019993099059000,3.777058837890625,0.5004139542579651,0.5193045139312744,0.02839558757841587
1776019993109118700,3.78711865234375,0.5631897449493408,0.5616128444671631,0.08562158793210983
1776019993119179800,3.7971796875,0.6085385680198669,0.6605936288833618,0.13754139840602875
1776019993129239800,3.80723974609375,0.6388072371482849,0.7604720592498779,0.17787417769432068
1776019993139300900,3.81730078125,0.6708134412765503,0.8440359234809875,0.20274321734905243
1776019993149360600,3.827360595703125,0.6906419992446899,0.8824922442436218,0.22403891384601593
1776019993159421700,3.837421630859375,0.6949629187583923,0.8891258835792542,0.2386733889579773
1776019993169481700,3.847481689453125,0.6973187327384949,0.9001004695892334,0.23034222424030304
1776019993179542800,3.857542724609375,0.7024316787719727,0.9164747595787048,0.21532423794269562
1776019993189602800,3.867602783203125,0.698219895362854,0.9424943923950195,0.2056306004524231
1776019993199663900,3.877663818359375,0.6936900615692139,0.9472247958183289,0.19360867142677307
1776019993209723600,3.8877236328125,0.6966568231582642,0.9578984975814819,0.18901552259922028
1776019993219784700,3.89778466796875,0.7131745219230652,0.9937583804130554,0.19024747610092163
1776019993229844700,3.9078447265625,0.7313838601112366,1.0738545656204224,0.226104274392128
1776019993239905800,3.91790576171875,0.7389824390411377,1.1769254207611084,0.2917150557041168
1776019993249965600,3.927965576171875,0.7233629822731018,1.2895408868789673,0.37623313069343567
1776019993260026600,3.938026611328125,0.6801819801330566,1.4207267761230469,0.46022680401802063
1776019993270086700,3.948086669921875,0.6195799112319946,1.5518687963485718,0.5397689938545227
1776019993280147700,3.958147705078125,0.5394213199615479,1.6381542682647705,0.6221553683280945
1776019993290207700,3.968207763671875,0.4501468539237976,1.6535576581954956,0.7076191306114197
1776019993300268500,3.9782685546875,0.3632783591747284,1.5982534885406494,0.7743699550628662
1776019993310328800,3.988328857421875,0.2801232933998108,1.5014652013778687,0.7893733978271484
1776019993320389600,3.9983896484375,0.19638587534427643,1.411906123161316,0.7125331163406372
1776019993330450000,4.008449951171875,0.11095274239778519,1.3774847984313965,0.5299841165542603
1776019993340510700,4.0185107421875,0.00548749603331089,1.3224592208862305,0.2852736711502075
1776019993350570800,4.02857080078125,-0.12035006284713745,1.1871403455734253,0.07556280493736267
1776019993360631800,4.0386318359375,-0.2485790252685547,0.8971731066703796,-0.048489268869161606
1776019993370691800,4.04869189453125,-0.34630051255226135,0.42722082138061523,-0.08135160803794861
1776019993380753000,4.0587529296875,-0.4215734004974365,-0.17465054988861084,-0.06523995101451874
1776019993390813000,4.06881298828125,-0.4667086601257324,-0.8129575252532959,-0.03246282786130905
1776019993400873700,4.078873779296875,-0.49360644817352295,-1.359715461730957,-0.008299221284687519
1776019993410933800,4.088933837890625,-0.4963338077068329,-1.7315454483032227,0.02193005383014679
1776019993420994800,4.098994873046875,-0.47653326392173767,-1.9008958339691162,0.07708652317523956
1776019993431054800,4.109054931640625,-0.43657439947128296,-1.9267224073410034,0.14991678297519684
1776019993441116000,4.119115966796875,-0.374214768409729,-1.840827226638794,0.21702606976032257
1776019993451175700,4.12917578125,-0.3116384744644165,-1.6563516855239868,0.24994806945323944
1776019993461236700,4.13923681640625,-0.2520247995853424,-1.3820561170578003,0.2610315978527069
1776019993471296800,4.149296875,-0.1946035921573639,-1.083276629447937,0.26781412959098816
1776019993481357800,4.15935791015625,-0.151114359498024,-0.7788836359977722,0.2883169949054718
1776019993491417600,4.16941748046875,-0.12460419535636902,-0.48985159397125244,0.330471932888031
1776019993501478700,4.179478759765625,-0.09495590627193451,-0.20104767382144928,0.3921588957309723
1776019993511538700,4.18953857421875,-0.0316014364361763,0.0834927037358284,0.47836729884147644
1776019993521599700,4.199599853515625,0.067615807056427,0.3269415497779846,0.5579176545143127
1776019993531659800,4.20965966796875,0.1567014753818512,0.49493056535720825,0.6005687117576599
1776019993541720800,4.219720947265625,0.22610142827033997,0.6018199324607849,0.5972731113433838
1776019993551780600,4.229780517578125,0.2805076837539673,0.667567789554596,0.5618509650230408
1776019993561841700,4.239841552734375,0.31506019830703735,0.6933356523513794,0.5335911512374878
1776019993571901700,4.249901611328125,0.3365287184715271,0.6911939382553101,0.5231947302818298
1776019993581962800,4.259962646484375,0.34902307391166687,0.7101926207542419,0.5445067882537842
1776019993592022800,4.270022705078125,0.34169697761535645,0.7683214545249939,0.6080058217048645
1776019993602083600,4.28008349609375,0.3211576044559479,0.8595600128173828,0.6993210911750793
1776019993612143900,4.290143798828125,0.30427661538124084,0.9337695240974426,0.7900973558425903
1776019993622204700,4.30020458984375,0.323304682970047,0.9383727312088013,0.8005070090293884
1776019993632265000,4.310264892578125,0.3645511865615845,0.9084569215774536,0.7094218730926514
1776019993642325800,4.32032568359375,0.38327714800834656,0.9043412804603577,0.5872004628181458
1776019993652385800,4.3303857421875,0.34367460012435913,0.9549810290336609,0.5565000772476196
1776019993662446800,4.34044677734375,0.3183481693267822,1.040879726409912,0.6332581043243408
1776019993672507000,4.3505068359375,0.31314516067504883,1.1580811738967896,0.730525016784668
1776019993682568000,4.36056787109375,0.31094735860824585,1.2559505701065063,0.8198670744895935
1776019993692627700,4.370627685546875,0.30213573575019836,1.2144262790679932,0.886566162109375
1776019993702688800,4.380688720703125,0.2892923951148987,1.002286434173584,0.9130692481994629
1776019993712748800,4.390748779296875,0.2710036635398865,0.6704864501953125,0.8895125389099121
1776019993722809900,4.400809814453125,0.2332080453634262,0.3639476001262665,0.8487343192100525
1776019993732870000,4.410869873046875,0.16416746377944946,0.18449552357196808,0.8332219123840332
1776019993742930700,4.4209306640625,0.06571879982948303,0.13944010436534882,0.8441066145896912
1776019993752990700,4.43099072265625,-0.027416201308369637,0.1772945374250412,0.8443034291267395
1776019993763051800,4.4410517578125,-0.0754852294921875,0.26286566257476807,0.7723885178565979
1776019993773111800,4.45111181640625,-0.07840804755687714,0.3779187500476837,0.597247838973999
1776019993783172900,4.4611728515625,-0.06505633145570755,0.5172874331474304,0.3792569041252136
1776019993793232600,4.471232666015625,-0.03472958505153656,0.6144819259643555,0.1720677614212036
1776019993803293700,4.481293701171875,0.015134036540985107,0.5845655798912048,-0.019579917192459106
1776019993813353700,4.491353759765625,0.059001095592975616,0.43646982312202454,-0.16436399519443512
1776019993823414800,4.501414794921875,0.07893260568380356,0.15399372577667236,-0.2931060791015625
1776019993833474800,4.511474853515625,0.06836571544408798,-0.18290680646896362,-0.43396812677383423
1776019993843536000,4.521535888671875,0.04633791372179985,-0.44674935936927795,-0.5498364567756653
1776019993853595600,4.531595703125,-0.02298976108431816,-0.6058564782142639,-0.5386969447135925
1776019993863656700,4.54165673828125,-0.1323016732931137,-0.666313111782074,-0.35528436303138733
1776019993873716700,4.551716796875,-0.23057658970355988,-0.5534656643867493,-0.13460923731327057
1776019993883777800,4.56177783203125,-0.30316072702407837,-0.3410685956478119,-0.015249254181981087
1776019993893837600,4.571837646484375,-0.3641199469566345,-0.06268730014562607,-0.056096285581588745
1776019993903898600,4.581898681640625,-0.39702561497688293,0.3330979347229004,-0.266510546207428
1776019993913959000,4.591958984375,-0.42191338539123535,0.8361815214157104,-0.518380880355835
1776019993924019700,4.602019775390625,-0.4592336118221283,1.307024598121643,-0.6570884585380554
1776019993934080000,4.612080078125,-0.42392221093177795,0.9040912985801697,-0.4924430847167969
1776019993944140800,4.622140869140625,-0.49231061339378357,1.3792170286178589,-0.4309523105621338
1776019993954200800,4.632200927734375,-0.44318196177482605,1.4415392875671387,-0.567071259021759
1776019993964262000,4.642261962890625,-0.4791549742221832,0.881568193435669,-0.7664803266525269
1776019993974322000,4.652322021484375,-0.6052036881446838,0.2523833215236664,-0.8799256682395935
1776019993984383000,4.662383056640625,-0.6417760252952576,-0.24270501732826233,-0.9082404971122742
1776019993994442800,4.67244287109375,-0.5734992623329163,-0.4603039026260376,-0.8319425582885742
1776019994004503800,4.68250390625,-0.5305988788604736,-0.502169132232666,-0.7034379243850708
1776019994014563800,4.692563720703125,-0.5144526362419128,-0.49566221237182617,-0.6750374436378479
1776019994024625000,4.702625,-0.47075262665748596,-0.44937482476234436,-0.7513483762741089
1776019994034685000,4.712684814453125,-0.44190794229507446,-0.4157039523124695,-0.8484546542167664
1776019994044746000,4.72274609375,-0.43926700949668884,-0.4891996681690216,-0.9036330580711365
1776019994054805800,4.7328056640625,-0.4455731213092804,-0.6441988348960876,-0.8881861567497253
1776019994064866800,4.74286669921875,-0.4337102472782135,-0.8404170274734497,-0.8071991801261902
1776019994074926800,4.7529267578125,-0.3992489278316498,-1.0633941888809204,-0.6912922859191895
1776019994084988000,4.76298779296875,-0.333283007144928,-1.222293496131897,-0.6119611859321594
1776019994095047700,4.773047607421875,-0.25477540493011475,-1.2381848096847534,-0.5969995260238647
1776019994105108700,4.783108642578125,-0.19760406017303467,-1.0888500213623047,-0.689662516117096
1776019994115168800,4.793168701171875,-0.18295587599277496,-0.7565628290176392,-0.8980873823165894
1776019994125229800,4.803229736328125,-0.2179436981678009,-0.2668116092681885,-1.1573587656021118
1776019994135289900,4.813289794921875,-0.2724798917770386,0.26759985089302063,-1.4337695837020874
1776019994145350700,4.8233505859375,-0.28912606835365295,0.6958900094032288,-1.6116582155227661
1776019994155410700,4.83341064453125,-0.3013598322868347,0.9141845107078552,-1.7320096492767334
1776019994165471700,4.8434716796875,-0.33042484521865845,0.8917611837387085,-1.8056179285049438
1776019994175531800,4.85353173828125,-0.3706444203853607,0.5285504460334778,-1.7905571460723877
1776019994185592800,4.8635927734375,-0.39912348985671997,0.03772807493805885,-1.6764694452285767
1776019994195652600,4.873652587890625,-0.3803013265132904,-0.4789544641971588,-1.5305575132369995
1776019994205713700,4.883713623046875,-0.3403611481189728,-0.8832979202270508,-1.3395333290100098
1776019994215773700,4.893773681640625,-0.2931073307991028,-1.155489444732666,-1.115517258644104
1776019994225834800,4.903834716796875,-0.23456044495105743,-1.2737703323364258,-0.9061055779457092
1776019994235895000,4.91389501953125,-0.15331566333770752,-1.1662319898605347,-0.7973897457122803
1776019994245955600,4.92395556640625,-0.04496780410408974,-0.7559283375740051,-0.8279849886894226
1776019994256016000,4.934015869140625,0.09843303263187408,-0.03491212800145149,-0.9442216157913208
1776019994266077000,4.944076904296875,0.18628139793872833,0.6961912512779236,-1.0495606660842896
1776019994276137000,4.954136962890625,0.1380653977394104,1.25339937210083,-1.0800246000289917
1776019994286198000,4.964197998046875,-0.09762522578239441,1.428181767463684,-0.9534343481063843
1776019994296257800,4.9742578125,-0.5146986246109009,1.233752965927124,-0.6477053165435791
1776019994306318800,4.98431884765625,-0.9886008501052856,0.9441227316856384,-0.29006150364875793
1776019994316379000,4.99437890625,-1.3663569688796997,0.7542622685432434,-0.1349979192018509
1776019994326440000,5.00443994140625,-1.6146271228790283,0.7172833681106567,-0.20120558142662048
1776019994336499700,5.014499755859375,-1.8540260791778564,0.686170220375061,-0.31073474884033203
1776019994346560800,5.024560791015625,-2.147942066192627,0.500322699546814,-0.27150943875312805
1776019994356620800,5.034620849609375,-2.4113128185272217,0.24493302404880524,-0.20316897332668304
1776019994366681900,5.044681884765625,-2.480060577392578,0.10865357518196106,-0.31854352355003357
1776019994376742000,5.054741943359375,-2.2890360355377197,0.07275443524122238,-0.6722803115844727
1776019994386803000,5.064802978515625,-2.023913860321045,-0.03987882286310196,-1.0067393779754639
1776019994396862700,5.07486279296875,-1.746903657913208,-0.17267495393753052,-1.163662075996399
1776019994406923800,5.084923828125,-1.5060434341430664,-0.0615960918366909,-1.2785580158233643
1776019994416983800,5.09498388671875,-1.2529549598693848,0.29198968410491943,-1.4682046175003052
1776019994427044900,5.105044921875,-1.0231794118881226,0.732510507106781,-1.6440534591674805
1776019994437104600,5.115104736328125,-0.9142321348190308,1.0861071348190308,-1.6502019166946411
1776019994447165700,5.125165771484375,-0.8942895531654358,1.2892910242080688,-1.481833577156067
1776019994457225700,5.135225830078125,-0.952538251876831,1.495649814605713,-1.2130540609359741
1776019994467286800,5.145286865234375,-1.1123496294021606,1.7812296152114868,-0.9151878952980042
1776019994477346800,5.155346923828125,-1.4170300960540771,2.10609769821167,-0.6227461695671082
1776019994487407600,5.16540771484375,-1.855184555053711,2.310352087020874,-0.39738956093788147
1776019994497467600,5.175467529296875,-2.3503353595733643,2.159435272216797,-0.2513556480407715
1776019994507528700,5.18552880859375,-2.6163899898529053,1.5400129556655884,-0.10554054379463196
1776019994517588700,5.195588623046875,-2.6131153106689453,0.9027430415153503,-0.09717688709497452
1776019994527649800,5.20564990234375,-2.4826419353485107,0.5014013648033142,-0.1322510540485382
1776019994537709800,5.215709716796875,-2.3094592094421387,0.28676679730415344,-0.16321377456188202
1776019994547770600,5.2257705078125,-2.0869550704956055,0.18944744765758514,-0.27393198013305664
1776019994557831000,5.235830810546875,-1.7361526489257812,0.13307099044322968,-0.5590404272079468
1776019994567891700,5.2458916015625,-1.3755742311477661,-0.1347711682319641,-0.7279470562934875
1776019994577952000,5.255951904296875,-1.0241093635559082,-0.33938851952552795,-0.8731359839439392
1776019994588012800,5.2660126953125,-0.6517852544784546,-0.25853073596954346,-1.1945534944534302
1776019994598072800,5.27607275390625,-0.42775988578796387,-0.28817465901374817,-1.4722998142242432
1776019994608134000,5.2861337890625,-0.3918755352497101,-0.45277154445648193,-1.568687915802002
1776019994618194000,5.29619384765625,-0.5230697989463806,-0.4509778916835785,-1.6662362813949585
1776019994628255000,5.3062548828125,-0.7958632111549377,-0.31161201000213623,-1.7038217782974243
1776019994638314800,5.316314697265625,-1.1268292665481567,-0.2736304700374603,-1.6238654851913452
1776019994648375800,5.326375732421875,-1.42731511592865,-0.321819931268692,-1.4305270910263062
1776019994658435800,5.336435791015625,-1.5592023134231567,-0.3671799600124359,-1.1438567638397217
1776019994668497000,5.346496826171875,-1.517621636390686,-0.5198608636856079,-0.7560950517654419
1776019994678557000,5.356556884765625,-1.3154118061065674,-0.6792106032371521,-0.3537723422050476
1776019994688617700,5.36661767578125,-0.939820408821106,-0.8619867563247681,0.031428299844264984
1776019994698678800,5.3766787109375,-0.5087404251098633,-0.9378897547721863,0.41628995537757874
1776019994708738800,5.38673876953125,-0.12674647569656372,-0.7123649716377258,0.6905463337898254
1776019994718800000,5.3967998046875,0.13334982097148895,-0.4410996735095978,0.8347573280334473
1776019994728860000,5.40685986328125,0.19487982988357544,-0.1282883882522583,0.8689557909965515
1776019994738920700,5.416920654296875,0.0964166447520256,0.12242372334003448,0.813105583190918
1776019994748980700,5.426980712890625,-0.0007089958526194096,0.1893691122531891,0.6437554955482483
1776019994759041800,5.437041748046875,-0.09106579422950745,0.12363431602716446,0.45075085759162903
1776019994769101800,5.447101806640625,-0.18225979804992676,0.07358615845441818,0.3131967782974243
1776019994779163000,5.457162841796875,-0.21958932280540466,-0.1270715743303299,0.25589513778686523
1776019994789222700,5.46722265625,-0.20604361593723297,-0.4806535243988037,0.2673770785331726
1776019994799283700,5.47728369140625,-0.15905506908893585,-0.8484354615211487,0.35327816009521484
1776019994809343700,5.48734375,-0.06034036725759506,-1.0430840253829956,0.42347848415374756
1776019994819405800,5.49740576171875,0.08154246211051941,-1.0772368907928467,0.3783826529979706
1776019994829465900,5.5074658203125,0.16002118587493896,-1.1366350650787354,0.3203588128089905
1776019994839527000,5.51752685546875,0.27631130814552307,-1.4298847913742065,0.37719279527664185
1776019994849587000,5.5275869140625,0.3544684946537018,-1.4803911447525024,0.3961312770843506
1776019994859648000,5.53764794921875,0.31567397713661194,-1.4502843618392944,0.4315968453884125
1776019994869707800,5.547707763671875,0.18213534355163574,-1.413963794708252,0.44065675139427185
1776019994879768800,5.557768798828125,0.009393934160470963,-1.6419316530227661,0.40680745244026184
1776019994889828900,5.567828857421875,-0.34016624093055725,-1.9312666654586792,0.3413783013820648
1776019994899890000,5.577889892578125,-0.7977199554443359,-2.02854323387146,0.22010888159275055
1776019994909949700,5.58794970703125,-0.9408467411994934,-1.654508352279663,0.3441234230995178
1776019994920010800,5.5980107421875,-0.7890947461128235,-1.5069535970687866,0.8008565902709961
1776019994930070800,5.60807080078125,-0.4308060109615326,-1.7353954315185547,1.2299357652664185
1776019994940131800,5.6181318359375,-0.007680846843868494,-1.7056365013122559,1.3466488122940063
1776019994950191900,5.62819189453125,0.2063402384519577,-1.6782598495483398,1.3526880741119385
1776019994960253000,5.6382529296875,0.23812800645828247,-1.8411749601364136,1.369390606880188
1776019994970313000,5.64831298828125,0.21185854077339172,-2.018209934234619,1.2886546850204468
1776019994980373800,5.658373779296875,0.11912142485380173,-2.1600182056427,1.1053762435913086
1776019994990434000,5.66843408203125,-0.06761673092842102,-2.340409517288208,0.9597718119621277
1776019995000494800,5.678494873046875,-0.26529601216316223,-2.458216428756714,0.8804266452789307
1776019995010555000,5.688554931640625,-0.29150471091270447,-1.8040674924850464,0.6145755052566528
1776019995020616000,5.698615966796875,-0.3246224522590637,-0.2920449674129486,0.1405874639749527
1776019995030676000,5.708676025390625,-0.8872048854827881,0.9731408357620239,0.18683196604251862
1776019995040737000,5.718737060546875,-1.5070641040802002,0.1593504399061203,0.9833669662475586
1776019995050797800,5.7287978515625,-1.124030351638794,-2.006864547729492,1.4796102046966553
1776019995060857900,5.73885791015625,0.023845426738262177,-3.3211510181427,1.3497406244277954
1776019995070919000,5.7489189453125,1.0711641311645508,-3.417667865753174,1.115653395652771
1776019995080979000,5.75897900390625,1.516701102256775,-3.00227952003479,0.8871734142303467
1776019995091040000,5.7690400390625,1.5317206382751465,-2.484530210494995,0.5194879770278931
1776019995101100000,5.77910009765625,1.4342774152755737,-1.9230756759643555,0.11162403970956802
1776019995111161000,5.7891611328125,1.4573520421981812,-1.713814616203308,-0.02076154202222824
1776019995121220900,5.799220947265625,1.548749566078186,-1.5857163667678833,0.14831829071044922
1776019995131282000,5.809281982421875,1.4544167518615723,-0.9873708486557007,0.4398679733276367
1776019995141342000,5.819342041015625,0.9837184548377991,0.039885759353637695,0.7008894681930542
1776019995151403000,5.829403076171875,0.11597128212451935,0.8947504758834839,0.8489624261856079
1776019995161462800,5.839462890625,-0.7377036809921265,1.1198145151138306,0.9560286998748779
1776019995171523800,5.84952392578125,-1.211051344871521,1.0268803834915161,1.007673740386963
1776019995181584000,5.859583984375,-1.372450351715088,0.8820247650146484,0.9903003573417664
1776019995191645000,5.86964501953125,-1.3513518571853638,0.722602128982544,0.9237772226333618
1776019995201705000,5.879705078125,-1.2863811254501343,0.584061861038208,0.7957175374031067
1776019995211766000,5.88976611328125,-1.1955504417419434,0.4069271683692932,0.618760883808136
1776019995221825800,5.89982568359375,-1.0017035007476807,0.1609962284564972,0.43287891149520874
1776019995231886800,5.909886962890625,-0.6242075562477112,-0.11293666809797287,0.3184642791748047
1776019995241947000,5.91994677734375,-0.11089417338371277,-0.4563041627407074,0.34339892864227295
1776019995252008000,5.930008056640625,0.23409898579120636,-0.7164994478225708,0.3918842077255249
1776019995262067700,5.940067626953125,0.3229428231716156,-0.7746319770812988,0.389712393283844
1776019995272128800,5.950128662109375,0.3429326117038727,-0.5905507206916809,0.3529549241065979
1776019995282188800,5.960188720703125,0.39094674587249756,-0.3140064477920532,0.354177325963974
1776019995292249900,5.970249755859375,0.39721986651420593,-0.053004469722509384,0.44420111179351807
1776019995302311000,5.980310791015625,0.2522818446159363,0.18709653615951538,0.5829232931137085
1776019995312370700,5.99037060546875,-0.059252578765153885,0.3992077708244324,0.6932274699211121
1776019995322431700,6.000431640625,-0.4136151969432831,0.5876373648643494,0.7293612360954285
1776019995332491800,6.01049169921875,-0.6425852179527283,0.6676520109176636,0.6972901225090027
1776019995342552800,6.020552734375,-0.7254023551940918,0.5984231233596802,0.659156322479248
1776019995352612900,6.03061279296875,-0.6962433457374573,0.4174904525279999,0.6405368447303772
1776019995362674000,6.040673828125,-0.5782104730606079,0.24099449813365936,0.5914115905761719
1776019995372734000,6.05073388671875,-0.37130266427993774,0.06225262209773064,0.5163754820823669
1776019995382794800,6.060794677734375,-0.11176562309265137,-0.1562373787164688,0.4719685912132263
1776019995392855000,6.07085498046875,0.13395321369171143,-0.3365432918071747,0.5222017168998718
1776019995402915800,6.080915771484375,0.225420281291008,-0.44641226530075073,0.6459111571311951
1776019995412975900,6.090975830078125,0.21376115083694458,-0.45114296674728394,0.733936071395874
1776019995423037000,6.101036865234375,0.17432744801044464,-0.340671569108963,0.7428137063980103
1776019995433097000,6.111096923828125,0.13752520084381104,-0.21647462248802185,0.6801936626434326
1776019995443158000,6.121157958984375,0.09943187236785889,-0.1273553967475891,0.6205905079841614
1776019995453218000,6.131218017578125,0.06594113260507584,-0.028401708230376244,0.6016587615013123
1776019995463278800,6.14127880859375,0.03319038450717926,0.11408486217260361,0.6345429420471191
1776019995473339000,6.1513388671875,-0.01131362747400999,0.23088695108890533,0.7265524864196777
1776019995483400000,6.16139990234375,-0.0541127547621727,0.28194665908813477,0.8426188826560974
1776019995493460000,6.1714599609375,-0.06535080075263977,0.2888141870498657,0.9305791854858398
1776019995503521000,6.18152099609375,-0.05243127420544624,0.2898315191268921,0.9675028324127197
1776019995513582000,6.19158203125,-0.024689393118023872,0.3182893693447113,0.9425491690635681
1776019995523641900,6.201641845703125,0.013697145506739616,0.3555850684642792,0.8759325742721558
1776019995533703000,6.211702880859375,0.039894964545965195,0.35868656635284424,0.8159905672073364
1776019995543763000,6.221762939453125,0.0631805807352066,0.3179335296154022,0.8058146238327026
1776019995553824000,6.231823974609375,0.10211116075515747,0.23465944826602936,0.8459634780883789
1776019995563883800,6.2418837890625,0.14800967276096344,0.13222655653953552,0.9074997901916504
1776019995573944800,6.25194482421875,0.1725054681301117,0.018698379397392273,0.9606558680534363
1776019995584004900,6.2620048828125,0.190623477101326,-0.05953171104192734,0.9814269542694092
1776019995594066000,6.27206591796875,0.2351253777742386,-0.09612725675106049,0.9866348505020142
1776019995604126000,6.2821259765625,0.31488144397735596,-0.11673053354024887,0.9854792952537537
1776019995614187000,6.29218701171875,0.43112632632255554,-0.12296073883771896,0.9810637831687927
1776019995624246800,6.302246826171875,0.5424741506576538,-0.14448466897010803,0.9937984943389893
1776019995634307800,6.312307861328125,0.6214379668235779,-0.13979990780353546,1.0236839056015015
1776019995644368000,6.322367919921875,0.6727775931358337,-0.10543101280927658,1.0452417135238647
1776019995654429000,6.332428955078125,0.6965282559394836,-0.018517356365919113,1.0501612424850464
1776019995664488700,6.34248876953125,0.6843823790550232,0.11476746201515198,1.0453563928604126
1776019995674549800,6.3525498046875,0.6123999953269958,0.26370227336883545,1.0599082708358765
1776019995684609800,6.36260986328125,0.500461995601654,0.4186985194683075,1.1173590421676636
1776019995694670800,6.3726708984375,0.39580070972442627,0.5614494681358337,1.2206825017929077
1776019995704731000,6.38273095703125,0.342024028301239,0.6938951015472412,1.3302854299545288
1776019995714791700,6.392791748046875,0.34483951330184937,0.8358449339866638,1.4301693439483643
1776019995724852700,6.402852783203125,0.38974520564079285,0.9902981519699097,1.4935858249664307
1776019995734912800,6.412912841796875,0.4682100713253021,1.1309635639190674,1.5497876405715942
1776019995744973800,6.422973876953125,0.5532677173614502,1.2468349933624268,1.6064586639404297
1776019995755033900,6.433033935546875,0.6340456604957581,1.290802240371704,1.6872814893722534
1776019995765095000,6.443094970703125,0.7058317065238953,1.2909260988235474,1.7964719533920288
1776019995775155000,6.453155029296875,0.7662689089775085,1.2612578868865967,1.9139502048492432
1776019995785215700,6.4632158203125,0.8114222884178162,1.2328039407730103,2.049905776977539
1776019995795276000,6.473276123046875,0.8701814413070679,1.2327101230621338,2.170628786087036
1776019995805336800,6.4833369140625,0.9660520553588867,1.2663402557373047,2.2698721885681152
1776019995815396900,6.49339697265625,1.0708321332931519,1.3542044162750244,2.4107532501220703
1776019995825457200,6.50345703125,1.0698190927505493,1.4702996015548706,2.5835516452789307
1776019995835517000,6.513516845703125,1.0430293083190918,1.6520317792892456,2.7725470066070557
1776019995845578000,6.523577880859375,0.9909040927886963,1.8770116567611694,2.90014386177063
1776019995855638000,6.533637939453125,0.9168936014175415,2.053514003753662,2.8008599281311035
1776019995865699000,6.543698974609375,0.7383600473403931,2.1518561840057373,2.3226404190063477
1776019995875759000,6.553759033203125,0.5544570088386536,1.9876258373260498,1.5438302755355835
1776019995885820000,6.56381982421875,0.454145610332489,1.5293810367584229,0.769655704498291
1776019995895881000,6.573880859375,0.4959444999694824,1.0229640007019043,0.22483640909194946
1776019995905941000,6.58394091796875,0.6679125428199768,0.6834173798561096,-0.026643503457307816
1776019995916002000,6.594001953125,0.8982052206993103,0.5885776877403259,-0.032918039709329605
1776019995926062000,6.60406201171875,1.0746961832046509,0.6778018474578857,0.048009298741817474
1776019995936123000,6.614122802734375,1.1393834352493286,0.6939998269081116,0.08193572610616684
1776019995946183000,6.624182861328125,1.120227336883545,0.5210493206977844,0.028826173394918442
1776019995956244000,6.634243896484375,1.0737682580947876,0.19488759338855743,-0.07149401307106018
1776019995966304000,6.644303955078125,1.0373282432556152,-0.11061986535787582,-0.201123908162117
1776019995976365000,6.654364990234375,1.014064073562622,-0.2557837963104248,-0.3092551529407501
1776019995986424800,6.6644248046875,1.020026683807373,-0.20731960237026215,-0.37836790084838867
1776019995996486000,6.67448583984375,1.0988012552261353,-0.004841443616896868,-0.42034608125686646
1776019996006546000,6.6845458984375,1.14388108253479,0.22296401858329773,-0.4760434329509735
1776019996016607000,6.69460693359375,1.1251695156097412,0.4146592617034912,-0.5106385350227356
1776019996026667000,6.7046669921875,1.0457758903503418,0.5414342880249023,-0.4820721447467804
1776019996036727800,6.714727783203125,0.9356585741043091,0.6788496971130371,-0.3746519982814789
1776019996046788900,6.724788818359375,0.8079357743263245,0.8549434542655945,-0.18931996822357178
1776019996056849000,6.734848876953125,0.6773598790168762,1.0729715824127197,0.011297512799501419
1776019996066910000,6.744909912109375,0.5714342594146729,1.2759772539138794,0.1495390087366104
1776019996076970000,6.754969970703125,0.5455290079116821,1.4045767784118652,0.16572855412960052
1776019996087031000,6.765031005859375,0.5600224137306213,1.3948988914489746,0.10525482147932053
1776019996097091000,6.775091064453125,0.572205126285553,1.2061234712600708,0.023396125063300133
1776019996107152000,6.78515185546875,0.5798822641372681,0.9275404214859009,-0.07339593023061752
1776019996117212200,6.795212158203125,0.5969239473342896,0.6603221893310547,-0.1873302459716797
1776019996127273000,6.80527294921875,0.6022159457206726,0.4150863587856293,-0.3151225745677948
1776019996137333000,6.8153330078125,0.6033301949501038,0.21604913473129272,-0.45267224311828613
1776019996147394000,6.82539404296875,0.6256914734840393,0.08472174406051636,-0.5729291439056396
1776019996157454000,6.8354541015625,0.669501006603241,-0.002898537553846836,-0.6734119057655334
1776019996167515100,6.84551513671875,0.7280337810516357,-0.06727539747953415,-0.732401430606842
1776019996177576200,6.855576171875,0.7848648428916931,-0.09868429601192474,-0.7504773139953613
1776019996187636000,6.865635986328125,0.8074687123298645,-0.07260529696941376,-0.7266387939453125
1776019996197697000,6.875697021484375,0.8038471341133118,0.03373034670948982,-0.6774899959564209
1776019996207757000,6.885757080078125,0.7873344421386719,0.22994886338710785,-0.6156764030456543
1776019996217818000,6.895818115234375,0.7390172481536865,0.46043261885643005,-0.5453834533691406
1776019996227878100,6.905878173828125,0.6658559441566467,0.6719690561294556,-0.46160760521888733
1776019996237939200,6.915939208984375,0.5829018354415894,0.8356785178184509,-0.35149630904197693
1776019996247999000,6.9259990234375,0.5213497877120972,0.9401955604553223,-0.23076055943965912
1776019996258060000,6.93606005859375,0.49436119198799133,1.0178539752960205,-0.12410005182027817
1776019996268120000,6.9461201171875,0.5142412185668945,1.0940603017807007,-0.05960547924041748
1776019996278181000,6.95618115234375,0.5230528712272644,1.1343188285827637,-0.033878203481435776
1776019996288241000,6.966240966796875,0.47285306453704834,1.0669296979904175,-0.044224850833415985
1776019996298302000,6.976302001953125,0.3351190388202667,0.8452423214912415,-0.10002563148736954
1776019996308363000,6.986363037109375,0.2031916230916977,0.5097431540489197,-0.19309112429618835
1776019996318423000,6.996423095703125,0.22278715670108795,0.28515374660491943,-0.3292529582977295
1776019996328484000,7.006484130859375,0.33126384019851685,0.31150174140930176,-0.4990489184856415
1776019996338544000,7.016544189453125,0.40381932258605957,0.408248633146286,-0.5942962765693665
1776019996348605000,7.02660498046875,0.42238450050354004,0.45977067947387695,-0.5815560221672058
1776019996358665000,7.0366650390625,0.45691707730293274,0.4866258502006531,-0.5104885101318359
1776019996368726000,7.04672607421875,0.510428249835968,0.5202999711036682,-0.4434772729873657
1776019996378786000,7.0567861328125,0.5415733456611633,0.5494301915168762,-0.4061678946018219
1776019996388847000,7.06684716796875,0.5107733607292175,0.5547977685928345,-0.42374688386917114
1776019996398907000,7.076906982421875,0.405152827501297,0.5367453098297119,-0.4709600806236267
1776019996408968000,7.086968017578125,0.24162888526916504,0.4611155390739441,-0.49459508061408997
1776019996419028000,7.097028076171875,0.13271856307983398,0.323935866355896,-0.4715205430984497
1776019996429089000,7.107089111328125,0.14414991438388824,0.24581791460514069,-0.4539516568183899
1776019996439150000,7.117150146484375,0.2240598499774933,0.26879262924194336,-0.47661787271499634
1776019996449209900,7.1272099609375,0.27692651748657227,0.340507835149765,-0.5305631160736084
1776019996459271000,7.13727099609375,0.2700423002243042,0.4104483723640442,-0.5560218095779419
1776019996469331000,7.1473310546875,0.23690590262413025,0.4512522518634796,-0.5310863852500916
1776019996479392000,7.15739208984375,0.2017780840396881,0.4344463646411896,-0.4472259283065796
1776019996489452000,7.1674521484375,0.12984904646873474,0.31960606575012207,-0.3519825041294098
1776019996499512800,7.177512939453125,0.07059253752231598,0.15685026347637177,-0.3065437376499176
1776019996509572900,7.18757275390625,0.03324196860194206,0.009784923866391182,-0.3412061035633087
1776019996519634000,7.197634033203125,0.012727823108434677,-0.11539001762866974,-0.4336445927619934
1776019996529694200,7.207694091796875,0.02423188090324402,-0.20517371594905853,-0.5531496405601501
1776019996539755000,7.217755126953125,0.07022740691900253,-0.23390686511993408,-0.6717859506607056
1776019996549815800,7.22781591796875,0.1482340693473816,-0.18672311305999756,-0.7775110006332397
1776019996559875800,7.237875732421875,0.22398623824119568,-0.11144055426120758,-0.8411377668380737
1776019996569937000,7.24793701171875,0.2992437183856964,-0.0241802129894495,-0.8540189266204834
1776019996579997200,7.2579970703125,0.3892601728439331,0.06809375435113907,-0.8107913732528687
1776019996590058000,7.26805810546875,0.4815714657306671,0.1540406048297882,-0.7073893547058105
1776019996600118000,7.278117919921875,0.5676159858703613,0.20056502521038055,-0.5495676398277283
1776019996610179000,7.288178955078125,0.6295139789581299,0.19805152714252472,-0.37059280276298523
1776019996620239000,7.298239013671875,0.6486294269561768,0.18493713438510895,-0.19413363933563232
1776019996630300200,7.308300048828125,0.6168504357337952,0.1699105054140091,-0.04118909314274788
1776019996640361000,7.31836083984375,0.5284488797187805,0.14666622877120972,0.08588109165430069
1776019996650421000,7.3284208984375,0.3720259964466095,0.10411715507507324,0.17914660274982452
1776019996660482000,7.33848193359375,0.21239116787910461,0.021899234503507614,0.22808443009853363
1776019996670542000,7.3485419921875,0.12333560734987259,-0.06981869786977768,0.21720407903194427
1776019996680603100,7.35860302734375,0.10662423074245453,-0.15197667479515076,0.1526419073343277
1776019996690663200,7.3686630859375,0.10905542969703674,-0.2204103320837021,0.04197985306382179
1776019996700724200,7.37872412109375,0.09332314133644104,-0.26445892453193665,-0.08338017016649246
1776019996710784000,7.388783935546875,0.0752386748790741,-0.30314773321151733,-0.19138947129249573
1776019996720845000,7.398844970703125,0.053495220839977264,-0.3774765431880951,-0.2580357789993286
1776019996730905000,7.408905029296875,0.014872996136546135,-0.4971555471420288,-0.2747550904750824
1776019996740966100,7.418966064453125,-0.0194106362760067,-0.6308999061584473,-0.2850060760974884
1776019996751027200,7.429027099609375,-0.036369115114212036,-0.738441526889801,-0.30182766914367676
1776019996761087000,7.4390869140625,-0.04964230954647064,-0.8129783868789673,-0.33285003900527954
1776019996771148000,7.44914794921875,-0.04440759867429733,-0.8431059122085571,-0.40119126439094543
1776019996781208000,7.4592080078125,-0.004603272303938866,-0.8234100937843323,-0.48474690318107605
1776019996791269000,7.46926904296875,0.06666504591703415,-0.7625035643577576,-0.5692628622055054
1776019996801329000,7.479328857421875,0.16073626279830933,-0.6783585548400879,-0.6241304278373718
1776019996811390000,7.489389892578125,0.2534874975681305,-0.6028895974159241,-0.6171936988830566
1776019996821450000,7.499449951171875,0.31656309962272644,-0.540711522102356,-0.534535825252533
1776019996831510800,7.5095107421875,0.32637524604797363,-0.5098220705986023,-0.36870187520980835
1776019996841571800,7.51957177734375,0.2681901752948761,-0.4364716708660126,-0.15694719552993774
1776019996851631900,7.5296318359375,0.14352628588676453,-0.30386513471603394,0.04817986488342285
1776019996861693000,7.53969287109375,0.020759910345077515,-0.09495192766189575,0.1820198893547058
1776019996871753000,7.5497529296875,-0.01766364648938179,0.10133768618106842,0.2368205487728119
1776019996881814000,7.55981396484375,-0.000036215875297784805,0.18489323556423187,0.25171926617622375
1776019996891873800,7.569873779296875,0.015157384797930717,0.1746288686990738,0.2283063679933548
1776019996901934800,7.579934814453125,0.008644621819257736,0.10841907560825348,0.16900934278964996
1776019996911995000,7.589994873046875,-0.010639859363436699,0.013106404803693295,0.07727489620447159
1776019996922056000,7.600055908203125,-0.02370106801390648,-0.07152900099754333,-0.01934659481048584
1776019996932117000,7.610116943359375,-0.020382236689329147,-0.13963589072227478,-0.09896845370531082
1776019996942176800,7.6201767578125,-0.014536939561367035,-0.18406987190246582,-0.14786823093891144
1776019996952237800,7.63023779296875,-0.018162833526730537,-0.20980186760425568,-0.15527980029582977
1776019996962297900,7.6402978515625,-0.022147493436932564,-0.20858918130397797,-0.1167370155453682
1776019996972359000,7.65035888671875,-0.025459401309490204,-0.17096644639968872,-0.06072727590799332
1776019996982418700,7.660418701171875,-0.025191906839609146,-0.08621793240308762,-0.0018498930148780346
1776019996992479700,7.670479736328125,-0.0216621533036232,0.01875695027410984,0.044894710183143616
1776019997002539800,7.680539794921875,-0.0153557900339365,0.10536546260118484,0.0761030837893486
1776019997012600800,7.690600830078125,-0.009533854201436043,0.16554942727088928,0.07658485323190689
1776019997022662000,7.700661865234375,-0.011734876781702042,0.17475676536560059,0.04895845055580139
1776019997032722000,7.710721923828125,-0.024139881134033203,0.12869127094745636,0.002762458985671401
1776019997042782700,7.72078271484375,-0.03622892126441002,0.03901338204741478,-0.05148644745349884
1776019997052842800,7.7308427734375,-0.04889411851763725,-0.0660211592912674,-0.10865705460309982
1776019997062903800,7.74090380859375,-0.04995134472846985,-0.14485310018062592,-0.15397369861602783
1776019997072963800,7.7509638671875,-0.055526673793792725,-0.1780747026205063,-0.1848464012145996
1776019997083025000,7.76102490234375,-0.055794861167669296,-0.15700753033161163,-0.18643712997436523
1776019997093085000,7.7710849609375,-0.06462057679891586,-0.09934663027524948,-0.15337850153446198
1776019997103145700,7.781145751953125,-0.06396479159593582,-0.018722031265497208,-0.08179411292076111
1776019997113206800,7.791206787109375,-0.06370620429515839,0.06339414417743683,0.004909622948616743
1776019997123266800,7.801266845703125,-0.06619720906019211,0.14041563868522644,0.07997863739728928
1776019997133328000,7.811327880859375,-0.07145535200834274,0.19533321261405945,0.1167323961853981
1776019997143388000,7.821387939453125,-0.07883542776107788,0.2149772047996521,0.12129348516464233
1776019997153448700,7.83144873046875,-0.08556310087442398,0.20356929302215576,0.09687229990959167
1776019997163509000,7.841509033203125,-0.08519083261489868,0.1810593158006668,0.06716011464595795
1776019997173569800,7.85156982421875,-0.08817437291145325,0.15801870822906494,0.04270936921238899
1776019997183630000,7.861630126953125,-0.09189675003290176,0.15210185945034027,0.025832362473011017
1776019997193691000,7.87169091796875,-0.09605447947978973,0.1626618206501007,0.02921271324157715
1776019997203751700,7.881751708984375,-0.09906890988349915,0.18886733055114746,0.04809825122356415
1776019997213812000,7.89181201171875,-0.11171698570251465,0.21248209476470947,0.07236514240503311
1776019997223873000,7.901873046875,-0.11603609472513199,0.22909368574619293,0.09004306048154831
1776019997233933000,7.91193310546875,-0.11362167447805405,0.2394658923149109,0.08787071704864502
1776019997243994000,7.921994140625,-0.09966032952070236,0.22997649013996124,0.0607306994497776
1776019997254054000,7.932053955078125,-0.08290372043848038,0.21197724342346191,0.026676325127482414
1776019997264115000,7.942114990234375,-0.06621570140123367,0.1840735524892807,0.012723994441330433
1776019997274175000,7.952175048828125,-0.06024116650223732,0.15838895738124847,0.02916448749601841
1776019997284236000,7.962236083984375,-0.07278880476951599,0.13564348220825195,0.06464573740959167
1776019997294297000,7.972297119140625,-0.10302207618951797,0.12096467614173889,0.10079388320446014
1776019997304356900,7.98235693359375,-0.13489660620689392,0.1022554263472557,0.10762910544872284
1776019997314418000,7.99241796875,-0.15479335188865662,0.06533922255039215,0.06858796626329422
1776019997324478000,8.00247802734375,-0.16307620704174042,-0.013133804313838482,-0.023101380094885826
1776019997334539000,8.0125390625,-0.17351418733596802,-0.1601376235485077,-0.14013105630874634
1776019997344598800,8.022598876953126,-0.19575251638889313,-0.34153440594673157,-0.25908273458480835
1776019997354659800,8.032659912109375,-0.20252546668052673,-0.49619537591934204,-0.36398863792419434
1776019997364721000,8.042720947265625,-0.18277934193611145,-0.5592390894889832,-0.42446306347846985
1776019997374781000,8.052781005859375,-0.15908946096897125,-0.5290073752403259,-0.4293547570705414
1776019997384842000,8.062842041015625,-0.14019668102264404,-0.46450075507164,-0.3909473717212677
1776019997394902000,8.072902099609376,-0.10684511810541153,-0.37514105439186096,-0.3195618987083435
1776019997404962800,8.082962890625,-0.08656198531389236,-0.28621992468833923,-0.2288374900817871
1776019997415022800,8.09302294921875,-0.06139590963721275,-0.1946474015712738,-0.14136703312397003
1776019997425084000,8.103083984375,-0.032054800540208817,-0.09817200154066086,-0.051689352840185165
1776019997435145000,8.11314501953125,-0.008745484054088593,0.01465175487101078,0.025239253416657448
1776019997445205000,8.123205078125,0.00863628089427948,0.1316082626581192,0.10163331031799316
1776019997455266000,8.13326611328125,0.004022887442260981,0.22624927759170532,0.17112185060977936
1776019997465325800,8.143325927734375,-0.008783377707004547,0.3007044196128845,0.21556337177753448
1776019997475387000,8.153386962890625,-0.016753684729337692,0.328046053647995,0.23336367309093475
1776019997485447000,8.163447021484375,-0.022439267486333847,0.32524651288986206,0.2374444305896759
1776019997495508000,8.173508056640625,-0.023979641497135162,0.28836122155189514,0.22184550762176514
1776019997505567700,8.183567626953124,-0.01735050417482853,0.24607060849666595,0.1998436450958252
1776019997515628800,8.19362890625,-0.0113405492156744,0.20735543966293335,0.18402554094791412
1776019997525689900,8.20368994140625,-0.0014023124240338802,0.1686456948518753,0.176534041762352
1776019997535750000,8.21375,-0.00036980491131544113,0.13241951167583466,0.17147669196128845
1776019997545811000,8.22381103515625,-0.00880761630833149,0.09498761594295502,0.15744079649448395
1776019997555870700,8.23387060546875,-0.024501625448465347,0.04797004535794258,0.1334284096956253
1776019997565931800,8.243931884765624,-0.03220127895474434,-0.02670648880302906,0.09723713994026184
1776019997575991800,8.25399169921875,-0.044688839465379715,-0.11917223781347275,0.0495135597884655
1776019997586052900,8.264052978515625,-0.05872119218111038,-0.21456074714660645,-0.0018245070241391659
1776019997596114000,8.274114013671875,-0.0629470944404602,-0.27506619691848755,-0.04487370327115059
1776019997606174000,8.284174072265625,-0.06095653027296066,-0.30014491081237793,-0.07393374294042587
1776019997616234800,8.29423486328125,-0.058615341782569885,-0.29632753133773804,-0.07113395631313324
1776019997626294800,8.304294677734376,-0.05848492681980133,-0.26549050211906433,-0.04571957886219025
1776019997636355800,8.31435595703125,-0.05332984775304794,-0.2235153615474701,-0.010349603369832039
1776019997646416000,8.324415771484375,-0.03667805343866348,-0.16865430772304535,0.026663636788725853
1776019997656477000,8.334476806640625,-0.01637650839984417,-0.11259663105010986,0.06922068446874619
1776019997666538000,8.3445380859375,0.0061523509211838245,-0.06547684222459793,0.1178935095667839
1776019997676597800,8.35459765625,0.012987887486815453,-0.035120800137519836,0.16073845326900482
1776019997686658800,8.364658935546874,0.005331183783710003,-0.03963187709450722,0.18870793282985687
1776019997696718800,8.37471875,-0.011569236405193806,-0.0569637268781662,0.19038332998752594
1776019997706780000,8.38477978515625,-0.03203083947300911,-0.09397169947624207,0.15757118165493011
1776019997716839700,8.394839599609375,-0.0401015505194664,-0.1678733378648758,0.09181772917509079
1776019997726900700,8.404900634765625,-0.04849100112915039,-0.2394455373287201,-0.002567943651229143
1776019997736960800,8.414960693359374,-0.05558858811855316,-0.30938786268234253,-0.08920137584209442
1776019997747021800,8.425021728515626,-0.06445497274398804,-0.36133235692977905,-0.13960900902748108
1776019997757083000,8.435082763671875,-0.06729550659656525,-0.38847050070762634,-0.1370086967945099
1776019997767142700,8.445142578125,-0.05730694159865379,-0.36946532130241394,-0.10564228892326355
1776019997777203700,8.45520361328125,-0.03713243082165718,-0.314362108707428,-0.05695704370737076
1776019997787263700,8.465263671875,-0.014985199086368084,-0.223359152674675,-0.002016861457377672
1776019997797324800,8.47532470703125,0.00480608269572258,-0.1297983080148697,0.05475800484418869
1776019997807385000,8.485385009765626,0.02046809159219265,-0.05057165026664734,0.108179472386837
1776019997817446000,8.49544580078125,0.031933002173900604,0.017314990982413292,0.14316114783287048
1776019997827507500,8.505507568359375,0.03667723014950752,0.06655839085578918,0.16315604746341705
1776019997837567200,8.515567138671875,0.031033458188176155,0.10272970795631409,0.16655690968036652
1776019997847628300,8.525628173828125,0.023661639541387558,0.13102535903453827,0.1645478457212448
1776019997857688300,8.535688232421874,0.015414896421134472,0.13901858031749725,0.16001087427139282
1776019997867749400,8.545749267578126,0.006041556131094694,0.12352953106164932,0.15912242233753204
1776019997877809400,8.555809326171875,-0.00910037849098444,0.0948006808757782,0.1507534384727478
1776019997887870200,8.5658701171875,-0.022252773866057396,0.06248810142278671,0.1305607408285141
1776019997897931300,8.57593115234375,-0.02877352386713028,0.044084325432777405,0.08870703727006912
1776019997907991300,8.5859912109375,-0.035808265209198,0.02846127562224865,0.04945030063390732
1776019997918052400,8.59605224609375,-0.03917396813631058,0.008045482449233532,0.023072492331266403
1776019997928112400,8.6061123046875,-0.04503254592418671,-0.014593837782740593,0.020081058144569397
1776019997938173200,8.616173095703125,-0.053312577307224274,-0.02871045656502247,0.03881373628973961
1776019997948233500,8.6262333984375,-0.053681354969739914,-0.04799726605415344,0.05796107277274132
1776019997958294300,8.636294189453125,-0.053635548800230026,-0.05359390005469322,0.06422057002782822
1776019997968355300,8.646355224609374,-0.051038846373558044,-0.05808655545115471,0.054559651762247086
1776019997978415600,8.65641552734375,-0.0405862033367157,-0.05861625820398331,0.02679033949971199
1776019997988476200,8.66647607421875,-0.032631341367959976,-0.06122387573122978,-0.006369872484356165
1776019997998536400,8.676536376953125,-0.017406847327947617,-0.04792804270982742,-0.033490970730781555
1776019998008597200,8.68659716796875,-0.0048842839896678925,-0.02307441458106041,-0.04076077416539192
1776019998018657500,8.696657470703125,0.012131985276937485,0.026520036160945892,-0.030128901824355125
1776019998028718600,8.706718505859374,0.03013087809085846,0.11565046012401581,0.00117160240188241
1776019998038779400,8.716779296875,0.05510413646697998,0.22054864466190338,0.06358198821544647
1776019998048839400,8.72683935546875,0.0829860270023346,0.3465735912322998,0.14493328332901
1776019998058900500,8.736900390625,0.1012188270688057,0.48358869552612305,0.23013952374458313
1776019998068960500,8.74696044921875,0.10798618197441101,0.5970918536186218,0.321085125207901
1776019998079021600,8.757021484375,0.1100730374455452,0.6786420941352844,0.39086446166038513
1776019998089081300,8.767081298828124,0.10317426919937134,0.7375189065933228,0.4357140064239502
1776019998099142400,8.777142333984376,0.0923842042684555,0.7476311922073364,0.4474484324455261
1776019998109203500,8.787203369140625,0.08112505078315735,0.7142698764801025,0.433925062417984
1776019998119263500,8.797263427734375,0.06845266371965408,0.662763774394989,0.3999607264995575
1776019998129324500,8.807324462890625,0.05730268731713295,0.5713498592376709,0.3464123010635376
1776019998139384300,8.81738427734375,0.034113477915525436,0.4587141275405884,0.27408990263938904
1776019998149445400,8.8274453125,0.010205294005572796,0.33434274792671204,0.1874743402004242
1776019998159505400,8.83750537109375,-0.002631407929584384,0.21016328036785126,0.07942111045122147
1776019998169566500,8.84756640625,0.000773897860199213,0.09560730308294296,-0.03692842274904251
1776019998179627500,8.85762744140625,0.017980583012104034,-0.0019445540383458138,-0.15363958477973938
1776019998189687600,8.8676875,0.03997810184955597,-0.08350589126348495,-0.2415478527545929
1776019998199748400,8.877748291015624,0.05664336308836937,-0.11943726241588593,-0.28128835558891296
1776019998209808400,8.887808349609376,0.07297550141811371,-0.10751071572303772,-0.2673628628253937
1776019998219869400,8.897869384765626,0.07899824529886246,-0.07780741155147552,-0.20699992775917053
1776019998229929500,8.907929443359375,0.07629919797182083,-0.023147031664848328,-0.14242197573184967
1776019998239990500,8.917990478515625,0.08215709030628204,0.034944236278533936,-0.09131192415952682
1776019998250051600,8.928051513671875,0.09058050811290741,0.08979155868291855,-0.058799028396606445
1776019998260111400,8.938111328125,0.10235967487096786,0.12081073224544525,-0.03716430813074112
1776019998270172400,8.94817236328125,0.11360517889261246,0.12632974982261658,-0.011913998052477837
1776019998280232400,8.958232421875,0.11533037573099136,0.11789418011903763,0.022892719134688377
1776019998290293500,8.96829345703125,0.10661838948726654,0.10104424506425858,0.07181911915540695
1776019998300354600,8.9783544921875,0.08727291971445084,0.08681710809469223,0.10684794187545776
1776019998310414300,8.988414306640625,0.07724964618682861,0.08461782336235046,0.1193806603550911
1776019998320475400,8.998475341796874,0.0732322707772255,0.08337226510047913,0.10385069996118546
1776019998330535400,9.008535400390626,0.08248051255941391,0.07134213298559189,0.06651987880468369
1776019998340596500,9.018596435546876,0.10610488057136536,0.036420635879039764,0.009332223795354366
1776019998350656300,9.02865625,0.13305102288722992,-0.012471920810639858,-0.04412420466542244
1776019998360717300,9.03871728515625,0.16327497363090515,-0.06722598522901535,-0.09153539687395096
1776019998370778400,9.0487783203125,0.17033697664737701,-0.12502552568912506,-0.11203404515981674
1776019998380838400,9.05883837890625,0.14932970702648163,-0.16498306393623352,-0.09364359080791473
1776019998390899500,9.0688994140625,0.11028219014406204,-0.1588526964187622,-0.025496957823634148
1776019998400959500,9.07895947265625,0.09019290655851364,-0.09116633236408234,0.06260999292135239
1776019998411020300,9.089020263671875,0.09124733507633209,0.0020681465975940228,0.15322594344615936
1776019998421080300,9.099080322265625,0.09121963381767273,0.08284075558185577,0.21578891575336456
1776019998431141400,9.109141357421874,0.06696102023124695,0.10254691541194916,0.25803086161613464
1776019998441202400,9.119202392578124,0.02870444767177105,0.056431349366903305,0.2906058728694916
1776019998451262500,9.129262451171876,-0.011790335178375244,-0.015252826735377312,0.3029961884021759
1776019998461323500,9.139323486328125,-0.04522978514432907,-0.07507408410310745,0.3008424937725067
1776019998471383300,9.14938330078125,-0.08443737030029297,-0.10973748564720154,0.30032825469970703
1776019998481444400,9.1594443359375,-0.11395397782325745,-0.12700915336608887,0.3084098696708679
1776019998491504400,9.16950439453125,-0.14412523806095123,-0.16872011125087738,0.3129120171070099
1776019998501565400,9.1795654296875,-0.16377483308315277,-0.24924610555171967,0.293067991733551
1776019998511626500,9.18962646484375,-0.1828726977109909,-0.36729252338409424,0.2515811324119568
1776019998521686300,9.199686279296875,-0.1974223554134369,-0.4985778331756592,0.20010222494602203
1776019998531747300,9.209747314453125,-0.20529605448246002,-0.6231145262718201,0.1217445507645607
1776019998541807400,9.219807373046875,-0.19241221249103546,-0.7539659738540649,0.003658653935417533
1776019998551868400,9.229868408203124,-0.16263043880462646,-0.8995446562767029,-0.12306682765483856
1776019998561929500,9.239929443359374,-0.12349288910627365,-1.0208487510681152,-0.22612237930297852
1776019998571989200,9.2499892578125,-0.07302244752645493,-1.0776994228363037,-0.2565443217754364
1776019998582050300,9.26005029296875,-0.004578142426908016,-1.0655101537704468,-0.18643154203891754
1776019998592110300,9.2701103515625,0.07589634507894516,-1.007070541381836,-0.045320309698581696
1776019998602171400,9.28017138671875,0.15943650901317596,-0.878771960735321,0.13728731870651245
1776019998612231400,9.2902314453125,0.2265590876340866,-0.6416580080986023,0.3722178041934967
1776019998622292200,9.300292236328126,0.2228516936302185,-0.3483840227127075,0.6380359530448914
1776019998632353300,9.310353271484376,0.15590409934520721,-0.10938487946987152,0.9172687530517578
1776019998642413300,9.320413330078125,0.06982539594173431,0.11482212692499161,1.1736207008361816
1776019998652474400,9.330474365234375,0.02158067561686039,0.26389986276626587,1.3939263820648193
1776019998662534400,9.340534423828124,0.026956265792250633,0.34145909547805786,1.5576077699661255
1776019998672595500,9.350595458984374,0.06437744200229645,0.3763394355773926,1.6492676734924316
1776019998682655200,9.3606552734375,0.10470808297395706,0.37328264117240906,1.6417146921157837
1776019998692716300,9.37071630859375,0.13035471737384796,0.2858768403530121,1.5625011920928955
1776019998702777300,9.38077734375,0.10228259861469269,0.17638950049877167,1.3798344135284424
1776019998712837400,9.39083740234375,-0.00977297779172659,0.06062560901045799,1.0622563362121582
1776019998722898400,9.4008984375,-0.1462181806564331,-0.35281842947006226,0.6688680648803711
1776019998732958200,9.410958251953126,-0.25628718733787537,-1.2259891033172607,0.2816724479198456
1776019998743019300,9.421019287109376,-0.296513170003891,-2.0191292762756348,-0.0726960077881813
1776019998753079300,9.431079345703125,-0.2359778881072998,-2.4017813205718994,-0.35354769229888916
1776019998763140400,9.441140380859375,-0.09244522452354431,-2.4372546672821045,-0.5207974314689636
1776019998773201400,9.451201416015625,0.07416996359825134,-2.283924102783203,-0.5420953035354614
1776019998783261200,9.46126123046875,0.23586618900299072,-2.051898717880249,-0.4466302692890167
1776019998793322200,9.471322265625,0.3434434235095978,-1.6255102157592773,-0.30035313963890076
1776019998803382300,9.48138232421875,0.411082923412323,-1.2635083198547363,-0.1441323608160019
1776019998813443300,9.491443359375,0.3417160212993622,-0.8305624127388,-0.06070885807275772
1776019998823504000,9.50150390625,0.26500099897384644,-0.8424001932144165,0.03509197011590004
1776019998833564200,9.511564208984375,0.20864719152450562,-1.2135186195373535,0.1307697594165802
1776019998843625000,9.521625,0.2619010806083679,-1.6530547142028809,0.16175909340381622
1776019998853685200,9.531685302734376,0.40205731987953186,-1.9262971878051758,0.1248207688331604
1776019998863746000,9.54174609375,0.5135021209716797,-1.9215106964111328,0.02115616574883461
1776019998873806000,9.55180615234375,0.5065282583236694,-1.523031234741211,-0.16258864104747772
1776019998883867100,9.5618671875,0.37782275676727295,-0.8172395825386047,-0.3890377879142761
1776019998893928000,9.571927978515625,0.23216702044010162,-0.03632031008601189,-0.5476649403572083
1776019998903988200,9.58198828125,0.12713460624217987,0.5118743777275085,-0.5569479465484619
1776019998914049000,9.592049072265626,0.06200779974460602,0.6583589911460876,-0.40134331583976746
1776019998924109000,9.602109130859375,0.01772822067141533,0.4096977710723877,-0.1355164349079132
1776019998934170000,9.612170166015625,-0.014126762747764587,-0.12821143865585327,0.16751046478748322
1776019998944231000,9.62223095703125,-0.08666674792766571,-0.28117889165878296,0.32033756375312805
1776019998954291200,9.632291259765625,-0.03446749225258827,-0.44923752546310425,0.2855038642883301
1776019998964352300,9.642352294921874,0.015408720821142197,-0.2806876599788666,0.006490877363830805
1776019998974412000,9.652412109375,0.054774992167949677,-0.10106183588504791,-0.3254575729370117
1776019998984473000,9.66247314453125,0.07673221826553345,-0.1424228549003601,-0.5507791042327881
1776019998994533000,9.672533203125,0.07299870252609253,-0.3959423005580902,-0.6021595597267151
1776019999004594200,9.68259423828125,0.03811396285891533,-0.8305432796478271,-0.48585131764411926
1776019999014655200,9.6926552734375,-0.004049696959555149,-1.3596649169921875,-0.24756984412670135
1776019999024715000,9.702715087890626,-0.019173787906765938,-1.8281875848770142,0.037872564047575
1776019999034776000,9.712776123046876,-0.0037733111530542374,-2.0625641345977783,0.26801446080207825
1776019999044836000,9.722836181640625,0.04718147963285446,-2.0270190238952637,0.4036681652069092
1776019999054897200,9.732897216796875,0.1976049393415451,-1.6001081466674805,0.4180413484573364
1776019999064957200,9.742957275390625,0.46064695715904236,-0.8401914238929749,0.3725777268409729
1776019999075018200,9.753018310546874,0.6674565076828003,-0.022524002939462662,0.3310469090938568
1776019999085079000,9.7630791015625,0.6954569816589355,0.4275060296058655,0.40103453397750854
1776019999095139000,9.77313916015625,0.4858945608139038,0.3617507815361023,0.6184709668159485
1776019999105200000,9.7832001953125,0.13385741412639618,-0.10980768501758575,0.9175209999084473
1776019999115260200,9.79326025390625,-0.19712720811367035,-0.5139082670211792,1.1779841184616089
1776019999125321200,9.8033212890625,-0.41932591795921326,-0.667034924030304,1.3606092929840088
1776019999135382000,9.813382080078124,-0.5146108865737915,-0.6508533954620361,1.5169156789779663
1776019999145442000,9.823442138671876,-0.44597381353378296,-0.45449671149253845,1.6266112327575684
1776019999155503000,9.833503173828126,-0.19999432563781738,-0.12085409462451935,1.6890136003494263
1776019999165563100,9.843563232421875,0.14904434978961945,0.2789841294288635,1.7394229173660278
1776019999175624200,9.853624267578125,0.4018164575099945,0.41919368505477905,1.758537769317627
1776019999185684000,9.86368408203125,0.5463432669639587,0.21391670405864716,1.7803966999053955
1776019999195745000,9.8737451171875,0.6905227303504944,-0.4955768287181854,1.852276086807251
1776019999205806000,9.88380615234375,0.7731273174285889,-1.4564669132232666,1.9583239555358887
1776019999215866000,9.8938662109375,0.759070098400116,-2.219452381134033,2.058910369873047
1776019999225927200,9.90392724609375,0.6781728267669678,-2.592695474624634,2.111926794052124
1776019999235987000,9.913987060546875,0.5748412609100342,-2.6513559818267822,2.0813539028167725
1776019999246048000,9.924048095703125,0.48823341727256775,-2.4096574783325195,1.9761238098144531
1776019999256109000,9.934109130859374,0.4995857775211334,-1.923746943473816,1.8591054677963257
1776019999266169000,9.944169189453126,0.563078761100769,-1.0866265296936035,1.827165961265564
1776019999276230100,9.954230224609375,0.5094046592712402,0.13755707442760468,1.909717082977295
1776019999286290200,9.964290283203125,0.4474185109138489,1.2141330242156982,2.1131999492645264
1776019999296351000,9.97435107421875,0.3562902510166168,2.0239083766937256,2.3113491535186768
1776019999306411000,9.984410888671874,0.2932069003582001,2.4694817066192627,2.4425926208496094
1776019999316472000,9.99447216796875,0.3235524594783783,2.4433445930480957,2.45015549659729
1776019999326533000,10.004533203125,0.4570183753967285,1.6685529947280884,2.269152879714966
1776019999336593200,10.01459326171875,0.6598805785179138,0.4957466125488281,1.9978184700012207
1776019999346654000,10.024654052734375,0.9238432049751282,-0.6089706420898438,1.6689093112945557
1776019999356714000,10.0347138671875,1.141229510307312,-1.2198116779327393,1.3679057359695435
1776019999366775000,10.044775146484374,1.2610323429107666,-1.068880558013916,1.2400102615356445
1776019999376836000,10.054836181640624,1.2321501970291138,-0.41861778497695923,1.2373325824737549
1776019999386896100,10.064896240234376,1.0686064958572388,0.3804700970649719,1.1679333448410034
1776019999396957200,10.074957275390625,0.9099361300468445,1.1287834644317627,1.0534173250198364
1776019999407017000,10.085016845703125,0.7780771851539612,1.5228959321975708,0.8802279829978943
1776019999417078000,10.095078125,0.6964461803436279,1.795263648033142,0.7658096551895142
1776019999427138000,10.105137939453124,0.6118133068084717,2.062779188156128,0.7557426691055298
1776019999437199000,10.11519921875,0.4898267090320587,2.2390196323394775,0.7783756256103516
1776019999447260200,10.12526025390625,0.3468570113182068,2.1089773178100586,0.7777910828590393
1776019999457320000,10.13531982421875,0.20510093867778778,1.6315195560455322,0.7722219824790955
1776019999467381000,10.145381103515625,0.05862600728869438,0.897641658782959,0.8093450665473938
1776019999477441000,10.15544091796875,-0.08706200122833252,0.13049985468387604,0.8684296011924744
1776019999487502000,10.165502197265624,-0.20107512176036835,-0.5448548793792725,0.9396076798439026
1776019999497563100,10.175563232421876,-0.2408851981163025,-0.9604812264442444,0.950567364692688
1776019999507623000,10.185622802734375,-0.2060350775718689,-1.0157859325408936,0.8321291208267212
1776019999517684000,10.19568408203125,-0.11329824477434158,-0.6993928551673889,0.571740448474884
1776019999527744000,10.205743896484375,-0.031586069613695145,-0.2214084416627884,0.22010387480258942
1776019999537805000,10.21580517578125,-0.050384603440761566,0.2141469269990921,-0.12796731293201447
1776019999547865000,10.225864990234374,-0.19235612452030182,0.6733296513557434,-0.3694790005683899
1776019999557926000,10.23592578125,-0.30059704184532166,0.7410005331039429,-0.31480470299720764
1776019999567987000,10.245987060546875,-0.33012858033180237,0.6525822877883911,-0.07058988511562347
1776019999578047000,10.256046875,-0.3424191176891327,0.665993869304657,0.21337656676769257
1776019999588108000,10.26610791015625,-0.3290497660636902,0.6926121711730957,0.473787397146225
1776019999598168000,10.27616796875,-0.2937483787536621,0.700019121170044,0.7024421691894531
1776019999608229000,10.28622900390625,-0.2915949523448944,0.7359830141067505,0.8723151087760925
1776019999618290000,10.2962900390625,-0.3533034026622772,0.7760147452354431,0.9621432423591614
1776019999628350000,10.306349853515625,-0.25667059421539307,-0.744166374206543,1.060360074043274
1776019999638411000,10.316410888671875,-0.548819899559021,-0.9852902293205261,0.8893635869026184
1776019999648471000,10.326470947265625,-0.3931403160095215,-2.5700442790985107,0.7093344330787659
1776019999658532000,10.336531982421874,-0.30092179775238037,-3.4976894855499268,0.46954476833343506
1776019999668593200,10.34659326171875,0.019789908081293106,-3.3583903312683105,0.1735788732767105
1776019999678653000,10.35665283203125,0.3665487766265869,-2.1817264556884766,-0.07820452749729156
1776019999688714000,10.3667138671875,0.5270751118659973,-0.6684491038322449,-0.2361060082912445
1776019999698774000,10.37677392578125,0.47094374895095825,0.2760193943977356,-0.2190805971622467
1776019999708835000,10.3868349609375,0.3766409456729889,0.48654839396476746,-0.023173142224550247
1776019999718894800,10.396894775390624,0.4216301441192627,0.48398953676223755,0.264874130487442
1776019999728956000,10.406955810546876,0.6034969091415405,0.5562743544578552,0.5321223735809326
1776019999739017000,10.417016845703126,0.765756368637085,0.6791772842407227,0.6932485103607178
1776019999749077000,10.427076904296875,0.8378925919532776,0.7993433475494385,0.7056064009666443
1776019999759138000,10.437137939453125,0.8384905457496643,0.9971603751182556,0.6258524060249329
1776019999769197800,10.44719775390625,0.8083140254020691,1.187357783317566,0.5329546928405762
1776019999779259000,10.4572587890625,0.7766743302345276,1.115342140197754,0.5132308006286621
1776019999789320000,10.46731982421875,0.7297641634941101,0.6742181181907654,0.5631723403930664
1776019999799380000,10.4773798828125,0.6830996870994568,0.028910113498568535,0.6332108974456787
1776019999809441000,10.48744091796875,0.6490927338600159,-0.4396064877510071,0.6964495182037354
1776019999819501000,10.4975009765625,0.6602230072021484,-1.0851430892944336,0.7202752232551575
1776019999829562400,10.507562255859375,0.6350614428520203,-1.469988465309143,0.6445205807685852
1776019999839622400,10.517622314453124,0.5807054042816162,-1.4400352239608765,0.46177417039871216
1776019999849683500,10.527683349609376,0.528344452381134,-1.2520549297332764,0.2366073727607727
1776019999859744500,10.53774462890625,0.4378903806209564,-0.7384019494056702,0.07132058590650558
1776019999869804500,10.547804443359375,0.3492273688316345,-0.44626113772392273,0.05734431743621826
1776019999879865300,10.557865234375,0.25194743275642395,-0.3806910812854767,0.17641806602478027
1776019999889925400,10.56792529296875,0.1574542224407196,-0.4241325557231903,0.3778694272041321
1776019999899986400,10.577986328125,0.09549213945865631,-0.3850732147693634,0.5689107775688171
1776019999910047500,10.588047607421874,0.052850402891635895,-0.19091598689556122,0.6937123537063599
1776019999920107500,10.598107421875,0.010939969681203365,0.08100127428770065,0.7438538074493408
1776019999930168600,10.60816845703125,-0.04117755964398384,0.29442059993743896,0.7336006164550781
1776019999940228400,10.618228271484375,-0.08237837255001068,0.4228155016899109,0.696374237537384
1776019999950289400,10.628289306640625,-0.10103781521320343,0.47503769397735596,0.6673257946968079
1776019999960350500,10.6383505859375,-0.09761001914739609,0.5024024844169617,0.6885277032852173
1776019999970410500,10.648410400390626,-0.08007470518350601,0.5134258270263672,0.7733472585678101
1776019999980471600,10.658471435546875,-0.06233116239309311,0.46060910820961,0.9124901294708252
1776019999990531300,10.66853125,-0.07561154663562775,-0.014252749271690845,1.0266753435134888
1776020000000592400,10.67859228515625,-0.10415725409984589,-1.0522658824920654,0.9972718358039856
1776020000010652400,10.68865234375,-0.07065735012292862,-1.8677252531051636,0.7831209301948547
1776020000020713500,10.69871337890625,0.16061897575855255,-1.8759053945541382,0.511746883392334
1776020000030774500,10.7087744140625,0.423088401556015,-1.1863248348236084,0.2432243525981903
1776020000040834300,10.718834228515625,0.5579736232757568,-0.396930456161499,0.13321983814239502
1776020000050895400,10.728895263671875,0.5505580306053162,-0.030000662431120872,0.19615432620048523
1776020000060955600,10.73895556640625,0.5015462636947632,-0.011786614544689655,0.31869083642959595
1776020000071016400,10.749016357421874,0.4815184772014618,-0.07286248356103897,0.38259071111679077
1776020000081077500,10.759077392578124,0.49490800499916077,-0.0378834493458271,0.35266992449760437
1776020000091137500,10.769137451171876,0.49940821528434753,-0.007800114806741476,0.2960580587387085
1776020000101198300,10.7791982421875,0.4754067659378052,-0.014178009703755379,0.27874571084976196
1776020000111258600,10.789258544921875,0.4362526834011078,-0.012840569950640202,0.35634517669677734
1776020000121319400,10.7993193359375,0.3936200439929962,0.0033639930188655853,0.4899870455265045
1776020000131380500,10.80938037109375,0.3256585896015167,0.02704668417572975,0.6279577612876892
1776020000141440500,10.8194404296875,0.2406904548406601,0.036850541830062866,0.6783968806266785
1776020000151501300,10.829501220703126,0.15606212615966797,0.03236790746450424,0.593707263469696
1776020000161561600,10.8395615234375,0.13369445502758026,0.02816825918853283,0.4193210303783417
1776020000171622400,10.849622314453125,0.20739024877548218,0.06462986767292023,0.2690625488758087
1776020000181682700,10.8596826171875,0.3010712265968323,0.12545615434646606,0.2042267620563507
1776020000191743500,10.869743408203124,0.33881062269210815,0.14323700964450836,0.2419579029083252
1776020000201804300,10.87980419921875,0.3050882816314697,0.07833316922187805,0.34948182106018066
1776020000211864600,10.889864501953125,0.24262648820877075,0.0062547107227146626,0.42471665143966675
1776020000221925400,10.89992529296875,0.21548675000667572,0.012217644602060318,0.41989004611968994
1776020000231985700,10.909985595703125,0.22751784324645996,0.06065628305077553,0.3498358726501465
1776020000242046700,10.920046630859375,0.23461265861988068,0.0876869261264801,0.23239649832248688
1776020000252107500,10.930107421875,0.23839755356311798,0.10187411308288574,0.11273694783449173
1776020000262167600,10.94016748046875,0.2480032593011856,0.14142191410064697,0.0625205710530281
1776020000272228400,10.950228271484375,0.25151678919792175,0.20535695552825928,0.08059172332286835
1776020000282288600,10.96028857421875,0.23013688623905182,0.25785961747169495,0.13533465564250946
1776020000292349700,10.970349609375,0.19224703311920166,0.2752569913864136,0.1770773082971573
1776020000302410500,10.980410400390625,0.16819429397583008,0.2373277246952057,0.18299394845962524
1776020000312470500,10.990470458984374,0.15525425970554352,0.14821675419807434,0.14002491533756256
1776020000322531600,11.000531494140626,0.14208443462848663,0.06655598431825638,0.05936223641037941
1776020000332591600,11.010591552734375,0.1192435696721077,0.023101184517145157,-0.020813826471567154
1776020000342652700,11.020652587890625,0.07997404038906097,0.03385749086737633,-0.060984186828136444
1776020000352712400,11.03071240234375,0.029691161587834358,0.0795498713850975,-0.0500071682035923
1776020000362773500,11.0407734375,-0.016094127669930458,0.14013971388339996,0.0009994980646297336
1776020000372834600,11.05083447265625,-0.051692601293325424,0.18716101348400116,0.06336726993322372
1776020000382894600,11.06089453125,-0.07557137310504913,0.20792360603809357,0.09806118160486221
1776020000392955600,11.07095556640625,-0.10908858478069305,0.19938817620277405,0.09517085552215576
1776020000403015700,11.081015625,-0.1289825588464737,0.1424005776643753,0.05491926521062851
1776020000413076500,11.091076416015625,-0.1355975866317749,0.02123207598924637,0.00023471517488360405
1776020000423137500,11.101137451171875,-0.13051238656044006,-0.16453427076339722,-0.0424228273332119
1776020000433197600,11.111197509765624,-0.12317538261413574,-0.33555713295936584,-0.07566626369953156
1776020000443258600,11.121258544921876,-0.1187540739774704,-0.41845759749412537,-0.10419873148202896
1776020000453318700,11.131318603515625,-0.11151933670043945,-0.3703555762767792,-0.13583043217658997
1776020000463379700,11.141379638671875,-0.09119477868080139,-0.21175424754619598,-0.1281636357307434
1776020000473440500,11.1514404296875,-0.06970998644828796,-0.022284992039203644,-0.06767178326845169
1776020000483500500,11.16150048828125,-0.050710950046777725,0.14881393313407898,0.04220259189605713
1776020000493561600,11.1715615234375,-0.03339294716715813,0.23114076256752014,0.1530183106660843
1776020000503621600,11.18162158203125,-0.022711053490638733,0.11151541024446487,0.20879629254341125
1776020000513682700,11.1916826171875,-0.0013849930837750435,-0.11999930441379547,0.1764300912618637
1776020000523743700,11.20174365234375,0.029398366808891296,-0.1574847251176834,0.058164745569229126
1776020000533803500,11.211803466796875,0.07489021867513657,0.10456100851297379,-0.09201943129301071
1776020000543864600,11.221864501953124,0.09501991420984268,0.4178217649459839,-0.19974792003631592
1776020000553924600,11.231924560546876,0.06951748579740524,0.4980961084365845,-0.22037595510482788
1776020000563985700,11.241985595703126,0.026673847809433937,0.3992273509502411,-0.19056420028209686
1776020000574045400,11.25204541015625,-0.005285150837153196,0.2588886320590973,-0.1905982941389084
1776020000584106500,11.2621064453125,-0.011486629024147987,0.10414831340312958,-0.22438471019268036
1776020000594167600,11.27216748046875,-0.004948302172124386,-0.10515537858009338,-0.2803792655467987
1776020000604227600,11.2822275390625,-0.0037889869417995214,-0.2950555384159088,-0.3274352252483368
1776020000614288600,11.29228857421875,-0.015650706365704536,-0.3788801431655884,-0.3410967290401459
1776020000624348400,11.302348388671875,-0.04985232278704643,-0.33287885785102844,-0.3144475817680359
1776020000634409500,11.312409423828125,-0.10612304508686066,-0.17234750092029572,-0.2629641592502594
1776020000644470500,11.322470458984375,-0.18317502737045288,0.058035675436258316,-0.2133008986711502
1776020000654530600,11.332530517578125,-0.2645756006240845,0.2880403697490692,-0.18691056966781616
1776020000664591600,11.342591552734374,-0.32831871509552,0.4414534270763397,-0.19236327707767487
1776020000674651600,11.352651611328126,-0.36986082792282104,0.47030290961265564,-0.19196273386478424
1776020000684712400,11.36271240234375,-0.40323880314826965,0.37353280186653137,-0.18933212757110596
1776020000694773500,11.3727734375,-0.4323873817920685,0.16985000669956207,-0.17938575148582458
1776020000704833500,11.38283349609375,-0.438047856092453,-0.07797221839427948,-0.18501752614974976
1776020000714894600,11.39289453125,-0.4144194722175598,-0.2665866017341614,-0.21612192690372467
1776020000724954600,11.40295458984375,-0.37246182560920715,-0.30981945991516113,-0.2692495584487915
1776020000735015400,11.413015380859376,-0.329283207654953,-0.22460895776748657,-0.3262348175048828
1776020000745075500,11.423075439453125,-0.30159687995910645,-0.11197738349437714,-0.3405229449272156
1776020000755136500,11.433136474609375,-0.28717079758644104,-0.05921350419521332,-0.32014042139053345
1776020000765197600,11.443197509765625,-0.2720116674900055,-0.030781317502260208,-0.3057728111743927
1776020000775257600,11.453257568359374,-0.24338321387767792,0.017208047211170197,-0.3243981599807739
1776020000785318700,11.463318603515624,-0.2250605672597885,0.05543306842446327,-0.3687560260295868
1776020000795378400,11.47337841796875,-0.2102036029100418,0.05684800446033478,-0.407813161611557
1776020000805439500,11.483439453125,-0.20304003357887268,-0.005421747919172049,-0.39697396755218506
1776020000815500500,11.49350048828125,-0.20474499464035034,-0.10756196826696396,-0.34381115436553955
1776020000825560300,11.503560302734375,-0.21849292516708374,-0.17560872435569763,-0.28747695684432983
1776020000835621400,11.513621337890624,-0.23833267390727997,-0.15758338570594788,-0.2626408338546753
1776020000845681400,11.523681396484376,-0.252486914396286,-0.07579046487808228,-0.2619922161102295
1776020000855742500,11.533742431640626,-0.2676711976528168,-0.017179079353809357,-0.28883954882621765
1776020000865803500,11.543803466796875,-0.2893698513507843,-0.02871953696012497,-0.32600170373916626
1776020000875863300,11.55386328125,-0.29742538928985596,-0.06311053037643433,-0.359304279088974
1776020000885924400,11.56392431640625,-0.3059312105178833,-0.08768551051616669,-0.36581242084503174
1776020000895984400,11.573984375,-0.31467968225479126,-0.11516666412353516,-0.34849628806114197
1776020000906045400,11.58404541015625,-0.3139227032661438,-0.12021409720182419,-0.30171844363212585
1776020000916106500,11.5941064453125,-0.3131309449672699,-0.11801432818174362,-0.26220643520355225
1776020000926166300,11.604166259765625,-0.31850874423980713,-0.09888425469398499,-0.22961802780628204
1776020000936227300,11.614227294921875,-0.3023255169391632,-0.06791675835847855,-0.21280762553215027
1776020000946287400,11.624287353515625,-0.2715710997581482,-0.040616802871227264,-0.21902433037757874
1776020000956348400,11.634348388671874,-0.24476318061351776,-0.06152448430657387,-0.22874592244625092
1776020000966409500,11.644409423828124,-0.23247851431369781,-0.11141922324895859,-0.24232210218906403
1776020000976469200,11.65446923828125,-0.23101483285427094,-0.13467660546302795,-0.2648410201072693
1776020000986530300,11.6645302734375,-0.2406163364648819,-0.11830547451972961,-0.27594253420829773
1776020000996590300,11.67459033203125,-0.2447306513786316,-0.12249862402677536,-0.25893691182136536
1776020001006651400,11.6846513671875,-0.25303930044174194,-0.17657512426376343,-0.21067386865615845
1776020001016712400,11.69471240234375,-0.2441003918647766,-0.224763423204422,-0.14958548545837402
1776020001026772500,11.7047724609375,-0.21622221171855927,-0.18482957780361176,-0.11562692373991013
1776020001036833300,11.714833251953126,-0.19181619584560394,-0.07854575663805008,-0.13095900416374207
1776020001046893300,11.724893310546875,-0.18013200163841248,0.03096470795571804,-0.16976676881313324
1776020001056954400,11.734954345703125,-0.16507688164710999,0.11373256146907806,-0.19923438131809235
1776020001067014400,11.745014404296874,-0.14220960438251495,0.12971776723861694,-0.18570303916931152
1776020001077075500,11.755075439453124,-0.11610876768827438,0.07807134091854095,-0.13765108585357666
1776020001087136300,11.76513623046875,-0.08464404195547104,0.011189931072294712,-0.09001580625772476
1776020001097196300,11.7751962890625,-0.05851949751377106,-0.03001689352095127,-0.05763602256774902
1776020001107257300,11.78525732421875,-0.062142129987478256,-0.0029849412385374308,-0.08469610661268234
1776020001117317400,11.7953173828125,-0.0887974426150322,0.08321598917245865,-0.17802739143371582
1776020001127378400,11.80537841796875,-0.09288998693227768,0.17699779570102692,-0.2658531367778778
1776020001137439500,11.815439453125,-0.0791611298918724,0.20116226375102997,-0.26223549246788025
1776020001147499300,11.825499267578126,-0.06937359273433685,0.11919501423835754,-0.14463013410568237
1776020001157560300,11.835560302734375,-0.04527385160326958,-0.017316490411758423,0.03808481618762016
1776020001167620400,11.845620361328125,-0.0027582391630858183,-0.09553053975105286,0.20585514605045319
1776020001177681400,11.855681396484375,0.05132656544446945,-0.05456553027033806,0.2806044816970825
1776020001187742500,11.865742431640625,0.10830105096101761,0.06520166993141174,0.2687951326370239
1776020001197802200,11.87580224609375,0.1603512167930603,0.16297510266304016,0.2125190645456314
1776020001207863300,11.88586328125,0.18268857896327972,0.14779677987098694,0.16539280116558075
1776020001217923300,11.89592333984375,0.17661018669605255,0.044269584119319916,0.12838125228881836
1776020001227984400,11.905984375,0.17095130681991577,-0.03391421213746071,0.08900895714759827
1776020001238045400,11.91604541015625,0.170709490776062,-0.045674197375774384,0.04000493511557579
1776020001248105200,11.926105224609374,0.17400912940502167,-0.014311591163277626,-0.0018501790473237634
1776020001258166300,11.936166259765624,0.17936447262763977,-0.0014679644955322146,-0.007134157232940197
1776020001268226300,11.946226318359376,0.17709898948669434,0.002322731539607048,0.015467447228729725
1776020001278287400,11.956287353515625,0.17163604497909546,-0.015919122844934464,0.07226388901472092
1776020001288348400,11.966348388671875,0.16140635311603546,-0.05973600223660469,0.13581442832946777
1776020001298408200,11.976408203125,0.158864364027977,-0.12880109250545502,0.19326627254486084
1776020001308469200,11.98646923828125,0.15356239676475525,-0.19905121624469757,0.21788956224918365
1776020001318529300,11.996529296875,0.14472442865371704,-0.2167138308286667,0.2134127914905548
1776020001328590300,12.00659033203125,0.138448104262352,-0.16137506067752838,0.1908637434244156
1776020001338650400,12.016650390625,0.14645196497440338,-0.1002643033862114,0.19505608081817627
1776020001348711400,12.02671142578125,0.15272605419158936,-0.08596201241016388,0.22464443743228912
1776020001358772200,12.036772216796875,0.1648104041814804,-0.09091202914714813,0.277048259973526
1776020001368832300,12.046832275390624,0.17709046602249146,-0.05468021705746651,0.3181869685649872
1776020001378893300,12.056893310546876,0.17985482513904572,0.008618594147264957,0.30785149335861206
1776020001388953300,12.066953369140625,0.18130765855312347,0.015196820721030235,0.24080364406108856
1776020001399014400,12.077014404296875,0.1729874163866043,-0.057682447135448456,0.14750805497169495
1776020001409075500,12.087075439453125,0.17364460229873657,-0.14967064559459686,0.08779716491699219
1776020001419135200,12.09713525390625,0.18247990310192108,-0.20814326405525208,0.09178951382637024
1776020001429196300,12.1071962890625,0.19609150290489197,-0.20659904181957245,0.14747433364391327
1776020001439256300,12.11725634765625,0.19067756831645966,-0.19018971920013428,0.22912153601646423
1776020001449317400,12.1273173828125,0.17853964865207672,-0.16287043690681458,0.2903026342391968
1776020001459378400,12.13737841796875,0.1660856455564499,-0.1160707026720047,0.3145592510700226
1776020001469438200,12.147438232421875,0.16087615489959717,-0.05214588716626167,0.2916107773780823
1776020001479499300,12.157499267578125,0.1589328497648239,0.018490469083189964,0.23464655876159668
1776020001489559300,12.167559326171874,0.15675851702690125,0.051055923104286194,0.18461978435516357
1776020001499620400,12.177620361328126,0.15087240934371948,0.019236475229263306,0.1637113094329834
1776020001509681400,12.187681396484376,0.1672212779521942,-0.04842672497034073,0.19040949642658234
1776020001519741200,12.1977412109375,0.19409283995628357,-0.09898204356431961,0.23395803570747375
1776020001529802200,12.20780224609375,0.2246444672346115,-0.08167915791273117,0.2564569115638733
1776020001539862300,12.2178623046875,0.23737917840480804,-0.014989343471825123,0.23977355659008026
1776020001549923300,12.22792333984375,0.24426418542861938,0.04427497833967209,0.19835151731967926
1776020001559984400,12.237984375,0.25084829330444336,0.060072049498558044,0.1724887639284134
1776020001570044200,12.248044189453125,0.26714351773262024,0.0336422473192215,0.17432190477848053
1776020001580105200,12.258105224609375,0.27787044644355774,0.010360896587371826,0.2001284658908844
1776020001590165500,12.26816552734375,0.2780528664588928,0.0008819139329716563,0.23856619000434875
1776020001600226300,12.278226318359375,0.273190975189209,-0.05399332195520401,0.28295788168907166
1776020001610287400,12.288287353515624,0.26650941371917725,0.017305737361311913,0.318809449672699
1776020001620347400,12.298347412109376,0.2752280831336975,0.07862076163291931,0.33606913685798645
1776020001630408200,12.308408203125,0.2910616099834442,0.14680366218090057,0.35085806250572205
1776020001640468500,12.318468505859375,0.29269227385520935,0.1536131054162979,0.3605770170688629
1776020001650529300,12.328529296875,0.27362462878227234,0.11149412393569946,0.32937848567962646
1776020001660590300,12.33859033203125,0.25739455223083496,0.04319150000810623,0.266386479139328
1776020001670650400,12.348650390625,0.2577037811279297,-0.047436293214559555,0.203734889626503
1776020001680711200,12.358711181640626,0.2675092816352844,-0.1364535242319107,0.1555873304605484
1776020001690771500,12.368771484375,0.27866804599761963,-0.18630672991275787,0.14303714036941528
1776020001700832300,12.378832275390625,0.2920227348804474,-0.15668092668056488,0.17024025321006775
1776020001710893300,12.388893310546875,0.3003186285495758,-0.05463147535920143,0.24335938692092896
1776020001720953300,12.398953369140624,0.30816537141799927,0.053119756281375885,0.33336570858955383
1776020001731014400,12.409014404296874,0.31646236777305603,0.11517157405614853,0.418424129486084
1776020001741074400,12.419074462890626,0.31600961089134216,0.14525996148586273,0.45141348242759705
1776020001751135200,12.42913525390625,0.3053336441516876,0.1605808138847351,0.41716933250427246
1776020001761195500,12.439195556640625,0.3010110855102539,0.18730883300304413,0.3531554639339447
1776020001771256300,12.44925634765625,0.3249148726463318,0.19464537501335144,0.30931079387664795
1776020001781317400,12.4593173828125,0.3646199405193329,0.17780940234661102,0.3172835111618042
1776020001791377400,12.46937744140625,0.402883917093277,0.1102096289396286,0.34940215945243835
1776020001801438200,12.479438232421876,0.4291277825832367,0.023908035829663277,0.3757797181606293
1776020001811498500,12.48949853515625,0.4493846297264099,-0.06328748166561127,0.36987122893333435
1776020001821559600,12.4995595703125,0.47158342599868774,-0.12268023192882538,0.3382722735404968
1776020001831620400,12.509620361328125,0.49534568190574646,-0.19515231251716614,0.2976628541946411
