time,seconds_elapsed,z,y,x
1776817174260909600,0.08890966796875,-9.53478653101921,-2.2654773728266355,0.35474213359970597
1776817174270946600,0.098946533203125,-9.547551320046185,-2.2110561929397283,0.35478977213371543
1776817174280983600,0.108983642578125,-9.573228197616338,-2.1005707421340047,0.3335934375111013
1776817174291019500,0.11901953125,-9.611796705463528,-1.9279525141507385,0.2583588031056337
1776817174301056500,0.129056396484375,-9.653467855501175,-1.718080075789243,0.1707039370608516
1776817174311093500,0.139093505859375,-9.685936877429485,-1.5289390214197336,0.12392412963942624
1776817174321129500,0.14912939453125,-9.705120885848999,-1.4025392315149305,0.11788415535544045
1776817174331166500,0.15916650390625,-9.711128601831197,-1.3554498558208345,0.1646703742513433
1776817174341203500,0.169203369140625,-9.704823364207147,-1.3852650022394954,0.2604472084859386
1776817174351239400,0.179239501953125,-9.681438981488347,-1.4922104423508047,0.4619822823412716
1776817174361276400,0.1892763671875,-9.632890931418537,-1.6666487253680824,0.774648374896869
1776817174371313700,0.199313720703125,-9.570478022125362,-1.854489218533039,1.0663999819785357
1776817174381349600,0.209349609375,-9.53637233890593,-1.9742071925863622,1.1534709471881388
1776817174391386600,0.21938671875,-9.525978370663523,-2.0368097792327404,1.1302796028234063
1776817174401423400,0.22942333984375,-9.517801493948697,-2.077892169597,1.1243667985830454
1776817174411459300,0.239459228515625,-9.513516363975405,-2.1003287500716743,1.1189345444012433
1776817174421496300,0.249496337890625,-9.51968190086782,-2.104763225387782,1.0564134254932402
1776817174431533600,0.259533447265625,-9.534814588069915,-2.104888751463592,0.9094710521668196
1776817174441569500,0.269569580078125,-9.549077506700158,-2.121307971344888,0.696817093328014
1776817174451606500,0.2796064453125,-9.554265138471125,-2.1620178751349446,0.460518493399024
1776817174461643500,0.2896435546875,-9.549573181262613,-2.2167726708903905,0.2489157423798926
1776817174471679500,0.299679443359375,-9.540249472600221,-2.2682709490679205,0.09473900648630224
1776817174481716500,0.309716552734375,-9.531045006403327,-2.3085830857120455,-0.0022001796368036593
1776817174491753500,0.31975341796875,-9.52389455012679,-2.337031327691674,-0.06402552298842928
1776817174501789700,0.329789794921875,-9.519855503869056,-2.3507911191053688,-0.12849729190701617
1776817174511826400,0.339826416015625,-9.518848372653126,-2.3483253135137256,-0.21742195869190617
1776817174521863400,0.349863525390625,-9.519597145193815,-2.333241872280836,-0.32193072797451167
1776817174531899400,0.3598994140625,-9.519824524208902,-2.3141237687043845,-0.43377055253125724
1776817174541936400,0.369936279296875,-9.517221648234129,-2.2980539467826486,-0.5584112968742847
1776817174551973600,0.3799736328125,-9.509094455879927,-2.293697797399759,-0.6974618209723383
1776817174562009600,0.390009521484375,-9.494600651103257,-2.3045221198834476,-0.8438734484229237
1776817174572046600,0.400046630859375,-9.476483979654311,-2.3309661824338135,-0.9660398385416715
1776817174582083600,0.41008349609375,-9.461012854278087,-2.3724093689344823,-1.015525534787774
1776817174592120300,0.420120361328125,-9.451555874624848,-2.4225569631554187,-0.9847301451601087
1776817174602156300,0.43015625,-9.448694055452941,-2.464669281089306,-0.9044201254528015
1776817174612193500,0.440193603515625,-9.45315629555881,-2.4831255597561595,-0.8014384013406932
1776817174622230500,0.45023046875,-9.466697914177178,-2.473456983178854,-0.6588046119283885
1776817174632266500,0.4602666015625,-9.488159219878911,-2.4381609211310744,-0.4478693666409701
1776817174642303500,0.470303466796875,-9.512142153012752,-2.37904281559959,-0.172304887717776
1776817174652340500,0.480340576171875,-9.53301542969346,-2.2965647311381994,0.13338822402004152
1776817174662376400,0.49037646484375,-9.547391161048411,-2.191671985772997,0.4629043656222522
1776817174672413400,0.500413330078125,-9.548245147529244,-2.066374019630253,0.8552741094898432
1776817174682450400,0.510450439453125,-9.522314587458968,-1.926385410964489,1.3360191791638731
1776817174692486400,0.520486328125,-9.460513088062404,-1.78012020624727,1.870893533106148
1776817174702523400,0.5305234375,-9.366781495919824,-1.645707351887226,2.392788286226988
1776817174712560400,0.540560302734375,-9.247879222163558,-1.538934930255264,2.877288835977018
1776817174722596400,0.550596435546875,-9.107746528851985,-1.4581722714096308,3.330626477961242
1776817174732633300,0.56063330078125,-8.954433451449871,-1.3880908733151853,3.7498940925613042
1776817174742670600,0.570670654296875,-8.790249435943364,-1.3059198089763522,4.146863366113603
1776817174752706600,0.58070654296875,-8.621343652611971,-1.1956630523599683,4.518098186689615
1776817174762743600,0.59074365234375,-8.456256550785898,-1.0548876772306859,4.8527638565421105
1776817174772780500,0.600780517578125,-8.279058739927411,-0.8914792492065579,5.1800417542308566
1776817174782816500,0.61081640625,-8.051428964948654,-0.7260883421283215,5.5513662989169354
1776817174792853200,0.620853271484375,-7.772376461246609,-0.5864946875968947,5.9511821940720075
1776817174802890500,0.630890380859375,-7.472821852263808,-0.47732674913052464,6.332414384788274
1776817174812927500,0.640927490234375,-7.184053425711393,-0.3963486939685419,6.663532591292261
1776817174822963500,0.65096337890625,-6.9153037048369645,-0.34262451990246773,6.944894540980457
1776817174833000700,0.661000732421875,-6.674605773970485,-0.30738318371661005,7.178128711837529
1776817174843037700,0.67103759765625,-6.46080987855494,-0.2818226442688145,7.372170105469227
1776817174853074000,0.681073974609375,-6.2582356343775984,-0.26383292366778477,7.545545727691054
1776817174863110700,0.691110595703125,-6.057516662678122,-0.2613957779150456,7.707694437977671
1776817174873147600,0.701147705078125,-5.893842934781312,-0.2827047791318968,7.8328207008153194
1776817174883183600,0.71118359375,-5.811432362598181,-0.322760529862158,7.892620797261595
1776817174893220600,0.721220703125,-5.801484969079494,-0.3664300506427884,7.898030547350644
1776817174903257600,0.731257568359375,-5.840213051402569,-0.40583928363043814,7.867502138096094
1776817174913293600,0.74129345703125,-5.912490936627984,-0.4497646423356607,7.81092509534955
1776817174923330800,0.751330810546875,-6.003076047438383,-0.49870950970333067,7.738523291483521
1776817174933367800,0.761367919921875,-6.086460433089733,-0.5404406828325241,7.670287375125288
1776817174943403800,0.77140380859375,-6.160483700677752,-0.5565682628234848,7.609800465458631
1776817174953440800,0.781440673828125,-6.227062497478723,-0.5407433190409093,7.556565134355425
1776817174963477500,0.7914775390625,-6.270071033599972,-0.5028324713848531,7.523547246372699
1776817174973514800,0.8015146484375,-6.287893690538406,-0.45469501140993085,7.5117264601975675
1776817174983550700,0.81155078125,-6.3075757116079325,-0.3720373325979337,7.499764219725131
1776817174993587700,0.821587646484375,-6.331729325133562,-0.23194846016177906,7.485038359758257
1776817175003624700,0.831624755859375,-6.340663742217421,-0.03030597584263887,7.48100574324131
1776817175013660700,0.84166064453125,-6.291685484036803,0.2165111457236111,7.519189051163196
1776817175023697700,0.85169775390625,-6.1650944093436,0.48428621287960555,7.611009256726503
1776817175033735000,0.86173486328125,-5.98581102438271,0.7519505862027406,7.731430702874064
1776817175043771000,0.87177099609375,-5.809540265241265,0.9958611224401742,7.837595075610279
1776817175053807600,0.8818076171875,-5.680878229492903,1.2200065624345093,7.899974082633853
1776817175063844600,0.8918447265625,-5.612376355674862,1.4644089738421142,7.907409201070666
1776817175073880600,0.901880615234375,-5.578613202282786,1.7629672652639448,7.87028621585667
1776817175083917600,0.91191748046875,-5.526967186197639,2.096944222199917,7.824694677504897
1776817175093954800,0.921954833984375,-5.425560237121582,2.4397220329679548,7.7962454126119605
1776817175103991800,0.93199169921875,-5.279913164302706,2.7735940682247278,7.784605828222632
1776817175114027800,0.94202783203125,-5.130931978625059,3.0872198726579545,7.766144288858771
1776817175124064800,0.952064697265625,-5.0009091759175055,3.3893449166506526,7.724871198228001
1776817175134101500,0.9621015625,-4.880057229398191,3.684544545294344,7.666783166396617
1776817175144137700,0.9721376953125,-4.760099016848206,3.97562417139858,7.596463429501652
1776817175154174700,0.9821748046875,-4.637315517744422,4.26825190372765,7.513169644743203
1776817175164211700,0.992211669921875,-4.526913945829868,4.557848890058696,7.40968705843687
1776817175174247700,1.00224755859375,-4.441646230649948,4.831778643919527,7.286704821890592
1776817175184284700,1.01228466796875,-4.379185682822763,5.0780175500392915,7.1558964217633
1776817175194321700,1.02232177734375,-4.3241041393309825,5.295075077599287,7.030980586805939
1776817175204359000,1.03235888671875,-4.269268387293815,5.487573333442211,6.9159443408280605
1776817175214395000,1.042394775390625,-4.209350217425823,5.659705677604675,6.813185977143049
1776817175224431900,1.052431884765625,-4.140293340073526,5.815169795560837,6.7239984581708905
1776817175234468600,1.062468505859375,-4.062846527777612,5.956895311021804,6.646734016704559
1776817175244504600,1.072504638671875,-3.976298417398333,6.087725338459014,6.580200228089094
1776817175254541600,1.08254150390625,-3.89532576906383,6.211001589515805,6.51308600923717
1776817175264578800,1.092578857421875,-3.853635914325714,6.317355347344279,6.43512949385345
1776817175274614800,1.10261474609375,-3.8883103373438117,6.377369963324069,6.354571856060624
1776817175284651800,1.11265185546875,-3.961101140527427,6.389196010196208,6.2974786804854865
1776817175294688800,1.122688720703125,-3.965453782778978,6.399419298046827,6.284345642668009
1776817175304725800,1.132725830078125,-3.9053590873003006,6.413305784580111,6.307777956181765
1776817175314761700,1.14276171875,-3.865269361235201,6.386232484215498,6.3597250010401005
1776817175324798700,1.152798828125,-3.8618107452139254,6.335091495043039,6.412754580438136
1776817175334835700,1.162835693359375,-3.857944132913649,6.300819223085045,6.448745346751808
1776817175344871700,1.17287158203125,-3.8196024195596574,6.297496800664067,6.4747624160617585
1776817175354908700,1.18290869140625,-3.731906892710924,6.311148309397697,6.512499733781814
1776817175364945700,1.192945556640625,-3.6037890468418596,6.329479500380158,6.566641073814034
1776817175374981600,1.202981689453125,-3.4214211398690937,6.3470326927274465,6.646760904711485
1776817175385019000,1.213018798828125,-3.135925451377034,6.422322034728527,6.714917910614609
1776817175395055900,1.223055908203125,-2.700274857252836,6.584093728396296,6.7474880548298355
1776817175405092600,1.233092529296875,-2.0983076195076107,6.749168555262685,6.798250273817777
1776817175415128800,1.24312890625,-1.362657302981615,6.862131502097845,6.8720239505589005
1776817175425165600,1.25316552734375,-0.5957370746513828,6.921795404943824,6.921288624465465
1776817175435202600,1.26320263671875,0.11249524712502025,6.931074689942598,6.9367088964372865
1776817175445238800,1.27323876953125,0.6962617244675755,6.896588482972979,6.937051426264643
1776817175455275800,1.28327587890625,1.1394850188683718,6.827333744961023,6.94690471175909
1776817175465312800,1.293312744140625,1.4772278311438858,6.734719758671522,6.973645419168472
1776817175475349800,1.303349853515625,1.7448685678631066,6.629958822992443,7.012093515506386
1776817175485385700,1.3133857421875,1.9556816480755805,6.526339458563924,7.053549561488628
1776817175495422700,1.323422607421875,2.0901791119791566,6.439833726021647,7.09437081669867
1776817175505459700,1.333459716796875,2.151846755862981,6.382896033269167,7.127312132313847
1776817175515495700,1.34349560546875,2.169718366509676,6.3552323657959695,7.1465902487576
1776817175525532700,1.35353271484375,2.195945863699913,6.341210270184278,7.151033784162998
1776817175535569700,1.363569580078125,2.293625316685438,6.325228857198357,7.134502920600771
1776817175545605600,1.373605712890625,2.4393428243920208,6.307391002690792,7.1018860146343705
1776817175555642600,1.383642578125,2.58015180952996,6.2962166977256535,7.061928098255396
1776817175565679900,1.393679931640625,2.6860233367994426,6.286409589460492,7.031126132756471
1776817175575716600,1.403716552734375,2.761855699636042,6.259179052707553,7.02603670066297
1776817175585752800,1.4137529296875,2.8177637570798395,6.218664671489596,7.03980102212131
1776817175595789600,1.42378955078125,2.892644810540974,6.175161629849672,7.047720124682784
1776817175605826600,1.43382666015625,3.014939064823091,6.131381524834037,7.034679441323876
1776817175615862500,1.443862548828125,3.159439597955346,6.091919283017516,7.005487833631038
1776817175625899800,1.453899658203125,3.300461641322076,6.055975278455018,6.971551661759615
1776817175635936800,1.463936767578125,3.429327967470884,6.022492695569992,6.938275415101647
1776817175645973800,1.473973876953125,3.5388930885612964,5.994754209294915,6.907207492142915
1776817175656009700,1.484009765625,3.623264147162437,5.97191693906486,6.8832058543086045
1776817175666046700,1.494046630859375,3.6844717723190783,5.94763356167972,6.871732274135947
1776817175676083700,1.504083740234375,3.713484224052727,5.9243906332582235,6.876191591632366
1776817175686119700,1.51411962890625,3.6969668044939636,5.902700779497623,6.9036927620202295
1776817175696156700,1.52415673828125,3.6299475704491138,5.890512329053879,6.949513432952761
1776817175706193700,1.534193603515625,3.5244817013710734,5.897319086459278,6.9978574848830695
1776817175716229600,1.544229736328125,3.409065516164899,5.902202182325721,7.0507210600644346
1776817175726266600,1.5542666015625,3.294299903821945,5.905199610576033,7.102578088551759
1776817175736303900,1.564303955078125,3.1712560002163053,5.922663955596089,7.143917814677954
1776817175746340900,1.5743408203125,3.029586598856747,5.948446631628275,7.183868132272362
1776817175756376800,1.584376953125,2.886380197188258,5.981590776339173,7.215245851832628
1776817175766413600,1.59441357421875,2.784300755678117,6.012876141440868,7.229340428158641
1776817175776450600,1.604450439453125,2.7324787985041734,6.030695291247963,7.234268532210588
1776817175786486500,1.614486572265625,2.689724821665883,6.033077217948437,7.248290627822279
1776817175796523800,1.624523681640625,2.622528477488458,6.027798985284567,7.277249595803022
1776817175806560800,1.634560791015625,2.5396862358897923,6.019165596973895,7.313686352318525
1776817175816597800,1.64459765625,2.453146893338859,6.016233635175228,7.345570267835259
1776817175826637800,1.654637939453125,2.375220334701985,6.0195110494107,7.368463067644834
1776817175836674800,1.6646748046875,2.293195546966046,6.018935879871249,7.394868259489535
1776817175846711800,1.6747119140625,2.197371950980276,6.006300854703784,7.434131763863563
1776817175856747800,1.684747802734375,2.0944148498527704,5.9876136898905035,7.4787880671918385
1776817175866784800,1.69478466796875,1.9991515180982649,5.9713341707408425,7.517773923668265
1776817175876821800,1.70482177734375,1.9210994333855806,5.957815932998061,7.548788655135035
1776817175886859000,1.71485888671875,1.8569483021229505,5.946233047232031,7.573931864219904
1776817175896895000,1.72489501953125,1.789608311691135,5.93968990919888,7.595247623971104
1776817175906932000,1.734931884765625,1.7157437417961656,5.9317357353240245,7.618471847692131
1776817175916968700,1.74496875,1.639469772671908,5.925820958322286,7.639839045369625
1776817175927005000,1.7550048828125,1.543939752805233,5.9316275987744325,7.655224246028065
1776817175937041700,1.765041748046875,1.4553059221930802,5.942697858843207,7.663992658895253
1776817175947079000,1.775078857421875,1.3792710225217044,5.959433305066824,7.665059995865821
1776817175957116000,1.785115966796875,1.3005404540255665,5.985128302815556,7.658799766427278
1776817175967151900,1.79515185546875,1.2168318048559128,6.021528234452009,7.644011362618207
1776817175977188900,1.80518896484375,1.1308499500572682,6.0755322118401525,7.614424033606052
1776817175987225900,1.815225830078125,1.0587195835437626,6.177700208416581,7.5422478551894425
1776817175997261800,1.82526171875,1.0084569846410303,6.31560061263144,7.434148714998364
1776817176007299000,1.835299072265625,0.9651147595860063,6.4920350379019975,7.286452892956137
1776817176017335800,1.845335693359375,0.9442864180255681,6.710840285912155,7.088250872513651
1776817176027372800,1.855372802734375,0.928864319422841,6.9080755071491,6.89826606079638
1776817176037408800,1.86540869140625,0.9119774089645594,7.062734738463163,6.742141433104872
1776817176047445800,1.87544580078125,0.9197514770321548,7.203520927247404,6.59042819211483
1776817176057483000,1.88548291015625,1.006400271306932,7.352242585206032,6.411092200183868
1776817176067519000,1.89551904296875,1.1758984675735233,7.496566884988546,6.212013981428742
1776817176077556000,1.905555908203125,1.381423524380475,7.607834718343615,6.03182166492939
1776817176087593000,1.915593017578125,1.5458803654789923,7.669893991893529,5.912135547319054
1776817176097629000,1.92562890625,1.6479976547814905,7.695173979100584,5.851392617064714
1776817176107665700,1.935665771484375,1.6942087863363324,7.695383237937092,5.837903020894527
1776817176117703000,1.945702880859375,1.6936293790131807,7.685853193047643,5.8506134493857616
1776817176127740000,1.955739990234375,1.6807345338657498,7.695387329590321,5.841789506939053
1776817176137775900,1.96577587890625,1.6486156405493617,7.727333788949251,5.808679264497757
1776817176147812900,1.975812744140625,1.563340472715348,7.778588175368308,5.763674001601338
1776817176157849900,1.985849853515625,1.420900379244238,7.836520139855146,5.7219198494553565
1776817176167885800,1.9958857421875,1.2251465556714682,7.891376350158453,5.691711758196353
1776817176177922800,2.0059228515625,1.0064055320039391,7.937486359426379,5.6704386685431
1776817176187959800,2.015959716796875,0.789320458849892,7.974028914403915,5.653515590792894
1776817176197996800,2.025996826171875,0.6015624198039994,8.000548088017105,5.63912641543448
1776817176208032800,2.03603271484375,0.48422732229921966,8.027784469988942,5.611647456878424
1776817176218069800,2.04606982421875,0.4248138505503535,8.068601049023867,5.55766276871264
1776817176228106800,2.056106689453125,0.3725304864097386,8.113309374800323,5.495982849869132
1776817176238142700,2.066142822265625,0.3025492242215201,8.14300600940585,5.456216656669974
1776817176248180000,2.076179931640625,0.2283740357411094,8.160168156608938,5.434139264896512
1776817176258217000,2.086217041015625,0.1688991709275171,8.180074634084106,5.40631660746932
1776817176268253700,2.096253662109375,0.13041861535841598,8.199468485862017,5.377928132852912
1776817176278290000,2.1062900390625,0.08393295944482088,8.206991867104172,5.367368160393834
1776817176288326700,2.11632666015625,0.031771557166462294,8.208761214864253,5.365222380536794
1776817176298364000,2.126364013671875,-0.005807711314514745,8.207432012087105,5.367348871171474
1776817176308401000,2.13640087890625,-0.03358894075277494,8.204166872811317,5.3722360586911435
1776817176318436900,2.146436767578125,-0.05982876541833393,8.198151558044552,5.381181581690907
1776817176328473900,2.156473876953125,-0.08680049597145989,8.19056621748209,5.392354133090376
1776817176338510800,2.1665107421875,-0.11643661429509519,8.180973044228553,5.406338234779239
1776817176348546800,2.176546875,-0.16070822915472088,8.15764711369872,5.440345718321204
1776817176358583800,2.186583740234375,-0.24001778484890235,8.106890739929675,5.512811235073208
1776817176368620800,2.196620849609375,-0.35087705566938965,8.042681594869494,5.600226483675837
1776817176378657800,2.20665771484375,-0.4420759875291958,7.989534526571631,5.669419262367486
1776817176388693800,2.21669384765625,-0.4926790704326704,7.9398443207293745,5.734675870653986
1776817176398730800,2.226730712890625,-0.5409153146069496,7.874480160415172,5.819823174324632
1776817176408768000,2.23676806640625,-0.60067752672825,7.791202157747745,5.925095566657185
1776817176418804000,2.246803955078125,-0.63917468637228,7.712651768124103,6.023026948577165
1776817176428841000,2.256841064453125,-0.6423473250590265,7.659559060361981,6.090070440280437
1776817176438877700,2.266877685546875,-0.6193701349016278,7.628954078739881,6.130730951970815
1776817176448914700,2.276914794921875,-0.5951497762827203,7.6132017983347176,6.152669812056422
1776817176458950700,2.28695068359375,-0.5776979619506746,7.606264108026028,6.162904205822945
1776817176468988000,2.29698779296875,-0.5654029458599165,7.604864178100228,6.165773039257526
1776817176479025000,2.30702490234375,-0.5594338813876732,7.601359969371557,6.170634507814049
1776817176489060900,2.317060791015625,-0.5500170510817319,7.596102779495715,6.177950968307257
1776817176499097900,2.327097900390625,-0.5352765050023793,7.5847893583208315,6.193127494651079
1776817176509134800,2.337134765625,-0.5142340822998434,7.575426486691832,6.206356394058465
1776817176519170800,2.3471708984375,-0.49329172243829816,7.565054730281234,6.22069003983736
1776817176529208000,2.3572080078125,-0.4861693232124671,7.551257675597071,6.237993056815863
1776817176539244800,2.367244873046875,-0.4946119381913915,7.532906610870361,6.259477743393182
1776817176549281800,2.37728173828125,-0.5060580458352342,7.508367797419428,6.28797961525619
1776817176559317800,2.38731787109375,-0.5117972470743581,7.4787880671918385,6.322669820365309
1776817176569354800,2.397354736328125,-0.5048532731553539,7.456325475493073,6.349702204197645
1776817176579392000,2.40739208984375,-0.4943579268977046,7.4409443664878605,6.368541929224133
1776817176589429000,2.417428955078125,-0.5010453322397544,7.4291627432793375,6.381761476281285
1776817176599465000,2.42746484375,-0.5341325225990265,7.427115747621655,6.381460447508096
1776817176609502000,2.437501953125,-0.5557762356629595,7.439143454545736,6.365581325852871
1776817176619538700,2.44753857421875,-0.5343665140179917,7.4694117515593765,6.33188188534677
1776817176629574700,2.45757470703125,-0.46931061593536283,7.515503640648722,6.282302154141664
1776817176639612000,2.46761181640625,-0.36883572354502975,7.560695950549841,6.234598738202452
1776817176649649000,2.47764892578125,-0.2434555772778578,7.620714073660969,6.167317930611968
1776817176659686000,2.487685791015625,-0.08779015546278096,7.703512768378853,6.067829382377862
1776817176669721900,2.497721923828125,0.07260663768916856,7.78675394616723,5.960836157602071
1776817176679758800,2.5077587890625,0.20418451065188273,7.85415633431077,5.868638935419916
1776817176689795800,2.5177958984375,0.28407303527779876,7.889450935053825,5.817752213269472
1776817176699831800,2.527831787109375,0.2936343703546561,7.8896847438097,5.8169619396746155
1776817176709868800,2.537868896484375,0.2859183708835393,7.88390265327692,5.825180317443609
1776817176719905800,2.54790576171875,0.2826611591858789,7.872380557787418,5.840901618188619
1776817176729942800,2.55794287109375,0.25324999045822766,7.847018737515807,5.876268115124106
1776817176739978800,2.567978759765625,0.20410149027723817,7.812260727867484,5.924296525233983
1776817176750015700,2.578015625,0.14557926827967166,7.772891425031423,5.977572188347578
1776817176760053000,2.588052978515625,0.08449013666985555,7.727156094294786,6.037742287150025
1776817176770089000,2.5980888671875,-0.011299238527548732,7.662566425484418,6.120076871487498
1776817176780126000,2.6081259765625,-0.16399194526681676,7.557331442552805,6.247416718721389
1776817176790162700,2.61816259765625,-0.3520153755169362,7.415918061780929,6.407076534801721
1776817176800199700,2.62819970703125,-0.5109428587347269,7.255478493499756,6.5777914133816955
1776817176810235600,2.638235595703125,-0.6114077777203172,7.116745145592093,6.719263246342539
1776817176820273000,2.64827294921875,-0.654932227474451,7.020608245873451,6.815607066810131
1776817176830305800,2.658305908203125,-0.6956424235254526,6.954227017471194,6.879331058701872
1776817176840341800,2.668341796875,-0.7238938277587295,6.928708545333147,6.902127412399649
1776817176850378800,2.678378662109375,-0.7074674474842846,6.94449881966114,6.887948664921522
1776817176860416000,2.688416015625,-0.6931883083716035,6.957940485036373,6.8758239273637525
1776817176870453000,2.698452880859375,-0.6972185137357563,6.95028091019392,6.88315967707932
1776817176880489000,2.708489013671875,-0.7057338286247103,6.944804524609446,6.887818901062011
1776817176890525700,2.718525634765625,-0.7159799858942627,6.954025941941142,6.877447144651413
1776817176900562700,2.728562744140625,-0.7423970143072307,6.974020097699761,6.85436320618391
1776817176910598700,2.7385986328125,-0.7954854112204164,6.990629871717095,6.8314487790644165
1776817176920636000,2.748635986328125,-0.867859084970504,6.998716732060909,6.814337485265732
1776817176930673000,2.7586728515625,-0.9468484505333006,7.00225835019052,6.8001657520502805
1776817176940710000,2.7687099609375,-1.0158020136415957,7.009954749912023,6.78226184656918
1776817176950745900,2.778745849609375,-1.059029234014824,7.028290032547712,6.756625301009416
1776817176960782800,2.788782958984375,-1.0794438802078365,7.049904482984543,6.730827427408099
1776817176970819800,2.79881982421875,-1.0940629918646068,7.070604156664014,6.706711807805299
1776817176980856000,2.80885595703125,-1.1072276669293641,7.088914304858446,6.68518737373948
1776817176990892800,2.818892822265625,-1.107845214305818,7.109304181936383,6.663396397691964
1776817177000929800,2.8289296875,-1.0731407614756374,7.150322421023249,6.6250763116478915
1776817177010966800,2.838966796875,-0.9904769451837986,7.22217945048809,6.559685263326764
1776817177021002800,2.849002685546875,-0.8726522375311702,7.31828361698091,6.4692801852583885
1776817177031040000,2.8590400390625,-0.7389362063288688,7.42117642070055,6.367927012196183
1776817177041077000,2.869076904296875,-0.6034072804857045,7.521784328353404,6.263310453423857
1776817177051113000,2.879113037109375,-0.4433376780280843,7.640731025773286,6.13131898099184
1776817177061150000,2.88914990234375,-0.2769156743364408,7.758777559483051,5.991250000566244
1776817177071186700,2.899186767578125,-0.12368336141980252,7.866992435008287,5.853677513131499
1776817177081223700,2.9092236328125,0.01703555483148666,7.960929194334149,5.726578488916158
1776817177091260000,2.919260009765625,0.15777758253030477,8.043942408585547,5.60717878703177
1776817177101297000,2.929296875,0.31198322485797103,8.112062005087733,5.501589583835005
1776817177111334000,2.939333984375,0.4746836507432162,8.17163296895325,5.400877631285787
1776817177121369900,2.949369873046875,0.6330947088714689,8.221966148874163,5.307432454869151
1776817177131406800,2.95940673828125,0.7756511952638626,8.260694231197238,5.227780241483449
1776817177141443800,2.96944384765625,0.8681452084355056,8.280550439789891,5.1816205478549
1776817177151480800,2.979480712890625,0.8940012419648468,8.280610061022639,5.1771261590451
1776817177161516800,2.989516845703125,0.8949760052811354,8.283045179215073,5.173063731911778
1776817177171553800,2.9995537109375,0.8955039746779948,8.291183477485179,5.159919003656507
1776817177181590800,3.0095908203125,0.8736213748242706,8.302684530186653,5.145152227157354
1776817177191626800,3.019626708984375,0.8143350000537931,8.31371445824504,5.1370624442040915
1776817177201663700,3.029663818359375,0.7086160329975187,8.320105036064982,5.142383931487799
1776817177211701000,3.039700927734375,0.5528938120944425,8.316456450429559,5.1673266495645045
1776817177221738000,3.049738037109375,0.35745921053867785,8.291255373677611,5.224719100347161
1776817177231774000,3.05977392578125,0.1449685525028035,8.240887122443318,5.313861611133814
1776817177241810700,3.069810791015625,-0.0809606656357646,8.166473978754878,5.428860447710752
1776817177251847700,3.07984765625,-0.31492336996309456,8.070120805937052,5.562764475765824
1776817177261885000,3.089885009765625,-0.5181472371555864,7.982485777103901,5.672903597351908
1776817177271921000,3.0999208984375,-0.6769448103833943,7.901322574633359,5.768989059144258
1776817177281958000,3.1099580078125,-0.8519452573280781,7.8076628786832085,5.8723915659517045
1776817177291995000,3.119994873046875,-1.0674157348923385,7.688786908411979,5.992793722876906
1776817177302030800,3.13003076171875,-1.2760424109764397,7.560525854679942,6.113962187999487
1776817177312067800,3.14006787109375,-1.4542865160174667,7.4469982596993445,6.212701379171014
1776817177322104800,3.150104736328125,-1.6199829819135367,7.355721659493446,6.280079801917076
1776817177332141800,3.160141845703125,-1.7676790962167084,7.275912209719419,6.332991307893395
1776817177342177800,3.170177734375,-1.8236439984142778,7.229924365526437,6.3696870076060295
1776817177352214800,3.18021484375,-1.8508358105920255,7.2407619858831165,6.349499959623813
1776817177362251800,3.190251708984375,-1.8570744127206504,7.2734712463080875,6.310170988798141
1776817177372287700,3.200287841796875,-1.8490408899992703,7.308408119654655,6.2720496401965615
1776817177382325000,3.210324951171875,-1.8295510305009781,7.348394093084335,6.23090923603475
1776817177392362000,3.220362060546875,-1.8051371586039662,7.390935596215725,6.187564599826931
1776817177402398700,3.230398681640625,-1.7730894308276473,7.433645441651344,6.145524031955003
1776817177412435000,3.24043505859375,-1.7265126808308064,7.479339271333814,6.103199970966577
1776817177422471700,3.2504716796875,-1.6587281615018843,7.524010187709331,6.0669824101597065
1776817177432509000,3.260509033203125,-1.5833954187504946,7.567827702125906,6.032515492412448
1776817177442545000,3.270544921875,-1.5275222864896059,7.615950220260023,5.9861810267388815
1776817177452582000,3.280581787109375,-1.48944521542117,7.674095535236597,5.921165241470932
1776817177462619000,3.290618896484375,-1.4514317111082373,7.740320696294307,5.843900800004601
1776817177472656000,3.30065576171875,-1.4130219009540974,7.8119924323201175,5.757300959438085
1776817177482691800,3.31069189453125,-1.3780525866426527,7.884498281082511,5.666217251455784
1776817177492728800,3.320728759765625,-1.3439507028155029,7.950969525855779,5.580884654346108
1776817177502765800,3.330765869140625,-1.308087946795672,8.00777570118308,5.5077054363667965
1776817177512802800,3.340802734375,-1.2652065441854297,8.05768276464641,5.444574734193086
1776817177522838800,3.3508388671875,-1.2146407245524227,8.102288214570283,5.389617401602864
1776817177532875800,3.360875732421875,-1.1494438836291432,8.134756067454814,5.354896801355481
1776817177542913000,3.3709130859375,-1.0888827396824956,8.145079308548569,5.351860794660449
1776817177552949000,3.380948974609375,-1.047390745604038,8.138109469535946,5.370708118471503
1776817177562986000,3.390986083984375,-1.019809495717287,8.125819896805286,5.394572978183627
1776817177573022700,3.401022705078125,-1.0011205773383378,8.109335794994234,5.422805385455489
1776817177583059700,3.411059814453125,-0.9786704797949641,8.085887114867568,5.461778966972232
1776817177593095700,3.421095703125,-0.9429146182157099,8.058218186697363,5.508758160290122
1776817177603132700,3.431132568359375,-0.9074912034612148,8.02674460554719,5.560415866813063
1776817177613170000,3.441169921875,-0.8923593199767171,7.982676331239938,5.625919727858901
1776817177623206000,3.451205810546875,-0.8654727743558586,7.940940883794426,5.688830065280198
1776817177633243000,3.461242919921875,-0.811109754396975,7.904037094289064,5.74792873545885
1776817177643280000,3.47127978515625,-0.7689413223616779,7.87146227389872,5.798206385800242
1776817177653316900,3.48131689453125,-0.7510479382745922,7.850729866993427,5.828579896754026
1776817177663352800,3.491352783203125,-0.7472378054019063,7.847046794566512,5.834025887200236
1776817177673389800,3.501389892578125,-0.7514544732488692,7.853529726845026,5.8247553700298065
1776817177683426800,3.5114267578125,-0.7646277700114995,7.860617054757475,5.813470005905628
1776817177693463800,3.5214638671875,-0.7849497694849967,7.8670999870359895,5.801980643641948
1776817177703499800,3.531499755859375,-0.8021733645517378,7.870126056858897,5.7955187541514634
1776817177713536800,3.541536865234375,-0.8079976137258112,7.86678083808422,5.799248003807664
1776817177723574000,3.551573974609375,-0.8039463655736296,7.860609455972909,5.808171899497508
1776817177733610000,3.56160986328125,-0.7957003691453486,7.85648682308495,5.814881041747332
1776817177743647000,3.57164697265625,-0.7905836837187409,7.857059070014953,5.814806807467341
1776817177753683700,3.58168359375,-0.7965517252776771,7.862197017425299,5.8070420186847445
1776817177763720700,3.591720703125,-0.814698499603942,7.870832743823528,5.792808326148987
1776817177773756700,3.601756591796875,-0.8490381377097219,7.882937023115158,5.771380338194966
1776817177783794000,3.6117939453125,-0.9026436903648077,7.8994971127718685,5.740521674072742
1776817177793831000,3.621830810546875,-0.9711024556934833,7.917945792654156,5.703813114878535
1776817177803867000,3.631866943359375,-1.0443873260043561,7.932143244832754,5.671045402264594
1776817177813904000,3.64190380859375,-1.1064106514580547,7.941838124895096,5.645659616595506
1776817177823940900,3.65194091796875,-1.1428661126740276,7.953333916899561,5.622165343761444
1776817177833978000,3.66197802734375,-1.1398824937533587,7.966740510961413,5.603756995889544
1776817177844014000,3.67201416015625,-1.1012240426003932,7.980531720426678,5.5918508695185185
1776817177854051000,3.682051025390625,-1.0454850581131876,7.9888547276139255,5.5906666281700135
1776817177864088000,3.692088134765625,-0.9978614294119179,7.989552646750211,5.598365365979075
1776817177874124000,3.7021240234375,-0.9905863238424062,7.988814980125427,5.600709883278608
1776817177884161000,3.7121611328125,-1.0244179393608122,7.989203102660179,5.59406562295854
1776817177894198300,3.7221982421875,-1.0985055043566971,7.990033123743534,5.5788008338093755
1776817177904235000,3.732235107421875,-1.1954656300917268,8.002316851255298,5.541134827759862
1776817177914271200,3.742271240234375,-1.288732965723425,8.02855136270821,5.48196192330122
1776817177924308000,3.752307861328125,-1.3686878153175115,8.047897868213058,5.434005409383773
1776817177934345000,3.762344970703125,-1.4381018355444073,8.060709418991207,5.396964841756224
1776817177944382200,3.77238232421875,-1.4747984120398758,8.081758052238822,5.355423455578088
1776817177954418200,3.782418212890625,-1.4599147311627865,8.117222164329887,5.305634465536475
1776817177964455200,3.792455078125,-1.413026577129215,8.165971289929747,5.243153167182207
1776817177974492200,3.8024921875,-1.3639818295836448,8.21555803539753,5.178274744558334
1776817177984528100,3.812528076171875,-1.3156307633906603,8.255380342698096,5.1272003908813
1776817177994565000,3.822565185546875,-1.2669115945376455,8.296859769555926,5.0722208464592695
1776817178004602000,3.83260205078125,-1.210925576486811,8.342890868368745,5.010014857915044
1776817178014639000,3.84263916015625,-1.1471501466687768,8.397058511886,4.933949855366349
1776817178024675000,3.852675048828125,-1.0752698093935846,8.45705442316532,4.846897594857215
1776817178034712000,3.862712158203125,-0.9892535408686846,8.51699714295268,4.759465102858841
1776817178044749000,3.8727490234375,-0.8907396828856319,8.574908649173379,4.674174006803334
1776817178054785000,3.882784912109375,-0.7871949180632829,8.639089152660965,4.573494202958047
1776817178064822300,3.892822265625,-0.6562420679640024,8.705741014698146,4.46652231323123
1776817178074859300,3.902859375,-0.5352012843417003,8.77487241859138,4.34575219977647
1776817178084896000,3.91289599609375,-0.440212531744875,8.84085617210865,4.22088166526556
1776817178094932000,3.922931884765625,-0.358426886527054,8.903692859771848,4.094650071534514
1776817178104969000,3.932968994140625,-0.2882444209446199,8.963272591465712,3.968255396196246
1776817178115006200,3.943006103515625,-0.2383425816456787,9.01659618537426,3.8489679225146767
1776817178125042200,3.953042236328125,-0.19878796710427848,9.064390786728262,3.737339439153671
1776817178135079200,3.9630791015625,-0.16357227681633085,9.120546389192342,3.5998967155784367
1776817178145116200,3.9731162109375,-0.1272869388697203,9.179087425488232,3.449424999082088
1776817178155153200,3.983153076171875,-0.08088413893398828,9.233529794293641,3.30238501060009
1776817178165189000,3.993189208984375,-0.028036485124251338,9.284419439053535,3.1573926022976635
1776817178175225900,4.003225830078125,0.02469851807426894,9.332958721294998,3.0109216458752748
1776817178185263000,4.01326318359375,0.058784864122280844,9.370282197517156,2.8921850840747356
1776817178195299000,4.023299072265625,0.07506595874109771,9.384016123837233,2.8469302303314206
1776817178205336000,4.033336181640625,0.08658436900274828,9.386528398919104,2.8383053175881505
1776817178215373000,4.043373046875,0.09621678742128424,9.388782315325736,2.83052883836776
1776817178225410000,4.05341015625,0.10190588417467661,9.393071536952256,2.8160622138589617
1776817178235446000,4.063446044921875,0.10242173387547954,9.397280094558,2.801971144664287
1776817178245483300,4.073483154296875,0.10029163564476185,9.401119234329462,2.789137089793384
1776817178255520000,4.08352001953125,0.10084408189575188,9.405463401013613,2.774433733919263
1776817178265557000,4.093556884765625,0.10002903918582014,9.408625079914927,2.7637197399422524
1776817178275593000,4.103593017578125,0.09377825342905707,9.414804645332694,2.742817529428005
1776817178285630000,4.1136298828125,0.08528244695817119,9.41797976823747,2.7321739703387022
1776817178295667200,4.123667236328125,0.07587552612489089,9.420606609609722,2.7233772081598637
1776817178305703200,4.133703125,0.06441206548744813,9.422299969524145,2.7178090526387093
1776817178315740200,4.143740234375,0.05469571794539224,9.42324280333221,2.714753464460373
1776817178325777200,4.153777099609375,0.0479115513977129,9.423824402612448,2.712863705191016
1776817178335814000,4.16381396484375,0.043081866218941285,9.424019048401712,2.712264862515032
1776817178345850000,4.17385009765625,0.039887723519862625,9.42329833291173,2.7148171773463488
1776817178355887000,4.18388720703125,0.03724631019956432,9.42214214861393,2.718864991432428
1776817178365924000,4.193924072265625,0.03232901295271003,9.420706562852859,2.7239003552511334
1776817178375961000,4.203961181640625,0.025013892749929798,9.418834339240194,2.7304426165014504
1776817178385997000,4.2139970703125,0.01958891769228503,9.417506305506825,2.7350696917802093
1776817178396034000,4.224033935546875,0.01858451843120274,9.416778575754165,2.7375758293822408
1776817178406071300,4.2340712890625,0.020189961458509785,9.416703172430395,2.737823082141578
1776817178416107300,4.244107177734375,0.0215116339497501,9.417074928352235,2.7365333345919844
1776817178426144000,4.25414404296875,0.021967990281968375,9.417675816854834,2.734463834841549
1776817178436181000,4.264180908203125,0.02144997145696543,9.4183918561697,2.732000367337465
1776817178446218000,4.274218017578125,0.020148686449916565,9.418990406584738,2.729941096720099
1776817178456254000,4.28425390625,0.018351248531445163,9.419072824171185,2.7296739702165125
1776817178466291200,4.294291259765625,0.008904092156721163,9.417845328202842,2.7339555930584667
1776817178476328200,4.304328125,-0.016535633352177684,9.414417107319832,2.745696884256601
1776817178486364200,4.3143642578125,-0.04035731835956685,9.41072702063024,2.7580717971831556
1776817178496401200,4.324401123046875,-0.054440327545371835,9.408869410064815,2.7641654378831384
1776817178506438100,4.334438232421875,-0.0637470028745709,9.40507703204453,2.7768443021923304
1776817178516475100,4.34447509765625,-0.08060200665751471,9.401734151357411,2.7877041343808173
1776817178526511000,4.354510986328125,-0.10296617948310449,9.401371163263917,2.78819308694154
1776817178536548000,4.364548095703125,-0.14006883429512382,9.404046519953011,2.7775375451534985
1776817178546585000,4.374585205078125,-0.1851013870572671,9.413048157054185,2.7442054766550656
1776817178556621000,4.38462109375,-0.21593345543351022,9.43379517700672,2.669696179115772
1776817178566658000,4.394657958984375,-0.20943819339638575,9.46986719186306,2.5393235400572416
1776817178576695300,4.4046953125,-0.15719771854942663,9.51095265096724,2.384837619483471
1776817178586732000,4.41473193359375,-0.06850402010935358,9.54644189749956,2.243017995998263
1776817178596768300,4.424768310546875,0.007494248191683437,9.575598433879017,2.1161812759809195
1776817178606805000,4.434804931640625,0.03160207778449403,9.598520459783076,2.009425367092341
1776817178616842000,4.444842041015625,0.02693645374376792,9.611901334881782,1.9444787015378473
1776817178626879000,4.45487890625,0.019155086002417374,9.614723406565188,1.9305818397410213
1776817178636915200,4.464915283203125,0.023232655905943828,9.613343934905528,1.9373893277987837
1776817178646952200,4.4749521484375,0.03376940046977252,9.610977205774187,1.9489410877741873
1776817178656989200,4.4849892578125,0.03891464983716141,9.607401685374974,1.9663966649658977
1776817178667025200,4.495025146484375,0.035951260853768326,9.603653731018305,1.9846761257611214
1776817178677062100,4.505062255859375,0.028405259071139152,9.600017420342564,2.002311589564383
1776817178687099000,4.515098876953125,0.020071598059136886,9.596638883820175,2.018535286873579
1776817178697136000,4.52513623046875,0.012711227642255834,9.594114333778618,2.03056299379766
1776817178707172000,4.535172119140625,0.00769896956285811,9.59278746908903,2.0368514264173805
1776817178717209000,4.545208984375,0.005924896536953747,9.592240356600284,2.0394358899526295
1776817178727246000,4.55524609375,0.00682098514768586,9.592010054975747,2.0405084876202046
1776817178737283000,4.565282958984375,0.008128194717911538,9.591981413403152,2.040643512176722
1776817178747319000,4.575319091796875,0.008086157090915367,9.59207844403684,2.040181593753397
1776817178757356300,4.585356201171875,0.005718262340727961,9.591656419232487,2.04217189078778
1776817178767393000,4.59539306640625,-0.00867052999601874,9.591676292976736,2.042071645283699
1776817178777429000,4.605428955078125,-0.042167057495540936,9.593701076802612,2.0321181142851708
1776817178787466000,4.615466064453125,-0.06700511875452939,9.596917116239666,2.0162052364908156
1776817178797503000,4.6255029296875,-0.0720414963533869,9.602263737964629,1.990411746803671
1776817178807540200,4.635540283203125,-0.06774109117914923,9.60446154026985,1.9799308309301733
1776817178817576200,4.645576171875,-0.05568566056450363,9.606025136324762,1.9727059942431746
1776817178827613200,4.65561328125,-0.02950486119335983,9.605147768968344,1.9775309301815926
1776817178837650000,4.66564990234375,0.003958047164350865,9.604011458414792,1.9832580756567417
1776817178847686000,4.675685791015625,0.018212454265396808,9.605461072701216,1.9761479513905942
1776817178857723000,4.685722900390625,0.018779672252188902,9.605762101474404,1.9746768559247254
1776817178867759900,4.695759765625,0.01539939358057454,9.605476270270348,1.9761044045098124
1776817178877796900,4.705796875,0.007465656851438689,9.604942601785064,1.9787445437550544
1776817178887832800,4.715832763671875,-0.004390091039219987,9.604309564578532,1.981819567286223
1776817178897872000,4.725871826171875,-0.018342819771461655,9.603522798115014,1.9855507166385649
1776817178907908900,4.735908935546875,-0.03131181015062611,9.603115386357903,1.9873545511901378
1776817178917944800,4.74594482421875,-0.04178092598847579,9.603016017636657,1.9876387749589979
1776817178927981800,4.75598193359375,-0.052066474553500296,9.602693946075439,1.988953072427958
1776817178938018800,4.766018798828125,-0.0659985218281392,9.60194751162231,1.9921493842512368
1776817178948054800,4.7760546875,-0.08495444797966628,9.60118237246871,1.9951142254061995
1776817178958092000,4.786092041015625,-0.10310474770357832,9.607202363410591,1.965055187229067
1776817178968129000,4.79612890625,-0.1112668469743803,9.618832010927795,1.906852735237777
1776817178978165800,4.806165771484375,-0.10885023255301639,9.63359644933939,1.8309405851632357
1776817178988202000,4.816201904296875,-0.09191020366800949,9.649536361271142,1.7459623544491827
1776817178998238700,4.82623876953125,-0.07220776999811641,9.664720486399531,1.660822357302159
1776817179008276000,4.83627587890625,-0.06729649834996089,9.679385556089878,1.5733264446787536
1776817179018313000,4.84631298828125,-0.0827249901608564,9.69510218065977,1.47260397073552
1776817179028349000,4.856348876953125,-0.11073061207267455,9.710482705143093,1.3655216063715516
1776817179038386000,4.866385986328125,-0.1423095532934647,9.72606196706891,1.2465366227678953
1776817179048423000,4.8764228515625,-0.167550971188955,9.741463534340262,1.1163377328410744
1776817179058459000,4.886458984375,-0.17255962966382501,9.756497437343,0.9753875856667756
1776817179068496000,4.896495849609375,-0.15648701299680395,9.770683783605694,0.824388995752111
1776817179078532900,4.906532958984375,-0.12397407886153086,9.782752407062054,0.6728622903101146
1776817179088569900,4.91656982421875,-0.07726063294089398,9.792465991824864,0.5215459031505509
1776817179098605800,4.926605712890625,-0.025210499884129964,9.799532276949286,0.37270054574701933
1776817179108642800,4.936642822265625,0.027298183745227286,9.803671860972047,0.24010383743084965
1776817179118680000,4.94668017578125,0.08329887192551977,9.805532978668808,0.12229634577450342
1776817179128717000,4.956717041015625,0.142786714951694,9.805590846335887,0.019075846753746736
1776817179138753000,4.9667529296875,0.18739665838759392,9.804571440160274,-0.07493426321940497
1776817179148789800,4.976789794921875,0.21693976466553286,9.802646609577536,-0.17732118150983003
1776817179158826800,4.98682666015625,0.23981099196411668,9.799681330031156,-0.28132004677522926
1776817179168863700,4.99686376953125,0.2668389370833523,9.796058463358879,-0.369377502271533
1776817179178899700,5.006899658203125,0.3072633201966062,9.792119370344281,-0.43630412612948566
1776817179188937000,5.01693701171875,0.3740524718126282,9.788143452450633,-0.4719066968431696
1776817179198974000,5.026973876953125,0.48872678914293644,9.783973473289608,-0.45316791144050655
1776817179209010000,5.037010009765625,0.5939336784912272,9.7797742680341,-0.416705983951129
1776817179219047000,5.047046875,0.6313282106555997,9.7781136413455,-0.4003454719871282
1776817179229084000,5.057083984375,0.6492226176559924,9.776988436707853,-0.3992501510310918
1776817179239121000,5.067120849609375,0.716269105033949,9.773662507155537,-0.3644750441174954
1776817179249156900,5.077156982421875,0.8164048651304096,9.768031807792186,-0.29905160963041705
1776817179259193900,5.08719384765625,0.9241558494709432,9.76054700499475,-0.21919720646981147
1776817179269230800,5.09723095703125,1.023079091972485,9.752038119846581,-0.14650404584123752
1776817179279267800,5.107267822265625,1.1172503907065838,9.742355514743924,-0.09278058416121639
1776817179289303800,5.1173037109375,1.2088937783982605,9.731685067647694,-0.057293520452827214
1776817179299341000,5.127341064453125,1.2790377934001385,9.722819039624929,-0.03551845892707351
1776817179309377800,5.137377685546875,1.3251105393975973,9.716676883608102,-0.0258348605938605
1776817179319414800,5.147414794921875,1.3458568286977708,9.713825585830211,-0.024818799436092377
1776817179329450800,5.15745068359375,1.3618467172510922,9.711583944383262,-0.030228734471520875
1776817179339487700,5.16748779296875,1.3788525048486888,9.70920260220468,-0.023578332105034495
1776817179349525000,5.17752490234375,1.3979751384697854,9.706487498027085,-0.012850036749680292
1776817179359561000,5.18756103515625,1.4150154128588734,9.704025491827727,-0.002027107500173588
1776817179369598000,5.197597900390625,1.4207747070379555,9.703183780306578,0.0017555347200934191
1776817179379635000,5.207635009765625,1.4056542947955428,9.705373983827233,-0.015397514434030745
1776817179389671700,5.217671630859375,1.374568982310593,9.709715227901935,-0.04880002923661377
1776817179399708000,5.2277080078125,1.3454508782453833,9.713650229263305,-0.07169371039560064
1776817179409745000,5.237744873046875,1.3204033846199512,9.71694459463358,-0.08887291833134367
1776817179419782000,5.247781982421875,1.2874188143849372,9.72104267760217,-0.1194720638677012
1776817179429819000,5.25781884765625,1.2557016337372362,9.724802906918525,-0.14768956583137624
1776817179439854800,5.267854736328125,1.2316731078960002,9.727539638406038,-0.16832184596359728
1776817179449891800,5.277891845703125,1.2106402567394077,9.729947284069656,-0.1813099588850513
1776817179459929000,5.28792919921875,1.1862734388545155,9.732778708103298,-0.19017960363700984
1776817179469965800,5.2979658203125,1.1522028269484639,9.736685652413964,-0.19948579490901902
1776817179480002000,5.308001953125,1.1088899741183966,9.741524909138679,-0.20843100738152862
1776817179490038800,5.318038818359375,1.0592418538521975,9.746849903553723,-0.21748638396393508
1776817179500075800,5.32807568359375,1.011993269008398,9.75163187713325,-0.2279262737073004
1776817179510111700,5.33811181640625,0.9795563227187841,9.754738610976935,-0.23654017186621204
1776817179520149000,5.34814892578125,0.9599484628640115,9.756544199094176,-0.24229984963778406
1776817179530186000,5.35818603515625,0.9485790737181902,9.757423904538154,-0.2515438441274688
1776817179540223000,5.368222900390625,0.9436674824096262,9.757456637763976,-0.26815778286326675
1776817179550259000,5.378259033203125,0.9388675347819924,9.75713398168087,-0.2953580158094875
1776817179560296000,5.3882958984375,0.9210331143405288,9.758090259492397,-0.31899050980415194
1776817179570332700,5.398332763671875,0.8979881927091627,9.759984694936872,-0.3266107390169054
1776817179580370000,5.408369873046875,0.8766177801612764,9.761734753474592,-0.3323084757344797
1776817179590406000,5.418406005859375,0.8558647688593715,9.763335758930443,-0.33934871310219167
1776817179600443000,5.42844287109375,0.8403745734564959,9.764428230342268,-0.34653961098697034
1776817179610479900,5.43847998046875,0.8297795296840369,9.765092247208953,-0.35330932431761175
1776817179620515800,5.448515869140625,0.8170380484674126,9.765891873154043,-0.3608085574992001
1776817179630552800,5.458552734375,0.8054781051855534,9.76660674342513,-0.36739582693502304
1776817179640590000,5.468590087890625,0.7972435799993575,9.767080206155777,-0.37270339529123153
1776817179650626800,5.478626708984375,0.7883817166950553,9.767658298304676,-0.3764229272710159
1776817179660662800,5.488662841796875,0.777364794248715,9.768408239889144,-0.37981545578613873
1776817179670699800,5.49869970703125,0.7664937100138515,9.769135385119915,-0.38322643327340483
1776817179680736800,5.50873681640625,0.7554048913750797,9.769868960091472,-0.38653884575702246
1776817179690774000,5.51877392578125,0.7412190565690397,9.770758017885685,-0.39152700943313534
1776817179700810000,5.52881005859375,0.7274780429210513,9.771576348531246,-0.3967950494965538
1776817179710847000,5.538846923828125,0.7191845540892332,9.772022338733077,-0.4009467623485252
1776817179720884000,5.548884033203125,0.7104129263516515,9.772488202679156,-0.4051673757182434
1776817179730920700,5.558920654296875,0.6993359442811459,9.773107211360335,-0.40947124692462383
1776817179740956700,5.568956787109375,0.6874777487050742,9.77378525675237,-0.41335524875111873
1776817179750994000,5.578993896484375,0.6735956460859626,9.774632228970527,-0.4162213422393426
1776817179761031000,5.589031005859375,0.6560027062501758,9.77576620143652,-0.4176672667313367
1776817179771067000,5.59906689453125,0.6339598743334413,9.77721932285428,-0.417686081029661
1776817179781103900,5.609103759765625,0.6069027579186483,9.7790091288805,-0.4160153713384643
1776817179791140900,5.619140869140625,0.5750105494976043,9.781101717245578,-0.41208716504406184
1776817179801177900,5.629177734375,0.5384896218299865,9.783456171417235,-0.40545032084546984
1776817179811214000,5.639214111328125,0.4969266814071685,9.786015208250284,-0.39665838097222145
1776817179821250800,5.649250732421875,0.4492115384975448,9.788759538522362,-0.3857436037261039
1776817179831288300,5.659288330078125,0.3939506929161027,9.791622526738047,-0.37327239081822333
1776817179841325300,5.6693251953125,0.3307106486164033,9.794480254256724,-0.35939003247078505
1776817179851361300,5.679361328125,0.2590846696947701,9.797224584528804,-0.34302992236558344
1776817179861398500,5.6893984375,0.18014423957392572,9.799670808637142,-0.32305374065507203
1776817179871435500,5.699435546875,0.09580952179464511,9.80163246409893,-0.2986871054332703
1776817179881472300,5.70947216796875,0.006690510043766699,9.802925426518916,-0.27020912590250373
1776817179891508200,5.71950830078125,-0.0878539048813749,9.803357388195394,-0.23836685757040976
1776817179901545200,5.729545166015625,-0.18814884672807528,9.802736625948548,-0.20333079816568642
1776817179911582200,5.739582275390625,-0.2919760634873062,9.800898889127373,-0.16590609005875884
1776817179921619500,5.749619384765625,-0.39611481214743105,9.797833656337856,-0.12620987508958204
1776817179931655400,5.759655517578125,-0.4978156661361456,9.79365023317337,-0.0836599055239465
1776817179941692400,5.7696923828125,-0.5967710208090022,9.788397134950756,-0.03916611754731275
1776817179951729400,5.7797294921875,-0.6950062445137649,9.781986098864675,0.009849941618245792
1776817179961765400,5.789765380859375,-0.7921111855469644,9.774392574995755,0.06482233592192642
1776817179971802000,5.799802001953125,-0.8863519693206995,9.765679107186198,0.12758046018988825
1776817179981839400,5.80983935546875,-0.9848219150967895,9.755149529865383,0.19384925032677128
1776817179991876400,5.81987646484375,-1.08811906183362,9.742787476420402,0.2539486767794937
1776817180001912300,5.829912353515625,-1.1866270015325397,9.730010996955633,0.2986740998212248
1776817180011949300,5.83994921875,-1.2698629916891455,9.718538585826755,0.32838596852850166
1776817180021986300,5.849986328125,-1.3357261875666677,9.709135382187366,0.3448105952372774
1776817180032023600,5.8600234375,-1.3870039548613131,9.702011813917755,0.34286567171458154
1776817180042059500,5.8700595703125,-1.4217825689062475,9.6975092418015,0.32743875080626456
1776817180052096300,5.88009619140625,-1.4347665536418557,9.69627765417993,0.30661249160505827
1776817180062133200,5.89013330078125,-1.4240173422209919,9.698548521721362,0.2840736015333794
1776817180072169200,5.900169189453125,-1.3889958593308924,9.704283850502968,0.26067586614266036
1776817180082206200,5.910206298828125,-1.3303376263961195,9.713084996595978,0.2377946106404066
1776817180092243500,5.920243408203125,-1.250895694760233,9.724117847263813,0.2171880403381772
1776817180102280400,5.930280517578125,-1.1547010735049843,9.73641268069148,0.1983168789938092
1776817180112316400,5.94031640625,-1.0461771320305764,9.74905881177485,0.17819807394221424
1776817180122353400,5.950353515625,-0.9302614728696644,9.761205761164426,0.15447980136023834
1776817180132390100,5.96039013671875,-0.8162526702433824,9.771800220414995,0.12659559560469352
1776817180142427400,5.970427490234375,-0.7077491870351136,9.780623578339815,0.09427308774129486
1776817180152463400,5.98046337890625,-0.6017832960130647,9.787996737456321,0.05798037933898158
1776817180162500400,5.990500244140625,-0.49622781242281194,9.794066412758827,0.020288798173505346
1776817180172537300,6.000537353515625,-0.39343971118666227,9.79874317239821,-0.015049008098681224
1776817180182574300,6.01057421875,-0.2975931179177947,9.802029938983917,-0.045186227220203726
1776817180192610300,6.0206103515625,-0.2116902649058029,9.804121942827106,-0.06924358186370227
1776817180202647600,6.0306474609375,-0.1386275494456291,9.80526877477467,-0.0887414009061642
1776817180212684300,6.040684326171875,-0.07839871532642283,9.805779646906256,-0.1046121200592257
1776817180222720500,6.050720458984375,-0.026785334285686257,9.80590298102498,-0.11817499152817763
1776817180232757200,6.06075732421875,0.019308096023485995,9.805739899417757,-0.1323093701416161
1776817180242794200,6.070794189453125,0.06252145683472045,9.805334241226316,-0.14796359699978492
1776817180252831500,6.08083154296875,0.10942893662326969,9.804621124520898,-0.1667948555920273
1776817180262867500,6.090867431640625,0.167916607897263,9.80335037393272,-0.1910677846483886
1776817180272904400,6.100904541015625,0.23962829234097152,9.80122388329804,-0.2212366398755461
1776817180282941400,6.11094140625,0.3160853629471734,9.798263864448666,-0.2539334974766709
1776817180292978200,6.120978271484375,0.38507458189073945,9.794989957344532,-0.28331182338064537
1776817180303014400,6.131014404296875,0.44540385331027205,9.791706113368273,-0.3073745620187372
1776817180313051100,6.141051025390625,0.502650137087889,9.788388367122412,-0.3242958862032741
1776817180323088400,6.15108837890625,0.5599789480498061,9.785044901913404,-0.33125951467081904
1776817180333125400,6.16112548828125,0.619767025264725,9.781529587268828,-0.3285734173920005
1776817180343161300,6.171161376953125,0.6820727478563785,9.777651869052647,-0.32046434521637857
1776817180353198300,6.1811982421875,0.7447256764505058,9.773366739079355,-0.31157734747081994
1776817180363235300,6.1912353515625,0.8031613526757806,9.76895769046545,-0.30459972701054067
1776817180373271300,6.201271240234375,0.8508574620913714,9.765049577111006,-0.3004182583411224
1776817180383308300,6.211308349609375,0.8827451039351523,9.762254393434525,-0.29926806539269163
1776817180393345300,6.22134521484375,0.8988469284303486,9.760758017396926,-0.30009573012217877
1776817180403382300,6.23138232421875,0.9055459876775741,9.760125564712286,-0.3005016075093299
1776817180413418200,6.241418212890625,0.9095792617816477,9.759732181480526,-0.3011751045904122
1776817180423455200,6.251455322265625,0.9137699914697557,9.759329445898532,-0.30152075795661654
1776817180433492500,6.261492431640625,0.9176263015717268,9.759009712424874,-0.3001333039199002
1776817180443529500,6.271529541015625,0.9211701847236603,9.758787594106792,-0.2964881706168875
1776817180453565400,6.2815654296875,0.9254540725879371,9.758522221168874,-0.291832508564461
1776817180463602400,6.2916025390625,0.9315380686767398,9.758080907142162,-0.28716853534141557
1776817180473639200,6.30163916015625,0.9401584513753652,9.75737538922131,-0.28305246005840595
1776817180483676400,6.311676513671875,0.9509884729474782,9.756417357844114,-0.2798519287177361
1776817180493712400,6.32171240234375,0.9633725190285592,9.755296244859695,-0.27652126819137485
1776817180503749400,6.331749267578125,0.9767259215984493,9.754086284548043,-0.27235541721619666
1776817180513786400,6.341786376953125,0.9919357656899839,9.752704474800824,-0.2668861189596355
1776817180523822300,6.351822265625,1.0091890983078629,9.751106391954421,-0.26048783275727183
1776817180533859300,6.361859375,1.028833856106922,9.749216048163175,-0.25437654680274424
1776817180543896300,6.371896240234375,1.050736768096313,9.747009478029607,-0.24925872886497527
1776817180553933300,6.381933349609375,1.074392003645748,9.74454338017702,-0.24479645222648977
1776817180563969300,6.39196923828125,1.0980242967110128,9.742022337266802,-0.2402374554815702
1776817180574006300,6.40200634765625,1.1204979212604462,9.739594817858935,-0.23481559482961892
1776817180584043300,6.412043212890625,1.1430264908675103,9.737125797396898,-0.22859403516734017
1776817180594080500,6.42208056640625,1.1658732595782726,9.734558577257394,-0.22243410603180527
1776817180604116500,6.432116455078125,1.1884185611244291,9.73195628580451,-0.21694122597025706
1776817180614153500,6.442153564453125,1.2102281688071788,9.729376790705322,-0.2120828626862727
1776817180624190200,6.452190185546875,1.2324474532693623,9.726690912622212,-0.20726081282468511
1776817180634227200,6.462227294921875,1.2541587882094085,9.724001527407765,-0.20313543999036773
1776817180644263200,6.47226318359375,1.2749812114857138,9.721346628984808,-0.20058217531098052
1776817180654300400,6.482300537109375,1.2946088720194995,9.71880571233034,-0.1979215777995996
1776817180664337400,6.49233740234375,1.3126610999301076,9.71647463903427,-0.1934727086319588
1776817180674374400,6.50237451171875,1.3298285078302026,9.71427508316338,-0.18657889399761332
1776817180684410400,6.512410400390625,1.3459024214051662,9.712231594637036,-0.1775189508379437
1776817180694447400,6.522447265625,1.3598464833445847,9.710456401658057,-0.1680106976551935
1776817180704484400,6.532484375,1.3680559471547602,9.709467975142598,-0.15821319746859372
1776817180714520600,6.5425205078125,1.3680591620251537,9.709619950833916,-0.14870454242704434
1776817180724557300,6.552557373046875,1.3613073496773838,9.710697809198498,-0.1398472000342328
1776817180734594300,6.56259423828125,1.34923843396008,9.712508658012748,-0.13086294332612305
1776817180744631300,6.57263134765625,1.3337678931057453,9.714764912506938,-0.1216010113209486
1776817180754667300,6.582667236328125,1.3145920679926872,9.717474171465634,-0.11362265285290778
1776817180764704300,6.592704345703125,1.2917029214449227,9.720608377838134,-0.10786250015730038
1776817180774741500,6.602741455078125,1.2646806206151842,9.724236505207418,-0.10090539276208728
1776817180784778200,6.6127783203125,1.2303271001145244,9.728744338020682,-0.09050235529723577
1776817180794814500,6.622814453125,1.1871879964161665,9.734233583086729,-0.07510071496064774
1776817180804851200,6.632851318359375,1.137439265319705,9.740322547611594,-0.052529201261000705
1776817180814888200,6.64288818359375,1.0831414926167577,9.746627785235642,-0.02161877726878738
1776817180824925400,6.652925537109375,1.0255709818534553,9.752859957623482,0.017647738762944936
1776817180834960400,6.66296044921875,0.9657804569531232,9.758763044187425,0.06499706686774734
1776817180844997400,6.672997314453125,0.9051356533110141,9.764059981551766,0.11945747821992263
1776817180855034400,6.683034423828125,0.8448357175838201,9.768582427412271,0.1774052430640906
1776817180865070300,6.6930703125,0.7816007513180374,9.772641347414254,0.23445963926510885
1776817180875107300,6.703107421875,0.7117506046961992,9.776568749991059,0.28720344225801525
1776817180885144300,6.713144287109375,0.6415554440289736,9.779987034001946,0.33261600731369106
1776817180895181300,6.723181396484375,0.5825561060389504,9.782331551301478,0.3701344581186771
1776817180905217500,6.733217529296875,0.539728771703504,9.783552033007144,0.4015067708514631
1776817180915254300,6.743254150390625,0.5113147973196581,9.784034263566136,0.4261861252842471
1776817180925291300,6.753291259765625,0.49443870051633565,9.78415876672864,0.4429272705962881
1776817180935328300,6.763328369140625,0.4839940980652347,9.784260473537444,0.45206747591793534
1776817180945364200,6.7733642578125,0.4755865909323096,9.784467394286393,0.4564943159168586
1776817180955401500,6.7834013671875,0.46829343824945385,9.784671976947784,0.4596525242194533
1776817180965438500,6.7934384765625,0.4641891812684014,9.78469594234526,0.46329500890765335
1776817180975475200,6.80347509765625,0.4658186456337571,9.784400174269079,0.46788478438332676
1776817180985511400,6.813511474609375,0.471036599477753,9.78395359954536,0.47198915096223354
1776817180995548200,6.823548095703125,0.47684941394235936,9.783598210236429,0.4735085790818557
1776817181005585400,6.83358544921875,0.4832325025755912,9.783366739568114,0.47178628533389416
1776817181015621400,6.843621337890625,0.4908069564178586,9.783138191509247,0.46871714355424043
1776817181025658400,6.853658447265625,0.5032987006571144,9.782659468081594,0.4654566804535687
1776817181035695400,6.8636953125,0.523508873786591,9.78175170558691,0.46223585524354127
1776817181045732400,6.873732421875,0.5518464219333604,9.780312028172611,0.45971850212775167
1776817181055768300,6.883768310546875,0.5861819318532944,9.778361478626728,0.45870910588949915
1776817181065805300,6.893805419921875,0.6229379834510386,9.776039173159003,0.45981202563010154
1776817181075842300,6.90384228515625,0.6611568010777235,9.773355633163451,0.46347175371404736
1776817181085879300,6.91387939453125,0.6991167485725134,9.770423671364783,0.4695352184714749
1776817181095915300,6.923915283203125,0.7335757022090256,9.76750223096013,0.4776771334707737
1776817181105952300,6.9339521484375,0.7610849828381091,9.76494670125842,0.48676918880175796
1776817181115989500,6.943989501953125,0.7788503566313535,9.763131760790943,0.4950023257484659
1776817181126025500,6.954025390625,0.7851748104125261,9.762389417991042,0.4996438679439947
1776817181136062500,6.9640625,0.7804973931860179,9.76284008436799,0.49816718298755586
1776817181146099500,6.974099365234375,0.7672995465040207,9.7643697781533,0.48858248530142007
1776817181156136200,6.98413623046875,0.7517325595378875,9.76651146635711,0.4696282670497894
1776817181166172200,6.994172119140625,0.736690838554874,9.768915604889392,0.4426613862017169
1776817181176209400,7.00420947265625,0.7224136722035706,9.771376442044973,0.4107292476290837
1776817181186246400,7.014246337890625,0.7094524838216603,9.773661922633647,0.3775872948752716
1776817181196283400,7.024283447265625,0.695372593608126,9.775949156787991,0.3430292647784576
1776817181206319400,7.0343193359375,0.6810122059527784,9.778104288995266,0.30872389426846053
1776817181216356400,7.0443564453125,0.6662324238415807,9.780141932302714,0.27454346531238405
1776817181226393300,7.054393310546875,0.6460310550730675,9.782392926099895,0.2404905899924226
1776817181236430300,7.064430419921875,0.6219131704479456,9.784736858877539,0.2062431419484317
1776817181246466300,7.07446630859375,0.5976647182457149,9.786930569529533,0.17079470235053448
1776817181256503300,7.08450341796875,0.5704017039952799,9.789122526615857,0.13454326667352579
1776817181266540300,7.094540283203125,0.5369743218962103,9.791433726167678,0.09921532078329473
1776817181276576300,7.104576171875,0.5049159265954047,9.7934047339797,0.06833718934219796
1776817181286613200,7.11461328125,0.4721598678866401,9.795192786440253,0.041031221866025584
1776817181296650500,7.124650390625,0.43865540196336805,9.796824187034368,0.014279137971036833
1776817181306687200,7.134687255859375,0.4071672442985698,9.798187876603007,-0.01187987540162867
1776817181316723500,7.144723388671875,0.37513076856862754,9.79941361900568,-0.03434459284211043
1776817181326760200,7.15476025390625,0.342220871005021,9.80055226764679,-0.049695996262226254
1776817181336797200,7.164797119140625,0.3100777200302109,9.8015944701761,-0.05476017975003924
1776817181346834400,7.17483447265625,0.28269149952521544,9.802466576835512,-0.04584686481971294
1776817181356870400,7.184870361328125,0.25922590479636565,9.803200151807069,-0.02105385969529161
1776817181366907400,7.194907470703125,0.22732385083474219,9.803988087314366,0.02274741368924733
1776817181376944400,7.2049443359375,0.17732613167958333,9.804677238622308,0.08493911341321654
1776817181386981400,7.2149814453125,0.11404129839008674,9.804759071686863,0.15520212428541852
1776817181397017300,7.225017333984375,0.05443832738453056,9.803972889745236,0.22259181734416633
1776817181407054300,7.235054443359375,0.0054913782284507755,9.80271382959485,0.2777786295750178
1776817181417091300,7.24509130859375,-0.036003271885507275,9.801592132088542,0.3128705290865153
1776817181427127300,7.255127197265625,-0.07664071094426327,9.8009766305387,0.32457170746997
1776817181437164300,7.265164306640625,-0.115275708156405,9.800730546823143,0.3205638235354796
1776817181447201300,7.275201171875,-0.14617527054459786,9.800605459138751,0.31165289692506193
1776817181457238500,7.285238525390625,-0.16909226408051325,9.800608966270088,0.2997622603841126
1776817181467274500,7.2952744140625,-0.1828408399804495,9.800788414490222,0.28549789871545506
1776817181477311500,7.3053115234375,-0.18636545217633246,9.801133866927026,0.2709964403552934
1776817181487348200,7.31534814453125,-0.18253979294095188,9.801545954859256,0.25843996031675487
1776817181497385200,7.32538525390625,-0.1750061642994173,9.801899006080626,0.2500573866956867
1776817181507421200,7.335421142578125,-0.16853795466599986,9.80206150316596,0.24814057502262293
1776817181517458400,7.34545849609375,-0.1619599097162485,9.802046890118717,0.2529998333557509
1776817181527495400,7.355495361328125,-0.15364406292214988,9.802028185418248,0.2588675563453697
1776817181537531400,7.365531494140625,-0.14359691708972677,9.802105926829576,0.2616541548565961
1776817181547568400,7.375568359375,-0.12985649709678254,9.802347918891906,0.25984052956337106
1776817181557605400,7.38560546875,-0.11230131372180767,9.80267466662824,0.25566191043816505
1776817181567642400,7.395642333984375,-0.09012880014395341,9.802949976438283,0.2538958871463314
1776817181577678300,7.40567822265625,-0.06641146827689372,9.80312241039574,0.25449712270880115
1776817181587715300,7.41571533203125,-0.044758539860043675,9.803245744514465,0.25448303938452155
1776817181597752300,7.42575244140625,-0.027378788400499614,9.803356803673505,0.2526719896408729
1776817181607789300,7.435789306640625,-0.015919565546757074,9.803535667371749,0.24659844188084826
1776817181617825300,7.4458251953125,-0.009793277244275669,9.803833773535489,0.2348562008346431
1776817181627862500,7.455862548828125,-0.007059917032427619,9.804021405062079,0.2269097353422083
1776817181637899500,7.4658994140625,-0.01047411738159717,9.804164028403163,0.22049999616406857
1776817181647936300,7.475936279296875,-0.01797400472537847,9.804435246559978,0.20758964292025192
1776817181657972200,7.48597216796875,-0.027637101409968452,9.804759656208754,0.19056849335674195
1776817181668009200,7.49600927734375,-0.04023775623366237,9.805117383605241,0.1685699207068421
1776817181678046200,7.506046142578125,-0.0542124462067848,9.805498491877318,0.14009324721717276
1776817181688082400,7.51608251953125,-0.07405233385229948,9.805862064492702,0.09989637098317034
1776817181698119400,7.526119384765625,-0.09644834942114539,9.80601579374969,0.055974597041099326
1776817181708156400,7.536156494140625,-0.11633986678919754,9.805951496341825,0.01335441520839813
1776817181718193400,7.546193359375,-0.14026136119253932,9.805613642689584,-0.02531650612542871
1776817181728229400,7.5562294921875,-0.16317253690902142,9.805115045517683,-0.05885171424683649
1776817181738266000,7.56626611328125,-0.18534604600071905,9.804473240482807,-0.09138387823896482
1776817181748303400,7.576303466796875,-0.20515472565721718,9.803746679773926,-0.12190563855702057
1776817181758340400,7.58634033203125,-0.22152725685257463,9.802978033488989,-0.15151138914185575
1776817181768376300,7.596376220703125,-0.23644568024948237,9.802193020591139,-0.17743430476179345
1776817181778413300,7.606413330078125,-0.24521612067697568,9.80166753541231,-0.19376953615406528
1776817181788450300,7.6164501953125,-0.24805844969712196,9.801437233787775,-0.20165877330023793
1776817181798487600,7.626487548828125,-0.25177118660993875,9.801113408660887,-0.2125723632362671
1776817181808523500,7.6365234375,-0.2541090915055945,9.800880184426903,-0.22036895366292444
1776817181818560300,7.646560302734375,-0.25531821156702933,9.80070132072866,-0.22686081816656514
1776817181828598500,7.6565986328125,-0.2549049180584028,9.800545253384113,-0.23390010568620637
1776817181838634500,7.666634521484375,-0.24952348074838518,9.800575064000487,-0.23846014361074194
1776817181848671700,7.676671630859375,-0.23920462356880307,9.800709504035115,-0.24338622010238467
1776817181858708700,7.686708740234375,-0.22627925541894509,9.800814717975259,-0.25142303075939415
1776817181868745500,7.696745361328125,-0.21442953541027382,9.800812379887699,-0.26172535692928356
1776817181878781400,7.706781494140625,-0.2060782337103039,9.800741068217159,-0.27090633265273645
1776817181888818400,7.716818359375,-0.1984751565617509,9.800695475509762,-0.27814190992945803
1776817181898855700,7.726855712890625,-0.19042614401029423,9.800746328914165,-0.28191224051471797
1776817181908892700,7.736892578125,-0.1768600120051764,9.800991243585944,-0.2822519755967893
1776817181918928600,7.7469287109375,-0.16104569921446962,9.801230313038825,-0.2833891264005564
1776817181928965600,7.756965576171875,-0.1432700414892286,9.801410930302739,-0.2867052469449118
1776817181939002600,7.767002685546875,-0.1278682367558591,9.801433726656436,-0.29314220292354
1776817181949038600,7.77703857421875,-0.11306499157068318,9.80085037381053,-0.31772333941254766
1776817181959075600,7.78707568359375,-0.09103463554303161,9.799368026298284,-0.3667257456537336
1776817181969112600,7.797112548828125,-0.06651753160040826,9.79773311857283,-0.41277887363526966
1776817181979149600,7.807149658203125,-0.06533419900077861,9.79612977502942,-0.4493992796219885
1776817181989185500,7.817185546875,-0.06745921919757966,9.794856101831794,-0.4760298046551645
1776817181999222500,7.827222412109375,-0.05942483339309692,9.793934310811757,-0.49567218783404676
1776817182009259800,7.837259765625,-0.04307009814933408,9.793550279930233,-0.5048762521721423
1776817182019296800,7.847296875,-0.02080675763300387,9.793533328795432,-0.5065987651158124
1776817182029332700,7.857332763671875,-0.0028474969585528015,9.793728559106588,-0.5032544596565887
1776817182039369500,7.867369384765625,0.011219653360650408,9.794067581802606,-0.4965055699182674
1776817182049406500,7.877406494140625,0.024461572079814503,9.79432184882462,-0.4909983508041128
1776817182059443500,7.887443359375,0.03409001529284287,9.794466810253262,-0.4875112758733332
1776817182069479700,7.897479736328125,0.04072769060849678,9.794654441779851,-0.4831917321737855
1776817182079516700,7.9075166015625,0.045309191446169274,9.794892342188954,-0.4779432735936716
1776817182089553700,7.9175537109375,0.05157348057189956,9.795051916664839,-0.4740244196495041
1776817182099589600,7.927589599609375,0.05577609706062357,9.79508581893444,-0.47284744829200204
1776817182109626600,7.937626708984375,0.05728961146268993,9.795019183439015,-0.47403563516326247
1776817182119663400,7.947663330078125,0.06503217014716937,9.79471289396882,-0.4793106894893571
1776817182129700600,7.95770068359375,0.07853871745215728,9.794202021837235,-0.4876770243616774
1776817182139736600,7.967736572265625,0.09791332567348145,9.793587689331174,-0.49639502221588044
1776817182149773600,7.977773681640625,0.11520349230356514,9.793103120684624,-0.5022212076187134
1776817182159810600,7.987810546875,0.1305719427566044,9.792785140776633,-0.5046503709943965
1776817182169847600,7.99784765625,0.14096199287571942,9.792618552038073,-0.5050873011069372
1776817182179883500,8.007883544921874,0.1471400969887618,9.79269804701507,-0.5017995116079226
1776817182189920800,8.017920654296875,0.151872952463245,9.792998491266369,-0.4944629216421395
1776817182199957500,8.02795751953125,0.15449222245039418,9.79350059556961,-0.4835799277737736
1776817182209993700,8.03799365234375,0.1539838162705302,9.794221895581483,-0.46891036457139995
1776817182220030500,8.048030517578125,0.15133806926840915,9.795016260829568,-0.45293432188034055
1776817182230067500,8.0580673828125,0.1477646494947374,9.795619487419724,-0.4409152001215145
1776817182240104700,8.068104736328126,0.14026208271174692,9.796035082483291,-0.4340621193563565
1776817182250140700,8.078140625,0.1298268874098081,9.796368259960412,-0.42974907846283167
1776817182260177700,8.088177734375,0.12024655537153593,9.796592131844163,-0.42744160523805763
1776817182270214700,8.098214599609374,0.10795016930759883,9.796697930306197,-0.4283101317008957
1776817182280251400,8.10825146484375,0.0961228163943626,9.79674352301359,-0.43008908753953873
1776817182290287600,8.11828759765625,0.09046049805004149,9.79657693427503,-0.4351028971135616
1776817182300324600,8.12832470703125,0.0916053298367653,9.796097041803598,-0.445499824498035
1776817182310361600,8.138361572265625,0.09744133338071405,9.795528302004932,-0.4566522098923102
1776817182320398600,8.148398681640625,0.10765658405534922,9.794950794377922,-0.46662254589516666
1776817182330434600,8.1584345703125,0.1212974891965743,9.794346983265877,-0.47586993791833515
1776817182340471600,8.168471435546875,0.13607052190657704,9.793848386093973,-0.48208866630271074
1776817182350508800,8.1785087890625,0.15249958732845262,9.793459679037332,-0.4850897478148341
1776817182360545500,8.188545654296876,0.1711250850823708,9.793020118576287,-0.487719840590097
1776817182370581500,8.19858154296875,0.18449140193276106,9.792913735592364,-0.4849436538750305
1776817182380618500,8.208618408203124,0.1961474807991646,9.792972187781332,-0.479189328132011
1776817182390655500,8.218655517578124,0.20719035967066882,9.793076232677697,-0.4723443576080724
1776817182400692700,8.228692626953125,0.2187584497263655,9.793166833570599,-0.4651754523593932
1776817182410728700,8.238728759765625,0.22525908205835146,9.79338836736679,-0.45740207841154185
1776817182420765700,8.248765625,0.22855868985932318,9.793671860483288,-0.4495876052683219
1776817182430802700,8.258802734375,0.2324544003899209,9.793888718104363,-0.44283287031110374
1776817182440838700,8.268838623046875,0.236770984947402,9.79404303188324,-0.437118693915382
1776817182450875600,8.278875732421875,0.2392575958650559,9.794251706197857,-0.43105420624464746
1776817182460912600,8.28891259765625,0.24063096657749264,9.794566763496398,-0.42302090271897613
1776817182470949600,8.29894970703125,0.24251676205778494,9.794969499078393,-0.4124539890624582
1776817182480985600,8.308985595703126,0.2451076188012026,9.79546049746573,-0.3990833065642044
1776817182491022600,8.319022705078124,0.24725968226855619,9.79603683604896,-0.3832841913426295
1776817182501059600,8.3290595703125,0.24803596387067808,9.796645323336124,-0.3668712550716474
1776817182511096600,8.3390966796875,0.24803088583676142,9.797282452195882,-0.34949535552002486
1776817182521132800,8.3491328125,0.24752489080969242,9.79801368907988,-0.32873427050951864
1776817182531169500,8.35916943359375,0.24620648342119528,9.798874105301499,-0.30305679015116765
1776817182541206500,8.36920654296875,0.24307907211566343,9.79984090450704,-0.272820294781588
1776817182551243500,8.379243408203125,0.23702360800160094,9.800838098850846,-0.2403954590548761
1776817182561279500,8.389279541015625,0.22808544632438568,9.801773333874344,-0.20884252905817702
1776817182571316500,8.39931640625,0.21919189097387715,9.80260277043581,-0.1770278245864436
1776817182581353700,8.409353759765626,0.21279407969554884,9.803304196703433,-0.14266446767835878
1776817182591390700,8.419390625,0.20579291396290061,9.803905669727921,-0.10708085739347152
1776817182601426700,8.4294267578125,0.19685599439470097,9.804400175246595,-0.07315620242990553
1776817182611463400,8.43946337890625,0.18718290603905915,9.804777776387333,-0.04089288197441492
1776817182621500400,8.44950048828125,0.17845533663891255,9.805019768449663,-0.011409371813049074
1776817182631537700,8.45953759765625,0.17327444513598456,9.805113291952013,0.010760172347939806
1776817182641573600,8.46957373046875,0.17516172018731013,9.805059515938161,0.023027956796833313
1776817182651610600,8.479610595703125,0.18570980127919465,9.80485902493,0.02558019171304768
1776817182661647600,8.489647705078125,0.20438993356348945,9.80450305109918,0.018454614149441474
1776817182671684600,8.4996845703125,0.23086722253002226,9.803933142256737,-0.001444342458383471
1776817182681720600,8.509720458984376,0.26850603004535656,9.802905552774668,-0.036532631805143316
1776817182691757600,8.519757568359376,0.32223318151980634,9.800969031754136,-0.08697818149277009
1776817182701794600,8.529794677734374,0.3929422099933028,9.79760335471332,-0.15145974115300923
1776817182711829800,8.539829833984374,0.47993981770575045,9.792289466214179,-0.22612775465166196
1776817182721866500,8.549866455078124,0.5796952001824974,9.784776021844149,-0.30417655142871663
1776817182731902700,8.55990283203125,0.6876755362994968,9.775153037974238,-0.3793101000798866
1776817182741939500,8.569939453125,0.7977439307369292,9.763916189166903,-0.44714722637888044
1776817182751976400,8.5799765625,0.9094839847136288,9.751541276240347,-0.5006881162999197
1776817182762012400,8.590012451171875,1.0264219726596027,9.738116561999917,-0.5347413752123713
1776817182772049700,8.600049560546875,1.1483244511451571,9.723790515005588,-0.5473768387712538
1776817182782086700,8.610086669921875,1.265640551688522,9.709806997838616,-0.5368421103512868
1776817182792123600,8.62012353515625,1.3646658663250506,9.69801251514852,-0.5065957329085097
1776817182802159600,8.63015966796875,1.4398546705611048,9.689151747822761,-0.4663879699543118
1776817182812196600,8.640196533203126,1.4943047842815518,9.68294295631051,-0.42193829511404035
1776817182822233600,8.650233642578126,1.5310286871753631,9.679125443848967,-0.3753453611673787
1776817182832270600,8.6602705078125,1.5502790388293564,9.67777928993702,-0.3280723725346848
1776817182842309400,8.670309326171875,1.555961614510417,9.678232294401527,-0.28493525986401363
1776817182852346400,8.680346435546875,1.5560774959750472,9.679168113946915,-0.2504596108210273
1776817182862383400,8.69038330078125,1.5569044483184813,9.679701197910308,-0.22318043088708073
1776817182872420600,8.700420654296876,1.562476110970974,9.679295539718865,-0.20076008916115387
1776817182882456600,8.71045654296875,1.573753876310587,9.677864630132913,-0.18056213619243353
1776817182892493600,8.72049365234375,1.589361779808998,9.675643446952105,-0.1619290944528766
1776817182902530300,8.7305302734375,1.6076675440892576,9.672887426242232,-0.14508712824801914
1776817182912567300,8.7405673828125,1.6280622434727847,9.669690676027535,-0.12996365639884025
1776817182922603300,8.750603271484374,1.6491583691239355,9.666271222972869,-0.11777213721517472
1776817182932640500,8.760640625,1.6685693181671202,9.663025957441329,-0.11043889911710283
1776817182942677500,8.770677490234375,1.6877306763634086,9.659732176592945,-0.10747401229636742
1776817182952714500,8.780714599609375,1.706586768002808,9.656404493474959,-0.1087362507845275
1776817182962750500,8.79075048828125,1.7190052278101444,9.65410966053605,-0.1163973143311683
1776817182972787500,8.800787353515625,1.7203376454576849,9.653675360772013,-0.13184037352353334
1776817182982824400,8.810824462890626,1.7103287310101092,9.655125559580325,-0.15393252447471023
1776817182992861400,8.820861328125,1.6937727330066263,9.657588150301574,-0.18029261680236086
1776817183002897400,8.8308974609375,1.6778521102972328,9.659789459738136,-0.20896969910180194
1776817183012934400,8.840934326171874,1.667929558958858,9.660813542088865,-0.23895163518842308
1776817183022971400,8.850971435546874,1.6650385136924684,9.66050900618434,-0.2694724456584081
1776817183033008600,8.861008544921875,1.667010690548271,9.659263390037417,-0.30020035954043267
1776817183043044600,8.871044677734375,1.6728090015634893,9.657266078740358,-0.33065742059182374
1776817183053081600,8.88108154296875,1.6849748017840087,9.654084526094794,-0.36044622699283063
1776817183063118300,8.891118408203125,1.7056284443646668,9.649337623828648,-0.3892533288801089
1776817183073155300,8.9011552734375,1.734214048988372,9.643099606221913,-0.4165404546584934
1776817183083191300,8.91119140625,1.768419247059524,9.635682023441792,-0.4435305702516809
1776817183093228500,8.921228515625,1.8060259241372345,9.627436173143982,-0.4702455221652984
1776817183103265500,8.931265625,1.8456852959610521,9.61860054025948,-0.4963274368723854
1776817183113302500,8.941302490234374,1.8880381446525454,9.608972295692562,-0.5228199416743591
1776817183123338500,8.95133837890625,1.933840549276024,9.598339257997274,-0.5500295087045058
1776817183133375500,8.96137548828125,1.9822997520186005,9.586759879362583,-0.5786980789039283
1776817183143412200,8.971412109375,2.0302287934072316,9.574877133867144,-0.6084837800323962
1776817183153449500,8.981449462890625,2.074313142066449,9.563509352156519,-0.6378923914767801
1776817183163485400,8.9914853515625,2.1130432702161372,9.553208907416462,-0.6645606181718409
1776817183173522400,9.0015224609375,2.145751653858274,9.544320083039999,-0.6870976633463054
1776817183183559400,9.011559326171875,2.172725293240696,9.536965628623962,-0.7042126834720372
1776817183193596400,9.021596435546876,2.1938347167648375,9.531255434283613,-0.716005047270283
1776817183203632400,9.03163232421875,2.2103511134102938,9.52689723907411,-0.7231576955039054
1776817183213669600,9.041669677734374,2.226993766783923,9.522745964613556,-0.7267785163495689
1776817183223706400,9.051706298828124,2.247023870638758,9.518061021667718,-0.7264693773351609
1776817183233743400,9.061743408203125,2.2667630287230014,9.513853048583865,-0.7202592706486582
1776817183243779300,9.071779296875,2.2770056057959795,9.512298804879189,-0.7083694378253073
1776817183253816300,9.08181640625,2.271120639410615,9.51492447720766,-0.6918193581059575
1776817183263853600,9.091853515625,2.2494414531745015,9.521675705033541,-0.6693819008484483
1776817183273890600,9.101890625,2.218035676563531,9.531214517751335,-0.6376783103346825
1776817183283926500,9.111926513671875,2.1825003989323974,9.541997193050383,-0.5977867006575688
1776817183293963500,9.121963623046875,2.148283656553924,9.552302898487449,-0.5556469101948663
1776817183304000300,9.132000244140626,2.1193175281800327,9.561053775697946,-0.5149183747695759
1776817183314037500,9.14203759765625,2.0945963438995183,9.568287818604707,-0.4805414003280922
1776817183324073500,9.152073486328124,2.0709416198067365,9.574653846505283,-0.45563141547720876
1776817183334110500,9.1621103515625,2.0450347328729928,9.580912322378158,-0.4407939483620226
1776817183344147500,9.1721474609375,2.0150247945345936,9.587487024593353,-0.43608346911612894
1776817183354184400,9.182184326171875,1.9798061816371977,9.594662615311146,-0.43956952113360165
1776817183364220400,9.192220458984375,1.941977386241406,9.602049218431114,-0.44698356024976815
1776817183374257700,9.202257568359375,1.9050887943051755,9.609095045289397,-0.45421307311188425
1776817183384294400,9.21229443359375,1.8722791422456502,9.615292730885743,-0.4594871410572901
1776817183394331400,9.222331298828125,1.8457481320641933,9.62031552748382,-0.4616979489745572
1776817183404367400,9.232367431640625,1.8269019772969186,9.62399158564806,-0.4600352033941075
1776817183414404400,9.242404296875,1.8170967687278985,9.625956748241185,-0.4576873981589451
1776817183424441600,9.252441650390624,1.8132034145511686,9.626835284641384,-0.4546744435459375
1776817183434478600,9.262478515625,1.811069032870978,9.627376551911235,-0.45169272432141006
1776817183444514600,9.2725146484375,1.8101206461049615,9.627690440165996,-0.4487903904760256
1776817183454551600,9.282551513671875,1.8107333711758256,9.627704468691348,-0.44600729909613723
1776817183464588300,9.29258837890625,1.8121026137024163,9.627575289353727,-0.44325281275622547
1776817183474625300,9.302625244140625,1.813682576370239,9.627389411392807,-0.44080425056032835
1776817183484661500,9.31266162109375,1.8143097683578728,9.627321022331714,-0.43972880334854125
1776817183494698500,9.322698486328125,1.8129506088338792,9.627556000131369,-0.44017179787568744
1776817183504735500,9.332735595703125,1.8081151515014469,9.628388359302281,-0.4418643540725112
1776817183514772500,9.3427724609375,1.799377426033467,9.629936173266172,-0.4438163283905014
1776817183524808400,9.352808349609376,1.7874829901002347,9.632070847207308,-0.44552199979722495
1776817183534845400,9.362845458984374,1.774003623063117,9.63452642366588,-0.4463040535530075
1776817183544882400,9.37288232421875,1.7599479174427688,9.637112348505854,-0.4461052065126598
1776817183554919400,9.38291943359375,1.7462438017390667,9.639659110379219,-0.44496955354623496
1776817183564955400,9.392955322265625,1.7338192044518888,9.641981415846944,-0.4431923878058791
1776817183574992400,9.402992431640625,1.7234052163347602,9.643934888002276,-0.44134376426450905
1776817183585029400,9.413029296875,1.7148852252706885,9.645523618498444,-0.4398096134997904
1776817183595066600,9.423066650390625,1.7071993469431996,9.646952189996838,-0.4383796172292903
1776817183605102600,9.4331025390625,1.6992485340692103,9.648408818545937,-0.4372419915014878
1776817183615139600,9.4431396484375,1.6913206636793912,9.649845573350786,-0.43623544480744747
1776817183625176300,9.45317626953125,1.6840758071176707,9.651164254733919,-0.4351024587221443
1776817183635213300,9.46321337890625,1.677615525062382,9.652345573472976,-0.4338533354438841
1776817183645250600,9.47325048828125,1.6715334286697208,9.653484222114086,-0.43197760469987984
1776817183655286500,9.48328662109375,1.6649863451138138,9.654729838261007,-0.4294140012895688
1776817183665323500,9.493323486328125,1.656455540394783,9.656345456764102,-0.42605654408782717
1776817183675360500,9.503360595703125,1.6455809490285813,9.658393036943673,-0.4217671397982165
1776817183685397500,9.5133974609375,1.6340828189365564,9.660583824986219,-0.4162537832042202
1776817183695433500,9.52343359375,1.621675757306069,9.662958737424015,-0.4096330133575946
1776817183705470500,9.533470458984375,1.6075624762795864,9.665639354810118,-0.40195707190223035
1776817183715507500,9.543507568359376,1.5915524217210708,9.668709848296642,-0.3916479689316824
1776817183725544400,9.55354443359375,1.5712410167068243,9.67257236894369,-0.37804344114493577
1776817183735580400,9.563580322265626,1.5462452532686293,9.677294136768579,-0.3597952157381922
1776817183745617400,9.573617431640624,1.5154130387619136,9.682985626408458,-0.3371725381068885
1776817183755654700,9.583654541015624,1.4795510133944452,9.689427057632804,-0.31032380374576896
1776817183765691400,9.59369140625,1.4370584639713166,9.696799632227421,-0.27808590542590245
1776817183775727600,9.6037275390625,1.3853136636868117,9.705368723130226,-0.23896802006764337
1776817183785764400,9.613764404296875,1.3224557871051132,9.715196289661526,-0.19094567437237128
1776817183795801300,9.62380126953125,1.243552492390573,9.72654770475924,-0.13512479288852772
1776817183805838600,9.633838623046875,1.1442564710538834,9.739408939898013,-0.07057324129857588
1776817183815874600,9.64387451171875,1.0259214027263224,9.752835407704115,0.006563397082357551
1776817183825911600,9.65391162109375,0.8891709722641855,9.76572937606871,0.10145600324901752
1776817183835944200,9.663944091796875,0.7306891869872808,9.777041043677926,0.2143871393069625
1776817183845981200,9.673981201171875,0.552039314156957,9.785065360179543,0.34374545022379605
1776817183856017200,9.68401708984375,0.3567913577470928,9.788113641834258,0.48572201783638447
1776817183866054100,9.69405419921875,0.14264630183400587,9.78514836228788,0.6331882323738187
1776817183876091000,9.7040908203125,-0.09938074047807603,9.775143685624004,0.7791566461015492
1776817183886128000,9.714128173828126,-0.3737617087051272,9.756018129393457,0.9224038181718438
1776817183896165000,9.7241650390625,-0.6711486913252621,9.725978964960575,1.0607955130349844
1776817183906201000,9.734201171875,-0.9910255920425057,9.684222474727035,1.1849518348619341
1776817183916238000,9.744238037109374,-1.3320762867569922,9.631213353595138,1.2789461695939301
1776817183926275000,9.754275146484375,-1.6738259235210715,9.570484451866148,1.3321106274180115
1776817183936312300,9.764312255859375,-1.9976754541963337,9.505126136770844,1.3536089041292667
1776817183946348300,9.774348388671875,-2.2913334063559767,9.43663361530304,1.3675310464978216
1776817183956385000,9.784385009765625,-2.551701375593245,9.36766470849514,1.3805954029932617
1776817183966422000,9.794422119140625,-2.782298183684051,9.301780323699116,1.3806161535203456
1776817183976459000,9.804458984375,-2.995416033707559,9.237610926127433,1.3654377274803817
1776817183986495000,9.814494873046876,-3.195396754260361,9.173318194437027,1.3453823430538177
1776817183996532200,9.8245322265625,-3.380278397619724,9.108908558368682,1.3311249773815272
1776817184006569200,9.8345693359375,-3.549828616334498,9.044683046695589,1.3277084469363092
1776817184016606200,9.844606201171874,-3.707756786316633,8.980159428858757,1.334042618393898
1776817184026642200,9.85464208984375,-3.8561251007929442,8.915656269288062,1.3460222483925521
1776817184036679000,9.864678955078125,-3.99427392681092,8.852481143450737,1.3600519427888094
1776817184046716000,9.8747158203125,-4.121692684499919,8.792038072925806,1.3718981556661427
1776817184056753200,9.884753173828125,-4.237429187701642,8.735742769730091,1.378897951425612
1776817184066790100,9.8947900390625,-4.339615596717596,8.684965937694907,1.3818451107934115
1776817184076826000,9.904826171875,-4.426562351025641,8.640699510467051,1.3835631667576729
1776817184086863000,9.914863037109376,-4.4981151368468995,8.603249777516723,1.3861619510792196
1776817184096900000,9.924900146484376,-4.553873848947882,8.573225810652971,1.3901174107067287
1776817184106937000,9.93493701171875,-4.592876948820054,8.551260647082328,1.3970727828025817
1776817184116973000,9.94497314453125,-4.615343632172048,8.53743670439124,1.407539670150727
1776817184127010000,9.955010009765624,-4.62527144420743,8.530195647221802,1.4188044298782945
1776817184137047000,9.965047119140625,-4.627203873574733,8.527844115659594,1.4266130578026175
1776817184147084000,9.975083984375,-4.625179382009804,8.52846838503778,1.4294497425332664
1776817184157120000,9.9851201171875,-4.6225408501997585,8.53053876157105,1.4256316455498337
1776817184167157200,9.9951572265625,-4.623317972052097,8.53221458582878,1.4130251158244906
1776817184177194200,10.0051943359375,-4.6315229058176275,8.531087043103575,1.3928219934903086
1776817184187231000,10.01523095703125,-4.647883673509956,8.526734693112969,1.3646853016778826
1776817184197267000,10.025266845703126,-4.671324170330166,8.519778298103809,1.3275883276879787
1776817184207304000,10.035303955078126,-4.70115875210166,8.510622931745647,1.2801467775553463
1776817184217341200,10.045341064453124,-4.738438096921145,8.497857558196783,1.2263826002724467
1776817184227378200,10.055378173828124,-4.785283142465353,8.479554424265027,1.169870074129477
1776817184237415200,10.065415283203125,-4.840503217644989,8.455475629541278,1.1157207699865102
1776817184247451100,10.075451171875,-4.903375268882513,8.425544601657986,1.0665336913608015
1776817184257488100,10.085488037109375,-4.970978148034215,8.390795359838009,1.0267969434518367
1776817184267525000,10.095525146484375,-5.040110136449337,8.352813711968064,0.9990883408583701
1776817184277562000,10.10556201171875,-5.105106632494926,8.315325985094905,0.981639850994572
1776817184287598000,10.11559814453125,-5.1597319566518065,8.282780390799045,0.9711273709390312
1776817184297635000,10.125635009765626,-5.204282461518049,8.255852051863075,0.9626737961746752
1776817184307672000,10.135672119140626,-5.243115757781267,8.232133907145261,0.9550331452284008
1776817184317709300,10.145709228515624,-5.2788914200395345,8.209795818608999,0.9502307133827358
1776817184327745300,10.155745361328124,-5.3130982255458825,8.187757005280256,0.9497344542983919
1776817184337782300,10.1657822265625,-5.34562803775072,8.16622555695176,0.9525823910754173
1776817184347819000,10.175819091796875,-5.374458995437622,8.147000631999969,0.9549686286248266
1776817184357856000,10.18585595703125,-5.39919303919971,8.130509515926242,0.9559931493669748
1776817184367893000,10.19589306640625,-5.421115532672405,8.115849706932902,0.9564970072358846
1776817184377929200,10.20592919921875,-5.442075318592787,8.101777926960587,0.956768517653644
1776817184387966200,10.21596630859375,-5.464271952831745,8.08664699332416,0.958261532690376
1776817184398003200,10.226003173828126,-5.489326899111271,8.06915517577529,0.9625058922618627
1776817184408040000,10.2360400390625,-5.519418085992336,8.047471167233585,0.9719198364909738
1776817184418076200,10.246076171875,-5.554734898567199,8.021226134386659,0.9875375307310372
1776817184428113000,10.25611279296875,-5.5953083164960145,7.990309602597355,1.0088896039046347
1776817184438150100,10.266150146484375,-5.64037495419085,7.955298494970798,1.0343081227995454
1776817184448187100,10.276187255859375,-5.700127119842171,7.90751266144514,1.072463373670727
1776817184458224000,10.28622412109375,-5.786449897032976,7.833870502129197,1.1479748339898883
1776817184468260000,10.296260009765625,-5.9123453906774515,7.727003534081578,1.227992519687116
1776817184478297000,10.306297119140625,-6.1138967215478415,7.569471962201595,1.222189897822961
1776817184488334000,10.316333984375,-6.377883758065104,7.358371881741285,1.1607519710417835
1776817184498371000,10.32637109375,-6.63699705106616,7.131040212926268,1.1264607021223754
1776817184508407000,10.336406982421876,-6.875001505064964,6.903428558126092,1.1168774657409637
1776817184518444000,10.346444091796876,-7.094454403328895,6.680384357371926,1.1007087865546346
1776817184528481000,10.35648095703125,-7.276528880313038,6.484463725864887,1.0836243076976388
1776817184538518300,10.366518310546875,-7.4236641458630555,6.314194837486744,1.0911166362144051
1776817184548554200,10.37655419921875,-7.565912808415293,6.14955840203762,1.0536967869456857
1776817184558591200,10.38659130859375,-7.704753123828768,5.9817316461145875,1.012941144317761
1776817184568628000,10.3966279296875,-7.814532764452696,5.8329433526605365,1.0393469206843524
1776817184578665000,10.4066650390625,-7.884002606520056,5.7282730178743595,1.0953386378236114
1776817184588702200,10.4167021484375,-7.954656105414032,5.62579054852128,1.1154893723834305
1776817184598738200,10.42673828125,-8.049033594244719,5.492791360351443,1.1012193664252758
1776817184608775200,10.436775146484376,-8.158009517270326,5.338893176537752,1.0552232658606022
1776817184618812200,10.446812255859374,-8.270809382498264,5.1780952963382,0.975408482324332
1776817184628849200,10.45684912109375,-8.377918927130102,5.014482943239808,0.9142316176321357
1776817184638885000,10.466885009765624,-8.483219961035251,4.8526881609573955,0.8104243294160812
1776817184648922000,10.476922119140625,-8.578669463011622,4.697922838920355,0.7115726908460259
1776817184658959000,10.486958984375,-8.660763224330545,4.555108359178901,0.6423010016992687
1776817184668996000,10.49699609375,-8.730519482123851,4.425268804083764,0.6044925915043801
1776817184679032000,10.507031982421875,-8.797809642064571,4.297840986305475,0.5454276409322396
1776817184689069000,10.517069091796875,-8.862197066301107,4.169650367461145,0.4958513072606176
1776817184699106000,10.52710595703125,-8.925212033140658,4.038635046584904,0.44766072885897007
1776817184709143000,10.53714306640625,-8.987690993407368,3.902292100945115,0.40485571595318615
1776817184719180000,10.547179931640626,-9.046369976869226,3.7693306144371626,0.35457649470921604
1776817184729216000,10.557216064453126,-9.099020201560855,3.6451568300187587,0.3017348208324052
1776817184739253000,10.5672529296875,-9.150839820647239,3.5174455191239713,0.24513494519954546
1776817184749290000,10.5772900390625,-9.201032130792736,3.387516239918768,0.19005937479082494
1776817184759327200,10.5873271484375,-9.24712928057909,3.262169612328708,0.13869217564705758
1776817184769363200,10.59736328125,-9.285954393535851,3.1499919706523416,0.1377883221425116
1776817184779400200,10.607400146484375,-9.320309667602181,3.0479817949861285,0.1096428807680495
1776817184789437000,10.61743701171875,-9.352940017572045,2.947250260953605,0.08129906727727503
1776817184799474000,10.627473876953125,-9.385482104736566,2.8426491920113564,0.04950904515564907
1776817184809511200,10.63751123046875,-9.417546052995323,2.734991658107936,0.005976684948051115
1776817184819547100,10.647547119140626,-9.447909627076983,2.6278447040751574,-0.042724513281788674
1776817184829584100,10.657584228515624,-9.474783020955323,2.5278970138967036,-0.0927804471638985
1776817184839622100,10.6676220703125,-9.499961885875463,2.429584523704648,-0.13502051053014583
1776817184849659100,10.6776591796875,-9.523182602465152,2.3328422054387628,-0.1929308751065284
1776817184859695000,10.687695068359375,-9.545324876168369,2.236155855143815,-0.23824562407722696
1776817184869732000,10.697732177734375,-9.566256605038046,2.1421127128340305,-0.261665900093317
1776817184879769300,10.707769287109375,-9.58476841328442,2.0532466809011996,-0.29458498561037705
1776817184889806300,10.717806396484375,-9.601553543868661,1.967323862813413,-0.33194643748905506
1776817184899843300,10.72784326171875,-9.618155134579538,1.8838328019171953,-0.33562936378549785
1776817184909879300,10.73787939453125,-9.633934887513517,1.7991764966338872,-0.34734018678013234
1776817184919916000,10.747916015625,-9.64773018863201,1.7174454311475156,-0.3769248854437843
1776817184929953000,10.757953125,-9.660251816552877,1.640660882152617,-0.3976820614641532
1776817184939990300,10.767990234375,-9.67149100344777,1.5704893215566873,-0.4076930948035791
1776817184950026200,10.778026123046875,-9.680997082939744,1.5013848056703805,-0.441042918154411
1776817184960063200,10.788063232421875,-9.690134913641213,1.4331936052367091,-0.46649800620004533
1776817184970100200,10.798100341796875,-9.699005617839097,1.3643259668461978,-0.48814482453651725
1776817184980137200,10.80813720703125,-9.7070024618119,1.296718996041268,-0.5128466830620542
1776817184990173200,10.818173095703125,-9.71375310511589,1.2311257031463085,-0.5456327715829015
1776817185000210200,10.828210205078125,-9.720602532619237,1.1679266849767416,-0.562332854232192
1776817185010247200,10.8382470703125,-9.72758990728855,1.105939746010676,-0.5668114244183525
1776817185020284200,10.8482841796875,-9.732506320902704,1.0427763106111436,-0.6010996976630761
1776817185030321200,10.858321044921874,-9.738313545876741,0.9835923002365976,-0.6067818714853376
1776817185040357000,10.868357177734374,-9.743264446282387,0.9464159043349325,-0.5860710188247263
1776817185050394400,10.878394287109375,-9.747176651290058,0.939905718723312,-0.5286854727068916
1776817185060431400,10.888431396484375,-9.749615861135721,0.9546425384756178,-0.4516957565287128
1776817185070468000,10.898468017578125,-9.750297413659094,0.9820961433947085,-0.37091099544912576
1776817185080504000,10.908504150390625,-9.748392456820607,1.0116233397174625,-0.3403549675352871
1776817185090541000,10.918541015625,-9.74497125020027,1.0380982357975095,-0.3581509556625038
1776817185100578300,10.928578369140626,-9.740040223538875,1.0657064467564226,-0.40776133773420004
1776817185110615300,10.938615234375,-9.733528065165876,1.098620143712312,-0.47101004026439036
1776817185120652300,10.94865234375,-9.726074242028593,1.134390545273572,-0.5357464606016874
1776817185130688300,10.958688232421874,-9.71836206021607,1.1705809988778084,-0.5946078148931264
1776817185140725200,10.968725341796874,-9.710222008380294,1.2081760585829615,-0.6498343198135494
1776817185150762200,10.97876220703125,-9.703085580629109,1.2518652704447508,-0.673310545534268
1776817185160799200,10.98879931640625,-9.695455231881141,1.3052521388478577,-0.6818004337210207
1776817185170835200,10.998835205078125,-9.688263859072327,1.3640221615940331,-0.6688542967777699
1776817185180872200,11.0088720703125,-9.68158160482943,1.4261711592540145,-0.6351379051368683
1776817185190909200,11.0189091796875,-9.674925654071568,1.4891779427871108,-0.590377410781756
1776817185200946400,11.028946533203126,-9.66742799179256,1.5546145838156342,-0.5425776583286002
1776817185210983200,11.038983154296876,-9.657975688314437,1.6258584498181938,-0.5004732679728419
1776817185221019400,11.049019287109376,-9.64697031017542,1.7000474293619394,-0.4649612981520593
1776817185231056100,11.05905615234375,-9.634889996281265,1.7747345676861703,-0.4354323847962543
1776817185241093000,11.069093017578124,-9.621764557248353,1.8506627921126781,-0.408745928324759
1776817185251130000,11.079130126953125,-9.606897827506065,1.9306272863179443,-0.3880356601860374
1776817185261166300,11.089166259765625,-9.590418401870132,2.0140363680191338,-0.3713705757848918
1776817185271203300,11.099203369140625,-9.57277519315183,2.099368672867864,-0.3535679387211799
1776817185281240300,11.109240234375,-9.55388227663338,2.1868714536234735,-0.3336298239987343
1776817185291277000,11.119277099609375,-9.533580662360787,2.2775937809474764,-0.30624902858752756
1776817185301314000,11.12931396484375,-9.511582181042431,2.372312192170322,-0.26892692233854903
1776817185311350000,11.13935009765625,-9.488042900022863,2.469405954222381,-0.2223880566666834
1776817185321387300,11.14938720703125,-9.463201304233074,2.567046536502242,-0.16875850208150223
1776817185331424300,11.15942431640625,-9.436417926725746,2.6668919353500007,-0.10993640208821744
1776817185341461200,11.169461181640624,-9.406620754355192,2.7719518539756534,-0.04634824760374613
1776817185351497200,11.179497314453124,-9.373985143688321,2.8806799397200344,0.02165275032033678
1776817185361534200,11.1895341796875,-9.338807447323202,2.9914369009435173,0.09148667189315893
1776817185371571200,11.1995712890625,-9.300738121169806,3.1049881690606473,0.1603089824377559
1776817185381608200,11.209608154296875,-9.26048326767087,3.2190336504355073,0.2272841398788616
1776817185391645200,11.219645263671875,-9.217396405616402,3.335438262157142,0.29127312111603093
1776817185401681200,11.22968115234375,-9.172359578537941,3.451717201672494,0.35192806255966425
1776817185411718100,11.23971826171875,-9.125535283520817,3.5674224329531192,0.41047121774740514
1776817185421755400,11.24975537109375,-9.075875472816824,3.68497212305665,0.4688869106305763
1776817185431792400,11.25979248046875,-9.024135348707437,3.8027100292086597,0.5241761785889044
1776817185441829000,11.2698291015625,-8.970449351227282,3.920505218505859,0.5753810633104294
1776817185451865000,11.279864990234374,-8.914426435232162,4.038735292088985,0.6261011967223137
1776817185461902000,11.289902099609375,-8.855683738884329,4.158050822821259,0.6766542299389838
1776817185471939300,11.299939208984375,-8.793268491503596,4.279304628139734,0.7323703450072556
1776817185481976300,11.309976318359375,-8.727436129155755,4.4034231752395625,0.7823740007128566
1776817185492012300,11.32001220703125,-8.659235868632793,4.527452875012159,0.830774897396937
1776817185502049300,11.33004931640625,-8.587078394916652,4.65354476801157,0.8814728189770131
1776817185512086300,11.340086181640626,-8.511220897638797,4.780046703116596,0.9384322121046483
1776817185522123000,11.350123046875,-8.430580257737637,4.908879126995801,0.999306002197042
1776817185532160300,11.36016015625,-8.343878710362315,5.042590262827277,1.0594166258972137
1776817185542196200,11.3701962890625,-8.254300146245956,5.175574837949871,1.118188986730948
1776817185552233200,11.380233154296874,-8.159286113077401,5.311618800643086,1.1760717052485794
1776817185562270200,11.390270263671875,-8.056897751748561,5.45051698372364,1.2444517793178558
1776817185572307200,11.40030712890625,-7.945796507132053,5.595518159854412,1.3133455750629306
1776817185582344200,11.41034423828125,-7.832367696350812,5.74183158762753,1.3622658194459973
1776817185592380200,11.420380126953125,-7.713836593994498,5.889355560234189,1.4080480580642818
1776817185602417200,11.430417236328125,-7.585659711414575,6.041636371979117,1.4583482124984264
1776817185612454100,11.4404541015625,-7.443397604858875,6.199603997188806,1.5268047858700156
1776817185622491100,11.4504912109375,-7.293591658794879,6.36127398404777,1.583695716871321
1776817185632527000,11.460527099609376,-7.131916411238908,6.529630901324748,1.6340382491424679
1776817185642564400,11.470564453125,-6.955685984107852,6.7044526307016605,1.6849748017840087
1776817185652601300,11.480601318359374,-6.760354550665617,6.887807210624217,1.739569292411208
1776817185662638000,11.49063818359375,-6.5475196092367165,7.075462702611088,1.7994992988474665
1776817185672675000,11.500675048828125,-6.324360257670283,7.265436408412456,1.8401859678924082
1776817185682711000,11.5107109375,-6.095242874482274,7.453845933637022,1.859725219490379
1776817185692748300,11.520748291015625,-5.863488128527998,7.636894224089383,1.8621873718202113
1776817185702785300,11.530785400390625,-5.632763894665241,7.810828064715862,1.852925476347655
1776817185712822300,11.540822265625,-5.416600101074576,7.97375886529088,1.802776274691522
1776817185722859300,11.550859375,-5.222381597310305,8.123100116452575,1.706564994562417
1776817185732895200,11.560895263671876,-5.0455643102020025,8.257396943217515,1.5899895563185213
1776817185742932200,11.57093212890625,-4.871555943034589,8.384590075457096,1.4618388310931623
1776817185752969200,11.58096923828125,-4.6861344937101,8.512233874073624,1.3237797291852533
1776817185763006200,11.591006103515625,-4.483896934141218,8.641069512823224,1.1819360672373325
1776817185773042200,11.601042236328125,-4.270192808662355,8.765858506530522,1.046695164555311
1776817185783079200,11.6110791015625,-4.072079927808046,8.873314088121056,0.9235021348025649
1776817185793116400,11.621116455078125,-3.9258305051818487,8.948438594949245,0.8268553128004074
1776817185803153200,11.631153076171875,-3.848152222217619,8.98740633124709,0.7672379525098949
1776817185813190100,11.641190185546876,-3.834178641922772,8.995904695001244,0.7369977856121956
1776817185823226000,11.65122607421875,-3.8723172339200973,8.97974149570763,0.7346982034329325
1776817185833263000,11.66126318359375,-3.9475753040000794,8.94594677813351,0.7463748318970203
1776817185843299600,11.671299560546874,-4.052721147343516,8.898664217954874,0.7480695069856941
1776817185853336600,11.681336669921874,-4.189298194000124,8.835239501270651,0.7474659150693566
1776817185863373600,11.69137353515625,-4.334425919120013,8.765933325332403,0.7358919432621449
1776817185873409500,11.701409423828125,-4.452786633345484,8.70642782791853,0.7356682175088674
1776817185883446800,11.71144677734375,-4.542564227165282,8.657125744611024,0.7679051842469722
1776817185893483500,11.7214833984375,-4.62181984244883,8.609740893101693,0.8255439379408955
1776817185903520500,11.7315205078125,-4.705234623238444,8.557453656503558,0.8950636835645884
1776817185913557500,11.7415576171875,-4.7942494159922004,8.500051268848777,0.9667891225390136
1776817185923593500,11.751593505859375,-4.8826077906638385,8.440397887396811,1.0441286020029337
1776817185933630700,11.761630615234376,-4.961035430690646,8.383468962472676,1.1295875289060175
1776817185943667700,11.771667724609374,-5.01712732026875,8.33793704535365,1.2155731830969452
1776817185953704700,11.78170458984375,-5.041681915810704,8.311981350842117,1.2894934287019073
1776817185963740700,11.79174072265625,-5.030507026323676,8.310406064349413,1.342213796020299
1776817185973777400,11.80177734375,-4.98504758991897,8.332146186992526,1.3765975655287503
1776817185983814400,11.811814453125,-4.908768067836761,8.37303583126366,1.4023736656896768
1776817185993851600,11.8218515625,-4.807443828608095,8.42708657040298,1.4293646945983172
1776817186003888600,11.831888671875,-4.688638877746462,8.487798520997167,1.4643505216531454
1776817186013924600,11.841924560546875,-4.556038333505392,8.553853001663088,1.498163943927735
1776817186023961600,11.851961669921875,-4.411597713866829,8.626600257965922,1.5132634595125913
1776817186033998600,11.86199853515625,-4.260547612960637,8.70422593396008,1.501525675445795
1776817186044035600,11.87203564453125,-4.1106925670579075,8.78186680752337,1.4667723419725893
1776817186054072600,11.882072509765624,-3.9607396137386557,8.859120727595686,1.4138245956391096
1776817186064108500,11.892108642578124,-3.8052383786424993,8.936392767846584,1.3533053911380468
1776817186074145500,11.9021455078125,-3.6399423102408646,9.014204321801662,1.2904691418662666
1776817186084182500,11.9121826171875,-3.4607194232955574,9.09358297894299,1.2249705415174363
1776817186094219800,11.9222197265625,-3.2619767201051113,9.175421888718008,1.1582383077204226
1776817186104256500,11.932256591796875,-3.0410183857142923,9.25923122178316,1.0905155285160988
1776817186114292700,11.942292724609375,-2.8017832208767532,9.342472984093428,1.0191154490385204
1776817186124329500,11.95232958984375,-2.5489772113263607,9.422415120336414,0.9440368271786719
1776817186134366500,11.962366455078126,-2.2861856682039794,9.497499295154213,0.8609510591477155
1776817186144403700,11.97240380859375,-2.014754599291086,9.56690308624804,0.7651894955474883
1776817186154439700,11.982439697265624,-1.7370258915387093,9.629245852914451,0.6563162291787564
1776817186164476700,11.9924765625,-1.456862357854843,9.683051092860103,0.5352047914730385
1776817186174513700,12.002513671875,-1.1770344858661292,9.727223996585607,0.4075406076556071
1776817186184550400,12.01255029296875,-0.8986901304334401,9.761315651279688,0.2818429746707901
1776817186194587600,12.022587646484375,-0.6238323750074952,9.785382171043754,0.16585300816465168
1776817186204623600,12.03262353515625,-0.355782217237167,9.800013338464497,0.05943439123930875
1776817186214660600,12.04266064453125,-0.09602795031829736,9.806092950639128,-0.04126068780692294
1776817186224697600,12.052697509765625,0.15081695887059904,9.804447521519661,-0.14300184640656224
1776817186234734600,12.062734619140626,0.38183242163173853,9.796117500069737,-0.24629310225872322
1776817186244771600,12.072771484375,0.5946455165550112,9.78227485267818,-0.3519366111923009
1776817186254807800,12.082807861328124,0.7895482031911611,9.763990423446893,-0.4598584951203316
1776817186264844500,12.092844482421874,0.9688644675083458,9.74217489748001,-0.5671721840221434
1776817186274881500,12.102881591796875,1.1269394986152648,9.718422265970707,-0.6728117291666567
1776817186284918500,12.11291845703125,1.2523669363565741,9.694994044110178,-0.7804447131507098
1776817186294954500,12.12295458984375,1.3434502059474587,9.673739659157395,-0.8856098457165061
1776817186304991500,12.132991455078125,1.4085245895348488,9.655147186890243,-0.9821212778359651
1776817186315028700,12.14302880859375,1.4628560453116892,9.638082654842734,-1.0666779221370815
1776817186325065700,12.153065673828126,1.5190272837363183,9.620868485191464,-1.1409786914922295
1776817186335102500,12.1631025390625,1.5853459682963789,9.602426235049963,-1.2043643182750792
1776817186345138400,12.173138427734376,1.6598676869258284,9.583636194384097,-1.2526616815194487
1776817186355175400,12.183175537109374,1.7339792173191904,9.566757540297507,-1.2809547329373656
1776817186365212700,12.193212646484374,1.8027159228064118,9.553350946235657,-1.2861091930910944
1776817186375249700,12.203249755859375,1.8625462682604788,9.54409270402491,-1.269502049422264
1776817186385286700,12.21328662109375,1.9098143615223466,9.53913245126903,-1.2361173739537596
1776817186395322600,12.223322509765625,1.9397715467602012,9.539142388141155,-1.188469560659304
1776817186405359600,12.233359619140625,1.9498919587582348,9.543848373875022,-1.1328271684143691
1776817186415396600,12.243396728515625,1.9431968450337647,9.552584638038278,-1.0688687101796268
1776817186425433600,12.25343359375,1.9259182318441568,9.563622749403118,-0.999156583788991
1776817186435469600,12.263469482421876,1.8999641447678208,9.575431845140457,-0.9336177975602448
1776817186445506600,12.273506591796876,1.8643834205597638,9.587742460659145,-0.8773154801018536
1776817186455543600,12.28354345703125,1.8210849615812301,9.599869536304473,-0.8345863454438746
1776817186465580800,12.293580810546874,1.778764407724142,9.61000280778408,-0.808829315309599
1776817186475617500,12.303617431640625,1.7454434451416134,9.61699836575985,-0.7982301068186759
1776817186485653800,12.31365380859375,1.7231924503669143,9.620829906746744,-0.8003939337890594
1776817186495690500,12.3236904296875,1.709439088694006,9.622399932542443,-0.8109650852292776
1776817186505727500,12.3337275390625,1.7000385154031217,9.622893269017338,-0.8247354711022228
1776817186515764500,12.343764404296875,1.6937138424262403,9.622814943084121,-0.8385376403529197
1776817186525801700,12.3538017578125,1.689705629698187,9.622520928573607,-0.849909440651536
1776817186535837700,12.363837646484376,1.689115700981021,9.622067339587211,-0.856218769928813
1776817186545874700,12.373874755859376,1.6939584648370742,9.621265960076451,-0.8556420660194008
1776817186555911400,12.383911376953124,1.7046572612449526,9.620106268647312,-0.8473921240683645
1776817186565948400,12.393948486328124,1.720319963670522,9.618663084101676,-0.831987926448509
1776817186575984400,12.403984375,1.7377955607369542,9.617212300771474,-0.8121873205006123
1776817186586021600,12.414021728515625,1.753132684469968,9.616150809019803,-0.7915501175981015
1776817186596058600,12.42405859375,1.7642270560666917,9.615705987861752,-0.7720620116654783
1776817186606095600,12.434095703125,1.7708933820880948,9.615835167199373,-0.7549862275715917
1776817186616132600,12.444132568359375,1.7739762966647743,9.616445408052206,-0.7398224876441061
1776817186626168600,12.45416845703125,1.7731924528107046,9.617578211474418,-0.7268645871978253
1776817186636205600,12.46420556640625,1.7683594796963036,9.61927040234506,-0.7161714898783713
1776817186646242600,12.47424267578125,1.7598678379438817,9.621438978555798,-0.7079420061934739
1776817186656279600,12.484279541015624,1.7488230045773088,9.623895724058151,-0.7018891358952969
1776817186666316500,12.494316650390624,1.7370407968468964,9.626342532688378,-0.69757748324126
1776817186676352500,12.5043525390625,1.7257855356000362,9.62857715987265,-0.6946501976177096
1776817186686389800,12.5143896484375,1.7156513873375951,9.630558104556798,-0.6922952319893986
1776817186696426800,12.5244267578125,1.707175966067612,9.632209378895164,-0.6902726401206105
1776817186706463500,12.53446337890625,1.700785095986724,9.633499418705702,-0.6880354556530713
1776817186716499500,12.54449951171875,1.6969186298169194,9.634388476499915,-0.6851162802707403
1776817186726536400,12.554536376953125,1.695184207239747,9.634951371079683,-0.6815115337770432
1776817186736573700,12.56457373046875,1.6950721251673995,9.635301499691606,-0.6768393772475421
1776817186746610700,12.574610595703126,1.6962699566498398,9.635506666874885,-0.6708827338654547
1776817186756647700,12.584647705078124,1.69801811549142,9.635690791270136,-0.6637688102070242
1776817186766683600,12.59468359375,1.700203935097903,9.63581587895453,-0.656304319545254
1776817186776720600,12.604720703125,1.7025449452660977,9.63589011323452,-0.6491165999982506
1776817186786757600,12.614757568359375,1.705115234145522,9.635841013395785,-0.6430616108082234
1776817186796794600,12.624794677734375,1.7075271175928413,9.63573696849942,-0.6381756653975695
1776817186806831600,12.63483154296875,1.709414392644167,9.635648121172188,-0.6344829483594745
1776817186816867600,12.64486767578125,1.7104318991236387,9.635645198562742,-0.6317628026805818
1776817186826904600,12.654904541015625,1.7105077408388256,9.635765025550127,-0.629764906861633
1776817186836941600,12.664941650390626,1.709847669494897,9.635939797595142,-0.6288746069584041
1776817186846979000,12.67497900390625,1.7091016734331845,9.636070145976543,-0.6288789908725768
1776817186857015300,12.685015380859374,1.7082732597850263,9.6361858813107,-0.629386428938061
1776817186867052300,12.69505224609375,1.7071591610632837,9.636348378396034,-0.6299056305065751
1776817186877089300,12.70508935546875,1.7061778949409723,9.636530164703727,-0.6297956673260778
1776817186887126300,12.715126220703125,1.7055467574305831,9.636720718839763,-0.6285887026891112
1776817186897163300,12.725163330078125,1.7051202025815844,9.63693348480761,-0.6264855198647826
1776817186907199200,12.73519921875,1.704768320403993,9.637171969738603,-0.6237533184219152
1776817186917236200,12.745236328125,1.7040123874701558,9.637525020959973,-0.6203725168772042
1776817186927273200,12.755273193359375,1.7027789001524447,9.638030632394551,-0.6158638072811067
1776817186937310200,12.765310302734376,1.7007805659420787,9.638736734837293,-0.6103137354059145
1776817186947347200,12.77534716796875,1.6978515267528593,9.63965560324788,-0.6039194677915424
1776817186957383200,12.785383056640624,1.6943033327519892,9.640678516554832,-0.59752443299219
1776817186967420400,12.79542041015625,1.690092729319632,9.641794953364133,-0.5913991185123101
1776817186977457400,12.80545751953125,1.685466384693235,9.642934771049022,-0.585993971533142
1776817186987494100,12.815494140625,1.6808238195843994,9.644050623336433,-0.5809681792603806
1776817186997530000,12.825530029296875,1.6762889526337383,9.645105685347318,-0.5765182506468147
1776817187007567000,12.835567138671875,1.6720486847154794,9.646094111862778,-0.5722724297706038
1776817187017604400,12.845604248046875,1.6686355152711272,9.646942253124713,-0.567950073059462
1776817187027641300,12.855641357421876,1.6664280683547257,9.64758288911581,-0.5635301011927426
1776817187037678300,12.86567822265625,1.6650534190006554,9.648077394634484,-0.5590980735620483
1776817187047714300,12.87571435546875,1.664537578433007,9.648432199421524,-0.5544993475949391
1776817187057751300,12.885751220703124,1.6646812246873974,9.648674191483854,-0.5498370548723265
1776817187067788300,12.895788330078124,1.6657028228200972,9.64879460299313,-0.5446300242811442
