time,seconds_elapsed,roll,rotationRateZ,quaternionY,rotationRateY,quaternionZ,quaternionW,yaw,devicelocation,accelerationZ,pitch,gravityX,gravityZ,quaternionX,rotationRateX,accelerationX,gravityY,accelerationY
1776817174870664400,0.69866455078125,-0.2784303290960019,-0.6019567251205444,-0.138762778262676,0.1330932080745697,7.553405153560135e-17,0.9903180253729582,-0.0010829316838208993,right,0.015624642372131348,-0.00772847890675616,-2.6952444618701934,-9.428695223519206,-0.00390197985533912,0.33758246898651123,0.021989256143569946,0.07578970187180675,-0.08415921032428741
1776817174910664200,0.738664306640625,-0.2759240961881617,-0.5226180553436279,-0.13757281508977878,0.14557945728302002,-0.0079483655768524,0.99043388705064,-0.013775122577804154,right,0.01158297061920166,0.016383520801162857,-2.671326995187998,-9.434436397519708,0.0071664701690969555,0.32991307973861694,0.029407069087028503,-0.16066028009345754,-0.08224717527627945
1776817174950664200,0.778664306640625,-0.26877225025781365,-0.4176621735095978,-0.13424911919802127,0.12624429166316986,-0.016813116766905927,0.9905851358092963,-0.02773819648078526,right,-0.005789041519165039,0.045882113894438685,-2.6013945040449498,-9.444618768838048,0.020872373104336116,0.3032687306404114,0.031205162405967712,-0.44979196873400357,-0.06804858148097992
1776817174990664400,0.81866455078125,-0.25930328159097943,-0.2907653748989105,-0.12991568353860145,0.10788184404373169,-0.024627393512790773,0.9906104802980964,-0.039891338908484945,right,0.002367854118347168,0.07528214627325906,-2.5073726967841385,-9.451955103075504,0.03473216235843027,0.2540436089038849,0.0356629341840744,-0.7375684981722385,-0.052207574248313904
1776817175030664400,0.85866455078125,-0.24783229161793044,-0.19081565737724304,-0.12462829150020918,0.11764258146286011,-0.030492183223515858,0.9906270228278327,-0.04899917342172817,right,-0.0019052624702453613,0.10061761044503166,-2.3934334522627294,-9.45893897061348,0.04686301857038329,0.24589228630065918,0.031141549348831177,-0.9850575504835695,-0.04092427343130112
1776817175070664400,0.89866455078125,-0.24185774613203287,-0.149568110704422,-0.12184168315270029,0.12210404872894287,-0.032405375269034406,0.9906401617292111,-0.05180271150828229,right,0.0022254586219787598,0.11177516445583995,-2.3341005349367854,-9.46180897309184,0.05231259318532519,0.24104619026184082,0.029429897665977478,-1.0938587745293975,-0.036746710538864136
1776817175110664400,0.93866455078125,-0.23584382397815784,-0.10832054913043976,-0.11905006166196548,0.12656551599502563,-0.03431732313089545,0.9906125215866142,-0.05467722552907833,right,0.006209194660186768,0.12291584110585888,-2.2741673136301337,-9.463238129112124,0.05776002480799692,0.23620010912418365,0.027657032012939453,-1.2023596273891628,-0.032599762082099915
1776817175150664400,0.97866455078125,-0.230389873654531,-0.08890913426876068,-0.11646601710860625,0.1313798427581787,-0.03521695817035562,0.990644019355743,-0.05588655195792556,right,0.008354663848876953,0.13103071922826187,-2.220220473256707,-9.465689613917469,0.06180471258594802,0.2650125026702881,0.0175570547580719,-1.2812984318085014,-0.040795087814331055
1776817175190664200,1.018664306640625,-0.21920672904271418,0.02007446624338627,-0.11111227393524091,0.10391015559434891,-0.035545293387463976,0.990454232343082,-0.05477016081632815,right,-0.00119096040725708,0.1539530420125934,-2.107286021863669,-9.458768290221691,0.07342417590092105,0.3153490722179413,-0.009483814239501953,-1.5038066259898244,-0.041630059480667114
1776817175230664400,1.05866455078125,-0.21690537590586537,0.14533787965774536,-0.10977519894832637,0.10166183859109879,-0.03214927609254697,0.9900853426823785,-0.046441883796903845,right,-0.002584397792816162,0.1693068383796078,-2.0802979155644774,-9.43993031876087,0.08152870546910247,0.284860759973526,-0.0174398273229599,-1.6524119640924035,-0.0338405966758728
1776817175270664400,1.09866455078125,-0.2163872052633941,0.3113836646080017,-0.1090085847217644,0.10044678300619125,-0.02612009964983451,0.9897180525950396,-0.03288609191374661,right,-0.0017382502555847168,0.1825665274415237,-2.070519595002383,-9.418777640616893,0.08884318730867022,0.2500572204589844,-0.027104035019874573,-1.7804368709810077,-0.05070537328720093
1776817175310664400,1.13866455078125,-0.21759680053853708,0.5224188566207886,-0.10877192816456512,0.0996861457824707,-0.01752037267269029,0.9894508540233717,-0.014471107752426786,right,-0.006549835205078125,0.1911248793951337,-2.0785452266782523,-9.401043831005692,0.09406832153130233,0.29881101846694946,-0.032282471656799316,-1.8629045801788569,-0.07183018326759338
1776817175350664400,1.17866455078125,-0.2208893017571886,0.7393174171447754,-0.1088260044466241,0.12260787189006805,-0.0027524467900216115,0.9889607921485114,0.016773838654920544,right,-0.0032998323440551758,0.20078279216955208,-2.105446677607298,-9.376156642508507,0.10052844576660569,0.31376346945762634,-0.021421894431114197,-1.95580352088958,-0.033862724900245667
1776817175390664400,1.21866455078125,-0.22307889101769288,0.7845370173454285,-0.10844508912454176,0.16533643007278442,0.010098532779766271,0.9884877034632186,0.0436884254156392,right,-0.0015465021133422852,0.20691043036335965,-2.123280294331163,-9.359660850259662,0.10502279743224435,0.25469261407852173,-0.018356382846832275,-2.0146508466556665,0.0055539608001708984
1776817175430664200,1.258664306640625,-0.22313044729675574,0.7364639043807983,-0.1070656680019094,0.212309330701828,0.022451939243316316,0.9881344082622027,0.06902393317449092,right,0.003593742847442627,0.20979275609833092,-2.122468977948278,-9.353849533632397,0.10781168350817158,0.19009730219841003,-0.0064696818590164185,-2.0423054540395738,0.02319730818271637
1776817175470664400,1.29866455078125,-0.22325673865230714,0.6883907914161682,-0.10566886986470518,0.2592822313308716,0.03480170791341154,0.9876206009457231,0.09437527062089794,right,0.00871044397354126,0.21267286293758275,-2.122339214088768,-9.347806161814928,0.11058305626595029,0.12550199031829834,0.005486533045768738,-2.0699219213701783,0.04083676636219025
1776817175510664400,1.33866455078125,-0.21620361984717357,0.46452510356903076,-0.10062482769097754,0.3483113646507263,0.04962631666803597,0.9874462675027456,0.12343003360381664,right,0.011446833610534668,0.21115476026600433,-2.0570275146141648,-9.365601346224546,0.11118398954980309,0.1132182776927948,0.01753854751586914,-2.055367472447455,0.046817347407341
1776817175550664400,1.37866455078125,-0.20632332712302381,0.2211843580007553,-0.09521501246550546,0.32231640815734863,0.05536730202803456,0.9877165011607607,0.1338092950159315,right,0.0004671812057495117,0.20994511491949278,-1.9649016041025518,-9.387894426575302,0.11083636684965088,0.05331113189458847,0.016707152128219604,-2.0437669048942624,0.05002070963382721
1776817175590664400,1.41866455078125,-0.1964331711785697,-0.022156402468681335,-0.08979924618849937,0.29632148146629333,0.06110489218331156,0.9879251400473328,0.14419783140451978,right,-0.010624825954437256,0.2088358199113994,-1.8724005766682326,-9.409085683164,0.11048180291496165,-0.006596013903617859,0.015837490558624268,-2.033125976153463,0.05332194268703461
1776817175630664400,1.45866455078125,-0.18508155624189115,-0.30479106307029724,-0.0847481478720659,0.16399547457695007,0.05781851756659408,0.9887980999108122,0.13600391832686146,right,-0.021113097667694092,0.20604864812379395,-1.7665099063068628,-9.435267003124952,0.10841129388587152,-0.062474705278873444,0.00294455885887146,-2.0063791312642394,0.033445537090301514
1776817175670664200,1.498664306640625,-0.17632183970223275,-0.46612635254859924,-0.08165992316857143,0.09387469291687012,0.04746384990709904,0.9898251693937904,0.11395438438474177,right,-0.031300902366638184,0.20434049067802174,-1.684391595068574,-9.453739648404717,0.10641940163882993,-0.07398799061775208,0.00515437126159668,-1.9899793467357754,0.02896025776863098
1776817175710664200,1.538664306640625,-0.17253557843634842,-0.47974297404289246,-0.08059866488504465,0.030231423676013947,0.04055122958369826,0.9903704687400282,0.09944714906295135,right,-0.03135085105895996,0.20283761355211602,-1.649096848195046,-9.46298503113389,0.10500430591963054,-0.09650793671607971,0.009807005524635315,-1.9755454554527996,0.01345747709274292
1776817175750664400,1.57866455078125,-0.1687731637688673,-0.49335962533950806,-0.07953328393233741,-0.03341183811426163,0.03363655288278027,0.9908650199632303,0.08495041303329824,right,-0.0314098596572876,0.20128114020343155,-1.6139961625888943,-9.472142151057719,0.10358384693810577,-0.11902788281440735,0.01447942852973938,-1.9605922164708374,-0.00209827721118927
1776817175790664400,1.61866455078125,-0.16379999264000078,-0.41380345821380615,-0.07890373323130538,-0.05726977810263634,0.017030331973381645,0.9916931684997592,0.050583030719988466,right,0.00033283233642578125,0.1972149719293718,-1.5681569330863654,-9.487838901883363,0.10014517129243872,-0.060293588787317276,0.030144095420837402,-1.9215056760989129,-0.02681046724319458
1776817175830664400,1.65866455078125,-0.16259952679888712,-0.3094936013221741,-0.07905523831362227,-0.07481120526790619,0.009388977438286226,0.9917605927443391,0.03519288844579617,right,0.003179192543029785,0.19889960861016567,-1.5562397007994353,-9.486506776496768,0.1003645693641869,-0.025591906160116196,0.03240126371383667,-1.9377033621840178,-0.02063286304473877
1776817175870664400,1.69866455078125,-0.16105266889051056,-0.24378913640975952,-0.07889326809964299,-0.03596559166908264,0.0030911006469843995,0.9917233270765484,0.022566072346796747,right,0.015600502490997314,0.20169866418870427,-1.5406877652719615,-9.483511686334014,0.10124879386610323,-0.003280799835920334,0.034918174147605896,-1.9646037901997566,-0.02169574797153473
1776817175910664200,1.738664306640625,-0.15913241726224067,-0.19912941753864288,-0.07828706846344519,-0.010669233277440071,-0.0004500803232182254,0.9916987710848867,0.015397445116109113,right,0.003987431526184082,0.2037891204792201,-1.5218201293252407,-9.482377129346132,0.10200225160167314,0.012772001326084137,0.027572497725486755,-1.984684309067577,-0.026885628700256348
1776817175950664200,1.778664306640625,-0.1579746390466663,-0.10953416675329208,-0.07801679411064917,-0.06993579119443893,-0.0036297253561605176,0.9915958086661074,0.00908829826211134,right,-0.02911210060119629,0.20657991477085497,-1.5099633950538933,-9.478625667858124,0.10314050203115777,0.00842488557100296,0.0012311041355133057,-2.0114785002298654,-0.02655431628227234
1776817175990664400,1.81866455078125,-0.16098320143087272,-0.014226779341697693,-0.07967598460732547,-0.1444239616394043,-0.005409328149794831,0.9914633089832079,0.005821687483369706,right,-0.014257669448852539,0.20670634281940128,-1.5384326798215509,-9.473789333742856,0.10306760092714937,-0.06374066323041916,0.0019438713788986206,-2.0126919676728545,-0.009977385401725769
1776817176030664400,1.85866455078125,-0.16399913214142806,0.004851235076785088,-0.08119348558496817,-0.07271909713745117,-0.005731548760760241,0.9913680371687673,0.005441747130807743,right,0.016675055027008057,0.2061799019895333,-1.567170844658464,-9.470150100457667,0.10278296124968032,-0.020438138395547867,0.021133795380592346,-2.007639068197459,-0.008924424648284912
1776817176070664400,1.89866455078125,-0.16447112977492828,0.033210352063179016,-0.08137597823899118,0.012359298765659332,-0.005338404986474699,0.9913096829928627,0.006351129057251481,right,0.02454894781112671,0.20699319600096244,-1.5713726802624761,-9.46779564628601,0.10322171887247693,0.033990174531936646,0.022375255823135376,-2.0154450657732785,-0.003525778651237488
1776817176110664400,1.93866455078125,-0.16494389623726144,0.061569467186927795,-0.08155841936082506,0.09743770956993103,-0.004945354524247133,0.9912509178077687,0.007260858904684686,right,0.03242206573486328,0.20780604629365268,-1.5755790459111332,-9.465432424286007,0.103660420901149,0.08841849863529205,0.023617178201675415,-2.023245656521618,0.0018723160028457642
1776817176150664400,1.97866455078125,-0.15949322802129054,0.047693125903606415,-0.07866216059804224,0.11435534805059433,-0.003210739005238901,0.9912737837097124,0.010502705010686092,right,0.010796844959259033,0.21169246737631048,-1.5227026112481952,-9.466045003226398,0.10572748014786607,0.07855255901813507,0.03277445584535599,-2.060523101644963,0.0030468255281448364
1776817176190664200,2.018664306640625,-0.15732892921527422,0.0635356530547142,-0.07738890967326019,0.0709158331155777,-0.001432860590885219,0.9912602907775814,0.014012827440419469,right,0.0015885233879089355,0.2136305156011467,-1.5015832508519291,-9.465356436440349,0.10682739017018444,0.04541170969605446,0.02901502698659897,-2.079100668603927,0.00850573182106018
1776817176230664400,2.05866455078125,-0.1551867667755515,0.04824802279472351,-0.0761533744018886,0.06492657959461212,0.0002265315673774167,0.9913133301419663,0.017174619848594735,right,-0.0010769367218017578,0.21420090573235886,-1.481119870146364,-9.467378297656774,0.1072320727731192,-0.0038025230169296265,0.024905219674110413,-2.084566825055331,0.020824819803237915
1776817176270664400,2.09866455078125,-0.15302750259286826,0.02530527114868164,-0.07503663502747551,0.07534407824277878,0.000865417390145902,0.9914367618410929,0.018168101978031325,right,-0.009054899215698242,0.2134044906832734,-1.460926538553834,-9.472191835418343,0.10687431949428741,-0.013841849751770496,0.026989340782165527,-2.0769344304807484,0.015470743179321289
1776817176310664400,2.13866455078125,-0.15086780316589282,0.002362525090575218,-0.07391976903053889,0.08576156944036484,0.001504240109626493,0.991558392651976,0.019163048328533595,right,-0.01703810691833496,0.21261019530252653,-1.440713479347527,-9.47695335073173,0.10651638181081031,-0.023881176486611366,0.029071450233459473,-2.069321178998053,0.010118618607521057
1776817176350664400,2.17866455078125,-0.14926921666730014,0.007712082006037235,-0.07313815611071554,0.03519175574183464,0.0017185744842630906,0.9917189138915564,0.019276030345965187,right,-0.009688854217529297,0.21066288888124002,-1.4261584459029137,-9.483210657560825,0.1055538840803686,-0.04304118454456329,0.016313448548316956,-2.050650673058629,0.023687392473220825
1776817176390664400,2.21866455078125,-0.1459810603815681,-0.016815634444355965,-0.0716032597294827,0.01839660480618477,0.001417099535699477,0.9920300783978749,0.018043833256337374,right,-0.00012040138244628906,0.20695876577368416,-1.3960638980209827,-9.495299154761433,0.10366997013352273,-0.018786359578371048,0.010590687394142151,-2.0151146647751332,0.004713967442512512
1776817176430664200,2.258664306640625,-0.1454466701509615,0.03466227650642395,-0.07135748443072024,-0.03887777775526047,0.0013556762877043082,0.9920919105113457,0.017802714918348693,right,-0.023937702178955078,0.20612588334018034,-1.3912322400808335,-9.497700955206156,0.10324790083953772,-0.01187087781727314,-0.0017046332359313965,-2.0071204511508345,-0.00618433952331543
1776817176470664400,2.29866455078125,-0.1471070592720733,0.06795088201761246,-0.0720695628196539,-0.04105304926633835,0.00260394924223304,0.992139357606388,0.020330593805461553,right,-0.006249845027923584,0.2039643423450081,-1.407632901392132,-9.499647413098812,0.10226809788474228,-0.02787340246140957,0.006947770714759827,-1.9863670014575123,0.00952652096748352
1776817176510664400,2.33866455078125,-0.14772388478906448,0.07268022745847702,-0.0722484846954472,-0.022883564233779907,0.003977610547675105,0.9921799905352684,0.023062469551341516,right,-0.015036821365356445,0.2026224996091361,-1.4138831939585506,-9.501405070421098,0.10170212234009599,-0.02906457521021366,-0.005006745457649231,-1.9734790244422853,0.008044734597206116
1776817176550664400,2.37866455078125,-0.14851939667187666,0.07926509529352188,-0.07252203818113671,-0.011826775036752224,0.005329853368808757,0.9922224175533753,0.025752120811761547,right,-0.01745009422302246,0.2010664867848592,-1.4218939203262329,-9.503303012996911,0.10102952008543191,-0.02595772221684456,-0.01045273244380951,-1.9585295848526059,0.004325851798057556
1776817176590664400,2.41866455078125,-0.14931039385947917,0.08584996312856674,-0.0727954242125433,-0.0007699867710471153,0.006682085515862585,0.9922625131473886,0.02843966446090931,right,-0.01986539363861084,0.19950840378342447,-1.4298628533788025,-9.505181081828475,0.10035668870261673,-0.022850871086120605,-0.015902981162071228,-1.9435554492130875,0.0006044656038284302
1776817176630664400,2.45866455078125,-0.15204986591767466,0.06639315187931061,-0.07388567252959691,0.028424877673387527,0.009419394706283552,0.9922065833483545,0.03412719768365085,right,0.016776859760284424,0.198127715263253,-1.4563016552321613,-9.503871752795577,0.09989146409221941,0.0409260131418705,-0.0039780884981155396,-1.930282272272557,-0.0024090856313705444
1776817176670664200,2.498664306640625,-0.15036769800312233,0.049886252731084824,-0.07288637579492066,0.07367821037769318,0.010759265096108896,0.9921427336173176,0.03683498241652362,right,0.013251245021820068,0.2004152014009835,-1.4396473114207387,-9.501917696118355,0.1011168250064311,0.07013193517923355,0.011732637882232666,-1.9522709628492592,0.010718658566474915
1776817176710664200,2.538664306640625,-0.14709223337142666,0.0011499710381031036,-0.07116629025255465,0.08276998996734619,0.011495946975496881,0.9921458113176618,0.038150470949115986,right,0.007359147071838379,0.2025898521068854,-1.4078908216759562,-9.502360179188846,0.10222445867492691,0.035010989755392075,0.02285836637020111,-1.9731654284484683,0.023391783237457275
1776817176750664400,2.57866455078125,-0.14410546239966152,-0.041017986834049225,-0.06973459013272254,0.02037385106086731,0.011096767300878572,0.9922367835187659,0.03706847493258133,right,-0.011493027210235596,0.20299866936073285,-1.379387342377752,-9.505723518142103,0.10237223070347129,-0.022282879799604416,0.016170665621757507,-1.9770923926338553,0.02034081518650055
1776817176790664400,2.61866455078125,-0.14251912038867792,-0.058919087052345276,-0.06909011162990301,0.02762063406407833,0.010024540487402594,0.9923784311765129,0.03463525944286327,right,0.00809776782989502,0.20151550137007257,-1.3647212497740984,-9.510791907447576,0.10154371620379944,-0.027639154344797134,0.0326961874961853,-1.962844087050855,-0.0016427487134933472
1776817176830664400,2.65866455078125,-0.140603026852756,0.016269326210021973,-0.06821599998165,0.044424429535865784,0.00953352716492779,0.9925031318611214,0.03337282063229485,right,-0.000824272632598877,0.20044883808896774,-1.346787825937569,-9.515456976649165,0.1009618376622322,-0.0002837851643562317,0.021548688411712646,-1.952594203454256,-0.03635716438293457
1776817176870664400,2.69866455078125,-0.13872282772883135,0.13902470469474792,-0.06714047511536429,0.024434002116322517,0.011161679608595675,0.9925925663624525,0.03640213577913499,right,-0.028963208198547363,0.19960499814215518,-1.3291218208655715,-9.519600652325153,0.10063594817326803,-0.030948510393500328,0.012146830558776855,-1.9444839622348546,-0.0400458425283432
1776817176910664200,2.738664306640625,-0.13776050317866517,0.20011025667190552,-0.0663614768220452,0.07931144535541534,0.014594066675421373,0.9926977911804437,0.043051261504356814,right,0.002231419086456299,0.1972255961130951,-1.3205918929293752,-9.525431258174777,0.09967103711895317,-0.08414750546216965,0.03434620797634125,-1.9216078212991357,-0.008464887738227844
1776817176950664200,2.778664306640625,-0.13527481937124158,0.29003775119781494,-0.06472653020418874,0.11162877082824707,0.019403034441988796,0.9928702143987138,0.052241555315923914,right,-0.0033167004585266113,0.1936915659335794,-1.2978183355852961,-9.535354101774097,0.09819738402605675,-0.08819001168012619,0.023895323276519775,-1.887610713020712,-0.028637349605560303
1776817176990664400,2.81866455078125,-0.1335732897214715,0.4796271026134491,-0.06325905332315922,0.07494139671325684,0.02693354262089133,0.9929863549023329,0.06689479120899963,right,-0.016185641288757324,0.1887252491699205,-1.2828244723320006,-9.54672188348472,0.09618184128586393,-0.0902848169207573,-0.003708258271217346,-1.8397955072700976,-0.0421396940946579
1776817177030664400,2.85866455078125,-0.13479999044326782,0.6139920949935913,-0.06296366839138955,0.06650232523679733,0.03800184973761226,0.9928696265264807,0.08886686414001287,right,-0.013211667537689209,0.18252015734251006,-1.29604387325868,-9.556269464030862,0.09381589985995953,-0.11618129909038544,0.005376309156417847,-1.7799897117353976,0.0028319209814071655
1776817177070664400,2.89866455078125,-0.13605920216905948,0.6003327369689941,-0.06263604346809619,0.08371829241514206,0.05030706786274978,0.9925643105173454,0.11331317583545751,right,0.0011377334594726562,0.17613603943318645,-1.3095908987045288,-9.565694294980167,0.09144434402721259,-0.09733680635690689,0.0046482086181640625,-1.7183870959118008,0.043556973338127136
1776817177110664400,2.93866455078125,-0.13574775965685007,0.4606107473373413,-0.06166506654274727,0.11384526640176773,0.06104951760852619,0.9921630571855359,0.13461003306351443,right,0.01391744613647461,0.17171467127263212,-1.3076270512856543,-9.573535656130312,0.08990523143279681,-0.0006604120135307312,0.02135390043258667,-1.6756825111731886,0.03947722911834717
1776817177150664400,2.97866455078125,-0.13387715945102532,0.3463587462902069,-0.06005586098282073,0.10525746643543243,0.06919945944046303,0.9917405160831959,0.15078596738184094,right,0.00392228364944458,0.17053673203266315,-1.2899790202617645,-9.577914309605955,0.08975280475751024,0.06875501573085785,0.01519370824098587,-1.664299531893432,0.011408403515815735
1776817177190664200,3.018664306640625,-0.1331844478981789,0.28438112139701843,-0.05914586399558928,0.043993156403303146,0.0757757539224033,0.991307186169346,0.16394563621990813,right,0.006750583648681641,0.1699578938486821,-1.283471684194356,-9.579759060689806,0.08983315015361532,0.05011788755655289,0.030695408582687378,-1.658705219017714,0.002652987837791443
1776817177230664400,3.05866455078125,-0.132301642648199,0.24251404404640198,-0.058282464181231945,0.07801306247711182,0.08100251632088801,0.9909612067112643,0.17434569576449302,right,0.01130986213684082,0.16904785325727842,-1.2752128282845019,-9.58238064136505,0.08965330958623756,0.0013826899230480194,0.036410994827747345,-1.6499086029693484,-0.00008083879947662354
1776817177270664400,3.09866455078125,-0.13244724021834728,0.24495664238929749,-0.058084793964582666,0.021574299782514572,0.08600189534070597,0.9906829712464322,0.18418812301222975,right,0.003729701042175293,0.16549689339212684,-1.2773736595802008,-9.58794178262353,0.08818828286650134,-0.09426231682300568,0.03697784245014191,-1.6155717413425446,0.0004895180463790894
1776817177310664400,3.13866455078125,-0.13301341812768738,0.2853635251522064,-0.058243464147257486,-0.011564929038286209,0.0909995929691138,0.9904618645496871,0.19388113842947102,right,-0.010532259941101074,0.15946625907741052,-1.2840706730008125,-9.596699674096703,0.08551138083596585,-0.13986164331436157,0.010187715291976929,-1.5572104455277322,-0.02315959334373474
1776817177350664400,3.17866455078125,-0.1359029115868055,0.33645033836364746,-0.05961064796427399,-0.06717656552791595,0.09704271622987372,0.9901114616769049,0.2057093358944391,right,-0.011817216873168945,0.15119901275376732,-1.3134941897533834,-9.605376317027211,0.08190650172795363,-0.21083706617355347,-0.006911829113960266,-1.4771128264620899,0.004802078008651733
1776817177390664400,3.21866455078125,-0.1386969846189593,0.3257039785385132,-0.06110804032130949,0.0001839175820350647,0.10320287883494314,0.9897799107474546,0.21756510004307983,right,-0.0023061037063598633,0.1405543261085205,-1.3424249545529483,-9.61669675246477,0.07714091055030581,-0.27564388513565063,-0.00954166054725647,-1.3738333615124225,0.01592671126127243
1776817177430664200,3.258664306640625,-0.13975314039844827,0.3263706564903259,-0.06194438949343853,0.03396915644407272,0.1093112173649574,0.9895149709491414,0.22900217970907494,right,0.001037895679473877,0.12777811636010142,-1.354915602813661,-9.631869771677255,0.0712334460235005,-0.3062206506729126,-0.009929835796356201,-1.2496683449223638,0.008087188005447388
1776817177470664400,3.29866455078125,-0.13878110184932935,0.30922931432724,-0.0618718460750031,0.08775550127029419,0.1153105835162275,0.9892617623176523,0.24006240544685398,right,0.010993003845214844,0.11476484941517798,-1.3476879896476863,-9.648471946910023,0.06508997421743007,-0.26473087072372437,-0.0032504647970199585,-1.1229899572718889,-0.0004310980439186096
1776817177510664400,3.33866455078125,-0.13613284824945776,0.28324341773986816,-0.0609273665405531,0.10607191920280457,0.12099750584214336,0.9889748109610331,0.2505604870523676,right,-0.0025386810302734375,0.10372922360520145,-1.3237331135645507,-9.663697573092579,0.059803052786199816,-0.23190289735794067,-0.008858561515808105,-1.0154131604544818,0.0076366811990737915
1776817177550664400,3.37866455078125,-0.13337618168843624,0.2495265007019043,-0.059943907821752934,0.10088350623846054,0.12610918622041564,0.9886760929901742,0.26000183237819247,right,0.001330733299255371,0.09373418552115881,-1.2983733391195535,-9.676886140489577,0.05498056533917195,-0.23278744518756866,-0.0043262094259262085,-0.9178730428744107,0.00746358186006546
1776817177590664400,3.41866455078125,-0.13063543172563669,0.22406388819217682,-0.059064067113511164,0.10507377982139587,0.13067436457404755,0.9884032969651165,0.268348448961879,right,0.007886409759521484,0.08339335760003994,-1.2730150259792803,-9.68930080090463,0.04994573126254108,-0.23473408818244934,0.004039004445075989,-0.8168621073786169,-0.00017490237951278687
1776817177630664400,3.45866455078125,-0.12700853771250228,0.20098675787448883,-0.057782130905264066,0.11283168196678162,0.13472839913802723,0.9881718636091446,0.2756840738086919,right,-0.0005933642387390137,0.07345288726857933,-1.238831893609464,-9.701429630115628,0.04501071421128332,-0.22788016498088837,0.0037706270813941956,-0.7196794249340891,-0.0006972625851631165
1776817177670664200,3.498664306640625,-0.1236597265674607,0.17640137672424316,-0.05671145554967234,0.07925713062286377,0.13829487065049917,0.9879600159500044,0.2820690400787391,right,-0.009590446949005127,0.063231778370084,-1.2071811292614787,-9.71231693483293,0.0399183449634934,-0.27597200870513916,0.005897007882595062,-0.619678981655091,0.013340696692466736
1776817177710664200,3.538664306640625,-0.1214146580810768,0.14147710800170898,-0.05636853303733614,0.04485008120536804,0.14109848168323597,0.9878045396191184,0.28687962933944205,right,-0.008607566356658936,0.05128911372605461,-1.1861850299187005,-9.721655841064452,0.03400149331874651,-0.3075408339500427,0.0016780868172645569,-0.5027541454516351,0.011643122881650925
1776817177750664400,3.57866455078125,-0.12047375339303125,0.12444696575403214,-0.056746631933728676,0.0014360621571540833,0.1433614291360051,0.9876481602519346,0.2906389070906226,right,-0.011969566345214844,0.03885581950980156,-1.1776976259499787,-9.728221190929412,0.027902952547156436,-0.3094080090522766,-0.005657181143760681,-0.38094979357831177,0.014634277671575546
1776817177790664400,3.61866455078125,-0.12090073785171092,0.09181533753871918,-0.05785574387349703,-0.012886361218988895,0.1451475702976382,0.9874784115411906,0.29346508226424617,right,0.001345515251159668,0.02608728618432265,-1.1823416523635386,-9.731752872186899,0.021711648655115063,-0.3111425042152405,-0.0057885050773620605,-0.25580013159876686,0.017476674169301987
1776817177830664400,3.65866455078125,-0.12067250177957922,0.03476882725954056,-0.05861739512124732,0.034894466400146484,0.1460184540051393,0.987417742067331,0.2944786465145239,right,0.004279732704162598,0.01404437967953636,-1.1804057158648966,-9.734375037384032,0.015779724977053954,-0.2820335626602173,-0.0066367387771606445,-0.1377240612672642,0.015967465937137604
1776817177870664400,3.69866455078125,-0.1190324678730665,-0.016003843396902084,-0.05859850068947508,0.057420603930950165,0.14583558047745432,0.9875178223503585,0.2934372561870188,right,0.002325594425201416,0.0033365369901757346,-1.164547783128172,-9.737204123330116,0.010343116379014111,-0.2622659206390381,-0.009228482842445374,-0.03272046452228678,0.012830904684960842
1776817177910664200,3.738664306640625,-0.11631244736946174,-0.053152453154325485,-0.0579705199654436,0.08900314569473267,0.1448280443043908,0.9877431937097707,0.29080474655100585,right,0.0021854639053344727,-0.006370155846010338,-1.1380413959313183,-9.740192199230194,0.005275359714134447,-0.23450058698654175,-0.004225969314575195,0.06246918779136613,0.0077446275390684605
1776817177950664200,3.778664306640625,-0.11360090432041518,-0.07491862028837204,-0.05724454573229356,0.0689975917339325,0.14323702187900947,0.988031278763506,0.28709425049586207,right,-0.00025451183319091797,-0.01484463823236245,-1.1115263139713556,-9.742366620659828,0.0007869100383153779,-0.2135418951511383,-0.008271753787994385,0.145570546117099,0.010672995820641518
1776817177990664400,3.81866455078125,-0.11159637364529097,-0.08852842450141907,-0.05682117181790251,0.051982369273900986,0.14134505669811123,0.9883223827989543,0.28282384611920824,right,-0.00467151403427124,-0.022914570300070145,-1.0918288761369883,-9.74309025875926,-0.0034653578864649415,-0.21247370541095734,-0.006137251853942871,0.2246952193642035,0.018418431282043457
1776817178030664400,3.85866455078125,-0.10992967608560242,-0.15644633769989014,-0.05652204195630976,0.06385762244462967,0.1387536732448436,0.9886835474250666,0.2771725532459414,right,0.006402313709259033,-0.030711709104042226,-1.0753636982221155,-9.742858788090944,-0.0075967682289465625,-0.1979137510061264,0.016350694000720978,0.301131356780231,0.028564229607582092
1776817178070664400,3.89866455078125,-0.107220794996529,-0.311552494764328,-0.055520070880957936,0.08580446243286133,0.13403405907607266,0.9893606285507999,0.26735770151804816,right,-0.006287574768066406,-0.0364018648227491,-1.0487671485237777,-9.74387468713522,-0.01087099308773525,-0.1083846315741539,0.02188996970653534,0.3569012478623539,0.052080683410167694
1776817178110664400,3.93866455078125,-0.10918952424847032,-0.6432075500488281,-0.0564281595421086,-0.1732991337776184,0.12483182489138117,0.9905045313735702,0.2487128523052681,right,-0.065890371799469,-0.03700079634961978,-1.067924707327783,-9.741576931586861,-0.01156193294854524,0.007233358919620514,0.0020788833498954773,0.36277079748287794,0.10655632615089417
1776817178150664400,3.97866455078125,-0.12296945009858559,-0.9219639301300049,-0.06273916738212756,-0.4342884123325348,0.10923177972630312,0.9919973748825335,0.21745131884273966,right,-0.04467886686325073,-0.03071412686296873,-1.2023132309641689,-9.728007840439677,-0.00857012157008853,0.15768471360206604,-0.01769275963306427,0.3011551029819995,0.062218599021434784
1776817178190664200,4.018664306640625,-0.1416363504000602,-1.0560787916183472,-0.07117633471557828,-0.4141290783882141,0.08973415978606214,0.9934180404707109,0.1790502088278309,right,0.009540200233459473,-0.015763419415122853,-1.3841658088259399,-9.70724328483045,-0.001504336184191787,0.33123651146888733,0.0016344934701919556,0.15457973633706568,0.016579508781433105
1776817178230664400,4.05866455078125,-0.1561664340589331,-0.9928049445152283,-0.07763588527744918,-0.31167489290237427,0.06954811484183644,0.9945210564609477,0.14003153039466035,right,0.015070736408233643,0.0050653651440065615,-1.5252316913343964,-9.687186585229634,0.007975800165362795,0.38043802976608276,-0.001924857497215271,-0.04967419542237184,-0.02118908055126667
1776817178270664400,4.09866455078125,-0.16558121841179468,-0.8152534365653992,-0.0818921041346842,-0.18992698192596436,0.05202590981466514,0.9951346926184661,0.10659068085272727,right,0.018249809741973877,0.025609968325161922,-1.6158562573723494,-9.669349899765848,0.01714752367103871,0.3491363823413849,0.007530719041824341,-0.25112065027933567,-0.022540517151355743
1776817178310664400,4.13866455078125,-0.17020258096760602,-0.6138143539428711,-0.08404150067396429,-0.10360246896743774,0.03819576648065158,0.9954159541746337,0.08040647555422147,right,0.015763700008392334,0.04337491314818706,-1.6595067446589469,-9.655858550029992,0.025005311841210773,0.2972952425479889,-0.0026528090238571167,-0.42522929948344823,-0.024978384375572205
1776817178350664400,4.17866455078125,-0.17211487102631856,-0.43454521894454956,-0.08497725359052036,-0.047396380454301834,0.02826833108484793,0.9954786582931024,0.06180529255405903,right,0.011964082717895508,0.058255003879812285,-1.676699140869826,-9.64536521306634,0.03165632419734005,0.2726019620895386,-0.004627496004104614,-0.5709633929986506,-0.018636446446180344
1776817178390664400,4.21866455078125,-0.17187253202859368,-0.30859503149986267,-0.08487880649210312,0.027989592403173447,0.021387082875080253,0.995452260235552,0.049105059307936204,right,0.013997554779052734,0.07126662729238524,-1.6729492868170142,-9.637634911075233,0.03758941505431642,0.24940074980258942,0.0025071650743484497,-0.6982954222522676,-0.002544790506362915
1776817178430664200,4.258664306640625,-0.16922244774697143,-0.20941287279129028,-0.08358913270601132,0.06402499973773956,0.01673949477998507,0.9954446877386686,0.040612371124278665,right,-0.0004686713218688965,0.08229127323611202,-1.6460063348338008,-9.633860068711638,0.042692933126742355,0.21906037628650665,-0.003968268632888794,-0.8060911955825985,0.0034123286604881287
1776817178470664200,4.298664306640625,-0.1659930959361062,-0.15113702416419983,-0.08200543766925183,0.08367402851581573,0.013583837443572765,0.995427774914007,0.03491465791406746,right,-0.0027366280555725098,0.09158322645202514,-1.6135793984815476,-9.631322659188509,0.04705672979829011,0.20954689383506775,-0.0010993629693984985,-0.8968697100732475,0.00979093462228775
1776817178510664400,4.33866455078125,-0.16337106203107699,-0.07385551929473877,-0.08068927786891018,0.06375037878751755,0.01179074132753406,0.995360531530095,0.031877309680408875,right,0.0009756684303283691,0.09992038088583424,-1.5870488266915082,-9.627807344543934,0.051065400207548343,0.21054305136203766,-0.009235277771949768,-0.9782544463399797,-0.0019788816571235657
1776817178550664400,4.37866455078125,-0.1618976688425986,-0.02987389639019966,-0.07988847100956399,0.03344152495265007,0.011287653164026709,0.9952222607786738,0.03144039114229574,right,-0.007492721080780029,0.10784745567536488,-1.571562211485207,-9.622179567790031,0.05498370797365153,0.2217634618282318,-0.00826515257358551,-1.0555732483420521,-0.01908578723669052
1776817178590664400,4.41866455078125,-0.1609511061494795,-0.0037230364978313446,-0.0793072334434624,0.05320313572883606,0.011314628024570379,0.9950151665127618,0.03216096093335797,right,0.007145106792449951,0.11666124294637821,-1.5609018473915754,-9.614106151449679,0.05939178971743606,0.2428426593542099,-0.0036780834197998047,-1.1414626756168902,-0.0293998122215271
1776817178630664400,4.45866455078125,-0.15902093798080535,0.023358464241027832,-0.07818201249763075,0.08567444980144501,0.012139834869205154,0.9948149824601623,0.034423370054202894,right,0.010739028453826904,0.125570738424367,-1.5406705218762158,-9.606677462753654,0.06390094342484297,0.21179236471652985,0.005539894104003906,-1.2281946181304753,0.00006261467933654785
1776817178670664200,4.498664306640625,-0.15505091909078833,0.008292730897665024,-0.07606325604093851,0.14252179861068726,0.012907164006717552,0.9947261329777594,0.03628758634708141,right,0.0126495361328125,0.13288583513447683,-1.50109210633412,-9.603584757435321,0.06758574062915876,0.15806132555007935,0.010570347309112549,-1.299332831801474,0.015993565320968628
1776817178710664200,4.538664306640625,-0.15040691550216911,0.023988744243979454,-0.0736374386422031,0.1067783385515213,0.01361323521682342,0.9947112659422409,0.037805582411270126,right,-0.005328178405761719,0.138289718164286,-1.4554036834791302,-9.603369653379916,0.07029891752829898,0.12406112253665924,0.0023698359727859497,-1.35184043315202,0.012792959809303284
1776817178750664400,4.57866455078125,-0.1471419547723527,0.03720513731241226,-0.07190249843999443,0.06753411889076233,0.014540027643923715,0.9946952557625036,0.039704941633235805,right,-0.010042250156402588,0.14184320591500785,-1.423328044782579,-9.603258009698987,0.07211202443593163,0.09012067317962646,0.0046861618757247925,-1.3863469522573053,0.012097910046577454
1776817178790664400,4.61866455078125,-0.1447442159026984,0.05253657326102257,-0.07059882402359255,0.06636685878038406,0.015621323878790198,0.9946773175961773,0.041889156162959885,right,-0.005191624164581299,0.14433079134228383,-1.3997962164171038,-9.603200726553798,0.07340868394893744,0.08104541152715683,0.00468030571937561,-1.4104925286069512,0.0000756680965423584
1776817178830664400,4.65866455078125,-0.1423600288451752,0.061451345682144165,-0.06927521843373453,0.06511148065328598,0.017003288685372497,0.9946463957874686,0.044679847732411376,right,-0.007815003395080566,0.14691033979491602,-1.376375593341142,-9.6028774859488,0.07476942113319794,0.08757275342941284,0.0067854225635528564,-1.4355214636623859,0.0008015036582946777
1776817178870664400,4.69866455078125,-0.13999380202462355,0.06471758335828781,-0.0679429033104775,0.07145314663648605,0.018539703954696087,0.9946018888918633,0.04778634226667966,right,-0.00011092424392700195,0.1496258575754405,-1.353100223954767,-9.602211715516447,0.0762050952918057,0.08073138445615768,0.011043533682823181,-1.4618594354897736,0.008092164993286133
1776817178910664200,4.738664306640625,-0.13740381689848427,0.04809520021080971,-0.06650360057060317,0.0658704936504364,0.01991315634597542,0.9945519382696779,0.05056158702959528,right,-0.0009284019470214844,0.15262444972295894,-1.3276197457395493,-9.601298692324757,0.07776425849206182,0.09310891479253769,0.008444234728813171,-1.4909304855428636,0.009710371494293213
1776817178950664200,4.778664306640625,-0.13510835689403922,0.04634961113333702,-0.0652249621726977,0.04514960199594498,0.020975383746099394,0.9944808475356666,0.05274888509308192,right,-0.007752418518066406,0.15593648825176393,-1.304904640584439,-9.599375030785799,0.0794593129998633,0.09583730250597,0.00029189884662628174,-1.5230246828094125,0.0013869702816009521
1776817178990664400,4.81866455078125,-0.134126123271605,0.0612700916826725,-0.06459100618189179,0.023558035492897034,0.022249481604421043,0.9943905692663199,0.055402132673750784,right,-0.011086702346801758,0.15838026864536964,-1.2949734675481914,-9.596935236418247,0.08074955309895458,0.05631692707538605,0.004270628094673157,-1.5466946044713257,0.007389262318611145
1776817179030664400,4.85866455078125,-0.1333737488764245,0.0567723773419857,-0.06409821511277417,0.04290197417140007,0.023525179919896142,0.9943513154909785,0.05796786675305203,right,0.001771688461303711,0.15926418917162133,-1.2875703516848385,-9.596547698405384,0.0812628256202021,0.023263301700353622,0.012081198394298553,-1.5552537585020065,0.00783488154411316
1776817179070664400,4.89866455078125,-0.13246917682913503,0.07825377583503723,-0.06354091912720858,0.017413003370165825,0.02494150055779718,0.994356547901956,0.06072513432061545,right,-0.001591801643371582,0.1590094858268328,-1.2789413472883402,-9.598100773066282,0.08121326202523206,0.001855982467532158,0.0043526142835617065,-1.5527875145189463,-0.002264156937599182
1776817179110664400,4.93866455078125,-0.13179074986834166,0.08705732971429825,-0.06308163599179564,0.024054119363427162,0.02654515776126133,0.9943498915495027,0.06387329310234971,right,-0.004416048526763916,0.1586891667476825,-1.2724948014974593,-9.599459201937913,0.08114497979392785,0.02083411253988743,0.001475691795349121,-1.549685895241797,-0.012228116393089294
1776817179150664400,4.97866455078125,-0.13228921421229747,0.16380958259105682,-0.06311741546566128,-0.004656706005334854,0.02906980823247973,0.9942558032497137,0.06900484188443679,right,-0.006257116794586182,0.15887205144758432,-1.2772421421550213,-9.598542671614885,0.08140469772256521,0.010888373479247093,-0.004963591694831848,-1.5514567043066023,-0.02770887315273285
1776817179190664200,5.018664306640625,-0.13364060195332064,0.25704488158226013,-0.06348893911421336,0.0016185343265533447,0.033194274356281625,0.9941497503335258,0.07729234484601992,right,-0.0013889670372009277,0.15714774967872025,-1.2905669031523168,-9.599444588890671,0.08083122362419114,-0.0668361634016037,0.00024290382862091064,-1.5347577907010912,-0.03096318244934082
1776817179230664400,5.05866455078125,-0.13505975980561707,0.3619381785392761,-0.06387057807957205,0.030539656057953835,0.03924901595690785,0.9941233187688834,0.08914145111530433,right,0.007597923278808594,0.15083052280066025,-1.3054681196860969,-9.60701882353723,0.07809543821683955,-0.19554254412651062,0.01821291446685791,-1.4735402286723256,-0.037351712584495544
1776817179270664400,5.09866455078125,-0.1356674465374073,0.494665265083313,-0.06385924739771677,0.05805179476737976,0.047591327051861435,0.9941361474483664,0.10518506884758932,right,0.018331527709960938,0.13981265731356032,-1.3134221474304795,-9.621726563325524,0.07314687002444914,-0.2876036465167999,0.026972375810146332,-1.3666313211791217,-0.03744804859161377
1776817179310664400,5.13866455078125,-0.13477533046931242,0.5714020729064941,-0.06314909921012087,0.10403409600257874,0.05798348345225779,0.9940722253979959,0.12503755373786524,right,0.01738595962524414,0.12594301183692128,-1.3072592408865689,-9.640751581791042,0.06686312023324793,-0.32126837968826294,0.041729360818862915,-1.2318166080199182,-0.03468020260334015
1776817179350664400,5.17866455078125,-0.13212887964980255,0.6045351624488831,-0.061627969250945595,0.12870997190475464,0.06945326959274005,0.9938325823676003,0.14697095488443077,right,0.011130034923553467,0.11217372542906993,-1.2838539615102111,-9.66007587546408,0.06062346792060109,-0.28684502840042114,0.04756411910057068,-1.097742995551601,-0.030874550342559814
1776817179390664400,5.21866455078125,-0.12809144536663622,0.5869697332382202,-0.059444629258766,0.1522165983915329,0.08126247079199751,0.9933778819134566,0.16969376116492804,right,-0.005001425743103027,0.10046935279656029,-1.2463976526886225,-9.677261403542756,0.055347340886503435,-0.231657475233078,0.05280553549528122,-0.98361115106754,-0.0025360584259033203
1776817179430664200,5.258664306640625,-0.12436576060530072,0.5620764493942261,-0.057535263569684886,0.09028512239456177,0.0925811393837911,0.9927684460012101,0.19153856979998285,right,-0.02072209119796753,0.08932520054497954,-1.2116191847741604,-9.692113520237802,0.050293611435045814,-0.25821438431739807,0.03662535548210144,-0.8748166490234434,0.021589092910289764
1776817179470664200,5.298664306640625,-0.12254673223195943,0.5209563970565796,-0.056783953188512336,0.036039579659700394,0.103111614352487,0.9920421180809862,0.21186078974539785,right,-0.004814505577087402,0.07701210325911419,-1.1952131897006184,-9.704256962496041,0.044678632923244505,-0.2514439523220062,0.03220020979642868,-0.7544845616597682,0.018509525805711746
1776817179510664400,5.33866455078125,-0.12214284568811563,0.47491690516471863,-0.05682187281045872,0.01649889163672924,0.11280047428353215,0.9912011725055475,0.23064870315018518,right,0.005744278430938721,0.06572019511445154,-1.1922557281345127,-9.71257587803006,0.03959436628400947,-0.21014878153800964,0.02575632929801941,-0.6440312595579772,0.023626111447811127
1776817179550664400,5.37866455078125,-0.12214208173488492,0.43050721287727356,-0.05714808699680417,-0.012083815410733223,0.12153025831744316,0.9903294126587915,0.24758305417962592,right,0.0009232163429260254,0.055099699067275375,-1.193014437547326,-9.718817987290024,0.034817842292056284,-0.21515178680419922,0.007551863789558411,-0.5400703151501715,0.027606802061200142
1776817179590664400,5.41866455078125,-0.12174020776964879,0.3427712917327881,-0.05737861396628386,0.03594227880239487,0.12902925174312024,0.9895222374973616,0.26205530925115655,right,-0.002231299877166748,0.044744780896249475,-1.1897239446345715,-9.72432652157843,0.03008365493642884,-0.20839856564998627,0.013967335224151611,-0.43865021433159707,0.03429914265871048
1776817179630664400,5.45866455078125,-0.11950706409569475,0.2500813603401184,-0.05678829377303525,0.06570605933666229,0.13458427921410898,0.9889482593663368,0.2726029558809716,right,-0.015462696552276611,0.03490086873790367,-1.1684634222019463,-9.730774967065454,0.025370087149353415,-0.21017608046531677,0.004455886781215668,-0.34219135264959183,0.03795228898525238
1776817179670664200,5.498664306640625,-0.11714236251056873,0.17151154577732086,-0.05617940879866606,0.04902075231075287,0.13858303600891975,0.9885373087817003,0.2800633774919472,right,-0.017297446727752686,0.025558660612325753,-1.1457734514880924,-9.736261289522051,0.020801897775851612,-0.1765877604484558,0.00726693868637085,-0.2506177970574237,0.032149672508239746
1776817179710664200,5.538664306640625,-0.1153046389646696,0.09796231985092163,-0.05571066261595547,0.04257606342434883,0.1411395594681145,0.9882676015164639,0.28479059158043996,right,-0.009486377239227295,0.01869114967316428,-1.1280503824666142,-9.739830380180477,0.0174122970729216,-0.10836616903543472,0.010332368314266205,-0.18328714070953428,0.016729753464460373
1776817179750664400,5.57866455078125,-0.11370696636212624,0.03329367935657501,-0.05527399908488884,0.03290526568889618,0.14239717246135736,0.988154399410213,0.28700605968284243,right,-0.007493913173675537,0.013496395675495335,-1.1125808645255864,-9.742434425199031,0.014794099142387971,-0.11374761164188385,0.01032419502735138,-0.13235067026638425,0.008013762533664703
1776817179790664400,5.61866455078125,-0.11154592436563791,-0.01910180225968361,-0.05456969517888242,0.058394841849803925,0.14239222678151267,0.9882304646706779,0.2866778041861479,right,-0.0015010237693786621,0.008444211535348842,-1.0915849843785166,-9.745356450125575,0.012135181449962349,-0.11552456021308899,0.0034014880657196045,-0.08280870465524494,-0.016274847090244293
1776817179830664400,5.65866455078125,-0.1091601561022196,-0.03383700177073479,-0.053677870240083435,0.04502195864915848,0.14175796205332794,0.9883944733727851,0.28514961796207905,right,-0.007508993148803711,0.004531218437042056,-1.0683588609613477,-9.74818027537465,0.009990815635114829,-0.07733173668384552,-0.014196351170539856,-0.04443618973761331,-0.032289281487464905
1776817179870664400,5.69866455078125,-0.1072964409831014,-0.04499568045139313,-0.05287517598757009,0.04029884189367294,0.14081106847593278,0.9885821766775887,0.2831320839983343,right,-0.011165499687194824,0.002992769607448993,-1.0501952816307545,-9.750210904419422,0.009045067580187279,-0.03193148225545883,-0.0373506098985672,-0.02934926648956025,-0.04355216026306152
1776817179910664200,5.738664306640625,-0.10650211351915673,-0.014448769390583038,-0.05250299890137186,-0.003015957772731781,0.14010337179130689,0.988704294467305,0.2816825543259384,right,-0.026179194450378418,0.002793775930263618,-1.042450658853352,-9.751047355243562,0.0088527311676385,-0.03646036610007286,-0.06357543915510178,-0.027397812761378006,-0.062445033341646194
1776817179950664200,5.778664306640625,-0.10746271195951286,0.026234634220600128,-0.05303219002367748,-0.001965421950444579,0.1401278433871778,0.9886754001416753,0.28169884843272497,right,-0.008504509925842285,0.0020180213274407924,-1.0518190103750675,-9.750060097771883,0.00853697421396054,-0.05334305018186569,-0.07955475896596909,-0.019790280916704796,-0.06405771523714066
1776817179990664400,5.81866455078125,-0.10866758326441696,0.042105525732040405,-0.05373241559015871,0.014261122792959213,0.14071966445824247,0.9885589740960967,0.2828218682617669,right,0.009222686290740967,0.00046263720000577085,-1.0635678272925317,-9.748804544752836,0.007882712400900941,-0.06484390795230865,-0.08532090485095978,-0.00453718876978819,-0.051940739154815674
1776817180030664400,5.85866455078125,-0.11010718281467831,0.04736728221178055,-0.054566569278485064,0.0023041842505335808,0.1415320586519921,0.9884030597370329,0.28437688147923185,right,0.02691936492919922,-0.0013584822236834535,-1.077600225102529,-9.747254977223276,0.007126321505432284,-0.07837474346160889,-0.09212397038936615,0.013321885195263894,-0.02921007014811039
1776817180070664400,5.89866455078125,-0.11157873873898612,0.03529580682516098,-0.05543247333862688,0.045068755745887756,0.14221477516033762,0.9882626696559454,0.28565680669503135,right,0.062123000621795654,-0.003376157634339781,-1.0919374510779976,-9.745612470713258,0.006268820337340361,-0.07270844280719757,-0.08121014386415482,0.03310846147616393,0.0037785405293107033
1776817180110664400,5.93866455078125,-0.11154321936939905,0.05183826759457588,-0.055562679613053396,0.042608506977558136,0.1429231830289864,0.9881591044007105,0.2869720888104651,right,0.059921324253082275,-0.005505737877126831,-1.0915810388557612,-9.745559279221295,0.005250510746951784,-0.07395948469638824,-0.08552267402410507,0.05399229608350433,0.029980212450027466
1776817180150664400,5.97866455078125,-0.11109969973299876,0.07766272872686386,-0.05554727143997007,0.07711142301559448,0.1441409207929142,0.9879894346189791,0.2892737081347233,right,0.06841802597045898,-0.008424815859486163,-1.0872364337801932,-9.745843941381573,0.0038404021551919237,-0.07468753308057785,-0.07871341705322266,0.0826179678561166,0.058287378400564194
1776817180190664200,6.018664306640625,-0.10907568673532585,0.10971345752477646,-0.0548165485123708,0.08646334707736969,0.14589335562083675,0.9877785869584558,0.2926096328856902,right,0.03717470169067383,-0.012215862473841686,-1.0674667344272135,-9.747643099758028,0.001912970077093212,-0.0779988244175911,-0.0832822397351265,0.11979342304286546,0.06579625606536865
1776817180230664400,6.05866455078125,-0.10762823065425481,0.15305756032466888,-0.054345210525439176,0.06770899146795273,0.14850128473475369,0.9874177717556857,0.29771050380653685,right,0.0032892227172851562,-0.015578294667039949,-1.0533071300409733,-9.748722711688279,0.0002850883407223899,-0.008572831749916077,-0.07979193329811096,0.15276441227709875,0.0459754541516304
1776817180270664400,6.09866455078125,-0.10753393884019807,0.1778307557106018,-0.054397172577548294,0.03367258235812187,0.15193583590751955,0.9868923231915155,0.3045994664586375,right,-0.035537123680114746,-0.0168996149054941,-1.052365319146216,-9.748612821573019,-0.00018697618878123662,0.04454589635133743,-0.06601418554782867,0.16572043129354713,0.030748561024665833
1776817180310664400,6.13866455078125,-0.1075995333532,0.15137478709220886,-0.05440826576317568,0.051615916192531586,0.1553796145646278,0.986355357879635,0.3115950633185082,right,-0.033943772315979004,-0.016620262350411634,-1.053009681464359,-9.748589440697431,0.0001461813642329095,0.07364048063755035,-0.03978365659713745,0.1629812886532396,0.02017062157392502
1776817180350664400,6.17866455078125,-0.10575182852075321,0.09359273314476013,-0.05327919296000079,0.09472321718931198,0.15794561244697594,0.9860082115145847,0.31694189389274663,right,-0.027491092681884766,-0.01385149331848554,-1.0350390674225984,-9.750929866343736,0.0015108287646494164,0.12112177908420563,-0.022696271538734436,0.1358321009076666,0.0030469978228211403
1776817180390664400,6.21866455078125,-0.10226441763769346,0.047922246158123016,-0.051249488383681756,0.10920906811952591,0.15946089320147186,0.9858677584394031,0.32020551169781736,right,-0.019617855548858643,-0.009972117932471058,-1.0010735963914543,-9.75493091867864,0.003231988101934812,0.10252324491739273,-0.013857893645763397,0.0977911423322279,-0.001318603754043579
1776817180430664200,6.258664306640625,-0.09836033724030346,0.019490079954266548,-0.0490731887701145,0.10619506239891052,0.16018877786070468,0.9858555024297208,0.32182137961383783,right,-0.009497284889221191,-0.00685138455657381,-0.9630073389779775,-9.759020818340778,0.004498943959539093,0.07229803502559662,-0.004326492547988892,0.06718830243486446,-0.009519921615719795
1776817180470664200,6.298664306640625,-0.09490352418996777,0.009723744355142117,-0.047192081210572924,0.08612784743309021,0.1605397731093811,0.9858861978649291,0.32262101509921454,right,-0.0005539655685424805,-0.004663146907658288,-0.9292782339859753,-9.762414552432299,0.0053197225172759675,0.04639137536287308,0.0007736086845397949,0.045729380486463196,-0.009647669270634651
1776817180510664400,6.33866455078125,-0.0921064820201554,0.002374079078435898,-0.045667484916566026,0.05915728211402893,0.1606988531365969,0.9859282224235243,0.3230115044654692,right,0.0002911090850830078,-0.002859677245894068,-0.901974851192534,-9.76504139380455,0.005993210908461351,0.04222020134329796,0.005222611129283905,0.028043513086659366,-0.00942150130867958
1776817180550664400,6.37866455078125,-0.0906754116649279,-0.002647614572197199,-0.044767765178596694,0.036246392875909805,0.16073100447697913,0.985957140961196,0.3231772055998035,right,0.009399831295013428,-0.0004480715795289947,-0.8880030244633554,-9.766361244231462,0.007070826705794705,0.06646179407835007,0.01576480269432068,0.004393779692004318,-0.017246048897504807
1776817180590664400,6.41866455078125,-0.08919755465073832,0.016080370172858238,-0.04380161629428817,0.022771626710891724,0.16091287895933443,0.9859604089708106,0.32366664950376717,right,-0.015216290950775146,0.002482311160113462,-0.8735662105709314,-9.76763374838531,0.008407435441607996,0.05632743611931801,0.024543404579162598,-0.0243434324427275,-0.030899444594979286
1776817180630664400,6.45866455078125,-0.0882880261774651,0.041016750037670135,-0.04322700386481605,0.013249237090349197,0.16154425023608743,0.9858763648147046,0.3250059909604838,right,0.014673471450805664,0.0039744246464690726,-0.8646777515206485,-9.768377260228991,0.00909878899727368,0.009713642299175262,0.04182342067360878,-0.0389759881029604,-0.028216468170285225
1776817180670664200,6.498664306640625,-0.08686922679805163,0.057033661752939224,-0.04247137152728646,0.024987919256091118,0.16255466298267848,0.9857411443406857,0.32706815153622365,right,0.029356956481933594,0.004551458479503118,-0.8508153765153139,-9.769570269405842,0.009312425397116613,-0.0013871286064386368,0.05479063093662262,-0.044634707984398114,-0.038615114986896515
1776817180710664200,6.538664306640625,-0.08463158733886889,0.0716991052031517,-0.041306502189437995,0.05330263078212738,0.16386681771729705,0.9855717783524028,0.32973559275645214,right,0.011525273323059082,0.005158012973590359,-0.8289500931225716,-9.771420865708588,0.00948460611510845,0.0014203095342963934,0.05521272495388985,-0.050582907765125855,-0.057429660111665726
1776817180750664400,6.57866455078125,-0.0825215313935372,0.0756102055311203,-0.04024474932692696,0.023146608844399452,0.16535024443648003,0.9853684984427848,0.3327299861655624,right,0.010579466819763184,0.005253926910008539,-0.8083296221591532,-9.773143451717495,0.009419248253326674,-0.024791952222585678,0.05362921208143234,-0.05152349025059957,-0.06518919765949249
1776817180790664400,6.61866455078125,-0.08088412253775958,0.06306865066289902,-0.039509833822625344,0.009412645362317562,0.16670288681515957,0.9851756780533119,0.33541881613977614,right,0.039160847663879395,0.004243152795804346,-0.792329723668471,-9.774500711545347,0.008839005652948893,-0.06677631288766861,0.04988541454076767,-0.041611295909457835,-0.060985714197158813
1776817180830664400,6.65866455078125,-0.07924400310632854,0.050527092069387436,-0.038774807276284365,-0.004321317188441753,0.16805512817007337,0.9849801394480708,0.33810939990623967,right,0.06773865222930908,0.0032367860636428655,-0.7763002337571233,-9.775824069103598,0.008258740543785285,-0.10876066982746124,0.04613859951496124,-0.0317422831229167,-0.05677783489227295
1776817180870664400,6.69866455078125,-0.07958017734167083,0.02846984937787056,-0.03922381711570542,-0.056837841868400574,0.16868350573949675,0.9848672992578636,0.33925177300599313,right,0.1540547013282776,-0.0001795956640586403,-0.7795905805394053,-9.77561364122331,0.006626895981756668,-0.09299691766500473,0.053823914378881454,0.0017609177157479278,-0.042037684470415115
1776817180910664200,6.738664306640625,-0.0811479862434292,0.022811416536569595,-0.04015867404737777,-0.04480402171611786,0.16922691272161078,0.98474150838996,0.3402863817984252,right,0.15829449892044067,-0.002146102401922852,-0.794914114138484,-9.774356919160486,0.005811553592504033,-0.03413235768675804,0.06804177165031433,0.021045742604206316,-0.060924939811229706
1776817180950664200,6.778664306640625,-0.08185511899977768,0.03668931871652603,-0.040634308840813635,0.002518821507692337,0.16969884793084558,0.9846445207359081,0.3411866590714573,right,0.11591410636901855,-0.003680750515770859,-0.8018221399612724,-9.77374843187332,0.005134060250119441,-0.059042274951934814,0.0719582587480545,0.03609543226454407,-0.07558531314134598
1776817180990664400,6.81866455078125,-0.08168489962445252,0.06210768222808838,-0.040810263896463576,0.015982355922460556,0.1706433820852081,0.9844806915683505,0.34297906051720717,right,0.09136962890625,-0.00678355992725352,-0.8001454389207064,-9.773726220041512,0.0036285602501593666,-0.09404269605875015,0.0934213399887085,0.06652316675675102,-0.0757899135351181
1776817181030664400,6.85866455078125,-0.08005187317481553,0.03947844356298447,-0.040475088839266496,0.06682054698467255,0.17170947548393062,0.9843154555786812,0.3449228871334373,right,0.06489545106887817,-0.012296025637095075,-0.7841423986248671,-9.774505972242356,0.0008148793889901188,-0.17240086197853088,0.12427842617034912,0.12057945885402149,-0.05856287106871605
1776817181070664400,6.89866455078125,-0.07739772573887012,-0.0020599402487277985,-0.03985098370377274,0.04571662098169327,0.17189701003750563,0.984302916778354,0.3450047632085483,right,0.0397915244102478,-0.020265660783575095,-0.7580982951775193,-9.775283970877528,-0.003334209232920032,-0.2002643644809723,0.11727653443813324,0.19872430901722982,-0.07402888685464859
1776817181110664400,6.93866455078125,-0.07723430550417648,-0.004102361388504505,-0.04037187111048735,-0.06597168743610382,0.1716726983987908,0.984302713988518,0.34429139217126936,right,0.001078486442565918,-0.02732477953202307,-0.7563737364072353,-9.77376596753001,-0.006837268174684257,-0.15224185585975647,0.09981059283018112,0.26793087877221405,-0.13830594718456268
1776817181150664400,6.97866455078125,-0.07917763570350657,0.03787253424525261,-0.04164140234330154,-0.11024560779333115,0.17178237865091903,0.984217954171183,0.3443649328535001,right,0.02138584852218628,-0.030992664943330757,-0.77528294647336,-9.77123206513822,-0.008474334967236189,-0.12390696257352829,0.0656106173992157,0.303885222065635,-0.16662757098674774
1776817181190664200,7.018664306640625,-0.08070548720890929,0.07559570670127869,-0.04277104723219485,-0.10837465524673462,0.1729079423082786,0.9839537285346764,0.3464781702005646,right,0.0286368727684021,-0.035294521819312995,-0.7900983844198286,-9.768642633166909,-0.01041526974111127,-0.21897195279598236,0.0604424849152565,0.34604883179534224,-0.17740878462791443
1776817181230664400,7.05866455078125,-0.08158486292477043,0.06765066087245941,-0.04373706379402788,-0.01902269572019577,0.17398908266019364,0.9836861039348112,0.34843937311182066,right,0.08423560857772827,-0.041365155956277294,-0.7985024209540337,-9.765670339357852,-0.01328361616419643,-0.2491668164730072,0.06774170696735382,0.4055375972701236,-0.2078523188829422
1776817181270664400,7.09866455078125,-0.08192467838886147,0.09112292528152466,-0.0446536243514089,-0.07730898261070251,0.17544937378544934,0.9833222867952378,0.35109258622745154,right,0.13503813743591309,-0.04980012566233891,-0.8015124894902109,-9.761641814494132,-0.01734458952346861,-0.3002362549304962,0.0621887743473053,0.4881702147061005,-0.17318585515022278
1776817181310664400,7.13866455078125,-0.07686397881148405,-0.027044065296649933,-0.042933519080341445,0.9085884094238281,0.17614967532342748,0.9831795899827762,0.3523145539764282,right,0.02771085500717163,-0.058503511485472795,-0.7517469533894211,-9.760967276233433,-0.022043121011869615,-0.05057393014431,0.12538272142410278,0.5733958808425813,-0.21590200066566467
1776817181350664400,7.17866455078125,-0.08704242646832755,-0.07680685818195343,-0.04901048980503898,0.030702948570251465,0.17604634135325434,0.9827813580703904,0.3514075873247572,right,0.3578345775604248,-0.07101842725613465,-0.8503673404868691,-9.74489760044217,-0.027321697110244878,-0.005620025098323822,0.06831476092338562,0.6958671721920371,-0.20420944690704346
1776817181390664400,7.21866455078125,-0.09065170423490045,0.009582117199897766,-0.05091040273780554,0.10202013701200485,0.17561009094418328,0.9827484517702284,0.3503563460941493,right,0.23428738117218018,-0.07264992867578292,-0.8854298129744828,-9.740621238297223,-0.027832797224620506,-0.08136386424303055,-0.0524003803730011,0.7118254965633154,-0.006136715412139893
1776817181430664200,7.258664306640625,-0.09052405497547027,-0.09906187653541565,-0.05187245155071348,-0.12524068355560303,0.17473358390615829,0.9826613772225503,0.3481026803621938,right,0.03589308261871338,-0.08499528198102123,-0.8833246573887765,-9.731240246489644,-0.0339716532229425,-0.43833979964256287,-0.13560417294502258,0.832515384388715,0.11732510477304459
1776817181470664200,7.298664306640625,-0.09346965500691717,-0.18091639876365662,-0.05464003978805127,0.06318898499011993,0.17132027246339254,0.9827816189760947,0.34038236580498893,right,0.12789905071258545,-0.10238785553950945,-0.9104957921046763,-9.71270914902091,-0.0424749310321802,-0.4728587865829468,-0.07933322340250015,1.0023280534319579,0.19712819159030914
1776817181510664400,7.33866455078125,-0.09313048731804333,-0.1229851096868515,-0.05555993895507184,-0.11375100910663605,0.16777215753929434,0.982973048475843,0.3326032794593953,right,-0.008636713027954102,-0.11779315266207366,-0.9056579236194491,-9.696491004669666,-0.050295437374126624,-0.33573758602142334,-0.12029995769262314,1.1524863200649618,0.20131784677505493
1776817181550664400,7.37866455078125,-0.09935891590050136,-0.08316531777381897,-0.059699321030988954,-0.07691481709480286,0.1652701562776037,0.9827560875346172,0.326587279819655,right,0.049984753131866455,-0.13324778146417154,-0.9641518328379839,-9.671782679870724,-0.057552834728675735,-0.3769690692424774,-0.1235450804233551,1.3028506306640804,0.2763670086860657
1776817181590664400,7.41866455078125,-0.1046616227975773,-0.013576216995716095,-0.06374924577379985,0.026279091835021973,0.16399675764437266,0.9821174845587944,0.3228791895869876,right,0.07171422243118286,-0.15307330030546407,-1.0125267913632094,-9.63894774723947,-0.0669812294668961,-0.3651632070541382,-0.14950579404830933,1.495280497445911,0.2753256559371948
1776817181630664400,7.45866455078125,-0.10049467726940607,0.0163190308958292,-0.06301650333570133,0.23015254735946655,0.1630322816685806,0.9816501701554096,0.32053169775365087,right,0.011920154094696045,-0.1710615546845634,-0.9694975047148764,-9.614762569531798,-0.07623951056021672,-0.3160770833492279,-0.13426104187965393,1.6693709899388254,0.26356035470962524
1776817181670664200,7.498664306640625,-0.09474411225729201,0.052715763449668884,-0.061329359204428176,0.14981625974178314,0.1635388146250598,0.9810710812925085,0.3215457184310459,right,0.02172529697418213,-0.1852031270170169,-0.9118667881969362,-9.59571592375636,-0.08362632043547592,-0.3165760934352875,-0.07704976946115494,1.8058568511806428,0.2880917191505432
1776817181710664200,7.538664306640625,-0.08674010161762347,-0.04412739723920822,-0.05824229518595529,0.17477335035800934,0.16279309657388416,0.9808227970663203,0.32038951583721864,right,-0.05159163475036621,-0.19669938483071892,-0.8331805702991784,-9.581390461283922,-0.08996046240763209,-0.2557908296585083,-0.05611255019903183,1.9165468846477567,0.24974562227725983
1776817181750664400,7.57866455078125,-0.07846625290354109,-0.07043567299842834,-0.05460609387531225,0.3111391067504883,0.16092026274058227,0.9809270855252905,0.31716136900737324,right,-0.03487133979797363,-0.20412102940244253,-0.7527422480370849,-9.573511690732836,-0.09436586283762169,-0.15786990523338318,0.016630984842777252,1.9878714146710932,0.19100460410118103
1776817181790664400,7.61866455078125,-0.0655773788769841,-0.11379101872444153,-0.048513315032818236,0.39119213819503784,0.15842789256542883,0.9812770083122435,0.31323807503276496,right,-0.09574520587921143,-0.20961894920625504,-0.6285656871397047,-9.571368248963356,-0.09819626828515839,-0.1457425206899643,0.08059598505496979,2.04063795921877,0.1837453991174698
1776817181830664400,7.65866455078125,-0.05399699460479449,-0.1166091039776802,-0.0431789503553431,0.2562434673309326,0.15530157085807766,0.9815088620676906,0.30794832119080945,right,-0.15855556726455688,-0.21778107444710845,-0.5167697017246857,-9.561054360219835,-0.10323499564050018,-0.24025601148605347,0.09885735809803009,2.118860139801353,0.1827092319726944
1776817181870664400,7.69866455078125,-0.047222040065134065,-0.08187629282474518,-0.04027090042798133,0.0964297503232956,0.15239292266650817,0.981523216722643,0.30267588617823,right,-0.20854401588439941,-0.2271658965709702,-0.4510240678122267,-9.544052372014521,-0.108475854839622,-0.2507946789264679,0.07768532633781433,2.2086253125309945,0.16021594405174255
1776817181910664200,7.738664306640625,-0.046689153081959915,-0.01968730241060257,-0.04043616638802054,-0.003359563648700714,0.1513166074417858,0.9812611725129837,0.3004985689843677,right,-0.11073493957519531,-0.2346314716810148,-0.44515612562689927,-9.527554826200008,-0.11222661701672237,-0.09613685309886932,0.08257927000522614,2.2798944591052828,0.166076198220253
1776817181950664200,7.778664306640625,-0.03688655725260041,-0.06315411627292633,-0.03561733706539727,0.4858887493610382,0.14960823734079556,0.9815229556414267,0.29814089628693524,right,-0.44088685512542725,-0.23634191987656317,-0.3515971501048654,-9.527549565503001,-0.11384884911808534,-0.06845102459192276,0.012228298932313919,2.296205250176042,0.01020398736000061
1776817181990664400,7.81866455078125,-0.03658964873794285,-0.12304553389549255,-0.03610966882474074,0.24007947742938995,0.14908028736737194,0.9810198956956998,0.29709800459648644,right,-0.20779430866241455,-0.24597961427778242,-0.3479425731200725,-9.50509632615447,-0.11862149281505652,-0.19957077503204346,0.1299760341644287,2.387983224032819,0.19849899411201477
1776817182030664400,7.85866455078125,-0.03516135017807826,-0.12328397482633591,-0.03547560118479651,0.04456126689910889,0.14603835809168014,0.9811144276909194,0.2910753024887289,right,-0.1377764344215393,-0.25196648207897676,-0.33385753180738537,-9.49112566846907,-0.1217733756304959,0.01608988642692566,0.11563143134117126,2.444883945775777,0.23680131137371063
1776817182070664400,7.89866455078125,-0.03400154567684012,-0.06242261454463005,-0.0341459086498894,0.0338762104511261,0.14365870804621506,0.9819006882419592,0.2863624598737101,right,-0.17184537649154663,-0.24517738054062282,-0.32340631695240735,-9.50787631226182,-0.11860552345094356,0.2737346589565277,0.02898157760500908,2.3803521446324885,0.2389298528432846
1776817182110664400,7.93866455078125,-0.038014308624491934,0.030090313404798508,-0.035209932589932276,-0.14913822710514069,0.14406396216969874,0.9826042222454338,0.28672656804364494,right,-0.17550045251846313,-0.23188862551248945,-0.3627266660802066,-9.537270749050379,-0.11178002154004898,0.4677850604057312,-0.03966978192329407,2.253724683451652,0.22984908521175385
1776817182150664400,7.97866455078125,-0.041331918379433986,-0.06604275107383728,-0.035206196303794846,-0.07592202723026276,0.14453985863400753,0.9838256507478633,0.28743038190590886,right,-0.21326571702957153,-0.20800389126807342,-0.3964771061211824,-9.587073767617344,-0.09977877298271823,0.6736264228820801,-0.08101540803909302,2.025143745227903,0.3128441572189331
1776817182190664200,8.018664306640625,-0.04393499780295874,-0.12860888242721558,-0.034107660295852944,-0.0691472589969635,0.1427946357668513,0.9855906299465976,0.2838798744417512,right,-0.2317962646484375,-0.17624773938611807,-0.42404326803665604,-9.645413728383183,-0.08400845997433568,0.8566882014274597,-0.07641081511974335,1.7194651004068553,0.2993987500667572
1776817182230664400,8.05866455078125,-0.048501585635423866,-0.17845140397548676,-0.033829360716685956,-0.1205035001039505,0.1407063617610873,0.987215796455199,0.27970253723320004,right,-0.2135435938835144,-0.14188784454590686,-0.4706728441992774,-9.696684481415152,-0.06680009916681484,0.8196967244148254,-0.04681677371263504,1.3867799368470906,0.34705328941345215
1776817182270664400,8.09866455078125,-0.05509355049410094,-0.20792542397975922,-0.03468826095121433,-0.18032506108283997,0.137441689777418,0.9886191445444863,0.27326017642895895,right,-0.2042773962020874,-0.10937880207635421,-0.5367819776618853,-9.733256262487172,-0.050386243469112545,0.764699399471283,-0.024511996656656265,1.070501791274175,0.3030465245246887
1776817182310664400,8.13866455078125,-0.06239985014235249,-0.19559629261493683,-0.03610641977702125,-0.13944008946418762,0.13400636791708198,0.9897140108701666,0.2667112125413658,right,-0.12475931644439697,-0.07846213078886376,-0.6096541389860213,-9.75745196158886,-0.03470935458056956,0.7778056263923645,-0.008936356753110886,0.7686611171808093,0.2766428589820862
1776817182350664400,8.17866455078125,-0.06627587530655449,-0.1433698832988739,-0.035913378771603735,-0.0967470109462738,0.1310103904090884,0.9905470162756448,0.2614303635034846,right,-0.0854378342628479,-0.04718733738457879,-0.6487448440764099,-9.774228324344755,-0.019060062567845915,0.7577114701271057,-0.007551170885562897,0.46257772748377174,0.24526554346084595
1776817182390664400,8.21866455078125,-0.06920832659964886,-0.07080905884504318,-0.03541418771119629,-0.055870912969112396,0.12951824796562425,0.9909363465819141,0.25933836719627285,right,-0.023597538471221924,-0.017158163381431106,-0.6780594936270267,-9.781733585408329,-0.004028389123664936,0.704169750213623,-0.013796277344226837,0.16825559406066312,0.2513236701488495
1776817182430664200,8.258664306640625,-0.07238717503287195,0.007650792598724365,-0.035348544913278976,-0.08633192628622055,0.12928874322132333,0.9909380145133154,0.25977409758216047,right,0.028415560722351074,0.008220668555553451,-0.7092310961559415,-9.780637606865167,0.008759838457795516,0.5853802561759949,-0.03151285648345947,-0.0806165557726752,0.22598008811473846
1776817182470664200,8.298664306640624,-0.07601722254328519,0.06598333269357681,-0.03571165552915991,-0.06459993124008179,0.13058433578471088,0.9905968947455478,0.26326997514274747,right,0.08984190225601196,0.029810012050413514,-0.7444247938077896,-9.773985163238644,0.01975191071289106,0.638613760471344,-0.047271110117435455,-0.29229329447662455,0.2218698114156723
1776817182510664400,8.33866455078125,-0.07808642002871607,0.13425876200199127,-0.03566117871103741,-0.04143274948000908,0.13317289537951002,0.9900702359175962,0.26916608060843544,right,0.04299086332321167,0.044895167792083863,-0.7642165588621049,-9.766915955504775,0.02746183582634491,0.5115894079208374,-0.08330665528774261,-0.4401235382871702,0.217219740152359
1776817182550664400,8.37866455078125,-0.08016015857088656,0.12910044193267822,-0.03611806302753326,0.035871658474206924,0.13631957305081804,0.9895166601953436,0.27588142828783496,right,0.0017852783203125,0.051789575505699244,-0.7842072805546224,-9.762053317904472,0.0311331924104994,0.2801523804664612,-0.10542892664670944,-0.5076554710945114,0.18778575956821442
1776817182590664400,8.41866455078125,-0.08264945930524982,0.08384604752063751,-0.03756751300160728,-0.06433871388435364,0.1387941511743736,0.9891738454805412,0.280774959176279,right,-0.09138280153274536,0.047604653690693575,-0.8086738324869424,-9.762103002265095,0.02932496539847829,-0.05349627137184143,-0.1215803399682045,-0.46666609277594834,0.06892602890729904
1776817182630664400,8.45866455078125,-0.09235542042721402,0.055673643946647644,-0.04293350363669469,-0.35290253162384033,0.13981865905512586,0.9889071062672817,0.28272393555299496,right,0.0858117938041687,0.039202924145682286,-0.9037145344667136,-9.757354346433281,0.02588650277598018,-0.1607978343963623,-0.0842963308095932,-0.384351126454398,-0.038345128297805786
1776817182670664200,8.498664306640626,-0.10478206344786554,0.021724332123994827,-0.04959395970184595,-0.1264917105436325,0.14033031943009466,0.9885921768870591,0.2836800426974682,right,0.2538628578186035,0.03174562318388898,-1.0251640815529972,-9.747950558272004,0.023093124145936835,-0.14066611230373383,0.04652513563632965,-0.31126616262979806,-0.10801062732934952
1776817182710664200,8.538664306640625,-0.10651048450797912,0.06955568492412567,-0.05089612734063596,0.033847033977508545,0.1409454012220021,0.988504915729953,0.28460843642294087,right,0.2194690704345703,0.02530252857404936,-1.0422026754416525,-9.747955818969011,0.020054012049618857,-0.20512956380844116,0.05737580731511116,-0.24810681888349354,-0.13479667901992798
1776817182750664400,8.57866455078125,-0.1059419734368106,0.0875546857714653,-0.051365882135294846,-0.12595075368881226,0.1424256940802071,0.9883620763857448,0.2870034756507584,right,0.13291674852371216,0.014491314723313093,-1.0368837454412132,-9.750644035139679,0.0147326830233021,-0.26623818278312683,0.06688238680362701,-0.14210654153465294,-0.2297135591506958
1776817182790664400,8.61866455078125,-0.11247925109673522,0.05298052355647087,-0.054669284742653305,-0.13413706421852112,0.14378751855306146,0.9879890640645721,0.2897842057187673,right,0.23826849460601807,0.013186972885375575,-1.1006236655544488,-9.743833186081051,0.014629773412676954,0.26316776871681213,0.11005420982837677,-0.12931654500118456,-0.3075633645057678
1776817182830664400,8.65866455078125,-0.11506499448395746,0.008741557598114014,-0.054486104931994114,-0.029762722551822662,0.1449994467456154,0.9876247566290126,0.29343579321670993,right,0.1985938549041748,0.0327422145618666,-1.1253094131954013,-9.73658043847382,0.024572730918869735,0.6531951427459717,0.08931021392345428,-0.32103432712405916,-0.25882190465927124
1776817182870664400,8.69866455078125,-0.11498619073134088,-0.006038893945515156,-0.0525042037014868,0.06720782071352005,0.14568144627384677,0.9872327766157662,0.2963782530713254,right,0.1455777883529663,0.05839535712904156,-1.1232273462243378,-9.725285137477517,0.03730627314690504,0.5553464889526367,0.07762373983860016,-0.57233767702654,-0.17626506090164185
1776817182910664200,8.738664306640626,-0.11138530373296238,-0.01694047823548317,-0.049552332115572126,0.09918323159217834,0.14590035683680241,0.9870477572905294,0.29761908981450397,right,0.04517489671707153,0.07377026053815397,-1.0870938104391097,-9.719372114041446,0.044659832165688904,0.24063709378242493,0.06371940672397614,-0.7227833822987973,-0.17429567873477936
1776817182950664200,8.778664306640625,-0.10904297117925785,0.011185882613062859,-0.04783146996604894,0.007683098316192627,0.14600838989759832,0.9869536472619934,0.29817603447767393,right,0.03250277042388916,0.08112189549247938,-1.0637178302224726,-9.716347213262319,0.04812816836909915,0.15879224240779877,0.06221920624375343,-0.7946620390735566,-0.20994161069393158
1776817182990664400,8.81866455078125,-0.10629814658842339,-0.025484131649136543,-0.045889616247508834,0.10962045937776566,0.1460961499373643,0.9868519087703821,0.29867522087523696,right,0.04732179641723633,0.0887589982102868,-1.036370023765415,-9.712911978116631,0.051705373818294556,0.12101342529058456,0.09022848308086395,-0.8692861951641738,-0.1519181728363037
1776817183030664400,8.85866455078125,-0.10106080367825093,-0.12039127945899963,-0.042770786849379204,0.0851287692785263,0.14476593971649565,0.98699771373841,0.296166968472338,right,0.09163123369216919,0.09676858063905626,-0.9847521377962082,-9.710967858311534,0.055218532965857756,0.06241384893655777,0.08597008883953094,-0.9474954431999474,-0.11936363577842712
1776817183070664400,8.89866455078125,-0.09513147378023337,-0.17248691618442535,-0.039352073328954254,0.09580891579389572,0.14172309433540212,0.9873573888253314,0.29016551619875414,right,0.1301121711730957,0.10572643746374288,-0.9263122237872332,-9.707797411581874,0.05908892478465969,0.12107954919338226,0.08423010259866714,-1.0348918409716337,-0.10709371417760849
1776817183110664400,8.93866455078125,-0.09079131053056372,-0.16293780505657196,-0.03695970679169639,0.06151510775089264,0.13847239883195153,0.9877516755447071,0.2836509770514224,right,0.14370787143707275,0.11187399112259816,-0.8835767324537038,-9.705206810566782,0.061693932506210684,0.08106892555952072,0.08350560814142227,-1.0948221396688371,-0.07718847692012787
1776817183150664400,8.97866455078125,-0.08654012458660341,-0.10662622004747391,-0.03481995125038353,0.09772028028964996,0.13588522593968289,0.9881228188875942,0.2782977535895225,right,0.12365007400512695,0.11477698739789381,-0.8420319852747022,-9.705667998337745,0.06273925543567918,0.029574457556009293,0.06650904566049576,-1.1231082498893141,-0.07178065180778503
1776817183190664200,9.018664306640625,-0.08256643067186578,-0.06419621407985687,-0.03290170387624538,0.10442870855331421,0.13437833595178264,0.9883895126995045,0.2750367720190646,right,0.061115562915802,0.11559288974286777,-0.8033822288848459,-9.708021283465623,0.06281844991667222,-0.011890124529600143,0.048314422369003296,-1.1310564324147998,-0.05532854050397873
1776817183230664400,9.05866455078125,-0.07595816488003933,-0.03875100612640381,-0.029864460641162594,0.1951148509979248,0.13350219252988202,0.988705333485617,0.2727412073225827,right,-0.12249475717544556,0.1133120263467631,-0.7394057966019958,-9.715665076217055,0.06121320445264169,-0.13537637889385223,0.017300404608249664,-1.1088351751912384,-0.09274744242429733
1776817183270664400,9.09866455078125,-0.07332070089634099,-0.00756375677883625,-0.029138813982592056,-0.0008284598588943481,0.13282359347648498,0.9890561315656683,0.2708691163756867,right,-0.05459707975387573,0.10568895715763466,-0.7143770076770335,-9.72572878959179,0.057242934461356726,-0.223027765750885,0.005580432713031769,-1.034526295594871,-0.064848892390728
1776817183310664400,9.13866455078125,-0.07284290238250765,0.057852551341056824,-0.02950734978379953,0.018944915384054184,0.1332366164966448,0.9892389663825778,0.27128584254289473,right,0.03284376859664917,0.09667152943000658,-0.7103800469953566,-9.7349776794523,0.052759722427815264,-0.2690909504890442,0.005994290113449097,-0.9465481524124741,-0.006385833024978638
1776817183350664400,9.17866455078125,-0.07326887699245611,0.07481448352336884,-0.030378592421795907,-0.026028744876384735,0.13450163585830047,0.9892996399033491,0.27341928235516255,right,0.04804491996765137,0.08626008289014411,-0.7152095129784196,-9.743974640378356,0.04767265932245733,-0.23307591676712036,-0.0013133138418197632,-0.8448740037675947,-0.005355536937713623
1776817183390664400,9.21866455078125,-0.07473044673952671,0.0536356121301651,-0.031595837272907684,-0.022579854354262352,0.13576917334919902,0.9892632760345598,0.27571150081664475,right,0.04772520065307617,0.07834455047337195,-0.7299266781821847,-9.749282683658599,0.04389322530508936,-0.14993241429328918,0.000706404447555542,-0.7675120932761579,-0.025844626128673553
1776817183430664200,9.258664306640625,-0.07546730104463294,0.030394038185477257,-0.03223879921130918,-0.03062380477786064,0.13646433877840708,0.9892378757279849,0.27696054157340694,right,-0.008650422096252441,0.07395080124552299,-0.7373574127048254,-9.752010647317766,0.041790913904650645,-0.10379692912101746,-0.0143280029296875,-0.7245490037318318,-0.05235832929611206
1776817183470664200,9.298664306640624,-0.07725926293274413,0.037257350981235504,-0.033341529273319716,-0.032295431941747665,0.13700531222370904,0.9891906483461024,0.27798144271941916,right,-0.00821530818939209,0.07054704464792617,-0.7550174264274537,-9.753076230722666,0.040247284570425465,-0.1094929650425911,-0.01141560822725296,-0.6912566827218979,-0.04691633582115173
1776817183510664400,9.33866455078125,-0.07989398358221785,0.029557865113019943,-0.034759026759153926,-0.06740767508745193,0.1375806894337454,0.9890931687710488,0.2791639026708729,right,-0.0006814002990722656,0.06857547800605593,-0.7808186610296368,-9.752392924633622,0.039473574233740476,-0.08430006355047226,-0.010966412723064423,-0.6719689947322011,-0.049841128289699554
1776817183550664400,9.37866455078125,-0.08287685667869074,0.02183104306459427,-0.03614173447877592,-0.05551828816533089,0.1378462089365841,0.9889756217128983,0.27987180125377775,right,0.017213523387908936,0.0696896243008711,-0.8098428032010794,-9.749268070611357,0.04024226118496263,0.005411706864833832,-0.00882670283317566,-0.6828689397353679,-0.06903617829084396
1776817183590664400,9.41866455078125,-0.08488657864873023,0.029564211145043373,-0.03697325856778551,-0.034369565546512604,0.1383157430646458,0.988832459016853,0.2809970404161826,right,0.007525146007537842,0.07166426532920628,-0.8293185611087829,-9.74625836740136,0.041377538717676375,-0.03347158804535866,-0.010129913687705994,-0.7021851962324231,-0.05112241208553314
1776817183630664400,9.45866455078125,-0.08709874717309136,0.04546022415161133,-0.03803788149528592,-0.03802326321601868,0.13884158155515894,0.9887096194914436,0.28215686488636826,right,0.009429395198822021,0.071734646632958,-0.850872586595267,-9.744350487953424,0.041587346453909615,-0.09132474660873413,-0.002704828977584839,-0.7028736168880015,-0.060430772602558136
1776817183670664200,9.498664306640626,-0.08836473448063066,0.06900721788406372,-0.038801599931543564,-0.013096757233142853,0.13980737244399485,0.9885895429559434,0.28404185724404973,right,0.00903618335723877,0.06925422457293935,-0.8633592893332243,-9.74497241924405,0.04048615472887797,-0.1487470120191574,-0.0020187869668006897,-0.6786093825947493,-0.05038457363843918
1776817183710664200,9.538664306640625,-0.08882288785543588,0.09284009039402008,-0.03924884982791205,0.01713166944682598,0.14127475171036202,0.9884358916773516,0.2868398399624755,right,0.012090444564819336,0.06540489040447242,-0.8680492007151246,-9.747105339619516,0.03867120394279975,-0.160691499710083,0.00714777410030365,-0.6409459338285028,-0.048231497406959534
1776817183750664400,9.57866455078125,-0.08831593269296384,0.10264509916305542,-0.03922235690049172,0.013521010056138039,0.14308352895507642,0.9882506745237288,0.2902856996920226,right,0.022101938724517822,0.061417658852219385,-0.8633262638464569,-9.750012166976928,0.03673319023746501,-0.14758698642253876,0.007506415247917175,-0.6019231428751721,-0.05409259721636772
1776817183790664400,9.61866455078125,-0.08764551805013676,0.1151004508137703,-0.039120631356869905,0.04935342073440552,0.14517060149624594,0.9880224590176163,0.2942871837472961,right,0.055695414543151855,0.057314310610595574,-0.8569985221296549,-9.752967509651183,0.03473669418607604,-0.16043484210968018,0.010936632752418518,-0.5617539583656936,-0.034527529031038284
1776817183830664400,9.65866455078125,-0.08571126156653673,0.08050984144210815,-0.03857846058327534,0.07319112122058868,0.147019436965084,0.987877763259208,0.2976653821376421,right,0.04672354459762573,0.05099047463706834,-0.838419566931203,-9.757951143282652,0.03153828885525464,-0.21647965908050537,-0.0009262189269065857,-0.49982930751349774,-0.04190702363848686
1776817183870664400,9.69866455078125,-0.08352483323674767,0.04938928782939911,-0.03812447128633453,0.014000620692968369,0.14805823971852192,0.9878715901019517,0.2993049910621212,right,0.0017061233520507812,0.04229414032354948,-0.817414261368662,-9.763723296943306,0.027114261080507875,-0.2864201068878174,-0.027826085686683655,-0.414640429723449,-0.061577167361974716
1776817183910664200,9.738664306640626,-0.08395117902824784,0.021535251289606094,-0.03917665909343767,-0.028667058795690536,0.14846024477788766,0.9879065227993384,0.2996252149748415,right,-0.005238354206085205,0.031004039941422243,-0.8219170526806264,-9.767416306242346,0.021576649655282956,-0.3368580937385559,-0.03931107372045517,-0.30399732240429145,-0.07315779477357864
1776817183950664200,9.778664306640625,-0.08653060244802888,0.008971193805336952,-0.04126183101433184,-0.02062508836388588,0.14841189814410613,0.9879279147357078,0.29909638300538705,right,0.008307099342346191,0.020222155045450368,-0.8473425858382135,-9.767961665165425,0.0164325097272382,-0.3112295866012573,-0.04228828847408295,-0.19829835695642978,-0.07646599411964417
1776817183990664400,9.81866455078125,-0.09036035250555322,0.00981377623975277,-0.043843617556390574,-0.05125366151332855,0.14827903798237774,0.9878983920356469,0.2984648819328668,right,0.03650403022766113,0.011021944560601763,-0.8848723252221942,-9.76604852502048,0.012159094729713141,-0.26557865738868713,-0.041502371430397034,-0.10808643597313203,-0.08759184181690216
1776817184030664400,9.85866455078125,-0.09336572952569303,0.011544416658580303,-0.04581883596483738,0.001479409635066986,0.1482283332745119,0.987849050572121,0.298088444479564,right,0.08552205562591553,0.004444069966813352,-0.9142654468365013,-9.763841370365023,0.00912454929397446,-0.20558354258537292,-0.035561420023441315,-0.04358157306911889,-0.08302625268697739
1776817184070664400,9.89866455078125,-0.09306177492866848,0.009653972461819649,-0.046043427262761005,0.046721428632736206,0.1482605703333367,0.987853789915787,0.2979153374875356,right,0.07862067222595215,-0.0005991754483371282,-0.9113065239656716,-9.764213710808754,0.006607088160680318,-0.18740443885326385,-0.041693828999996185,0.0058756225974619155,-0.08627252280712128
1776817184110664400,9.93866455078125,-0.09151686571239116,0.003435385413467884,-0.04573456922100586,0.07909025996923447,0.14822619972601855,0.987889339958645,0.29755682317005383,right,0.08196288347244263,-0.006722012934399656,-0.8962005055747926,-9.765390937894582,0.0034599829127201047,-0.20766839385032654,-0.047568179666996,0.06591964790564961,-0.08760339766740799
1776817184150664400,9.97866455078125,-0.08862950744995789,-0.011853623203933239,-0.0448675757868268,0.061856046319007874,0.14802411623599135,0.9879653431996469,0.296808303757343,right,0.06980490684509277,-0.014289525261088091,-0.8679316387500613,-9.767161454698442,-0.000509163842819569,-0.20568087697029114,-0.05656912177801132,0.14012731388355604,-0.0903933048248291
1776817184190664200,10.018664306640625,-0.08741502000595851,-0.024401716887950897,-0.04481821293571172,0.022716030478477478,0.14751911220742708,0.9880337502522384,0.2954682072614004,right,0.09486240148544312,-0.021803390654987043,-0.8559528124690056,-9.766883806800841,-0.00434123693482793,-0.18083474040031433,-0.058888062834739685,0.2138009917157702,-0.0951264351606369
1776817184230664400,10.05866455078125,-0.08670614528790582,-0.038567982614040375,-0.0449691120093845,0.01437405776232481,0.1467200544728718,0.9881240982544868,0.2935657800629439,right,0.09148287773132324,-0.028745940254803908,-0.8488800976037979,-9.765773799732328,-0.007866542463747968,-0.1760878562927246,-0.0634828433394432,0.2818622638931498,-0.10781784355640411
1776817184270664400,10.09866455078125,-0.08651224986551093,-0.04462981969118118,-0.04535427503214826,0.003137318417429924,0.14568786126528907,0.9882260143932065,0.2912000533664107,right,0.10513216257095337,-0.03554434249024315,-0.8468013916335999,-9.763803376442194,-0.011293835380356516,-0.16773122549057007,-0.06213399022817612,0.3484972478607669,-0.12971970438957214
1776817184310664400,10.13866455078125,-0.0864493929625156,-0.0891108438372612,-0.045737944439701514,0.017474640160799026,0.14426799825849562,0.9883767006002735,0.28808209244019284,right,0.13066035509109497,-0.04161060288603426,-0.8459895637940615,-9.76157108734548,-0.0143677773892238,-0.15286952257156372,-0.056905247271060944,0.40794257605262096,-0.12971964478492737
1776817184350664400,10.17866455078125,-0.08597151428844962,-0.11898413300514221,-0.04586746497839208,0.019466998055577278,0.14191182333066402,0.9886638498112872,0.28309340662336563,right,0.13689768314361572,-0.047351401091586545,-0.841109682798013,-9.759480252546071,-0.017354451183569247,-0.14423252642154694,-0.05834928900003433,0.46418479735422874,-0.16562232375144958
1776817184390664400,10.21866455078125,-0.08685515462744231,-0.12130754441022873,-0.04660626178692863,-0.052939049899578094,0.13935921846367344,0.9889437747374724,0.2777117970338668,right,0.17281574010849,-0.052435621629912846,-0.8495175187245011,-9.756256029802561,-0.019931149236666335,-0.12280145287513733,-0.05184920132160187,0.5139818976370617,-0.18085815012454987
1776817184430664200,10.258664306640625,-0.08781719246394842,-0.13529109954833984,-0.04732796226095767,0.39759141206741333,0.13712021950291908,0.989175753268248,0.2729901400047738,right,0.20042407512664795,-0.05678643946087556,-0.8586987501762807,-9.753114224645495,-0.02212785908870146,-0.07382228970527649,-0.01309213787317276,0.5565851774256676,-0.14731451869010925
1776817184470664200,10.298664306640624,-0.0927214249343062,-0.15758515894412994,-0.05039092553961215,-0.16421526670455933,0.1346040261802831,0.989243891353569,0.26734557818110427,right,0.36863917112350464,-0.06740974529125733,-0.9059211776655167,-9.742347915959357,-0.027188978351309283,-0.11312633752822876,0.012051232159137726,0.6605629268378019,-0.11730685830116272
1776817184510664400,10.33866455078125,-0.09164424233908236,-0.11084096133708954,-0.04983849321456525,0.19926443696022034,0.13213146679951016,0.9895893162609413,0.2623460811686341,right,0.2164120078086853,-0.0681641336032994,-0.8953804944287985,-9.742819625124335,-0.027759441625049792,-0.02730141580104828,0.053229913115501404,0.6679439769998192,0.0268121138215065
1776817184550664400,10.37866455078125,-0.08983829238691583,-0.05664924159646034,-0.04934894675599237,-0.08118700981140137,0.1305464564365058,0.9897127535025063,0.2589077802310382,right,0.08278816938400269,-0.07526707349976078,-0.8773362306289374,-9.739449271908402,-0.03147952111791911,-0.24616578221321106,0.04357699304819107,0.7374208333298563,0.12559634447097778
1776817184590664400,10.41866455078125,-0.09264947220671799,-0.040280841290950775,-0.0512216104999783,-0.05404200404882431,0.1295165780117639,0.9896183169523893,0.25639585666766246,right,0.12628120183944702,-0.08354988247960474,-0.9041159548744558,-9.730528883349894,-0.03546044737391947,-0.14863082766532898,0.1022111177444458,0.818391216642037,0.18559464812278748
1776817184630664400,10.45866455078125,-0.09069350205007862,-0.07644160836935043,-0.05039746460150889,0.028102129697799683,0.12792792266197406,0.9898003228720129,0.2531257912594121,right,0.03749239444732666,-0.08680560161401103,-0.8848355734083801,-9.729573774582146,-0.037281327670118936,-0.0894286260008812,0.08657918125391006,0.8502031629011034,0.22247105836868286
1776817184670664200,10.498664306640626,-0.08767371216984177,-0.0722469761967659,-0.04933010456026922,0.047322340309619904,0.12634698178240916,0.9898880013973734,0.24973968530188292,right,0.033864736557006836,-0.09482870509193127,-0.8548254889395087,-9.7250934142977,-0.04153056960096381,-0.14415250718593597,0.0799722746014595,0.9285584683440625,0.2565317749977112
1776817184710664200,10.538664306640625,-0.08322072862738045,-0.029873453080654144,-0.04789439485883473,0.019353777170181274,0.12552756570749696,0.9897474257003767,0.24780050734031622,right,-0.02224409580230713,-0.10817516377024833,-0.8104091318469494,-9.715587334805726,-0.048467000709791395,-0.12672646343708038,0.054383501410484314,1.0587678796648978,0.25909072160720825
1776817184750664400,10.57866455078125,-0.08179549662018352,-0.004827491939067841,-0.04780716763243464,-0.0704059973359108,0.1252298008936684,0.9895120164570543,0.2469090999142515,right,-0.1039433479309082,-0.1187898363202745,-0.7955982239451259,-9.704984107726812,-0.053833047518099135,-0.15056614577770233,-0.015314437448978424,1.1621922329779715,0.25397127866744995
1776817184790664400,10.61866455078125,-0.084016962906306,0.012843981385231018,-0.04936564912635716,-0.0874929428100586,0.12534102820028978,0.9892140066226554,0.24674749592365472,right,-0.11403816938400269,-0.12650853971076767,-0.8163784155149012,-9.69396470106244,-0.05751853357233999,-0.13906390964984894,-0.03138251602649689,1.2373181280456482,0.2775556445121765
1776817184830664400,10.65866455078125,-0.0851776830246742,0.041883230209350586,-0.05030454811999836,-0.002862103283405304,0.1257249527863236,0.9889513295821161,0.24725486925000537,right,-0.12536484003067017,-0.13233560222621682,-0.8270023931208997,-9.685662152141331,-0.06031672320865927,-0.14252549409866333,-0.06057773530483246,1.2939840181194244,0.2878444492816925
1776817184870664400,10.69866455078125,-0.08568229159875745,0.053609542548656464,-0.051029700193713695,-0.005631620995700359,0.12657168948498476,0.9885880311879383,0.24869045104330093,right,-0.13016802072525024,-0.13949776866951802,-0.8310753416482358,-9.67576210489571,-0.06379196634747752,-0.14872676134109497,-0.062109462916851044,1.363572956521809,0.2447020411491394
1776817184910664200,10.738664306640626,-0.08504470307669064,0.04510064050555229,-0.05101924272893202,0.01791047677397728,0.12753786788301838,0.9883339297871224,0.2505505719354451,right,-0.12197214365005493,-0.1435351644770852,-0.8244316658500581,-9.670725279772281,-0.06578193716203887,-0.03544952720403671,-0.05881771445274353,1.4027704099223017,0.1988968700170517
1776817184950664200,10.778664306640625,-0.08332567915845884,0.034948091953992844,-0.05018370770980834,0.07778014242649078,0.12851338114786554,0.9882764751481691,0.2526688570572585,right,-0.08920538425445557,-0.14262513849997657,-0.8079121273994445,-9.67339654480815,-0.06538834643485918,0.08115644007921219,-0.03988128900527954,1.393937407386303,0.17449608445167542
1776817184990664400,10.81866455078125,-0.07827757891760997,-0.042562905699014664,-0.047355599646186734,0.20544201135635376,0.12847689024702144,0.9885817635836169,0.25310078369958433,right,-0.05096721649169922,-0.1369762881712148,-0.7596734355397522,-9.685047235113382,-0.06290837930751779,0.21587586402893066,-0.019035883247852325,1.3390816354744135,0.15506426990032196
1776817185030664400,10.85866455078125,-0.05773983734107226,-0.049022331833839417,-0.036440551669642086,-0.0028756707906723022,0.12529694250140522,0.9896687868262101,0.24819601763808913,right,-0.8002871870994568,-0.12704771116277924,-0.5613577986549586,-9.711400404509902,-0.059400896020320434,-0.030403703451156616,-0.12241385877132416,1.242563042961806,-0.19409070909023285
1776817185070664400,10.89866455078125,-0.053507526944009134,0.07953894138336182,-0.0343413348867187,-0.18181295692920685,0.12476135393374084,0.9897848503345826,0.24736211839314828,right,-0.5213256478309631,-0.1273778556247994,-0.520229267594032,-9.713279057863355,-0.059843681475556465,-0.07532331347465515,-0.10599549114704132,1.2457745523542165,0.056762099266052246
1776817185110664400,10.93866455078125,-0.05041332962679719,-0.012686558067798615,-0.03226847984911075,0.1697268933057785,0.12530723422678727,0.99005144889956,0.2488204537896613,right,-0.24901092052459717,-0.11780537120189667,-0.4907504769902676,-9.726306881740689,-0.0552729489566439,0.4679481089115143,-0.023880377411842346,1.1526054163999855,0.21605193614959717
1776817185150664400,10.97866455078125,-0.04025196548729613,-0.013374500907957554,-0.025670150335168222,0.2839386463165283,0.12507633421362918,0.9908746888642637,0.24927267277689594,right,-0.21083438396453857,-0.0921216200400531,-0.39295620198603715,-9.757157947078346,-0.043178982651730084,0.7537252902984619,0.017213396728038788,0.9021269730143249,0.23412883281707764
1776817185190664200,11.018664306640625,-0.028642949247698155,-0.022665150463581085,-0.01788866677329661,0.23423823714256287,0.12473192238121605,0.9916447378461697,0.24940235460020932,right,-0.2722272276878357,-0.05927152887774928,-0.28035892839180304,-9.785413735225797,-0.027617882031862603,0.8458496332168579,0.0645114928483963,0.5809145859096199,0.2821434736251831
1776817185230664400,11.05866455078125,-0.02185500189613388,0.03144003823399544,-0.012370707618996113,0.11228048801422119,0.12509350315130371,0.9920093205058322,0.25061053203556083,right,-0.28087830543518066,-0.024485053378198774,-0.2142422144109383,-9.80136942924857,-0.010779947409099502,0.902428388595581,0.0802885890007019,0.24009209219412878,0.30895835161209106
1776817185270664400,11.09866455078125,-0.01873462006372607,0.00509403832256794,-0.008554075938927872,0.05815213546156883,0.1255893095137966,0.9920207104181711,0.2519692846299696,right,-0.26343750953674316,0.011758426024593822,-0.1836995757016353,-9.804251122164725,0.007009307319566827,0.884814441204071,0.07838598638772964,-0.1153083500506822,0.34715721011161804
1776817185310664400,11.13866455078125,-0.018819438785893084,-0.006942526437342167,-0.006445861160972543,-0.04478936269879341,0.12573427619082314,0.9917548029230269,0.2526449568231017,right,-0.2520749568939209,0.045825017336535934,-0.18435018509747458,-9.79462053951025,0.023912116189038123,0.8226915597915649,0.06953015923500061,-0.44923287354651836,0.3245989680290222
1776817185350664400,11.17866455078125,-0.021127764654171446,-0.013375481590628624,-0.005552989469806668,-0.099331334233284,0.12542380464281458,0.9912780027576243,0.2525430602811822,right,-0.20562803745269775,0.07813670138566696,-0.20654422552054746,-9.774546888774633,0.04007461629861796,0.7769394516944885,0.0519905686378479,-0.7654800029266625,0.29328736662864685
1776817185390664400,11.21866455078125,-0.02586454811970021,0.04748012125492096,-0.005921595535007607,-0.1554771363735199,0.12570038251286017,0.9904912861117764,0.2538740470324544,right,-0.16638332605361938,0.1088695979194551,-0.2521139356330037,-9.745329562118648,0.055600365237724866,0.7397176027297974,0.044427886605262756,-1.0655383967131375,0.24879534542560577
1776817185430664200,11.258664306640625,-0.03225320065238157,0.1398036777973175,-0.007138016147587289,-0.14499424397945404,0.1274369610921812,0.98935317904327,0.25841844397498553,right,-0.1157194972038269,0.13696576544590044,-0.31327852536551654,-9.709756728956103,0.06992307014762553,0.6344287991523743,0.03939758613705635,-1.3389797825351357,0.21983027458190918
1776817185470664200,11.298664306640624,-0.03799769404243463,0.19909906387329102,-0.008227940242391568,-0.11521577090024948,0.13074340972626708,0.9880458883369759,0.2661514300424872,right,-0.07528650760650635,0.15910485484490278,-0.36783421835228797,-9.675797760730982,0.08126440836561726,0.49241507053375244,0.03540290147066116,-1.5537112052351236,0.19682849943637848
1776817185510664400,11.33866455078125,-0.04521891668998446,0.2113061547279358,-0.010153931911393512,-0.14894862473011017,0.13471032861202648,0.9866658398292281,0.27540430562573937,right,-0.007575511932373047,0.1773281005187885,-0.43634263150896874,-9.643000237500667,0.09077839620521777,0.45571136474609375,0.05159779265522957,-1.7298951628759502,0.1822345107793808
1776817185550664400,11.37866455078125,-0.05137176922071043,0.2114957720041275,-0.011903402073126918,-0.14236541092395782,0.13877321113149674,0.9854731864032708,0.28467723719061355,right,0.018553495407104492,0.18935135939419223,-0.49456214423291384,-9.618664837667346,0.09717445221753367,0.3707496225833893,0.061685193330049515,-1.845826311866939,0.16895294189453125
1776817185590664400,11.41866455078125,-0.05568797122583553,0.20077979564666748,-0.013259587390736688,-0.11739206314086914,0.14262646344490118,0.9846313096957462,0.29312993459540104,right,0.013152122497558594,0.19419697712527642,-0.5355693870017305,-9.607397593721746,0.09991608180012464,0.24613022804260254,0.06763692945241928,-1.8924743735343217,0.13094879686832428
1776817185630664400,11.45866455078125,-0.058722294352036096,0.16535837948322296,-0.014324470792050938,-0.009640879929065704,0.14631471030975307,0.9840228511659233,0.30095377665373735,right,0.0028867125511169434,0.1946855988735333,-0.5646644755175337,-9.604804070097208,0.10042949930112317,0.07732115685939789,0.08974312990903854,-1.8971758292235432,0.09975633025169373
1776817185670664200,11.498664306640626,-0.058619591475055195,0.08234380185604095,-0.014552044188323548,-0.05942670628428459,0.14873946574499475,0.9839800966034682,0.3055805353527357,right,0.04208827018737793,0.18806497071432254,-0.564401550265029,-9.617190088939665,0.0972007781709529,-0.16716434061527252,0.0724198967218399,-1.8334351784579455,0.08433441072702408
1776817185710664200,11.538664306640625,-0.060132481447345766,-0.08774811029434204,-0.01619083598270748,-0.05243711546063423,0.1485271601993036,0.9845024133163047,0.3048070059638215,right,0.25126296281814575,0.17692436920517574,-0.5801421767650172,-9.636116907727718,0.09182930727574999,-0.2317061424255371,0.09436938166618347,-1.7259980093069374,0.07361311465501785
1776817185750664400,11.57866455078125,-0.05747021235183499,-0.16440318524837494,-0.01569141286344554,0.16661414504051208,0.14567118098543566,0.9852707445226284,0.29846927600813583,right,0.38027775287628174,0.1700044243193342,-0.5551589805474505,-9.649320672693849,0.08817793680536183,-0.08087822794914246,0.05260452255606651,-1.659155008611828,0.04241614043712616
1776817185790664400,11.61866455078125,-0.05053383591353012,-0.13401806354522705,-0.012799722354045568,0.014659643173217773,0.14295868937461642,0.9859065763895726,0.29221707215541887,right,0.2700214982032776,0.16658578956012118,-0.4884984968123957,-9.65854735072255,0.08594933985760396,-0.05887065455317497,-0.06153760477900505,-1.6261033644899725,-0.06778031587600708
1776817185830664400,11.65866455078125,-0.05048039245805712,-0.16531270742416382,-0.012729594434788525,-0.04469551518559456,0.14009484097532032,0.9861492878897625,0.28655294092598566,right,0.3204326629638672,0.17056444912739513,-0.48765199951827526,-9.652035776871442,0.0878697260609607,0.2870996296405792,-0.06990064680576324,-1.6645675351798532,-0.1434348225593567
1776817185870664400,11.69866455078125,-0.04712017548588316,-0.184675931930542,-0.00992984504499801,0.15234144032001495,0.13701569320598106,0.9857240856426238,0.280729006980089,right,0.26432210206985474,0.19033899650905858,-0.4535770402306691,-9.618855391803383,0.0973461398203687,0.6360701322555542,-0.08129419386386871,-1.855337652055919,-0.17063546180725098
1776817185910664200,11.738664306640626,-0.03887717505987624,-0.17036785185337067,-0.004268689954639444,0.1419343203306198,0.13399896811169318,0.9848222640917768,0.2747162778004411,right,0.06011390686035156,0.21769144336250276,-0.37216209148876367,-9.56796457799971,0.11023315426686618,0.6685117483139038,-0.14599373936653137,-2.118002353928238,-0.20103968679904938
1776817185950664200,11.778664306640625,-0.03572327574655375,-0.08582330495119095,-0.0014979325588461616,-0.06540559232234955,0.1316442796672406,0.9839332059624667,0.2703014140361104,right,-0.04621940851211548,0.23919341788211732,-0.34027843170035627,-9.521370000085234,0.12059430071920223,0.3476480543613434,-0.1926368772983551,-2.3233825954370197,-0.17573337256908417
1776817185990664400,11.81866455078125,-0.04043633177121197,-0.04266383498907089,-0.0035430476829140843,-0.1424383670091629,0.13015268797645627,0.9837190249801229,0.2680695827505189,right,0.045532405376434326,0.24524254942748755,-0.38457404849007726,-9.505443532156944,0.12387373430550674,-0.017665594816207886,-0.15142081677913666,-2.3809726146183907,-0.13090527057647705
1776817186030664400,11.85866455078125,-0.04490082304736562,-0.029296930879354477,-0.006190487512948816,-0.059824854135513306,0.12917444900087943,0.9841187476761325,0.2664414922079845,right,0.12253296375274658,0.24003139428205705,-0.427558180822432,-9.515897706153988,0.12159733109472866,-0.19804400205612183,-0.09707675874233246,-2.331365557014942,-0.11655916273593903
1776817186070664400,11.89866455078125,-0.045556638488381006,-0.011628186330199242,-0.007163701347998558,0.014671221375465393,0.12866338082256543,0.9846849062110515,0.265154249566646,right,0.14184540510177612,0.23148388255189115,-0.4346904073225334,-9.535174069032072,0.11743121540594025,-0.20029707252979279,-0.07226191461086273,-2.2498621628046034,-0.13484777510166168
1776817186110664400,11.93866455078125,-0.04549867807400618,0.0016598915681242943,-0.0074462385233793555,0.034101247787475586,0.12864532164089698,0.9849451675451018,0.26494065760612195,right,0.12432760000228882,0.22702022658882232,-0.43459016181845217,-9.54513666011989,0.11523030187955186,-0.10914608091115952,-0.051378004252910614,-2.207233858172595,-0.1435556411743164
1776817186150664400,11.97866455078125,-0.04461021360888572,0.026468578726053238,-0.0071010393722889436,0.026918800547719002,0.12898332263383486,0.9850143825630903,0.26545488264120093,right,0.09484070539474487,0.22519933540264028,-0.4262880147561431,-9.549518236204982,0.11427878819024478,-0.038516461849212646,-0.052930545061826706,-2.1898316186033187,-0.14216649532318115
1776817186190664200,12.018664306640625,-0.045230542008159395,0.077205590903759,-0.007361865007513276,-0.04934132099151611,0.13001498345779275,0.9849360121323196,0.26757879278152763,right,0.04810267686843872,0.2240630418765767,-0.43232400698475537,-9.551731820601224,0.11376740510573262,-0.08469650149345398,-0.05939415097236633,-2.1789682792834935,-0.13087084889411926
1776817186230664400,12.05866455078125,-0.049712783898742646,0.12701842188835144,-0.009417287030205505,-0.061746686697006226,0.1318627485276294,0.9847102636217254,0.2717980018116466,right,0.06820178031921387,0.2227710465571219,-0.4752721912208944,-9.552501635929941,0.11344281967218171,-0.12271483242511749,-0.0373101569712162,-2.166613093970716,-0.12081384658813477
1776817186270664400,12.09866455078125,-0.05466891957234903,0.166431725025177,-0.011559701319279046,-0.07957635819911957,0.1345978377177826,0.9843152197689107,0.27789625896499887,right,0.015408813953399658,0.2220709046010489,-0.5226924063045532,-9.551541266465186,0.11346058727842574,-0.13388383388519287,-0.02740364894270897,-2.1599162266805765,-0.1279737651348114
1776817186310664400,12.13866455078125,-0.062406372466203494,0.22858008742332458,-0.014889318059186148,-0.08674877136945724,0.13819278892595718,0.9836967377950792,0.28610421719038,right,0.09454643726348877,0.22221476728144401,-0.5965612505158409,-9.546900747182965,0.11411325054528865,-0.13223496079444885,-0.009666450321674347,-2.161292337339371,-0.06794093549251556
1776817186350664400,12.17866455078125,-0.06734827321728767,0.24339023232460022,-0.016884917530056,-0.018189966678619385,0.14270533781462721,0.9830609619763887,0.2957773060006351,right,0.04750794172286987,0.22063195679888772,-0.6439630166273563,-9.547237431791425,0.11375969998918309,-0.14078855514526367,0.0008277818560600281,-2.1461492748737334,-0.06198453903198242
1776817186390664400,12.21866455078125,-0.07038859770048213,0.2226722240447998,-0.018006520471731877,-0.013138428330421448,0.14712255952752468,0.982467703437824,0.30501589682670815,right,-0.007604420185089111,0.21864261703332893,-0.6732856302887201,-9.549474981585144,0.11308416849347776,-0.12078726291656494,-0.001742042601108551,-2.127109204969555,-0.0543023943901062
1776817186430664200,12.258664306640625,-0.07348892365066106,0.22234155237674713,-0.019201397002198656,-0.027153629809617996,0.15127544595164358,0.9818951709149996,0.3137181906822485,right,-0.0028087496757507324,0.2165671123629568,-0.7032114705402404,-9.551724221816658,0.11237839018461969,-0.11122188717126846,0.006201192736625671,-2.107235460720211,-0.022858768701553345
1776817186470664200,12.298664306640624,-0.07608610674085461,0.21133479475975037,-0.020268298154193846,-0.00604141503572464,0.1554172577782906,0.9813810353540197,0.32226938553265766,right,0.0029240846633911133,0.2132218549181044,-0.7285483755663037,-9.556841126438975,0.11102210301231187,-0.1686638444662094,0.01396074891090393,-2.075184225812554,0.030813470482826233
1776817186510664400,12.33866455078125,-0.07721403419335449,0.18075965344905853,-0.021036975233380682,0.007294970564544201,0.15918315402996824,0.9811515291192837,0.3296541415374475,right,-0.0017141103744506836,0.2057312961216256,-0.7405056476026773,-9.571243161278963,0.10751680387009685,-0.24752449989318848,0.010779060423374176,-2.003332895436138,0.04372112452983856
1776817186550664400,12.37866455078125,-0.07724746653984209,0.13892069458961487,-0.02155088007047167,0.026717931032180786,0.16223849219522116,0.9811310994238513,0.3353597358714957,right,-0.0026233792304992676,0.1962547114000412,-0.7422573866408317,-9.589716391080618,0.10293735388974988,-0.18237677216529846,0.012043915688991547,-1.9122705225028096,0.019166558980941772
1776817186590664400,12.41866455078125,-0.07672690972377702,0.10019640624523163,-0.02168041124693887,0.030132422223687172,0.16460387941345445,0.9810927904673796,0.3397375498352929,right,-0.0068762898445129395,0.18915060448522777,-0.7382880446184427,-9.603404140171408,0.0994615791946714,-0.10079575330018997,0.008060760796070099,-1.8438927134558558,0.013031557202339172
1776817186630664400,12.45866455078125,-0.07564234327142062,0.05748593062162399,-0.02140070864336196,0.03057526797056198,0.16618753069005893,0.9810619783784976,0.34260974421523216,right,-0.008014142513275146,0.1845855266541785,-0.7285005909018218,-9.612492871034144,0.09716622543424124,-0.08530651032924652,0.0015170276165008545,-1.7999040802560746,0.018081441521644592
1776817186670664200,12.498664306640626,-0.07410925063045537,0.0165104977786541,-0.020934422401428492,0.04094686731696129,0.16689846693704224,0.9811502086531726,0.3437007002724764,right,-0.0022811293601989746,0.180681485489444,-0.714277712021023,-9.620532385104895,0.09513724369893102,-0.08448930084705353,0.000003419816493988037,-1.7622553176023066,0.015896081924438477
1776817186710664200,12.538664306640625,-0.07249871789628287,-0.00926622748374939,-0.020506393370717566,0.025596637278795242,0.16697811158622727,0.981349866122311,0.34349644940136104,right,-0.0023443102836608887,0.176614917294239,-0.6992959775969386,-9.628738487914204,0.09300780780107576,-0.08340268582105637,-0.002214297652244568,-1.7230105179287492,0.009572461247444153
1776817186750664400,12.57866455078125,-0.07164349978762444,-0.020751748234033585,-0.020411921196999958,0.00828445702791214,0.1666405342718154,0.9815669266311294,0.3425612018956841,right,0.0012375116348266602,0.1733538022134505,-0.6914595848828554,-9.634886489149928,0.09132833931475211,-0.05404558405280113,-0.0048272088170051575,-1.6915183782085776,0.0013860315084457397
1776817186790664400,12.61866455078125,-0.07170368484553062,-0.02231515757739544,-0.02063828024898356,-0.002870340831577778,0.16622243236148457,0.9817146630410261,0.3416241670354175,right,0.006179928779602051,0.17156568365105043,-0.6922550461094826,-9.63784592347741,0.09044702702329621,-0.012758627533912659,-0.00730566680431366,-1.674242979889363,-0.003508538007736206
1776817186830664400,12.65866455078125,-0.07149311691714279,-0.017012227326631546,-0.020541418641389548,0.016576368361711502,0.1658536541233411,0.9817668804026406,0.34086974449046487,right,0.0016800761222839355,0.17188694734094032,-0.6901871537942439,-9.63745487833321,0.09057930938655787,0.023798584938049316,-0.008462004363536835,-1.677347229515016,-0.002103075385093689
1776817186870664400,12.69866455078125,-0.0709745272314357,-0.008710836060345173,-0.020208552239247453,0.00949817430227995,0.16561768397866072,0.981765391579656,0.3403996128644835,right,-0.004508256912231445,0.1730471802701904,-0.685050667688623,-9.635863809749484,0.09110048194416592,0.016768744215369225,-0.015294007956981659,-1.6885564596630631,0.0016148388385772705
1776817186910664200,12.738664306640626,-0.0708454040156238,-0.009435798041522503,-0.020097987468795896,0.010382323525846004,0.16549041362481656,0.9817595375789394,0.3401623998790925,right,-0.00024175643920898438,0.17372321147200318,-0.6837254834994674,-9.634811085826158,0.09141890153350876,0.011482118628919125,-0.011836886405944824,-1.6950865920841693,0.0026753246784210205
1776817186950664200,12.778664306640625,-0.07097163706003348,-0.012461593374609947,-0.020156686734776327,0.007886865176260471,0.16527029632125279,0.9817827583445192,0.3397390556546715,right,0.003972947597503662,0.1739872207305476,-0.684909944043681,-9.634278001862764,0.0915545417238282,0.0027798879891633987,-0.013551779091358185,-1.697636568827927,0.005628108978271484
1776817186990664400,12.81866455078125,-0.07100305502865528,-0.026653138920664787,-0.020228783371636586,0.010788924992084503,0.16489716612614713,0.981855974308266,0.338969268748058,right,0.004323244094848633,0.17373646892050926,-0.6852428292598575,-9.634680737444757,0.09142639509121037,-0.008096733130514622,-0.015010468661785126,-1.6952146023780106,0.009907126426696777
1776817187030664400,12.85866455078125,-0.07091512794594015,-0.04666684567928314,-0.020266823509803893,0.012201323173940182,0.16418395705641411,0.9819842705777684,0.3375000851285485,right,0.003704845905303955,0.17357134038322672,-0.6844155115902424,-9.635020344662665,0.09132330388819922,0.00608158390969038,-0.01605071872472763,-1.6936195882715284,0.005816176533699036
1776817187070664400,12.89866455078125,-0.07049933684848425,-0.05922058969736099,-0.020146740988268057,0.012063012458384037,0.16320886172560858,0.982149981407473,0.3354804272725243,right,-0.0068825483322143555,0.17366716302080792,-0.6803978734467179,-9.63514192521572,0.09131586830581914,0.005482455715537071,-0.019525453448295593,-1.694545178683847,0.007678970694541931
1776817187110664400,12.93866455078125,-0.0703267386706928,-0.07247824221849442,-0.020144858730684338,0.00576286856085062,0.1619712720130261,0.9823411001979786,0.3329634495643294,right,-0.008104264736175537,0.17404823697984695,-0.6786893890284001,-9.634614101949333,0.0914634485527882,0.021740105003118515,-0.020815640687942505,-1.6982259130232036,0.0027478933334350586
1776817187150664400,12.97866455078125,-0.070646224626339,-0.06631381064653397,-0.020322439576024705,-0.00814758986234665,0.160603085797176,0.9825058129547177,0.330269351571817,right,-0.004615306854248047,0.17527878742917588,-0.6816194511309266,-9.632305240485072,0.09206579280881004,0.03610292077064514,-0.026143521070480347,-1.710109973692894,0.0016301274299621582
1776817187190664200,13.018664306640625,-0.07116021427096207,-0.08130989223718643,-0.02059130340365922,-0.004967540502548218,0.1591785686000454,0.9826683607070935,0.32748586199686447,right,-0.001142740249633789,0.17663100724514855,-0.6864052241027355,-9.629638067102432,0.09274206696385477,0.03872537240386009,-0.02747792750597,-1.7231658546209334,0.005384579300880432
1776817187230664400,13.05866455078125,-0.07180788100783472,-0.09487108886241913,-0.020909401111281988,-0.01830216869711876,0.1574452157802854,0.9828503707582553,0.32411600902904575,right,0.0014305710792541504,0.1785417377443356,-0.6924043914522975,-9.625890112745761,0.0936962824022854,0.053779952228069305,-0.03561277687549591,-1.7416091276757417,0.003448113799095154
1776817187270664400,13.09866455078125,-0.073250912240353,-0.09054449200630188,-0.021586671939085495,-0.047287292778491974,0.15557788775169404,0.9830108909011728,0.32057917946059367,right,0.007760345935821533,0.1809813309422456,-0.7059810813840478,-9.62061480269134,0.09496933487778568,0.0668611004948616,-0.040985532104969025,-1.7651478241734206,0.0016210228204727173
1776817187310664400,13.13866455078125,-0.0767407023980165,-0.07962420582771301,-0.02322582031509527,-0.09921081364154816,0.1537886232514322,0.983097589344331,0.3174259021418696,right,0.042105257511138916,0.18379608564183444,-0.7391668002143502,-9.613100773799419,0.096585916474792,0.08065371215343475,-0.03457362949848175,-1.7922933129914105,-0.008281558752059937
1776817187350664400,13.17866455078125,-0.08073122258101605,-0.07105903327465057,-0.025069659986718687,-0.06884586066007614,0.1521465783735563,0.9831270503933991,0.31465224160591015,right,0.04403287172317505,0.18695459588863628,-0.7770617196489125,-9.604383798858523,0.09840841525964795,0.06613706797361374,-0.017975062131881714,-1.8227369665719568,-0.031092777848243713
1776817187390664400,13.21866455078125,-0.08424824276113228,-0.05364922061562538,-0.02682022060423041,-0.09686818718910217,0.1507762403456556,0.9832091839318449,0.312285366576995,right,0.037605881690979004,0.18815265610487564,-0.8106512700397521,-9.5994089330554,0.09923228010229258,-0.01896572858095169,-0.008760228753089905,-1.8342798125885427,-0.05475975573062897
1776817187430664200,13.258664306640625,-0.08705327827573876,-0.007931895554065704,-0.028372224265937183,-0.03468184918165207,0.14997297548804633,0.9833331609223065,0.3108594861367605,right,0.04894775152206421,0.18685936393746239,-0.8377803191795945,-9.599452187675237,0.09878848401984318,-0.08330073207616806,0.012392841279506683,-1.8218192672051488,-0.08100014925003052
1776817187470664200,13.298664306640624,-0.08759345669245018,0.02792416140437126,-0.02897861859387936,0.07361024618148804,0.15008261906002002,0.9835059970638836,0.3108843238931955,right,0.040299952030181885,0.18252975578178537,-0.8436477499082684,-9.606765725558995,0.0967031501056234,-0.1748243123292923,0.04177020117640495,-1.7800825045853852,-0.09301775693893433
1776817187510664400,13.33866455078125,-0.08569629375803779,0.07358282059431076,-0.028625552011948923,0.04890371114015579,0.15095521717248228,0.9837738380490314,0.3120163183998308,right,0.012295126914978027,0.1745172586115911,-0.8266149281732738,-9.622250879460573,0.09264075484626684,-0.3134680390357971,0.048842594027519226,-1.702755811537802,-0.11163061857223511
1776817187550664400,13.37866455078125,-0.08359403215997817,0.1198384016752243,-0.028420720374579846,0.05501074716448784,0.15265223143980458,0.9840622661676539,0.31461145963189274,right,0.04333186149597168,0.16260947278843815,-0.8080203370142728,-9.643490066844224,0.08666665851806132,-0.4214302897453308,0.05973043292760849,-1.5876361250601707,-0.10245078802108765
1776817187590664400,13.41866455078125,-0.08150387881940444,0.14209842681884766,-0.02842877219866723,0.017113957554101944,0.1549436753945151,0.9843287586886952,0.3182943383641937,right,0.07136344909667969,0.14775311664681784,-0.7896955027073621,-9.667601010271905,0.0792549335653769,-0.46575233340263367,0.05944155156612396,-1.4436970252029597,-0.0976485162973404
1776817187630664400,13.45866455078125,-0.08087398704267626,0.15667487680912018,-0.029104326122489806,-0.02439039573073387,0.15755062297004552,0.9844345899496122,0.322799971942867,right,0.10834556818008423,0.13346778157951583,-0.7851919076777994,-9.687665308657287,0.07224587962275847,-0.39620059728622437,0.06328191608190536,-1.304989542388916,-0.10010302066802979
1776817187670664200,13.498664306640626,-0.08227575269433787,0.15240846574306488,-0.030667699078807783,-0.045926284044981,0.16032060024638115,0.9843687366540881,0.3278711121889056,right,0.14056706428527832,0.12068017624881466,-0.8000770498596131,-9.70239409123361,0.06614431533572043,-0.33614644408226013,0.07691960036754608,-1.1805979505013673,-0.0871909037232399
1776817187710664200,13.538664306640625,-0.08463148030868653,0.13885818421840668,-0.03272942712135353,-0.057973712682724,0.16289728265032494,0.9842614955029962,0.3326091692077232,right,0.16754287481307983,0.10802938550091427,-0.8241276414021849,-9.714587802374362,0.06018850411070984,-0.32587170600891113,0.08995147049427032,-1.0573471992120147,-0.08484552800655365
1776817187750664400,13.57866455078125,-0.08561962203343883,0.1470550298690796,-0.03411431148426858,-0.013957802206277847,0.1654717521497769,0.98412623197939,0.33727101614696936,right,0.1521073579788208,0.09577611585742202,-0.8347719311438501,-9.725947400778532,0.05432212991122963,-0.3017618656158447,0.08941933512687683,-0.9378077965959906,-0.09869282692670822
1776817187790664400,13.61866455078125,-0.08639363914894437,0.13982804119586945,-0.03528884560381345,-0.028419561684131622,0.1681327319416115,0.9839048564740107,0.3421723483289075,right,0.1477041244506836,0.08498649334104598,-0.8431237990994006,-9.734812844279407,0.04916666703056317,-0.23831000924110413,0.08723820000886917,-0.8324301172580569,-0.11089889705181122
1776817187830664400,13.65866455078125,-0.0894904111276415,0.15256264805793762,-0.03746979384300114,-0.08482864499092102,0.17079099370488884,0.9835610956109186,0.3472664737066432,right,0.1704932451248169,0.07599176609049377,-0.8738999725699425,-9.739218970283865,0.04510022578182332,-0.19466397166252136,0.0875883549451828,-0.7445078689813613,-0.1115386039018631
