time,seconds_elapsed,z,y,x
1776817174260909600,0.08890966796875,-32.6829833984375,-10.223346710205078,-22.845962524414062
1776817174270946600,0.098946533203125,-32.6829833984375,-10.223346710205078,-22.845962524414062
1776817174280983600,0.108983642578125,-32.691802978515625,-10.059333801269531,-22.856483459472656
1776817174291019500,0.11901953125,-32.75080108642578,-9.668548583984375,-23.078086853027344
1776817174301056500,0.129056396484375,-33.12200164794922,-8.768386840820312,-23.200233459472656
1776817174311093500,0.139093505859375,-33.329734802246094,-7.870309829711914,-23.57843017578125
1776817174321129500,0.14912939453125,-33.28663635253906,-7.005464553833008,-23.675453186035156
1776817174331166500,0.15916650390625,-33.59612274169922,-6.321720123291016,-23.76953887939453
1776817174341203500,0.169203369140625,-33.53047180175781,-6.018636703491211,-23.75202178955078
1776817174351239400,0.179239501953125,-33.37519836425781,-5.95014762878418,-23.425514221191406
1776817174361276400,0.1892763671875,-34.23750305175781,-6.17706298828125,-22.888710021972656
1776817174371313700,0.199313720703125,-34.803131103515625,-6.671123504638672,-21.739700317382812
1776817174381349600,0.209349609375,-35.60987091064453,-7.318971633911133,-20.711181640625
1776817174391386600,0.21938671875,-35.72514343261719,-7.579702377319336,-20.259254455566406
1776817174401423400,0.22942333984375,-35.710426330566406,-7.79676628112793,-20.163856506347656
1776817174411459300,0.239459228515625,-36.06929016113281,-7.968053817749023,-20.231712341308594
1776817174421496300,0.249496337890625,-36.08912658691406,-7.691354751586914,-20.374404907226562
1776817174431533600,0.259533447265625,-36.071510314941406,-7.28173828125,-20.653594970703125
1776817174441569500,0.269569580078125,-35.815887451171875,-6.9382476806640625,-21.078453063964844
1776817174451606500,0.2796064453125,-35.46356964111328,-6.484657287597656,-21.697715759277344
1776817174461643500,0.2896435546875,-34.978614807128906,-6.326744079589844,-22.567161560058594
1776817174471679500,0.299679443359375,-34.35847473144531,-6.194330215454102,-23.152015686035156
1776817174481716500,0.309716552734375,-33.982261657714844,-5.890392303466797,-23.637893676757812
1776817174491753500,0.31975341796875,-33.76575469970703,-5.687448501586914,-23.859329223632812
1776817174501789700,0.329789794921875,-33.66693115234375,-5.50294303894043,-24.14319610595703
1776817174511826400,0.339826416015625,-33.77240753173828,-5.261026382446289,-24.37792205810547
1776817174521863400,0.349863525390625,-33.55615234375,-5.038652420043945,-24.6304931640625
1776817174531899400,0.3598994140625,-33.34552001953125,-4.895053863525391,-24.826438903808594
1776817174541936400,0.369936279296875,-33.104591369628906,-4.719776153564453,-25.114349365234375
1776817174551973600,0.3799736328125,-32.840065002441406,-4.4404144287109375,-25.634750366210938
1776817174562009600,0.390009521484375,-32.44623565673828,-4.354747772216797,-26.044593811035156
1776817174572046600,0.400046630859375,-32.25139617919922,-4.118312835693359,-26.48908233642578
1776817174582083600,0.41008349609375,-31.99097442626953,-4.12510871887207,-26.941329956054688
1776817174592120300,0.420120361328125,-31.74877166748047,-4.223735809326172,-26.794174194335938
1776817174602156300,0.43015625,-31.917327880859375,-4.265985488891602,-26.81993865966797
1776817174612193500,0.440193603515625,-32.204673767089844,-4.109521865844727,-26.68524932861328
1776817174622230500,0.45023046875,-32.538780212402344,-3.880533218383789,-26.322769165039062
1776817174632266500,0.4602666015625,-32.93560791015625,-3.6320037841796875,-25.74579620361328
1776817174642303500,0.470303466796875,-33.6102294921875,-3.2387161254882812,-25.00335693359375
1776817174652340500,0.480340576171875,-34.408348083496094,-2.905109405517578,-24.20183563232422
1776817174662376400,0.49037646484375,-34.98875427246094,-2.4936294555664062,-23.162750244140625
1776817174672413400,0.500413330078125,-35.87419891357422,-1.8513832092285156,-21.954200744628906
1776817174682450400,0.510450439453125,-36.66246795654297,-1.2757301330566406,-20.647491455078125
1776817174692486400,0.520486328125,-37.63213348388672,-0.9733352661132812,-18.88080596923828
1776817174702523400,0.5305234375,-38.56652069091797,-0.4662284851074219,-16.86505126953125
1776817174712560400,0.540560302734375,-39.396629333496094,-0.09584426879882812,-15.015876770019531
1776817174722596400,0.550596435546875,-40.117835998535156,0.3326530456542969,-13.243370056152344
1776817174732633300,0.56063330078125,-40.402557373046875,0.332183837890625,-11.310050964355469
1776817174742670600,0.570670654296875,-41.06394958496094,0.5967292785644531,-9.802749633789062
1776817174752706600,0.58070654296875,-41.5576171875,0.7525825500488281,-8.306793212890625
1776817174762743600,0.59074365234375,-41.78767395019531,1.0754928588867188,-6.7903289794921875
1776817174772780500,0.600780517578125,-42.0223388671875,1.3992195129394531,-5.235088348388672
1776817174782816500,0.61081640625,-41.974769592285156,1.9391403198242188,-3.6496238708496094
1776817174792853200,0.620853271484375,-42.069847106933594,2.242694854736328,-2.105194091796875
1776817174802890500,0.630890380859375,-42.16264343261719,2.40631103515625,-0.34407806396484375
1776817174812927500,0.640927490234375,-41.957679748535156,2.7139549255371094,1.4471054077148438
1776817174822963500,0.65096337890625,-41.61986541748047,2.7487106323242188,3.1676177978515625
1776817174833000700,0.661000732421875,-41.478271484375,2.691394805908203,4.564445495605469
1776817174843037700,0.67103759765625,-41.35979461669922,2.422496795654297,5.6560211181640625
1776817174853074000,0.681073974609375,-41.141319274902344,2.228923797607422,6.860389709472656
1776817174863110700,0.691110595703125,-40.73644256591797,2.0136489868164062,7.935821533203125
1776817174873147600,0.701147705078125,-40.79969024658203,1.7399864196777344,8.977912902832031
1776817174883183600,0.71118359375,-40.52577209472656,1.5195388793945312,9.61355209350586
1776817174893220600,0.721220703125,-40.292579650878906,1.4758872985839844,10.182239532470703
1776817174903257600,0.731257568359375,-40.554542541503906,1.132568359375,9.96487045288086
1776817174913293600,0.74129345703125,-40.40308380126953,0.9420700073242188,9.72921371459961
1776817174923330800,0.751330810546875,-40.624107360839844,0.7078933715820312,9.656925201416016
1776817174933367800,0.761367919921875,-40.68354797363281,0.5883674621582031,9.219402313232422
1776817174943403800,0.77140380859375,-41.04681396484375,0.46209716796875,8.826675415039062
1776817174953440800,0.781440673828125,-40.9744873046875,0.5097007751464844,8.488800048828125
1776817174963477500,0.7914775390625,-41.135948181152344,0.767242431640625,8.139080047607422
1776817174973514800,0.8015146484375,-41.09307098388672,0.9372138977050781,8.174686431884766
1776817174983550700,0.81155078125,-41.23870849609375,1.28948974609375,7.961334228515625
1776817174993587700,0.821587646484375,-41.141395568847656,2.257549285888672,7.6596527099609375
1776817175003624700,0.831624755859375,-41.08909606933594,3.267498016357422,7.497993469238281
1776817175013660700,0.84166064453125,-40.8548583984375,4.354469299316406,7.478595733642578
1776817175023697700,0.85169775390625,-40.519927978515625,5.665046691894531,7.764434814453125
1776817175033735000,0.86173486328125,-40.051246643066406,6.913303375244141,8.175655364990234
1776817175043771000,0.87177099609375,-39.67406463623047,8.025123596191406,8.781238555908203
1776817175053807600,0.8818076171875,-39.20060729980469,9.253482818603516,9.296867370605469
1776817175063844600,0.8918447265625,-38.840843200683594,10.247467041015625,9.506519317626953
1776817175073880600,0.901880615234375,-38.623329162597656,11.279472351074219,9.30184555053711
1776817175083917600,0.91191748046875,-38.44843292236328,12.247329711914062,8.906574249267578
1776817175093954800,0.921954833984375,-38.161537170410156,13.367469787597656,8.575004577636719
1776817175103991800,0.93199169921875,-37.63005828857422,14.606426239013672,8.40865707397461
1776817175114027800,0.94202783203125,-36.91607666015625,15.846790313720703,8.390106201171875
1776817175124064800,0.952064697265625,-36.234130859375,17.174148559570312,8.308601379394531
1776817175134101500,0.9621015625,-35.74299621582031,18.352703094482422,7.686138153076172
1776817175144137700,0.9721376953125,-34.97626495361328,19.61437225341797,7.221912384033203
1776817175154174700,0.9821748046875,-34.540008544921875,20.794097900390625,6.730136871337891
1776817175164211700,0.992211669921875,-33.750953674316406,22.03216552734375,6.251003265380859
1776817175174247700,1.00224755859375,-33.22480010986328,23.152416229248047,5.6108856201171875
1776817175184284700,1.01228466796875,-32.325592041015625,24.246505737304688,4.842960357666016
1776817175194321700,1.02232177734375,-31.908889770507812,25.103473663330078,4.0756683349609375
1776817175204359000,1.03235888671875,-31.189010620117188,26.09524154663086,3.356517791748047
1776817175214395000,1.042394775390625,-30.54277801513672,26.9720458984375,2.6353607177734375
1776817175224431900,1.052431884765625,-30.03875732421875,27.66238021850586,2.1008758544921875
1776817175234468600,1.062468505859375,-29.237258911132812,28.335338592529297,1.5976104736328125
1776817175244504600,1.072504638671875,-29.10614013671875,28.96554946899414,1.2123451232910156
1776817175254541600,1.08254150390625,-28.670249938964844,29.372173309326172,0.9048881530761719
1776817175264578800,1.092578857421875,-28.247779846191406,29.715091705322266,0.4531059265136719
1776817175274614800,1.10261474609375,-28.14446258544922,30.009143829345703,0.0489501953125
1776817175284651800,1.11265185546875,-28.134368896484375,30.041034698486328,-0.3638114929199219
1776817175294688800,1.122688720703125,-28.293418884277344,29.970203399658203,-0.6238822937011719
1776817175304725800,1.132725830078125,-28.321495056152344,29.722064971923828,-0.14944839477539062
1776817175314761700,1.14276171875,-28.770751953125,29.316715240478516,0.0478668212890625
1776817175324798700,1.152798828125,-29.59528350830078,28.745922088623047,0.4955902099609375
1776817175334835700,1.162835693359375,-30.015220642089844,28.42322540283203,0.8985710144042969
1776817175344871700,1.17287158203125,-30.388511657714844,27.96224594116211,1.1083183288574219
1776817175354908700,1.18290869140625,-30.372085571289062,27.786052703857422,1.5725631713867188
1776817175364945700,1.192945556640625,-30.512832641601562,27.81018829345703,1.9742393493652344
1776817175374981600,1.202981689453125,-30.401695251464844,27.926315307617188,2.4838714599609375
1776817175385019000,1.213018798828125,-29.914222717285156,28.079662322998047,2.998828887939453
1776817175395055900,1.223055908203125,-29.144134521484375,28.628475189208984,3.597148895263672
1776817175405092600,1.233092529296875,-27.761932373046875,29.342525482177734,4.551456451416016
1776817175415128800,1.24312890625,-26.34239959716797,30.149478912353516,5.814361572265625
1776817175425165600,1.25316552734375,-24.842552185058594,31.177181243896484,7.214595794677734
1776817175435202600,1.26320263671875,-22.784942626953125,31.926761627197266,8.71297836303711
1776817175445238800,1.27323876953125,-20.841049194335938,32.57329177856445,9.851654052734375
1776817175455275800,1.28327587890625,-19.106849670410156,33.25297164916992,10.519599914550781
1776817175465312800,1.293312744140625,-17.583175659179688,33.86625289916992,10.962940216064453
1776817175475349800,1.303349853515625,-16.300392150878906,34.44013595581055,11.35732650756836
1776817175485385700,1.3133857421875,-15.123855590820312,34.835811614990234,11.682884216308594
1776817175495422700,1.323422607421875,-13.937980651855469,35.134769439697266,12.02065658569336
1776817175505459700,1.333459716796875,-13.435226440429688,35.42844009399414,11.919605255126953
1776817175515495700,1.34349560546875,-12.962821960449219,35.562442779541016,11.825675964355469
1776817175525532700,1.35353271484375,-12.622840881347656,35.721012115478516,11.72536849975586
1776817175535569700,1.363569580078125,-12.28790283203125,35.8754768371582,11.87143325805664
1776817175545605600,1.373605712890625,-11.600410461425781,35.9707145690918,12.09365463256836
1776817175555642600,1.383642578125,-11.13323974609375,36.10149002075195,12.104438781738281
1776817175565679900,1.393679931640625,-10.941932678222656,36.1550407409668,12.163211822509766
1776817175575716600,1.403716552734375,-10.684989929199219,36.13063430786133,12.299247741699219
1776817175585752800,1.4137529296875,-10.527244567871094,36.12065505981445,12.515876770019531
1776817175595789600,1.42378955078125,-10.182571411132812,36.21787643432617,12.803272247314453
1776817175605826600,1.43382666015625,-10.005744934082031,36.20094680786133,12.993946075439453
1776817175615862500,1.443862548828125,-9.617912292480469,36.172916412353516,13.190853118896484
1776817175625899800,1.453899658203125,-9.163017272949219,35.97941207885742,13.509082794189453
1776817175635936800,1.463936767578125,-8.751823425292969,35.9032096862793,13.80758285522461
1776817175645973800,1.473973876953125,-8.330970764160156,35.82334518432617,13.908870697021484
1776817175656009700,1.484009765625,-8.014060974121094,35.855281829833984,14.234294891357422
1776817175666046700,1.494046630859375,-7.96356201171875,35.77785110473633,14.348278045654297
1776817175676083700,1.504083740234375,-7.683929443359375,35.82175827026367,14.5257568359375
1776817175686119700,1.51411962890625,-7.438453674316406,35.76998519897461,14.65768051147461
1776817175696156700,1.52415673828125,-7.660606384277344,35.7780647277832,14.522747039794922
1776817175706193700,1.534193603515625,-8.024063110351562,35.66343307495117,14.416828155517578
1776817175716229600,1.544229736328125,-8.227432250976562,35.6656608581543,14.30078125
1776817175726266600,1.5542666015625,-8.639549255371094,35.86079788208008,14.307064056396484
1776817175736303900,1.564303955078125,-8.915763854980469,35.81563186645508,14.20309829711914
1776817175746340900,1.5743408203125,-9.386726379394531,35.78860092163086,13.983440399169922
1776817175756376800,1.584376953125,-9.937660217285156,35.5795783996582,13.851421356201172
1776817175766413600,1.59441357421875,-10.37579345703125,35.58576583862305,13.828136444091797
1776817175776450600,1.604450439453125,-10.644149780273438,35.5655403137207,13.648967742919922
1776817175786486500,1.614486572265625,-10.766738891601562,35.65621566772461,13.496414184570312
1776817175796523800,1.624523681640625,-10.807022094726562,35.50283432006836,13.435779571533203
1776817175806560800,1.634560791015625,-11.01898193359375,35.438297271728516,13.533382415771484
1776817175816597800,1.64459765625,-11.346542358398438,35.39103317260742,13.557971954345703
1776817175826637800,1.654637939453125,-11.45196533203125,35.42538833618164,13.43695068359375
1776817175836674800,1.6646748046875,-11.663894653320312,35.4567756652832,13.133350372314453
1776817175846711800,1.6747119140625,-11.900634765625,35.44748306274414,13.028854370117188
1776817175856747800,1.684747802734375,-12.102333068847656,35.55009078979492,12.89029312133789
1776817175866784800,1.69478466796875,-12.028488159179688,35.5130729675293,12.82607650756836
1776817175876821800,1.70482177734375,-11.904060363769531,35.60451889038086,12.633724212646484
1776817175886859000,1.71485888671875,-11.886543273925781,35.718807220458984,12.46286392211914
1776817175896895000,1.72489501953125,-12.104118347167969,35.66897201538086,12.337299346923828
1776817175906932000,1.734931884765625,-12.273193359375,35.79453659057617,12.246524810791016
1776817175916968700,1.74496875,-12.393165588378906,35.4981803894043,12.270805358886719
1776817175927005000,1.7550048828125,-12.462791442871094,35.43886184692383,12.200508117675781
1776817175937041700,1.765041748046875,-12.870712280273438,35.4936637878418,11.98135757446289
1776817175947079000,1.775078857421875,-13.144142150878906,35.48342514038086,11.86947250366211
1776817175957116000,1.785115966796875,-13.4287109375,35.60151290893555,11.70821762084961
1776817175967151900,1.79515185546875,-13.597183227539062,35.622676849365234,11.581535339355469
1776817175977188900,1.80518896484375,-13.956031799316406,35.60977554321289,11.12337875366211
1776817175987225900,1.815225830078125,-14.151809692382812,35.8319206237793,10.67312240600586
1776817175997261800,1.82526171875,-14.151809692382812,35.8319206237793,10.67312240600586
1776817176007299000,1.835299072265625,-14.434318542480469,35.98563003540039,10.04922866821289
1776817176017335800,1.845335693359375,-14.601310729980469,36.31767654418945,9.234416961669922
1776817176027372800,1.855372802734375,-14.698974609375,36.69277572631836,8.23794937133789
1776817176037408800,1.86540869140625,-14.774421691894531,36.92362594604492,7.183258056640625
1776817176047445800,1.87544580078125,-15.155990600585938,37.297245025634766,6.223247528076172
1776817176057483000,1.88548291015625,-14.931083679199219,37.52517318725586,5.499897003173828
1776817176067519000,1.89551904296875,-15.032806396484375,37.50636672973633,4.835868835449219
1776817176077556000,1.905555908203125,-14.340217590332031,37.7790641784668,4.372364044189453
1776817176087593000,1.915593017578125,-14.196441650390625,37.95780563354492,3.7916259765625
1776817176097629000,1.92562890625,-14.11053466796875,38.22298049926758,3.5186004638671875
1776817176107665700,1.935665771484375,-13.8179931640625,38.2182731628418,3.5320968627929688
1776817176117703000,1.945702880859375,-13.586395263671875,38.158084869384766,3.6966209411621094
1776817176127740000,1.955739990234375,-13.750816345214844,38.16947555541992,4.008617401123047
1776817176137775900,1.96577587890625,-14.159263610839844,37.95316696166992,3.96978759765625
1776817176147812900,1.975812744140625,-14.458755493164062,37.99778366088867,3.841716766357422
1776817176157849900,1.985849853515625,-14.673759460449219,37.90604782104492,3.6691436767578125
1776817176167885800,1.9958857421875,-15.07806396484375,37.81614303588867,3.4128952026367188
1776817176177922800,2.0059228515625,-15.8436279296875,37.61428451538086,3.0314369201660156
1776817176187959800,2.015959716796875,-16.40985870361328,37.13766860961914,2.556365966796875
1776817176197996800,2.025996826171875,-17.06842803955078,36.8658332824707,2.127887725830078
1776817176208032800,2.03603271484375,-17.753517150878906,36.74251174926758,1.8407440185546875
1776817176218069800,2.04606982421875,-18.295303344726562,36.48225021362305,1.6817893981933594
1776817176228106800,2.056106689453125,-18.47368621826172,36.34481430053711,1.3203468322753906
1776817176238142700,2.066142822265625,-18.727638244628906,36.3012809753418,0.856353759765625
1776817176248180000,2.076179931640625,-18.96662139892578,36.2231330871582,0.608062744140625
1776817176258217000,2.086217041015625,-18.85523223876953,36.16682052612305,0.3661689758300781
1776817176268253700,2.096253662109375,-18.828521728515625,36.390140533447266,0.06651687622070312
1776817176278290000,2.1062900390625,-18.613616943359375,36.214656829833984,-0.22711944580078125
1776817176288326700,2.11632666015625,-18.773773193359375,36.37868881225586,-0.5725669860839844
1776817176298364000,2.126364013671875,-18.831375122070312,36.47419357299805,-0.8481597900390625
1776817176308401000,2.13640087890625,-18.74188995361328,36.37467575073242,-0.8533287048339844
1776817176318436900,2.146436767578125,-18.615386962890625,36.39231491088867,-0.8286895751953125
1776817176328473900,2.156473876953125,-19.01917266845703,36.1972770690918,-0.8542289733886719
1776817176338510800,2.1665107421875,-19.08795166015625,36.286861419677734,-0.7443695068359375
1776817176348546800,2.176546875,-19.321502685546875,36.3194694519043,-0.7003173828125
1776817176358583800,2.186583740234375,-19.338485717773438,36.12924575805664,-0.5338325500488281
1776817176368620800,2.196620849609375,-19.478485107421875,36.20920944213867,-0.4560699462890625
1776817176378657800,2.20665771484375,-19.733322143554688,36.086002349853516,-0.24112701416015625
1776817176388693800,2.21669384765625,-19.933624267578125,35.938663482666016,-0.0415496826171875
1776817176398730800,2.226730712890625,-20.24085235595703,35.628841400146484,0.19301986694335938
1776817176408768000,2.23676806640625,-20.064529418945312,35.51950454711914,0.7083168029785156
1776817176418804000,2.246803955078125,-20.549903869628906,35.4239387512207,1.0299034118652344
1776817176428841000,2.256841064453125,-20.368545532226562,35.23978805541992,1.2384605407714844
1776817176438877700,2.266877685546875,-20.310302734375,35.33664321899414,1.5835685729980469
1776817176448914700,2.276914794921875,-20.232192993164062,35.36909103393555,1.8369483947753906
1776817176458950700,2.28695068359375,-20.06146240234375,35.50503158569336,1.9281196594238281
1776817176468988000,2.29698779296875,-19.997093200683594,35.53622817993164,1.8654327392578125
1776817176479025000,2.30702490234375,-19.74793243408203,35.405696868896484,1.8701210021972656
1776817176489060900,2.317060791015625,-19.888900756835938,35.55836868286133,1.8037643432617188
1776817176499097900,2.327097900390625,-19.665420532226562,35.6743049621582,1.7679367065429688
1776817176509134800,2.337134765625,-19.608924865722656,35.7055549621582,1.8854026794433594
1776817176519170800,2.3471708984375,-19.304916381835938,35.58175277709961,1.9828262329101562
1776817176529208000,2.3572080078125,-19.105804443359375,35.64363479614258,1.9464111328125
1776817176539244800,2.367244873046875,-19.12261962890625,35.6895637512207,2.1101455688476562
1776817176549281800,2.37728173828125,-19.4097900390625,35.8670768737793,2.160369873046875
1776817176559317800,2.38731787109375,-19.559791564941406,35.7415885925293,2.307750701904297
1776817176569354800,2.397354736328125,-19.276763916015625,35.90385818481445,2.308544158935547
1776817176579392000,2.40739208984375,-19.359359741210938,35.86276626586914,2.4096908569335938
1776817176589429000,2.417428955078125,-19.281509399414062,35.890445709228516,2.5460739135742188
1776817176599465000,2.42746484375,-18.887710571289062,36.096683502197266,2.608173370361328
1776817176609502000,2.437501953125,-18.866363525390625,36.129276275634766,2.2460479736328125
1776817176619538700,2.44753857421875,-19.01294708251953,36.068599700927734,2.2425384521484375
1776817176629574700,2.45757470703125,-18.936676025390625,36.17781448364258,2.0203933715820312
1776817176639612000,2.46761181640625,-18.939102172851562,36.37124252319336,1.9355659484863281
1776817176649649000,2.47764892578125,-18.5941162109375,36.58853530883789,1.9125900268554688
1776817176659686000,2.487685791015625,-18.390792846679688,36.85158157348633,1.6196365356445312
1776817176669721900,2.497721923828125,-18.062179565429688,37.15334701538086,1.3438644409179688
1776817176679758800,2.5077587890625,-17.494659423828125,37.32322311401367,1.0118331909179688
1776817176689795800,2.5177958984375,-16.799362182617188,37.51679611206055,0.89141845703125
1776817176699831800,2.527831787109375,-16.743980407714844,37.6286506652832,0.6617622375488281
1776817176709868800,2.537868896484375,-16.85590362548828,37.66557693481445,0.4758453369140625
1776817176719905800,2.54790576171875,-16.72454071044922,37.5785026550293,0.4414558410644531
1776817176729942800,2.55794287109375,-16.6522216796875,37.65890121459961,0.4843482971191406
1776817176739978800,2.567978759765625,-16.396759033203125,37.80741500854492,0.5435371398925781
1776817176750015700,2.578015625,-16.497955322265625,37.8366813659668,0.4472389221191406
1776817176760053000,2.588052978515625,-16.434776306152344,37.65461349487305,0.64727783203125
1776817176770089000,2.5980888671875,-16.48548126220703,37.71944046020508,0.8009681701660156
1776817176780126000,2.6081259765625,-16.75847625732422,37.47513198852539,1.2189216613769531
1776817176790162700,2.61816259765625,-16.911605834960938,37.28255844116211,1.8234291076660156
1776817176800199700,2.62819970703125,-17.332664489746094,37.013675689697266,2.2460670471191406
1776817176810235600,2.638235595703125,-17.831893920898438,36.6623420715332,2.8404884338378906
1776817176820273000,2.64827294921875,-17.907264709472656,36.51217269897461,3.3544158935546875
1776817176830305800,2.658305908203125,-18.040573120117188,36.37883377075195,3.5835037231445312
1776817176840341800,2.668341796875,-18.10631561279297,36.20363998413086,4.067901611328125
1776817176850378800,2.678378662109375,-18.47997283935547,36.193302154541016,4.005237579345703
1776817176860416000,2.688416015625,-18.18189239501953,36.133304595947266,4.017391204833984
1776817176870453000,2.698452880859375,-17.7679443359375,36.43343734741211,3.811260223388672
1776817176880489000,2.708489013671875,-17.57111358642578,36.555301666259766,3.794391632080078
1776817176890525700,2.718525634765625,-17.42664337158203,36.653804779052734,3.634899139404297
1776817176900562700,2.728562744140625,-17.19518280029297,36.63553237915039,3.5976295471191406
1776817176910598700,2.7385986328125,-17.42719268798828,36.76701736450195,3.3381919860839844
1776817176920636000,2.748635986328125,-17.397140502929688,36.395320892333984,3.3555145263671875
1776817176930673000,2.7586728515625,-17.993614196777344,36.34836196899414,3.367889404296875
1776817176940710000,2.7687099609375,-18.552383422851562,36.2324104309082,3.2111854553222656
1776817176950745900,2.778745849609375,-18.93499755859375,36.114192962646484,3.032329559326172
1776817176960782800,2.788782958984375,-19.046707153320312,36.09437942504883,2.8927650451660156
1776817176970819800,2.79881982421875,-19.296287536621094,35.99766159057617,2.9414749145507812
1776817176980856000,2.80885595703125,-19.38159942626953,35.85634231567383,3.02813720703125
1776817176990892800,2.818892822265625,-19.534500122070312,35.813045501708984,2.8118858337402344
1776817177000929800,2.8289296875,-19.644264221191406,35.72574996948242,2.6239089965820312
1776817177010966800,2.838966796875,-19.490318298339844,35.99263381958008,2.3737258911132812
1776817177021002800,2.849002685546875,-19.0076904296875,36.201908111572266,2.1006736755371094
1776817177031040000,2.8590400390625,-18.683853149414062,36.555179595947266,1.7754631042480469
1776817177041077000,2.869076904296875,-18.239456176757812,36.910160064697266,1.4498481750488281
1776817177051113000,2.879113037109375,-17.656951904296875,37.37812423706055,1.0597152709960938
1776817177061150000,2.88914990234375,-17.2103271484375,37.60684585571289,0.3114471435546875
1776817177071186700,2.899186767578125,-16.814804077148438,37.76564407348633,-0.247467041015625
1776817177081223700,2.9092236328125,-16.506858825683594,37.8979377746582,-0.8236198425292969
1776817177091260000,2.919260009765625,-16.36290740966797,38.211910247802734,-1.2532386779785156
1776817177101297000,2.929296875,-15.86041259765625,38.419246673583984,-1.6848258972167969
1776817177111334000,2.939333984375,-15.863746643066406,38.35703659057617,-1.926666259765625
1776817177121369900,2.949369873046875,-15.169052124023438,38.61307907104492,-2.0176239013671875
1776817177131406800,2.95940673828125,-15.056121826171875,38.7765998840332,-2.304676055908203
1776817177141443800,2.96944384765625,-14.466171264648438,38.98391342163086,-2.5078163146972656
1776817177151480800,2.979480712890625,-14.3480224609375,38.9995002746582,-2.4595603942871094
1776817177161516800,2.989516845703125,-14.420806884765625,39.17892074584961,-2.524517059326172
1776817177171553800,2.9995537109375,-14.205436706542969,39.21865463256836,-2.360240936279297
1776817177181590800,3.0095908203125,-14.143524169921875,39.159000396728516,-2.5616493225097656
1776817177191626800,3.019626708984375,-14.211822509765625,38.97623062133789,-2.6983184814453125
1776817177201663700,3.029663818359375,-14.578910827636719,38.91080856323242,-2.8421096801757812
1776817177211701000,3.039700927734375,-15.017364501953125,38.8620491027832,-2.946521759033203
1776817177221738000,3.049738037109375,-15.337379455566406,38.70132827758789,-2.9309921264648438
1776817177231774000,3.05977392578125,-16.084762573242188,38.5914421081543,-2.93212890625
1776817177241810700,3.069810791015625,-16.684799194335938,38.311275482177734,-2.56988525390625
1776817177251847700,3.07984765625,-17.606529235839844,37.827510833740234,-2.0290908813476562
1776817177261885000,3.089885009765625,-18.238967895507812,37.50495529174805,-1.7575225830078125
1776817177271921000,3.0999208984375,-18.53345489501953,37.0803108215332,-1.3332328796386719
1776817177281958000,3.1099580078125,-18.85479736328125,36.84220504760742,-1.1781234741210938
1776817177291995000,3.119994873046875,-19.172378540039062,36.78574752807617,-0.914337158203125
1776817177302030800,3.13003076171875,-19.389663696289062,36.443477630615234,-0.7616615295410156
1776817177312067800,3.14006787109375,-19.32878875732422,36.39289474487305,-0.4053535461425781
1776817177322104800,3.150104736328125,-19.646324157714844,36.393985748291016,-0.2465057373046875
1776817177332141800,3.160141845703125,-19.624549865722656,36.36946487426758,-0.23347854614257812
1776817177342177800,3.170177734375,-19.40697479248047,36.5277214050293,-0.19804763793945312
1776817177352214800,3.18021484375,-19.384124755859375,36.3995475769043,-0.3249053955078125
1776817177362251800,3.190251708984375,-19.055862426757812,36.608028411865234,-0.4653358459472656
1776817177372287700,3.200287841796875,-18.97020721435547,36.603519439697266,-0.6983528137207031
1776817177382325000,3.210324951171875,-19.02214813232422,36.74776077270508,-0.9428176879882812
1776817177392362000,3.220362060546875,-18.556930541992188,37.02339553833008,-1.3857345581054688
1776817177402398700,3.230398681640625,-18.476470947265625,36.951541900634766,-1.4527816772460938
1776817177412435000,3.24043505859375,-17.779129028320312,37.04304885864258,-1.5565719604492188
1776817177422471700,3.2504716796875,-17.38842010498047,37.20943832397461,-1.814483642578125
1776817177432509000,3.260509033203125,-16.98419189453125,37.3883171081543,-2.0434188842773438
1776817177442545000,3.270544921875,-16.713096618652344,37.4805793762207,-2.222026824951172
1776817177452582000,3.280581787109375,-16.589927673339844,37.43132400512695,-2.3532562255859375
1776817177462619000,3.290618896484375,-16.643569946289062,37.59189224243164,-2.767578125
1776817177472656000,3.30065576171875,-16.67920684814453,37.61746597290039,-3.147796630859375
1776817177482691800,3.31069189453125,-16.638893127441406,37.575260162353516,-3.5386810302734375
1776817177492728800,3.320728759765625,-16.65435791015625,37.56857681274414,-3.8474655151367188
1776817177502765800,3.330765869140625,-16.537498474121094,37.481563568115234,-4.049018859863281
1776817177512802800,3.340802734375,-16.459190368652344,37.599246978759766,-4.353858947753906
1776817177522838800,3.3508388671875,-16.340744018554688,37.8481559753418,-4.6855316162109375
1776817177532875800,3.360875732421875,-16.146705627441406,37.78083419799805,-4.8324127197265625
1776817177542913000,3.3709130859375,-16.173362731933594,37.88388442993164,-4.888362884521484
1776817177552949000,3.380948974609375,-15.862289428710938,37.94600296020508,-4.598594665527344
1776817177562986000,3.390986083984375,-15.667327880859375,38.05831527709961,-4.625709533691406
1776817177573022700,3.401022705078125,-15.571144104003906,38.02248764038086,-4.562824249267578
1776817177583059700,3.411059814453125,-15.634689331054688,38.13545608520508,-4.2249755859375
1776817177593095700,3.421095703125,-15.485954284667969,38.01290512084961,-4.0361785888671875
1776817177603132700,3.431132568359375,-15.383323669433594,38.2829704284668,-3.7273826599121094
1776817177613170000,3.441169921875,-15.223495483398438,38.283077239990234,-3.6142578125
1776817177623206000,3.451205810546875,-15.028594970703125,38.30598831176758,-3.4538421630859375
1776817177633243000,3.461242919921875,-14.454681396484375,38.36043167114258,-3.1717453002929688
1776817177643280000,3.47127978515625,-14.520050048828125,38.41292190551758,-2.8910293579101562
1776817177653316900,3.48131689453125,-14.547080993652344,38.39095687866211,-2.6853485107421875
1776817177663352800,3.491352783203125,-14.494682312011719,38.28194808959961,-2.587482452392578
1776817177673389800,3.501389892578125,-14.517616271972656,38.53899002075195,-2.729534149169922
1776817177683426800,3.5114267578125,-14.299430847167969,38.357845306396484,-2.678508758544922
1776817177693463800,3.5214638671875,-14.345962524414062,38.46845626831055,-2.7118873596191406
1776817177703499800,3.531499755859375,-14.3646240234375,38.42788314819336,-2.7589797973632812
1776817177713536800,3.541536865234375,-14.3646240234375,38.42788314819336,-2.7589797973632812
1776817177723574000,3.551573974609375,-14.294197082519531,38.334781646728516,-2.866588592529297
1776817177733610000,3.56160986328125,-14.501144409179688,38.46620559692383,-2.9430618286132812
1776817177743647000,3.57164697265625,-14.34625244140625,38.62700271606445,-2.761615753173828
1776817177753683700,3.58168359375,-14.129203796386719,38.69320297241211,-2.651683807373047
1776817177763720700,3.591720703125,-14.329383850097656,38.66889572143555,-2.80645751953125
1776817177773756700,3.601756591796875,-14.211090087890625,38.50307083129883,-2.9370079040527344
1776817177783794000,3.6117939453125,-14.386573791503906,38.44236373901367,-3.04791259765625
1776817177793831000,3.621830810546875,-14.616897583007812,38.513729095458984,-3.1725120544433594
1776817177803867000,3.631866943359375,-14.80657958984375,38.36259841918945,-3.3126602172851562
1776817177813904000,3.64190380859375,-15.2576904296875,38.269840240478516,-3.6083297729492188
1776817177823940900,3.65194091796875,-15.3834228515625,38.18838119506836,-3.7737503051757812
1776817177833978000,3.66197802734375,-15.556045532226562,38.16679000854492,-3.9185714721679688
1776817177844014000,3.67201416015625,-15.472251892089844,38.04184341430664,-3.9306106567382812
1776817177854051000,3.682051025390625,-15.335090637207031,38.0774040222168,-3.977264404296875
1776817177864088000,3.692088134765625,-14.890647888183594,38.30186080932617,-4.005214691162109
1776817177874124000,3.7021240234375,-14.621482849121094,38.34299087524414,-3.9941558837890625
1776817177884161000,3.7121611328125,-14.571998596191406,38.2456169128418,-3.897228240966797
1776817177894198300,3.7221982421875,-14.619987487792969,38.15877914428711,-3.8078880310058594
1776817177904235000,3.732235107421875,-15.096054077148438,37.94661331176758,-3.9379920959472656
1776817177914271200,3.742271240234375,-15.798927307128906,37.81205368041992,-4.219486236572266
1776817177924308000,3.752307861328125,-16.529205322265625,37.67299270629883,-4.372245788574219
1776817177934345000,3.762344970703125,-17.00054931640625,37.33028793334961,-4.542121887207031
1776817177944382200,3.77238232421875,-17.371917724609375,37.37716293334961,-4.597923278808594
1776817177954418200,3.782418212890625,-17.639183044433594,37.24726486206055,-4.830718994140625
1776817177964455200,3.792455078125,-17.985633850097656,36.913509368896484,-4.8730010986328125
1776817177974492200,3.8024921875,-18.045799255371094,36.99905776977539,-5.069408416748047
1776817177984528100,3.812528076171875,-18.253494262695312,36.75709915161133,-5.112621307373047
1776817177994565000,3.822565185546875,-18.271095275878906,37.0122184753418,-5.442695617675781
1776817178004602000,3.83260205078125,-18.266632080078125,36.920597076416016,-5.647884368896484
1776817178014639000,3.84263916015625,-17.984703063964844,36.96059036254883,-5.8682861328125
1776817178024675000,3.852675048828125,-18.037315368652344,36.91835403442383,-6.117057800292969
1776817178034712000,3.862712158203125,-17.935829162597656,37.01151657104492,-6.3562164306640625
1776817178044749000,3.8727490234375,-17.75115966796875,37.095211029052734,-6.622047424316406
1776817178054785000,3.882784912109375,-17.741905212402344,36.99033737182617,-6.830718994140625
1776817178064822300,3.892822265625,-17.583778381347656,36.9816780090332,-7.14739990234375
1776817178074859300,3.902859375,-17.083648681640625,37.0468635559082,-7.414680480957031
1776817178084896000,3.91289599609375,-16.805931091308594,37.14213180541992,-7.660552978515625
1776817178094932000,3.922931884765625,-16.694229125976562,37.05031967163086,-8.196372985839844
1776817178104969000,3.932968994140625,-16.466407775878906,37.13273239135742,-8.644645690917969
1776817178115006200,3.943006103515625,-16.46990966796875,36.965572357177734,-9.093513488769531
1776817178125042200,3.953042236328125,-16.276290893554688,36.93486404418945,-9.500900268554688
1776817178135079200,3.9630791015625,-16.32715606689453,36.6641731262207,-9.737113952636719
1776817178145116200,3.9731162109375,-16.629798889160156,36.50619888305664,-10.253982543945312
1776817178155153200,3.983153076171875,-16.6346435546875,36.25503921508789,-10.598243713378906
1776817178165189000,3.993189208984375,-16.475730895996094,36.00680160522461,-10.922752380371094
1776817178175225900,4.003225830078125,-16.450843811035156,36.157222747802734,-11.423271179199219
1776817178185263000,4.01326318359375,-16.260406494140625,36.03358840942383,-11.841529846191406
1776817178195299000,4.023299072265625,-16.27081298828125,35.89590072631836,-12.16241455078125
1776817178205336000,4.033336181640625,-16.19049072265625,36.0726203918457,-12.316215515136719
1776817178215373000,4.043373046875,-16.050888061523438,36.08816909790039,-12.457542419433594
1776817178225410000,4.05341015625,-16.095191955566406,36.0810661315918,-12.49273681640625
1776817178235446000,4.063446044921875,-15.935523986816406,36.0763053894043,-12.598602294921875
1776817178245483300,4.073483154296875,-15.837654113769531,36.08930587768555,-12.777153015136719
1776817178255520000,4.08352001953125,-15.723190307617188,35.96798324584961,-12.885650634765625
1776817178265557000,4.093556884765625,-15.900001525878906,36.01517105102539,-12.953262329101562
1776817178275593000,4.103593017578125,-15.982559204101562,36.146671295166016,-12.922004699707031
1776817178285630000,4.1136298828125,-15.872871398925781,36.09162521362305,-13.054702758789062
1776817178295667200,4.123667236328125,-15.892402648925781,36.011051177978516,-13.078048706054688
1776817178305703200,4.133703125,-15.9840087890625,35.91963577270508,-13.081451416015625
1776817178315740200,4.143740234375,-15.979759216308594,36.00114822387695,-13.147552490234375
1776817178325777200,4.153777099609375,-15.793228149414062,36.07571029663086,-13.014739990234375
1776817178335814000,4.16381396484375,-16.030960083007812,35.96492385864258,-13.073951721191406
1776817178345850000,4.17385009765625,-15.931694030761719,35.943050384521484,-13.071769714355469
1776817178355887000,4.18388720703125,-15.767562866210938,35.8489875793457,-13.078895568847656
1776817178365924000,4.193924072265625,-16.09484100341797,35.8640022277832,-13.116195678710938
1776817178375961000,4.203961181640625,-16.08759307861328,35.88063430786133,-13.042831420898438
1776817178385997000,4.2139970703125,-16.14179229736328,35.90651321411133,-13.050628662109375
1776817178396034000,4.224033935546875,-16.188796997070312,35.84926223754883,-13.003959655761719
1776817178406071300,4.2340712890625,-16.05384063720703,35.86030197143555,-12.91357421875
1776817178416107300,4.244107177734375,-16.02222442626953,35.779117584228516,-12.948249816894531
1776817178426144000,4.25414404296875,-16.039306640625,35.83249282836914,-12.938438415527344
1776817178436181000,4.264180908203125,-16.316818237304688,35.848628997802734,-12.952377319335938
1776817178446218000,4.274218017578125,-16.188888549804688,35.834041595458984,-13.043975830078125
1776817178456254000,4.28425390625,-16.29882049560547,35.86928176879883,-13.043731689453125
1776817178466291200,4.294291259765625,-16.18372344970703,35.88593673706055,-12.874954223632812
1776817178476328200,4.304328125,-16.365760803222656,35.80421829223633,-12.932418823242188
1776817178486364200,4.3143642578125,-16.60126495361328,35.831478118896484,-12.861000061035156
1776817178496401200,4.324401123046875,-16.68927764892578,35.84589767456055,-12.853668212890625
1776817178506438100,4.334438232421875,-16.740371704101562,35.81569290161133,-12.773094177246094
1776817178516475100,4.34447509765625,-16.6552734375,35.67032241821289,-12.410179138183594
1776817178526511000,4.354510986328125,-16.939674377441406,35.71268081665039,-12.43878173828125
1776817178536548000,4.364548095703125,-17.092880249023438,35.593013763427734,-12.427162170410156
1776817178546585000,4.374585205078125,-17.11670684814453,35.433956146240234,-12.339134216308594
1776817178556621000,4.38462109375,-17.35466766357422,35.375186920166016,-12.381195068359375
1776817178566658000,4.394657958984375,-17.297264099121094,35.26304244995117,-12.698616027832031
1776817178576695300,4.4046953125,-17.269622802734375,34.92341232299805,-13.014892578125
1776817178586732000,4.41473193359375,-17.236244201660156,34.94624710083008,-13.641639709472656
1776817178596768300,4.424768310546875,-16.88525390625,34.747310638427734,-14.009506225585938
1776817178606805000,4.434804931640625,-16.926437377929688,34.88701248168945,-14.392539978027344
1776817178616842000,4.444842041015625,-16.41754913330078,34.859249114990234,-14.747077941894531
1776817178626879000,4.45487890625,-16.399505615234375,34.67561721801758,-15.085739135742188
1776817178636915200,4.464915283203125,-16.381629943847656,34.722476959228516,-15.247062683105469
1776817178646952200,4.4749521484375,-16.323448181152344,34.8510627746582,-15.430946350097656
1776817178656989200,4.4849892578125,-16.0748291015625,34.85292434692383,-15.2330322265625
1776817178667025200,4.495025146484375,-15.86419677734375,34.96464157104492,-15.368690490722656
1776817178677062100,4.505062255859375,-15.595146179199219,34.8019905090332,-15.40093994140625
1776817178687099000,4.515098876953125,-15.9991455078125,34.87801742553711,-15.379035949707031
1776817178697136000,4.52513623046875,-16.0106201171875,35.059505462646484,-15.459648132324219
1776817178707172000,4.535172119140625,-16.42554473876953,34.96992874145508,-15.33026123046875
1776817178717209000,4.545208984375,-15.85552978515625,34.96872329711914,-15.349205017089844
1776817178727246000,4.55524609375,-16.007766723632812,34.9238166809082,-15.419921875
1776817178737283000,4.565282958984375,-16.222984313964844,35.006282806396484,-15.341209411621094
1776817178747319000,4.575319091796875,-16.30931854248047,35.11905288696289,-15.379798889160156
1776817178757356300,4.585356201171875,-16.311302185058594,35.024723052978516,-15.450119018554688
1776817178767393000,4.59539306640625,-16.332687377929688,34.936344146728516,-15.369270324707031
1776817178777429000,4.605428955078125,-16.55493927001953,34.734378814697266,-15.301719665527344
1776817178787466000,4.615466064453125,-16.73992156982422,34.86314010620117,-15.325431823730469
1776817178797503000,4.6255029296875,-16.76708984375,34.9062614440918,-15.215957641601562
1776817178807540200,4.635540283203125,-16.91436004638672,34.80702590942383,-15.298332214355469
1776817178817576200,4.645576171875,-16.848098754882812,34.87727737426758,-15.378662109375
1776817178827613200,4.65561328125,-16.679298400878906,34.75100326538086,-15.399429321289062
1776817178837650000,4.66564990234375,-16.460342407226562,34.75416946411133,-15.448356628417969
1776817178847686000,4.675685791015625,-16.402557373046875,34.778995513916016,-15.398033142089844
1776817178857723000,4.685722900390625,-16.50635528564453,34.810123443603516,-15.558815002441406
1776817178867759900,4.695759765625,-16.227432250976562,34.84146499633789,-15.511726379394531
1776817178877796900,4.705796875,-16.45763397216797,34.89303970336914,-15.6624755859375
1776817178887832800,4.715832763671875,-16.416358947753906,34.83530044555664,-15.522613525390625
1776817178897872000,4.725871826171875,-16.39276885986328,34.78108596801758,-15.4920654296875
1776817178907908900,4.735908935546875,-16.661087036132812,34.8488883972168,-15.503204345703125
1776817178917944800,4.74594482421875,-16.881988525390625,34.9571647644043,-15.454963684082031
1776817178927981800,4.75598193359375,-16.887710571289062,34.78733444213867,-15.49835205078125
1776817178938018800,4.766018798828125,-16.63941192626953,34.8864860534668,-15.462593078613281
1776817178948054800,4.7760546875,-16.7269287109375,34.97243118286133,-15.497390747070312
1776817178958092000,4.786092041015625,-16.650794982910156,34.84134292602539,-15.524742126464844
1776817178968129000,4.79612890625,-16.69232177734375,34.68178176879883,-15.676101684570312
1776817178978165800,4.806165771484375,-16.930320739746094,34.614994049072266,-15.925567626953125
1776817178988202000,4.816201904296875,-16.75971221923828,34.50893020629883,-16.15467071533203
1776817178998238700,4.82623876953125,-16.486976623535156,34.266544342041016,-16.43939971923828
1776817179008276000,4.83627587890625,-16.659042358398438,34.1157112121582,-16.705604553222656
1776817179018313000,4.84631298828125,-16.727622985839844,33.99345016479492,-17.124038696289062
1776817179028349000,4.856348876953125,-16.881668090820312,34.010799407958984,-17.50714874267578
1776817179038386000,4.866385986328125,-16.77507781982422,33.71974563598633,-17.708770751953125
1776817179048423000,4.8764228515625,-16.783340454101562,33.41304397583008,-18.131935119628906
1776817179058459000,4.886458984375,-16.83147430419922,33.120426177978516,-18.7613525390625
1776817179068496000,4.896495849609375,-16.842185974121094,32.937870025634766,-19.20843505859375
1776817179078532900,4.906532958984375,-16.799835205078125,32.73257064819336,-19.76293182373047
1776817179088569900,4.91656982421875,-16.554054260253906,32.51020431518555,-20.235572814941406
1776817179098605800,4.926605712890625,-16.411293029785156,32.36941146850586,-20.75933074951172
1776817179108642800,4.936642822265625,-16.186676025390625,31.99271011352539,-21.098861694335938
1776817179118680000,4.94668017578125,-16.192214965820312,31.871524810791016,-21.478042602539062
1776817179128717000,4.956717041015625,-15.993766784667969,31.636516571044922,-21.756027221679688
1776817179138753000,4.9667529296875,-15.973213195800781,31.545040130615234,-22.07286834716797
1776817179148789800,4.976789794921875,-15.797943115234375,31.363483428955078,-22.193458557128906
1776817179158826800,4.98682666015625,-15.65283203125,31.437007904052734,-22.39208221435547
1776817179168863700,4.99686376953125,-16.022552490234375,31.045909881591797,-22.489669799804688
1776817179178899700,5.006899658203125,-16.050254821777344,30.846187591552734,-22.548690795898438
1776817179188937000,5.01693701171875,-16.11188507080078,30.922740936279297,-22.653076171875
1776817179198974000,5.026973876953125,-15.770378112792969,31.147991180419922,-22.69305419921875
1776817179209010000,5.037010009765625,-15.188819885253906,31.433216094970703,-22.567459106445312
1776817179219047000,5.047046875,-15.092201232910156,31.598468780517578,-22.571876525878906
1776817179229084000,5.057083984375,-14.6710205078125,31.631000518798828,-22.517234802246094
1776817179239121000,5.067120849609375,-14.701698303222656,31.614131927490234,-22.46599578857422
1776817179249156900,5.077156982421875,-14.296432495117188,31.631610870361328,-22.42925262451172
1776817179259193900,5.08719384765625,-13.90289306640625,31.994441986083984,-22.403663635253906
1776817179269230800,5.09723095703125,-13.379585266113281,32.20060348510742,-22.291481018066406
1776817179279267800,5.107267822265625,-12.806144714355469,32.45823287963867,-22.271102905273438
1776817179289303800,5.1173037109375,-12.264854431152344,32.614803314208984,-22.168243408203125
1776817179299341000,5.127341064453125,-11.928977966308594,32.743167877197266,-22.25971221923828
1776817179309377800,5.137377685546875,-11.767059326171875,32.77399826049805,-22.28839874267578
1776817179319414800,5.147414794921875,-11.521659851074219,32.94802474975586,-22.30175018310547
1776817179329450800,5.15745068359375,-11.292694091796875,33.01486587524414,-22.41559600830078
1776817179339487700,5.16748779296875,-11.241188049316406,32.95021438598633,-22.40477752685547
1776817179349525000,5.17752490234375,-11.221168518066406,32.899906158447266,-22.33136749267578
1776817179359561000,5.18756103515625,-10.968528747558594,32.990047454833984,-22.37657928466797
1776817179369598000,5.197597900390625,-10.671371459960938,32.90803909301758,-22.310394287109375
1776817179379635000,5.207635009765625,-10.722030639648438,32.78036117553711,-22.440963745117188
1776817179389671700,5.217671630859375,-10.828742980957031,32.70743942260742,-22.58751678466797
1776817179399708000,5.2277080078125,-10.825019836425781,32.638179779052734,-22.631790161132812
1776817179409745000,5.237744873046875,-10.95355224609375,32.67778396606445,-22.74156951904297
1776817179419782000,5.247781982421875,-10.986404418945312,32.54690933227539,-22.799148559570312
1776817179429819000,5.25781884765625,-11.340538024902344,32.33918380737305,-22.87017059326172
1776817179439854800,5.267854736328125,-11.43939208984375,32.439144134521484,-22.92011260986328
1776817179449891800,5.277891845703125,-11.542160034179688,32.4793815612793,-23.01153564453125
1776817179459929000,5.28792919921875,-11.71307373046875,32.48880386352539,-23.11548614501953
1776817179469965800,5.2979658203125,-11.698051452636719,32.14937973022461,-23.045265197753906
1776817179480002000,5.308001953125,-11.766342163085938,32.18875503540039,-23.102706909179688
1776817179490038800,5.318038818359375,-11.956535339355469,32.17568588256836,-23.109542846679688
1776817179500075800,5.32807568359375,-12.251518249511719,32.066829681396484,-23.03398895263672
1776817179510111700,5.33811181640625,-11.982101440429688,32.075016021728516,-23.189857482910156
1776817179520149000,5.34814892578125,-12.010345458984375,31.90316390991211,-23.080970764160156
1776817179530186000,5.35818603515625,-12.272682189941406,31.844470977783203,-23.14288330078125
1776817179540223000,5.368222900390625,-12.336128234863281,31.74228286743164,-23.20494842529297
1776817179550259000,5.378259033203125,-12.466156005859375,31.727680206298828,-23.173194885253906
1776817179560296000,5.3882958984375,-12.25518798828125,31.786815643310547,-23.195030212402344
1776817179570332700,5.398332763671875,-12.423149108886719,31.706836700439453,-23.38404083251953
1776817179580370000,5.408369873046875,-12.589508056640625,31.50643539428711,-23.458091735839844
1776817179590406000,5.418406005859375,-12.911827087402344,31.502574920654297,-23.311988830566406
1776817179600443000,5.42844287109375,-13.090316772460938,31.493328094482422,-23.319747924804688
1776817179610479900,5.43847998046875,-13.081871032714844,31.34567642211914,-23.197769165039062
1776817179620515800,5.448515869140625,-13.099029541015625,31.493144989013672,-23.287918090820312
1776817179630552800,5.458552734375,-13.303108215332031,31.438129425048828,-23.3785400390625
1776817179640590000,5.468590087890625,-13.272697448730469,31.312023162841797,-23.32971954345703
1776817179650626800,5.478626708984375,-13.157722473144531,31.44516372680664,-23.36541748046875
1776817179660662800,5.488662841796875,-13.181549072265625,31.271465301513672,-23.33124542236328
1776817179670699800,5.49869970703125,-13.318977355957031,31.32143783569336,-23.352867126464844
1776817179680736800,5.50873681640625,-13.268356323242188,31.224987030029297,-23.329551696777344
1776817179690774000,5.51877392578125,-13.329360961914062,31.18142318725586,-23.429397583007812
1776817179700810000,5.52881005859375,-13.222358703613281,31.349407196044922,-23.335113525390625
1776817179710847000,5.538846923828125,-13.508064270019531,31.171993255615234,-23.388336181640625
1776817179720884000,5.548884033203125,-13.537254333496094,31.046146392822266,-23.40978240966797
1776817179730920700,5.558920654296875,-13.672691345214844,31.086833953857422,-23.491470336914062
1776817179740956700,5.568956787109375,-13.576522827148438,31.10152816772461,-23.519996643066406
1776817179750994000,5.578993896484375,-13.670188903808594,31.12179946899414,-23.32976531982422
1776817179761031000,5.589031005859375,-13.614944458007812,31.089122772216797,-23.10515594482422
1776817179771067000,5.59906689453125,-14.006950378417969,31.14108657836914,-23.352882385253906
1776817179781103900,5.609103759765625,-14.187248229980469,31.005863189697266,-23.27257537841797
1776817179791140900,5.619140869140625,-14.080787658691406,31.053668975830078,-23.263954162597656
1776817179801177900,5.629177734375,-14.260551452636719,30.952579498291016,-23.224502563476562
1776817179811214000,5.639214111328125,-14.408897399902344,30.880619049072266,-23.267929077148438
1776817179821250800,5.649250732421875,-14.660194396972656,30.711009979248047,-23.292320251464844
1776817179831288300,5.659288330078125,-14.786041259765625,30.806079864501953,-23.09722900390625
1776817179841325300,5.6693251953125,-15.104606628417969,30.849102020263672,-23.10370635986328
1776817179851361300,5.679361328125,-15.101486206054688,30.697010040283203,-22.963668823242188
1776817179861398500,5.6893984375,-15.594337463378906,30.58688735961914,-22.898536682128906
1776817179871435500,5.699435546875,-15.898719787597656,30.461078643798828,-22.747718811035156
1776817179881472300,5.70947216796875,-16.138748168945312,30.316295623779297,-22.504608154296875
1776817179891508200,5.71950830078125,-16.458847045898438,30.315845489501953,-22.48004913330078
1776817179901545200,5.729545166015625,-16.66101837158203,30.276004791259766,-22.292633056640625
1776817179911582200,5.739582275390625,-17.260032653808594,30.194599151611328,-22.128677368164062
1776817179921619500,5.749619384765625,-17.83489227294922,29.988216400146484,-21.863143920898438
1776817179931655400,5.759655517578125,-18.200546264648438,29.823474884033203,-21.590774536132812
1776817179941692400,5.7696923828125,-18.69110870361328,29.78281021118164,-21.255279541015625
1776817179951729400,5.7797294921875,-19.22461700439453,29.727428436279297,-21.16692352294922
1776817179961765400,5.789765380859375,-19.569190979003906,29.743038177490234,-20.967605590820312
1776817179971802000,5.799802001953125,-19.77301788330078,29.664127349853516,-20.812705993652344
1776817179981839400,5.80983935546875,-20.005050659179688,29.69321060180664,-20.58020782470703
1776817179991876400,5.81987646484375,-20.417800903320312,29.41678237915039,-20.27655029296875
1776817180001912300,5.829912353515625,-20.5911865234375,29.427547454833984,-20.28411102294922
1776817180011949300,5.83994921875,-20.85265350341797,29.29629135131836,-20.268203735351562
1776817180021986300,5.849986328125,-20.862579345703125,29.147296905517578,-20.22015380859375
1776817180032023600,5.8600234375,-21.191978454589844,29.058208465576172,-20.183441162109375
1776817180042059500,5.8700595703125,-21.3348388671875,29.012950897216797,-20.211395263671875
1776817180052096300,5.88009619140625,-21.3348388671875,29.012950897216797,-20.211395263671875
1776817180062133200,5.89013330078125,-21.168777465820312,29.03238296508789,-20.4149169921875
1776817180072169200,5.900169189453125,-21.10626983642578,29.084957122802734,-20.534530639648438
1776817180082206200,5.910206298828125,-20.980384826660156,29.020671844482422,-20.55780029296875
1776817180092243500,5.920243408203125,-20.709320068359375,29.203922271728516,-20.57659149169922
1776817180102280400,5.930280517578125,-20.71515655517578,29.19339370727539,-20.655555725097656
1776817180112316400,5.94031640625,-20.416061401367188,29.42025375366211,-20.664398193359375
1776817180122353400,5.950353515625,-20.036117553710938,29.65060043334961,-20.827980041503906
1776817180132390100,5.96039013671875,-19.721481323242188,29.776103973388672,-20.88813018798828
1776817180142427400,5.970427490234375,-19.251434326171875,29.71658706665039,-20.70575714111328
1776817180152463400,5.98046337890625,-18.823097229003906,29.95145034790039,-21.050277709960938
1776817180162500400,5.990500244140625,-18.512344360351562,30.09627914428711,-21.21710205078125
1776817180172537300,6.000537353515625,-17.98249053955078,30.242443084716797,-21.339942932128906
1776817180182574300,6.01057421875,-17.462181091308594,30.29166030883789,-21.505126953125
1776817180192610300,6.0206103515625,-17.13201904296875,30.31161880493164,-21.571884155273438
1776817180202647600,6.0306474609375,-16.88060760498047,30.460826873779297,-21.718460083007812
1776817180212684300,6.040684326171875,-16.835350036621094,30.402286529541016,-21.791831970214844
1776817180222720500,6.050720458984375,-16.839454650878906,30.461894989013672,-21.7501220703125
1776817180232757200,6.06075732421875,-16.523773193359375,30.567302703857422,-21.830337524414062
1776817180242794200,6.070794189453125,-16.562355041503906,30.456241607666016,-21.75384521484375
1776817180252831500,6.08083154296875,-16.34430694580078,30.44454574584961,-21.703125
1776817180262867500,6.090867431640625,-16.43566131591797,30.443584442138672,-21.65118408203125
1776817180272904400,6.100904541015625,-16.249176025390625,30.618534088134766,-21.764793395996094
1776817180282941400,6.11094140625,-15.998771667480469,30.70151138305664,-21.8441162109375
1776817180292978200,6.120978271484375,-15.848045349121094,30.663074493408203,-21.968292236328125
1776817180303014400,6.131014404296875,-15.627914428710938,30.68381118774414,-22.113494873046875
1776817180313051100,6.141051025390625,-15.409133911132812,30.723331451416016,-22.17792510986328
1776817180323088400,6.15108837890625,-15.261825561523438,30.966556549072266,-22.24634552001953
1776817180333125400,6.16112548828125,-14.919425964355469,30.976451873779297,-22.142242431640625
1776817180343161300,6.171161376953125,-14.819808959960938,31.06673812866211,-22.20623016357422
1776817180353198300,6.1811982421875,-14.707000732421875,31.150028228759766,-22.293045043945312
1776817180363235300,6.1912353515625,-14.442153930664062,31.187664031982422,-22.36377716064453
1776817180373271300,6.201271240234375,-14.226219177246094,31.159503936767578,-22.242141723632812
1776817180383308300,6.211308349609375,-13.8829345703125,31.34396743774414,-22.16962432861328
1776817180393345300,6.22134521484375,-13.815284729003906,31.28414535522461,-22.368637084960938
1776817180403382300,6.23138232421875,-13.676139831542969,31.351825714111328,-22.33519744873047
1776817180413418200,6.241418212890625,-13.644035339355469,31.34689712524414,-22.484703063964844
1776817180423455200,6.251455322265625,-13.407615661621094,31.233760833740234,-22.427108764648438
1776817180433492500,6.261492431640625,-13.283012390136719,31.378055572509766,-22.515830993652344
1776817180443529500,6.271529541015625,-13.274009704589844,31.38875961303711,-22.52758026123047
1776817180453565400,6.2815654296875,-13.247306823730469,31.202350616455078,-22.399757385253906
1776817180463602400,6.2916025390625,-13.355331420898438,31.390010833740234,-22.34259796142578
1776817180473639200,6.30163916015625,-13.299591064453125,31.33486557006836,-22.184295654296875
1776817180483676400,6.311676513671875,-13.405220031738281,31.350017547607422,-22.228050231933594
1776817180493712400,6.32171240234375,-13.240287780761719,31.281757354736328,-22.18309783935547
1776817180503749400,6.331749267578125,-13.216476440429688,31.298748016357422,-22.150741577148438
1776817180513786400,6.341786376953125,-13.209754943847656,31.314617156982422,-22.111473083496094
1776817180523822300,6.351822265625,-13.226860046386719,31.413715362548828,-21.808074951171875
1776817180533859300,6.361859375,-13.149093627929688,31.467342376708984,-21.871505737304688
1776817180543896300,6.371896240234375,-13.129417419433594,31.334720611572266,-21.988479614257812
1776817180553933300,6.381933349609375,-13.023666381835938,31.241252899169922,-21.842308044433594
1776817180563969300,6.39196923828125,-13.144020080566406,31.32431411743164,-21.868301391601562
1776817180574006300,6.40200634765625,-12.993606567382812,31.298221588134766,-21.813201904296875
1776817180584043300,6.412043212890625,-12.747817993164062,31.366695404052734,-21.845619201660156
1776817180594080500,6.42208056640625,-12.7310791015625,31.29648208618164,-21.945175170898438
1776817180604116500,6.432116455078125,-12.408462524414062,31.46358871459961,-21.98259735107422
1776817180614153500,6.442153564453125,-12.279006958007812,31.506946563720703,-21.98394012451172
1776817180624190200,6.452190185546875,-12.299972534179688,31.55434799194336,-21.922897338867188
1776817180634227200,6.462227294921875,-12.167152404785156,31.60568618774414,-22.07373046875
1776817180644263200,6.47226318359375,-11.978851318359375,31.537601470947266,-21.987327575683594
1776817180654300400,6.482300537109375,-12.028358459472656,31.546451568603516,-21.917030334472656
1776817180664337400,6.49233740234375,-11.758567810058594,31.70541763305664,-21.81280517578125
1776817180674374400,6.50237451171875,-11.789764404296875,31.735286712646484,-21.96240234375
1776817180684410400,6.512410400390625,-11.539642333984375,31.687183380126953,-21.854331970214844
1776817180694447400,6.522447265625,-11.633331298828125,31.504817962646484,-21.75335693359375
1776817180704484400,6.532484375,-11.644134521484375,31.71622085571289,-21.743003845214844
1776817180714520600,6.5425205078125,-11.430458068847656,31.664104461669922,-21.599105834960938
1776817180724557300,6.552557373046875,-11.818206787109375,31.560489654541016,-21.587509155273438
1776817180734594300,6.56259423828125,-11.989723205566406,31.622844696044922,-21.47478485107422
1776817180744631300,6.57263134765625,-12.139251708984375,31.565608978271484,-21.34796142578125
1776817180754667300,6.582667236328125,-12.277694702148438,31.522563934326172,-21.25446319580078
1776817180764704300,6.592704345703125,-12.346199035644531,31.582218170166016,-21.084632873535156
1776817180774741500,6.602741455078125,-12.70599365234375,31.645458221435547,-21.057350158691406
1776817180784778200,6.6127783203125,-12.687705993652344,31.590023040771484,-20.807464599609375
1776817180794814500,6.622814453125,-12.750778198242188,31.455669403076172,-20.71124267578125
1776817180804851200,6.632851318359375,-13.253135681152344,31.597667694091797,-20.44176483154297
1776817180814888200,6.64288818359375,-13.43634033203125,31.619487762451172,-20.292282104492188
1776817180824925400,6.652925537109375,-13.753326416015625,31.554363250732422,-20.054916381835938
1776817180834960400,6.66296044921875,-14.037422180175781,31.481037139892578,-19.787918090820312
1776817180844997400,6.672997314453125,-14.425430297851562,31.60671615600586,-19.514938354492188
1776817180855034400,6.683034423828125,-14.501083374023438,31.688114166259766,-19.095619201660156
1776817180865070300,6.6930703125,-14.798484802246094,31.822254180908203,-19.042869567871094
1776817180875107300,6.703107421875,-14.953056335449219,31.684993743896484,-18.793800354003906
1776817180885144300,6.713144287109375,-15.527236938476562,31.476757049560547,-18.503334045410156
1776817180895181300,6.723181396484375,-15.704353332519531,31.476581573486328,-18.310272216796875
1776817180905217500,6.733217529296875,-15.8057861328125,31.316875457763672,-18.094993591308594
1776817180915254300,6.743254150390625,-16.08055877685547,31.318401336669922,-18.001136779785156
1776817180925291300,6.753291259765625,-16.281784057617188,31.36325454711914,-17.962875366210938
1776817180935328300,6.763328369140625,-16.275360107421875,31.21340560913086,-17.906707763671875
1776817180945364200,6.7733642578125,-16.161460876464844,31.18436050415039,-17.792587280273438
1776817180955401500,6.7834013671875,-15.9586181640625,31.244548797607422,-17.7379150390625
1776817180965438500,6.7934384765625,-16.194290161132812,31.061038970947266,-17.81804656982422
1776817180975475200,6.80347509765625,-16.184219360351562,31.136531829833984,-17.734779357910156
1776817180985511400,6.813511474609375,-15.974113464355469,31.162525177001953,-17.794448852539062
1776817180995548200,6.823548095703125,-15.9703369140625,31.16866683959961,-17.719398498535156
1776817181005585400,6.83358544921875,-16.033493041992188,31.036869049072266,-17.73944854736328
1776817181015621400,6.843621337890625,-15.930343627929688,30.98807144165039,-17.784317016601562
1776817181025658400,6.853658447265625,-15.997261047363281,30.986011505126953,-17.602310180664062
1776817181035695400,6.8636953125,-15.821342468261719,30.988628387451172,-17.591835021972656
1776817181045732400,6.873732421875,-15.638229370117188,31.08426284790039,-17.465599060058594
1776817181055768300,6.883768310546875,-15.699546813964844,31.067096710205078,-17.487472534179688
1776817181065805300,6.893805419921875,-15.733535766601562,31.093364715576172,-17.44182586669922
1776817181075842300,6.90384228515625,-15.458076477050781,31.077129364013672,-17.406600952148438
1776817181085879300,6.91387939453125,-15.385368347167969,31.212779998779297,-17.38330078125
1776817181095915300,6.923915283203125,-15.077888488769531,31.239513397216797,-17.202362060546875
1776817181105952300,6.9339521484375,-14.864067077636719,31.217945098876953,-17.309432983398438
1776817181115989500,6.943989501953125,-15.034248352050781,31.082637786865234,-17.182411193847656
1776817181126025500,6.954025390625,-15.042961120605469,31.03451919555664,-17.18579864501953
1776817181136062500,6.9640625,-14.901077270507812,30.855762481689453,-17.03094482421875
1776817181146099500,6.974099365234375,-14.654487609863281,30.783329010009766,-17.05530548095703
1776817181156136200,6.98413623046875,-14.804443359375,30.692729949951172,-17.12059783935547
1776817181166172200,6.994172119140625,-14.825065612792969,30.58047103881836,-17.249282836914062
1776817181176209400,7.00420947265625,-14.980171203613281,30.520458221435547,-17.323570251464844
1776817181186246400,7.014246337890625,-14.690414428710938,30.388690948486328,-17.215286254882812
1776817181196283400,7.024283447265625,-14.753364562988281,30.21145248413086,-17.437705993652344
1776817181206319400,7.0343193359375,-14.912315368652344,30.08682632446289,-17.39873504638672
1776817181216356400,7.0443564453125,-15.076347351074219,29.935894012451172,-17.444618225097656
1776817181226393300,7.054393310546875,-14.949577331542969,29.833171844482422,-17.35749053955078
1776817181236430300,7.064430419921875,-14.73675537109375,29.48025894165039,-17.37804412841797
1776817181246466300,7.07446630859375,-14.802375793457031,29.162960052490234,-17.48920440673828
1776817181256503300,7.08450341796875,-15.040977478027344,29.072994232177734,-17.669601440429688
1776817181266540300,7.094540283203125,-15.112632751464844,28.913249969482422,-17.662620544433594
1776817181276576300,7.104576171875,-14.866142272949219,28.852031707763672,-17.8477783203125
1776817181286613200,7.11461328125,-14.785003662109375,28.61349868774414,-17.705123901367188
1776817181296650500,7.124650390625,-14.819046020507812,28.296546936035156,-17.804550170898438
1776817181306687200,7.134687255859375,-14.704345703125,28.083938598632812,-17.883453369140625
1776817181316723500,7.144723388671875,-14.863410949707031,27.723369598388672,-17.761253356933594
1776817181326760200,7.15476025390625,-14.736946105957031,27.53160858154297,-17.82183837890625
1776817181336797200,7.164797119140625,-14.852973937988281,27.338027954101562,-17.823532104492188
1776817181346834400,7.17483447265625,-14.865013122558594,27.1436767578125,-17.76641082763672
1776817181356870400,7.184870361328125,-14.761245727539062,27.089618682861328,-17.76929473876953
1776817181366907400,7.194907470703125,-14.824615478515625,27.083946228027344,-17.696006774902344
1776817181376944400,7.2049443359375,-14.529647827148438,26.984798431396484,-17.547454833984375
1776817181386981400,7.2149814453125,-14.562469482421875,26.95743179321289,-17.443214416503906
1776817181397017300,7.225017333984375,-14.9429931640625,26.83904266357422,-17.214447021484375
1776817181407054300,7.235054443359375,-15.055938720703125,26.6004638671875,-17.041664123535156
1776817181417091300,7.24509130859375,-15.118446350097656,26.525226593017578,-16.996437072753906
1776817181427127300,7.255127197265625,-14.891975402832031,26.386215209960938,-16.68163299560547
1776817181437164300,7.265164306640625,-15.048271179199219,26.177257537841797,-16.758590698242188
1776817181447201300,7.275201171875,-15.38427734375,25.99227523803711,-16.83094024658203
1776817181457238500,7.285238525390625,-15.608909606933594,25.811386108398438,-16.66303253173828
1776817181467274500,7.2952744140625,-15.625740051269531,25.63681411743164,-16.629127502441406
1776817181477311500,7.3053115234375,-15.584617614746094,25.35295867919922,-16.44683837890625
1776817181487348200,7.31534814453125,-15.789566040039062,25.186534881591797,-16.458221435546875
1776817181497385200,7.32538525390625,-15.849456787109375,25.037792205810547,-16.496070861816406
1776817181507421200,7.335421142578125,-15.71722412109375,24.88149642944336,-16.4886474609375
1776817181517458400,7.34545849609375,-15.642204284667969,24.796768188476562,-16.450668334960938
1776817181527495400,7.355495361328125,-15.793907165527344,24.730690002441406,-16.466712951660156
1776817181537531400,7.365531494140625,-15.934394836425781,24.500289916992188,-16.546905517578125
1776817181547568400,7.375568359375,-15.967643737792969,24.40813446044922,-16.491165161132812
1776817181557605400,7.38560546875,-16.102622985839844,24.357616424560547,-16.597122192382812
1776817181567642400,7.395642333984375,-15.767646789550781,24.24569320678711,-16.437171936035156
1776817181577678300,7.40567822265625,-15.920730590820312,24.17038345336914,-16.443359375
1776817181587715300,7.41571533203125,-15.966537475585938,24.170246124267578,-16.607200622558594
1776817181597752300,7.42575244140625,-15.895843505859375,24.12237548828125,-16.658920288085938
1776817181607789300,7.435789306640625,-15.769309997558594,23.726547241210938,-16.76593780517578
1776817181617825300,7.4458251953125,-15.766395568847656,23.75501251220703,-16.67486572265625
1776817181627862500,7.455862548828125,-15.704841613769531,23.698482513427734,-16.796585083007812
1776817181637899500,7.4658994140625,-16.02106475830078,23.33492660522461,-16.952850341796875
1776817181647936300,7.475936279296875,-16.048782348632812,23.455276489257812,-17.024673461914062
1776817181657972200,7.48597216796875,-16.15069580078125,23.30966567993164,-17.10315704345703
1776817181668009200,7.49600927734375,-16.215965270996094,23.15369415283203,-17.101112365722656
1776817181678046200,7.506046142578125,-16.202301025390625,23.050922393798828,-17.23828125
1776817181688082400,7.51608251953125,-16.49970245361328,22.781368255615234,-17.280113220214844
1776817181698119400,7.526119384765625,-16.815689086914062,22.584213256835938,-17.363502502441406
1776817181708156400,7.536156494140625,-16.773780822753906,22.395832061767578,-17.425338745117188
1776817181718193400,7.546193359375,-17.077117919921875,22.129379272460938,-17.47638702392578
1776817181728229400,7.5562294921875,-17.401382446289062,22.14415740966797,-17.608230590820312
1776817181738266000,7.56626611328125,-17.345359802246094,21.801288604736328,-17.535369873046875
1776817181748303400,7.576303466796875,-17.345359802246094,21.801288604736328,-17.535369873046875
1776817181758340400,7.58634033203125,-17.278518676757812,21.53885269165039,-17.45970916748047
1776817181768376300,7.596376220703125,-17.549949645996094,21.71179962158203,-17.47185516357422
1776817181778413300,7.606413330078125,-17.84308624267578,21.473308563232422,-17.611343383789062
1776817181788450300,7.6164501953125,-17.81696319580078,21.34121322631836,-17.672622680664062
1776817181798487600,7.626487548828125,-18.007728576660156,21.148784637451172,-17.720367431640625
1776817181808523500,7.6365234375,-18.247398376464844,21.15550994873047,-17.846755981445312
1776817181818560300,7.646560302734375,-18.47918701171875,21.0849609375,-17.782882690429688
1776817181828598500,7.6565986328125,-18.479934692382812,21.063465118408203,-17.94043731689453
1776817181838634500,7.666634521484375,-18.346450805664062,20.82870101928711,-17.803253173828125
1776817181848671700,7.676671630859375,-18.621612548828125,20.675113677978516,-17.810409545898438
1776817181858708700,7.686708740234375,-18.739906311035156,20.659400939941406,-17.918067932128906
1776817181868745500,7.696745361328125,-18.783615112304688,20.661422729492188,-17.90831756591797
1776817181878781400,7.706781494140625,-18.64020538330078,20.884510040283203,-18.06464385986328
1776817181888818400,7.716818359375,-19.01343536376953,20.81897735595703,-18.06976318359375
1776817181898855700,7.726855712890625,-18.934188842773438,20.723922729492188,-18.11194610595703
1776817181908892700,7.736892578125,-18.58940887451172,20.688846588134766,-18.007545471191406
1776817181918928600,7.7469287109375,-18.635833740234375,20.752872467041016,-18.14331817626953
1776817181928965600,7.756965576171875,-18.98487091064453,20.782493591308594,-18.232131958007812
1776817181939002600,7.767002685546875,-18.841110229492188,20.77114486694336,-18.268028259277344
1776817181949038600,7.77703857421875,-18.926925659179688,20.69683837890625,-18.26245880126953
1776817181959075600,7.78707568359375,-18.73273468017578,20.65630340576172,-18.095054626464844
1776817181969112600,7.797112548828125,-18.839134216308594,20.723342895507812,-18.394073486328125
1776817181979149600,7.807149658203125,-18.734420776367188,20.758827209472656,-18.473068237304688
1776817181989185500,7.817185546875,-18.828781127929688,20.722721099853516,-18.531280517578125
1776817181999222500,7.827222412109375,-19.049911499023438,20.545822143554688,-18.561996459960938
1776817182009259800,7.837259765625,-18.889015197753906,20.63788604736328,-18.43737030029297
1776817182019296800,7.847296875,-18.937515258789062,20.477935791015625,-18.45972442626953
1776817182029332700,7.857332763671875,-18.769088745117188,20.581558227539062,-18.50743865966797
1776817182039369500,7.867369384765625,-18.715614318847656,20.547496795654297,-18.493064880371094
1776817182049406500,7.877406494140625,-18.797149658203125,20.76724624633789,-18.54364776611328
1776817182059443500,7.887443359375,-18.845657348632812,20.780601501464844,-18.434654235839844
1776817182069479700,7.897479736328125,-18.93560791015625,20.853633880615234,-18.441017150878906
1776817182079516700,7.9075166015625,-18.84130096435547,20.77843475341797,-18.312240600585938
1776817182089553700,7.9175537109375,-18.795608520507812,20.77617645263672,-18.28266143798828
1776817182099589600,7.927589599609375,-18.701744079589844,20.965362548828125,-18.15533447265625
1776817182109626600,7.937626708984375,-18.741432189941406,20.69367218017578,-18.065574645996094
1776817182119663400,7.947663330078125,-18.56139373779297,20.620025634765625,-17.95484161376953
1776817182129700600,7.95770068359375,-18.497886657714844,20.750370025634766,-17.968170166015625
1776817182139736600,7.967736572265625,-18.542129516601562,20.855224609375,-17.981765747070312
1776817182149773600,7.977773681640625,-18.30718994140625,20.776168823242188,-17.773086547851562
1776817182159810600,7.987810546875,-18.52264404296875,20.795204162597656,-17.881546020507812
1776817182169847600,7.99784765625,-18.55298614501953,20.836753845214844,-17.77124786376953
1776817182179883500,8.007883544921874,-18.306228637695312,21.087474822998047,-17.710411071777344
1776817182189920800,8.017920654296875,-18.248008728027344,21.161014556884766,-17.659095764160156
1776817182199957500,8.02795751953125,-18.05914306640625,21.047393798828125,-17.44200897216797
1776817182209993700,8.03799365234375,-18.230133056640625,21.09265899658203,-17.415916442871094
1776817182220030500,8.048030517578125,-18.03986358642578,21.159488677978516,-17.276214599609375
1776817182230067500,8.0580673828125,-18.024078369140625,21.263294219970703,-17.246002197265625
1776817182240104700,8.068104736328126,-17.930763244628906,21.409934997558594,-17.211624145507812
1776817182250140700,8.078140625,-18.139137268066406,21.5009765625,-17.1375732421875
1776817182260177700,8.088177734375,-17.63677978515625,21.629608154296875,-16.983848571777344
1776817182270214700,8.098214599609374,-17.734329223632812,21.581256866455078,-16.861732482910156
1776817182280251400,8.10825146484375,-17.694869995117188,21.650371551513672,-16.842269897460938
1776817182290287600,8.11828759765625,-17.75238800048828,21.75749969482422,-16.693695068359375
1776817182300324600,8.12832470703125,-17.784950256347656,21.789356231689453,-16.878616333007812
1776817182310361600,8.138361572265625,-17.736618041992188,21.786598205566406,-16.862510681152344
1776817182320398600,8.148398681640625,-17.758956909179688,21.87912368774414,-16.81134796142578
1776817182330434600,8.1584345703125,-17.485321044921875,21.909137725830078,-16.779647827148438
1776817182340471600,8.168471435546875,-17.12476348876953,22.111133575439453,-16.71063232421875
1776817182350508800,8.1785087890625,-17.130523681640625,22.237895965576172,-16.917022705078125
1776817182360545500,8.188545654296876,-16.540695190429688,22.35593032836914,-16.914932250976562
1776817182370581500,8.19858154296875,-16.623321533203125,22.58721160888672,-16.93091583251953
1776817182380618500,8.208618408203124,-16.46746826171875,22.65552520751953,-16.95543670654297
1776817182390655500,8.218655517578124,-16.25989532470703,22.795589447021484,-16.78003692626953
1776817182400692700,8.228692626953125,-16.26361846923828,22.99301528930664,-17.01958465576172
1776817182410728700,8.238728759765625,-16.318153381347656,23.253292083740234,-16.971519470214844
1776817182420765700,8.248765625,-16.15625,23.33039093017578,-16.98912811279297
1776817182430802700,8.258802734375,-16.007286071777344,23.484527587890625,-17.00213623046875
1776817182440838700,8.268838623046875,-15.759773254394531,23.58832550048828,-16.838546752929688
1776817182450875600,8.278875732421875,-15.760284423828125,23.69967269897461,-16.69322967529297
1776817182460912600,8.28891259765625,-15.73809814453125,23.75741958618164,-16.791175842285156
1776817182470949600,8.29894970703125,-15.533615112304688,23.909461975097656,-16.878036499023438
1776817182480985600,8.308985595703126,-15.549720764160156,24.378414154052734,-16.806976318359375
1776817182491022600,8.319022705078124,-15.4620361328125,24.328670501708984,-16.849586486816406
1776817182501059600,8.3290595703125,-15.112525939941406,24.527462005615234,-16.9478759765625
1776817182511096600,8.3390966796875,-15.376319885253906,24.592639923095703,-16.773880004882812
1776817182521132800,8.3491328125,-15.450614929199219,24.76352310180664,-16.761367797851562
1776817182531169500,8.35916943359375,-15.260566711425781,24.892684936523438,-16.695701599121094
1776817182541206500,8.36920654296875,-15.3270263671875,25.148761749267578,-16.790626525878906
1776817182551243500,8.379243408203125,-15.391677856445312,25.368518829345703,-16.86249542236328
1776817182561279500,8.389279541015625,-15.206741333007812,25.600162506103516,-16.76226806640625
1776817182571316500,8.39931640625,-15.197128295898438,25.75076675415039,-16.71875
1776817182581353700,8.409353759765626,-15.287528991699219,26.018878936767578,-16.621002197265625
1776817182591390700,8.419390625,-15.294960021972656,26.016822814941406,-16.509368896484375
1776817182601426700,8.4294267578125,-15.19049072265625,26.318893432617188,-16.598709106445312
1776817182611463400,8.43946337890625,-15.362510681152344,26.443695068359375,-16.567703247070312
1776817182621500400,8.44950048828125,-15.536376953125,26.774044036865234,-16.50299072265625
1776817182631537700,8.45953759765625,-15.814414978027344,26.84477996826172,-16.516891479492188
1776817182641573600,8.46957373046875,-15.839378356933594,27.035167694091797,-16.404220581054688
1776817182651610600,8.479610595703125,-15.969642639160156,27.366958618164062,-16.4515380859375
1776817182661647600,8.489647705078125,-16.069107055664062,27.45745849609375,-16.358047485351562
1776817182671684600,8.4996845703125,-16.039955139160156,27.539588928222656,-16.375267028808594
1776817182681720600,8.509720458984376,-16.04461669921875,27.843612670898438,-16.703575134277344
1776817182691757600,8.519757568359376,-16.099288940429688,27.68316650390625,-16.7716064453125
1776817182701794600,8.529794677734374,-16.111862182617188,27.972515106201172,-16.95323944091797
1776817182711829800,8.539829833984374,-15.795547485351562,28.22187042236328,-17.1585693359375
1776817182721866500,8.549866455078124,-15.398651123046875,28.211219787597656,-17.379669189453125
1776817182731902700,8.55990283203125,-15.257575988769531,28.341636657714844,-17.716453552246094
1776817182741939500,8.569939453125,-15.030654907226562,28.307907104492188,-17.949607849121094
1776817182751976400,8.5799765625,-14.653182983398438,28.47247314453125,-18.19304656982422
1776817182762012400,8.590012451171875,-14.348159790039062,28.899219512939453,-18.50237274169922
1776817182772049700,8.600049560546875,-14.258018493652344,29.089611053466797,-18.558448791503906
1776817182782086700,8.610086669921875,-13.704185485839844,29.131877899169922,-18.749176025390625
1776817182792123600,8.62012353515625,-13.416290283203125,29.426586151123047,-18.94483184814453
1776817182802159600,8.63015966796875,-13.416290283203125,29.426586151123047,-18.94483184814453
1776817182812196600,8.640196533203126,-12.826469421386719,29.692882537841797,-18.91814422607422
1776817182822233600,8.650233642578126,-12.87261962890625,29.917530059814453,-18.883865356445312
1776817182832270600,8.6602705078125,-12.650001525878906,30.06515121459961,-18.898834228515625
1776817182842309400,8.670309326171875,-12.460830688476562,30.291004180908203,-18.948486328125
1776817182852346400,8.680346435546875,-12.442276000976562,30.343273162841797,-18.97852325439453
1776817182862383400,8.69038330078125,-12.443397521972656,30.521724700927734,-18.93195343017578
1776817182872420600,8.700420654296876,-12.204750061035156,30.749248504638672,-18.81170654296875
1776817182882456600,8.71045654296875,-12.302238464355469,30.68081283569336,-18.78546142578125
1776817182892493600,8.72049365234375,-12.7193603515625,30.799503326416016,-18.753929138183594
1776817182902530300,8.7305302734375,-12.664505004882812,30.93838119506836,-18.729331970214844
1776817182912567300,8.7405673828125,-12.618293762207031,31.061450958251953,-18.638328552246094
1776817182922603300,8.750603271484374,-12.272880554199219,31.143009185791016,-18.50286102294922
1776817182932640500,8.760640625,-12.187400817871094,31.305797576904297,-18.559921264648438
1776817182942677500,8.770677490234375,-12.377204895019531,31.41647720336914,-18.649253845214844
1776817182952714500,8.780714599609375,-12.504432678222656,31.386455535888672,-18.594619750976562
1776817182962750500,8.79075048828125,-12.535881042480469,31.37313461303711,-18.607078552246094
1776817182972787500,8.800787353515625,-12.282058715820312,31.542362213134766,-18.494003295898438
1776817182982824400,8.810824462890626,-12.645515441894531,31.45700454711914,-18.461509704589844
1776817182992861400,8.820861328125,-12.756004333496094,31.599864959716797,-18.589202880859375
1776817183002897400,8.8308974609375,-12.601531982421875,31.61562728881836,-18.66944122314453
1776817183012934400,8.840934326171874,-12.912117004394531,31.621891021728516,-18.622947692871094
1776817183022971400,8.850971435546874,-12.962799072265625,31.516841888427734,-18.753982543945312
1776817183033008600,8.861008544921875,-13.151695251464844,31.43801498413086,-18.920555114746094
1776817183043044600,8.871044677734375,-13.206306457519531,31.455142974853516,-19.082992553710938
1776817183053081600,8.88108154296875,-13.378410339355469,31.49734115600586,-19.19635772705078
1776817183063118300,8.891118408203125,-13.210838317871094,31.63625717163086,-19.222457885742188
1776817183073155300,8.9011552734375,-13.388946533203125,31.441234588623047,-19.45867156982422
1776817183083191300,8.91119140625,-13.205619812011719,31.384624481201172,-19.65460205078125
1776817183093228500,8.921228515625,-12.835258483886719,31.40524673461914,-19.888671875
1776817183103265500,8.931265625,-12.566093444824219,31.451183319091797,-20.216339111328125
1776817183113302500,8.941302490234374,-12.075309753417969,31.240459442138672,-20.15229034423828
1776817183123338500,8.95133837890625,-12.139549255371094,31.43154525756836,-20.34333038330078
1776817183133375500,8.96137548828125,-12.012237548828125,31.309589385986328,-20.549972534179688
1776817183143412200,8.971412109375,-11.62310791015625,31.358936309814453,-20.707176208496094
1776817183153449500,8.981449462890625,-11.501800537109375,31.256847381591797,-20.89312744140625
1776817183163485400,8.9914853515625,-11.246612548828125,31.26449203491211,-21.045127868652344
1776817183173522400,9.0015224609375,-10.96966552734375,31.124431610107422,-21.237632751464844
1776817183183559400,9.011559326171875,-10.720527648925781,31.241230010986328,-21.4332275390625
1776817183193596400,9.021596435546876,-10.667816162109375,31.113956451416016,-21.642013549804688
1776817183203632400,9.03163232421875,-10.48809814453125,31.008373260498047,-21.671310424804688
1776817183213669600,9.041669677734374,-10.339393615722656,31.130817413330078,-21.810714721679688
1776817183223706400,9.051706298828124,-10.145195007324219,31.135334014892578,-21.96666717529297
1776817183233743400,9.061743408203125,-10.298011779785156,31.031299591064453,-22.032012939453125
1776817183243779300,9.071779296875,-10.047569274902344,31.12368392944336,-22.05284881591797
1776817183253816300,9.08181640625,-9.589653015136719,31.278377532958984,-21.959320068359375
1776817183263853600,9.091853515625,-9.842872619628906,31.19326400756836,-22.051490783691406
1776817183273890600,9.101890625,-9.851356506347656,31.35843276977539,-22.072959899902344
1776817183283926500,9.111926513671875,-9.852264404296875,31.41109848022461,-21.999557495117188
1776817183293963500,9.121963623046875,-9.898574829101562,31.397472381591797,-21.87476348876953
1776817183304000300,9.132000244140626,-9.801559448242188,31.296642303466797,-21.74193572998047
1776817183314037500,9.14203759765625,-9.892189025878906,31.28403091430664,-21.711166381835938
1776817183324073500,9.152073486328124,-10.032958984375,31.395771026611328,-21.709487915039062
1776817183334110500,9.1621103515625,-10.000282287597656,31.42612075805664,-21.7269287109375
1776817183344147500,9.1721474609375,-10.213447570800781,31.424312591552734,-21.581283569335938
1776817183354184400,9.182184326171875,-10.219482421875,31.46609878540039,-21.71422576904297
1776817183364220400,9.192220458984375,-10.558448791503906,31.41823959350586,-21.562843322753906
1776817183374257700,9.202257568359375,-10.631584167480469,31.404476165771484,-21.60700225830078
1776817183384294400,9.21229443359375,-11.067535400390625,31.22134780883789,-21.550445556640625
1776817183394331400,9.222331298828125,-11.043373107910156,31.449520111083984,-21.43011474609375
1776817183404367400,9.232367431640625,-11.030014038085938,31.21573257446289,-21.48603057861328
1776817183414404400,9.242404296875,-11.361900329589844,31.39596176147461,-21.414649963378906
1776817183424441600,9.252441650390624,-11.449882507324219,31.482769012451172,-21.544342041015625
1776817183434478600,9.262478515625,-11.443313598632812,31.41586685180664,-21.497703552246094
1776817183444514600,9.2725146484375,-11.378555297851562,31.469295501708984,-21.26557159423828
1776817183454551600,9.282551513671875,-11.457733154296875,31.448749542236328,-21.397979736328125
1776817183464588300,9.29258837890625,-11.384620666503906,31.437564849853516,-21.407135009765625
1776817183474625300,9.302625244140625,-11.575363159179688,31.527538299560547,-21.40367889404297
1776817183484661500,9.31266162109375,-11.376663208007812,31.576473236083984,-21.350189208984375
1776817183494698500,9.322698486328125,-11.30596923828125,31.590694427490234,-21.24622344970703
1776817183504735500,9.332735595703125,-11.284591674804688,31.518299102783203,-21.295501708984375
1776817183514772500,9.3427724609375,-11.371109008789062,31.588253021240234,-21.334075927734375
1776817183524808400,9.352808349609376,-11.383888244628906,31.49899673461914,-21.209716796875
1776817183534845400,9.362845458984374,-11.431755065917969,31.489246368408203,-21.352012634277344
1776817183544882400,9.37288232421875,-11.492172241210938,31.41916275024414,-21.291229248046875
1776817183554919400,9.38291943359375,-11.707954406738281,31.495189666748047,-21.29816436767578
1776817183564955400,9.392955322265625,-11.693283081054688,31.684200286865234,-21.351654052734375
1776817183574992400,9.402992431640625,-11.784187316894531,31.54983901977539,-21.43358612060547
1776817183585029400,9.413029296875,-11.736251831054688,31.654712677001953,-21.397804260253906
1776817183595066600,9.423066650390625,-11.674720764160156,31.386028289794922,-21.369338989257812
1776817183605102600,9.4331025390625,-11.754737854003906,31.584850311279297,-21.43096160888672
1776817183615139600,9.4431396484375,-12.215034484863281,31.497814178466797,-21.49920654296875
1776817183625176300,9.45317626953125,-12.142189025878906,31.527164459228516,-21.49584197998047
1776817183635213300,9.46321337890625,-11.752685546875,31.591014862060547,-21.378219604492188
1776817183645250600,9.47325048828125,-11.886337280273438,31.500675201416016,-21.444931030273438
1776817183655286500,9.48328662109375,-12.1375732421875,31.326679229736328,-21.345664978027344
1776817183665323500,9.493323486328125,-12.136932373046875,31.399799346923828,-21.323043823242188
1776817183675360500,9.503360595703125,-11.870216369628906,31.318462371826172,-21.30426025390625
1776817183685397500,9.5133974609375,-11.826614379882812,31.612232208251953,-21.343170166015625
1776817183695433500,9.52343359375,-11.780685424804688,31.422161102294922,-21.40192413330078
1776817183705470500,9.533470458984375,-11.909828186035156,31.501934051513672,-21.365882873535156
1776817183715507500,9.543507568359376,-11.68011474609375,31.45615005493164,-21.416770935058594
1776817183725544400,9.55354443359375,-11.569267272949219,31.458545684814453,-21.4891357421875
1776817183735580400,9.563580322265626,-11.842735290527344,31.269351959228516,-21.330673217773438
1776817183745617400,9.573617431640624,-11.833213806152344,31.309192657470703,-21.384765625
1776817183755654700,9.583654541015624,-11.887443542480469,31.26871109008789,-21.32823944091797
1776817183765691400,9.59369140625,-12.054756164550781,31.432743072509766,-21.324203491210938
1776817183775727600,9.6037275390625,-11.996009826660156,31.468517303466797,-20.98352813720703
1776817183785764400,9.613764404296875,-12.151138305664062,31.561153411865234,-21.1104736328125
1776817183795801300,9.62380126953125,-12.402099609375,31.388507843017578,-21.020118713378906
1776817183805838600,9.633838623046875,-12.529136657714844,31.333515167236328,-20.799362182617188
1776817183815874600,9.64387451171875,-12.953147888183594,31.262187957763672,-20.562477111816406
1776817183825911600,9.65391162109375,-13.100227355957031,31.38980484008789,-20.20539093017578
1776817183835944200,9.663944091796875,-13.466972351074219,31.203449249267578,-20.129722595214844
1776817183845981200,9.673981201171875,-14.131393432617188,31.204280853271484,-19.843170166015625
1776817183856017200,9.68401708984375,-14.815460205078125,31.082271575927734,-19.46894073486328
1776817183866054100,9.69405419921875,-15.2952880859375,31.22757339477539,-19.054534912109375
1776817183876091000,9.7040908203125,-16.03107452392578,31.116718292236328,-18.588775634765625
1776817183886128000,9.714128173828126,-16.889625549316406,30.984203338623047,-18.243118286132812
1776817183896165000,9.7241650390625,-17.764060974121094,30.67586898803711,-17.87274169921875
1776817183906201000,9.734201171875,-18.54993438720703,30.361988067626953,-17.454010009765625
1776817183916238000,9.744238037109374,-19.482032775878906,29.996906280517578,-17.174423217773438
1776817183926275000,9.754275146484375,-20.20555877685547,29.434650421142578,-17.202659606933594
1776817183936312300,9.764312255859375,-20.582260131835938,29.045391082763672,-17.351829528808594
1776817183946348300,9.774348388671875,-20.904624938964844,28.696842193603516,-17.596595764160156
1776817183956385000,9.784385009765625,-21.656585693359375,27.988269805908203,-17.739234924316406
1776817183966422000,9.794422119140625,-22.035133361816406,27.540611267089844,-17.749351501464844
1776817183976459000,9.804458984375,-22.700973510742188,27.18692398071289,-18.032249450683594
1776817183986495000,9.814494873046876,-22.83404541015625,26.608612060546875,-18.136070251464844
1776817183996532200,9.8245322265625,-23.233917236328125,26.398094177246094,-18.26988983154297
1776817184006569200,9.8345693359375,-23.855995178222656,25.99604034423828,-18.272964477539062
1776817184016606200,9.844606201171874,-24.095382690429688,25.680667877197266,-18.279396057128906
1776817184026642200,9.85464208984375,-24.345558166503906,25.330631256103516,-18.51923370361328
1776817184036679000,9.864678955078125,-24.672698974609375,25.304153442382812,-18.64617919921875
1776817184046716000,9.8747158203125,-24.822723388671875,24.898326873779297,-18.608612060546875
1776817184056753200,9.884753173828125,-24.777633666992188,24.647235870361328,-18.591949462890625
1776817184066790100,9.8947900390625,-24.86737060546875,24.48611068725586,-18.74897003173828
1776817184076826000,9.904826171875,-25.03630828857422,24.371437072753906,-18.772186279296875
1776817184086863000,9.914863037109376,-24.954940795898438,24.22620391845703,-18.94977569580078
1776817184096900000,9.924900146484376,-24.721603393554688,24.23516845703125,-19.01758575439453
1776817184106937000,9.93493701171875,-24.59001922607422,24.410335540771484,-18.964248657226562
1776817184116973000,9.94497314453125,-24.31291961669922,24.535037994384766,-19.106399536132812
1776817184127010000,9.955010009765624,-24.30516815185547,24.448795318603516,-19.138946533203125
1776817184137047000,9.965047119140625,-24.057716369628906,24.82080841064453,-19.219085693359375
1776817184147084000,9.975083984375,-24.0875244140625,24.883087158203125,-19.29503631591797
1776817184157120000,9.9851201171875,-23.640724182128906,24.844398498535156,-19.146209716796875
1776817184167157200,9.9951572265625,-23.4791259765625,24.913467407226562,-19.25202178955078
1776817184177194200,10.0051943359375,-23.43616485595703,25.079113006591797,-19.396888732910156
1776817184187231000,10.01523095703125,-23.298439025878906,24.96190643310547,-19.505043029785156
1776817184197267000,10.025266845703126,-23.431251525878906,24.929336547851562,-19.673782348632812
1776817184207304000,10.035303955078126,-23.15398406982422,24.900733947753906,-19.686569213867188
1776817184217341200,10.045341064453124,-23.16590118408203,24.525577545166016,-19.810874938964844
1776817184227378200,10.055378173828124,-23.37883758544922,24.400497436523438,-19.923912048339844
1776817184237415200,10.065415283203125,-23.27881622314453,24.219615936279297,-20.14586639404297
1776817184247451100,10.075451171875,-23.47016143798828,24.001327514648438,-20.169944763183594
1776817184257488100,10.085488037109375,-23.558143615722656,23.601776123046875,-20.256507873535156
1776817184267525000,10.095525146484375,-23.596664428710938,23.289772033691406,-20.380958557128906
1776817184277562000,10.10556201171875,-23.7249755859375,23.301727294921875,-20.509109497070312
1776817184287598000,10.11559814453125,-23.61005401611328,23.12415313720703,-20.454208374023438
1776817184297635000,10.125635009765626,-23.345550537109375,22.864200592041016,-20.46099090576172
1776817184307672000,10.135672119140626,-23.30877685546875,22.751880645751953,-20.37000274658203
1776817184317709300,10.145709228515624,-23.269058227539062,22.690288543701172,-20.2965087890625
1776817184327745300,10.155745361328124,-23.246017456054688,22.510818481445312,-20.38701629638672
1776817184337782300,10.1657822265625,-23.19190216064453,22.664318084716797,-20.426368713378906
1776817184347819000,10.175819091796875,-23.121307373046875,22.72496795654297,-20.253646850585938
1776817184357856000,10.18585595703125,-23.20611572265625,22.434791564941406,-20.162734985351562
1776817184367893000,10.19589306640625,-23.11370849609375,22.63512420654297,-20.251739501953125
1776817184377929200,10.20592919921875,-23.008026123046875,22.50429916381836,-20.200180053710938
1776817184387966200,10.21596630859375,-23.004676818847656,22.373985290527344,-20.105758666992188
1776817184398003200,10.226003173828126,-22.714080810546875,22.40985870361328,-19.988731384277344
1776817184408040000,10.2360400390625,-23.05901336669922,22.203899383544922,-19.85198974609375
1776817184418076200,10.246076171875,-23.17401123046875,22.228065490722656,-19.767898559570312
1776817184428113000,10.25611279296875,-23.300270080566406,22.201587677001953,-19.76996612548828
1776817184438150100,10.266150146484375,-23.231216430664062,21.961288452148438,-19.50115966796875
1776817184448187100,10.276187255859375,-23.353546142578125,22.00794219970703,-19.364410400390625
1776817184458224000,10.28622412109375,-23.48950958251953,21.718780517578125,-19.042457580566406
1776817184468260000,10.296260009765625,-23.845718383789062,21.272293090820312,-18.602890014648438
1776817184478297000,10.306297119140625,-24.615638732910156,20.700302124023438,-18.50811004638672
1776817184488334000,10.316333984375,-25.075279235839844,20.063087463378906,-18.52935028076172
1776817184498371000,10.32637109375,-25.075279235839844,20.063087463378906,-18.52935028076172
1776817184508407000,10.336406982421876,-25.596221923828125,19.37894058227539,-18.723373413085938
1776817184518444000,10.346444091796876,-26.13422393798828,18.731246948242188,-18.639785766601562
1776817184528481000,10.35648095703125,-26.49944305419922,17.933349609375,-18.590469360351562
1776817184538518300,10.366518310546875,-26.86963653564453,17.274314880371094,-18.549171447753906
1776817184548554200,10.37655419921875,-27.211524963378906,16.642086029052734,-18.158554077148438
1776817184558591200,10.38659130859375,-27.622215270996094,16.030323028564453,-18.223434448242188
1776817184568628000,10.3966279296875,-28.051979064941406,15.245010375976562,-18.255455017089844
1776817184578665000,10.4066650390625,-28.394927978515625,14.570442199707031,-18.069839477539062
1776817184588702200,10.4167021484375,-28.829193115234375,14.31899642944336,-17.92749786376953
1776817184598738200,10.42673828125,-28.685829162597656,13.814632415771484,-17.535049438476562
1776817184608775200,10.436775146484376,-28.88409423828125,13.452373504638672,-17.530250549316406
1776817184618812200,10.446812255859374,-29.098121643066406,12.871044158935547,-17.6370849609375
1776817184628849200,10.45684912109375,-29.256546020507812,12.297737121582031,-17.650550842285156
1776817184638885000,10.466885009765624,-29.363754272460938,11.72591781616211,-17.86157989501953
1776817184648922000,10.476922119140625,-29.357261657714844,11.161495208740234,-18.129531860351562
1776817184658959000,10.486958984375,-29.28186798095703,10.758270263671875,-18.410972595214844
1776817184668996000,10.49699609375,-29.278404235839844,10.174186706542969,-18.46417999267578
1776817184679032000,10.507031982421875,-29.12609100341797,9.884391784667969,-18.548385620117188
1776817184689069000,10.517069091796875,-29.12408447265625,9.513107299804688,-18.443641662597656
1776817184699106000,10.52710595703125,-29.0029296875,8.890522003173828,-18.59735870361328
1776817184709143000,10.53714306640625,-28.838409423828125,8.627605438232422,-18.762176513671875
1776817184719180000,10.547179931640626,-28.876373291015625,8.088584899902344,-18.849082946777344
1776817184729216000,10.557216064453126,-29.005233764648438,7.747974395751953,-18.938278198242188
1776817184739253000,10.5672529296875,-28.86585235595703,7.4379425048828125,-18.89653778076172
1776817184749290000,10.5772900390625,-28.784530639648438,7.155555725097656,-19.122604370117188
1776817184759327200,10.5873271484375,-28.786819458007812,6.602893829345703,-19.289962768554688
1776817184769363200,10.59736328125,-28.70764923095703,6.002410888671875,-19.27606201171875
1776817184779400200,10.607400146484375,-28.532501220703125,5.7779083251953125,-19.340087890625
1776817184789437000,10.61743701171875,-28.39654541015625,5.416172027587891,-19.17998504638672
1776817184799474000,10.627473876953125,-28.372711181640625,5.007701873779297,-19.255035400390625
1776817184809511200,10.63751123046875,-28.3616943359375,4.899959564208984,-19.331398010253906
1776817184819547100,10.647547119140626,-28.293235778808594,4.4614105224609375,-19.38323974609375
1776817184829584100,10.657584228515624,-28.174819946289062,4.046142578125,-19.377296447753906
1776817184839622100,10.6676220703125,-28.17475128173828,3.7314224243164062,-19.55162811279297
1776817184849659100,10.6776591796875,-28.11212921142578,3.4725303649902344,-19.70073699951172
1776817184859695000,10.687695068359375,-27.886497497558594,3.027027130126953,-19.630401611328125
1776817184869732000,10.697732177734375,-27.868881225585938,2.8962135314941406,-19.83929443359375
1776817184879769300,10.707769287109375,-27.327117919921875,2.590198516845703,-19.76226806640625
1776817184889806300,10.717806396484375,-27.29375457763672,2.1594810485839844,-19.873497009277344
1776817184899843300,10.72784326171875,-27.308799743652344,1.8088912963867188,-19.87914276123047
1776817184909879300,10.73787939453125,-27.26807403564453,1.6166725158691406,-19.832435607910156
1776817184919916000,10.747916015625,-27.15135955810547,1.3232231140136719,-19.859954833984375
1776817184929953000,10.757953125,-26.89447021484375,1.1248588562011719,-19.65831756591797
1776817184939990300,10.767990234375,-27.09545135498047,0.7185783386230469,-19.74646759033203
1776817184950026200,10.778026123046875,-26.887718200683594,0.47914886474609375,-19.81641387939453
1776817184960063200,10.788063232421875,-26.80390167236328,0.14223098754882812,-19.88519287109375
1776817184970100200,10.798100341796875,-26.85767364501953,0.055988311767578125,-19.93708038330078
1776817184980137200,10.80813720703125,-26.661964416503906,-0.21271514892578125,-19.949844360351562
1776817184990173200,10.818173095703125,-26.451515197753906,-0.6456298828125,-20.029876708984375
1776817185000210200,10.828210205078125,-26.396728515625,-0.7609062194824219,-20.17803192138672
1776817185010247200,10.8382470703125,-26.631057739257812,-0.962432861328125,-20.095176696777344
1776817185020284200,10.8482841796875,-26.5799560546875,-1.2277717590332031,-20.094497680664062
1776817185030321200,10.858321044921874,-26.394866943359375,-1.4695167541503906,-20.112648010253906
1776817185040357000,10.868357177734374,-26.451393127441406,-1.7452545166015625,-20.13812255859375
1776817185050394400,10.878394287109375,-26.45384979248047,-1.9136810302734375,-20.094329833984375
1776817185060431400,10.888431396484375,-26.3291015625,-2.1855010986328125,-19.776344299316406
1776817185070468000,10.898468017578125,-26.36719512939453,-2.2814674377441406,-19.543907165527344
1776817185080504000,10.908504150390625,-26.688690185546875,-2.2245750427246094,-19.40355682373047
1776817185090541000,10.918541015625,-26.576171875,-2.1127243041992188,-19.334373474121094
1776817185100578300,10.928578369140626,-26.658950805664062,-1.9987678527832031,-19.45038604736328
1776817185110615300,10.938615234375,-26.666954040527344,-1.9543075561523438,-19.458831787109375
1776817185120652300,10.94865234375,-26.41094970703125,-1.7370529174804688,-19.404067993164062
1776817185130688300,10.958688232421874,-26.41938018798828,-1.8373565673828125,-19.65332794189453
1776817185140725200,10.968725341796874,-26.24840545654297,-1.8047523498535156,-19.86516571044922
1776817185150762200,10.97876220703125,-26.3343505859375,-1.6197700500488281,-19.91936492919922
1776817185160799200,10.98879931640625,-26.350067138671875,-1.5599288940429688,-19.972572326660156
1776817185170835200,10.998835205078125,-26.063568115234375,-1.5106620788574219,-19.857398986816406
1776817185180872200,11.0088720703125,-26.335205078125,-1.5029830932617188,-20.01477813720703
1776817185190909200,11.0189091796875,-26.343170166015625,-1.3131523132324219,-20.006385803222656
1776817185200946400,11.028946533203126,-26.566810607910156,-1.0359230041503906,-19.835296630859375
1776817185210983200,11.038983154296876,-26.810386657714844,-0.7847137451171875,-19.618431091308594
1776817185221019400,11.049019287109376,-27.03614044189453,-0.7776336669921875,-19.471908569335938
1776817185231056100,11.05905615234375,-27.120468139648438,-0.5859642028808594,-19.37499237060547
1776817185241093000,11.069093017578124,-27.159278869628906,-0.3417778015136719,-19.350746154785156
1776817185251130000,11.079130126953125,-27.319496154785156,-0.27789306640625,-19.32459259033203
1776817185261166300,11.089166259765625,-27.265960693359375,0.10144424438476562,-19.103797912597656
1776817185271203300,11.099203369140625,-27.349273681640625,0.4453125,-19.232528686523438
1776817185281240300,11.109240234375,-27.73986053466797,0.6473655700683594,-19.178558349609375
1776817185291277000,11.119277099609375,-27.76573944091797,1.0746383666992188,-19.21605682373047
1776817185301314000,11.12931396484375,-27.77220916748047,1.3478584289550781,-19.137916564941406
1776817185311350000,11.13935009765625,-27.77143096923828,1.6972084045410156,-18.959945678710938
1776817185321387300,11.14938720703125,-28.17450714111328,1.9719467163085938,-18.955703735351562
1776817185331424300,11.15942431640625,-28.40784454345703,2.176647186279297,-18.78325653076172
1776817185341461200,11.169461181640624,-28.44646453857422,2.3443603515625,-18.53748321533203
1776817185351497200,11.179497314453124,-28.69256591796875,2.9253273010253906,-18.468101501464844
1776817185361534200,11.1895341796875,-28.92962646484375,3.1462173461914062,-18.14666748046875
1776817185371571200,11.1995712890625,-29.088943481445312,3.64776611328125,-17.991073608398438
1776817185381608200,11.209608154296875,-29.0880126953125,4.172943115234375,-17.973976135253906
1776817185391645200,11.219645263671875,-29.255088806152344,4.548908233642578,-17.814414978027344
1776817185401681200,11.22968115234375,-29.151168823242188,5.0013275146484375,-17.617446899414062
1776817185411718100,11.23971826171875,-29.37042999267578,5.49432373046875,-17.655776977539062
1776817185421755400,11.24975537109375,-29.47412109375,5.881172180175781,-17.521530151367188
1776817185431792400,11.25979248046875,-29.729232788085938,6.337135314941406,-17.46660614013672
1776817185441829000,11.2698291015625,-29.771163940429688,6.783668518066406,-17.34632110595703
1776817185451865000,11.279864990234374,-29.715553283691406,7.212123870849609,-17.011962890625
1776817185461902000,11.289902099609375,-29.743080139160156,7.576969146728516,-17.07978057861328
1776817185471939300,11.299939208984375,-29.87084197998047,8.088748931884766,-17.050460815429688
1776817185481976300,11.309976318359375,-29.9783935546875,8.495624542236328,-17.034881591796875
1776817185492012300,11.32001220703125,-30.030563354492188,8.861892700195312,-16.879409790039062
1776817185502049300,11.33004931640625,-29.769012451171875,9.351287841796875,-16.645591735839844
1776817185512086300,11.340086181640626,-29.977615356445312,9.95705795288086,-16.603477478027344
1776817185522123000,11.350123046875,-30.06859588623047,10.362926483154297,-16.74726104736328
1776817185532160300,11.36016015625,-29.991867065429688,10.837116241455078,-16.477394104003906
1776817185542196200,11.3701962890625,-29.956451416015625,11.287548065185547,-16.35223388671875
1776817185552233200,11.380233154296874,-29.821449279785156,11.755626678466797,-16.24005889892578
1776817185562270200,11.390270263671875,-29.666778564453125,12.482109069824219,-16.19116973876953
1776817185572307200,11.40030712890625,-29.633827209472656,12.975242614746094,-15.961585998535156
1776817185582344200,11.41034423828125,-29.66089630126953,13.477306365966797,-16.00434112548828
1776817185592380200,11.420380126953125,-29.471481323242188,14.147830963134766,-15.816413879394531
1776817185602417200,11.430417236328125,-29.258743286132812,14.446956634521484,-15.76025390625
1776817185612454100,11.4404541015625,-29.196853637695312,14.953601837158203,-15.651161193847656
1776817185622491100,11.4504912109375,-29.00147247314453,15.55594253540039,-15.593002319335938
1776817185632527000,11.460527099609376,-28.82439422607422,16.175518035888672,-15.458587646484375
1776817185642564400,11.470564453125,-28.176620483398438,16.867515563964844,-15.235481262207031
1776817185652601300,11.480601318359374,-28.19676971435547,17.745121002197266,-15.369094848632812
1776817185662638000,11.49063818359375,-27.92292022705078,18.45736312866211,-15.198501586914062
1776817185672675000,11.500675048828125,-27.718177795410156,19.155986785888672,-15.151992797851562
1776817185682711000,11.5107109375,-27.2353515625,19.742416381835938,-15.070960998535156
1776817185692748300,11.520748291015625,-26.51007843017578,20.432861328125,-14.881370544433594
1776817185702785300,11.530785400390625,-26.091636657714844,21.049449920654297,-14.989593505859375
1776817185712822300,11.540822265625,-25.614356994628906,21.655864715576172,-15.169082641601562
1776817185722859300,11.550859375,-24.998146057128906,22.242271423339844,-15.546112060546875
1776817185732895200,11.560895263671876,-24.712966918945312,22.747161865234375,-15.8792724609375
1776817185742932200,11.57093212890625,-24.131980895996094,22.996536254882812,-16.249595642089844
1776817185752969200,11.58096923828125,-23.534332275390625,23.30034637451172,-16.811859130859375
1776817185763006200,11.591006103515625,-22.88457489013672,23.637611389160156,-17.324684143066406
1776817185773042200,11.601042236328125,-22.285972595214844,23.901508331298828,-17.929779052734375
1776817185783079200,11.6110791015625,-21.36998748779297,24.325176239013672,-18.402374267578125
1776817185793116400,11.621116455078125,-20.811668395996094,24.46023941040039,-18.838035583496094
1776817185803153200,11.631153076171875,-20.562347412109375,24.553600311279297,-19.21318817138672
1776817185813190100,11.641190185546876,-20.668502807617188,24.67987823486328,-19.500205993652344
1776817185823226000,11.65122607421875,-20.57635498046875,24.380748748779297,-19.553741455078125
1776817185833263000,11.66126318359375,-20.579788208007812,24.60747528076172,-19.481033325195312
1776817185843299600,11.671299560546874,-20.961227416992188,24.192333221435547,-19.633407592773438
1776817185853336600,11.681336669921874,-21.169532775878906,24.077835083007812,-19.982040405273438
1776817185863373600,11.69137353515625,-21.325271606445312,23.861160278320312,-20.1866455078125
1776817185873409500,11.701409423828125,-21.71057891845703,23.84848403930664,-20.38471221923828
1776817185883446800,11.71144677734375,-21.758377075195312,23.872154235839844,-20.33930206298828
1776817185893483500,11.7214833984375,-21.91644287109375,23.879745483398438,-20.43195343017578
1776817185903520500,11.7315205078125,-22.35308837890625,23.769588470458984,-20.31121063232422
1776817185913557500,11.7415576171875,-22.450180053710938,23.799224853515625,-20.234878540039062
1776817185923593500,11.751593505859375,-22.889869689941406,23.730812072753906,-19.9149169921875
1776817185933630700,11.761630615234376,-23.509437561035156,23.693920135498047,-19.851600646972656
1776817185943667700,11.771667724609374,-23.78144073486328,23.33761215209961,-19.42041015625
1776817185953704700,11.78170458984375,-24.347007751464844,23.365184783935547,-19.13532257080078
1776817185963740700,11.79174072265625,-24.885482788085938,23.362335205078125,-18.964500427246094
1776817185973777400,11.80177734375,-24.732749938964844,23.328407287597656,-18.586570739746094
1776817185983814400,11.811814453125,-24.934844970703125,23.481704711914062,-18.67517852783203
1776817185993851600,11.8218515625,-24.924827575683594,23.633563995361328,-18.618370056152344
1776817186003888600,11.831888671875,-24.778106689453125,23.836956024169922,-18.43701934814453
1776817186013924600,11.841924560546875,-24.714752197265625,24.16704559326172,-18.25214385986328
1776817186023961600,11.851961669921875,-24.092971801757812,24.514156341552734,-17.931419372558594
1776817186033998600,11.86199853515625,-24.12622833251953,24.854843139648438,-18.07831573486328
1776817186044035600,11.87203564453125,-23.83251190185547,25.120994567871094,-18.178199768066406
1776817186054072600,11.882072509765624,-23.32849884033203,25.498451232910156,-18.435455322265625
1776817186064108500,11.892108642578124,-22.927139282226562,25.775535583496094,-18.57813262939453
1776817186074145500,11.9021455078125,-22.41748046875,25.970138549804688,-18.691879272460938
1776817186084182500,11.9121826171875,-22.102996826171875,26.366409301757812,-19.020278930664062
1776817186094219800,11.9222197265625,-21.459579467773438,26.71544647216797,-19.29840087890625
1776817186104256500,11.932256591796875,-21.086807250976562,26.97372055053711,-19.31592559814453
1776817186114292700,11.942292724609375,-20.610992431640625,27.198348999023438,-19.586685180664062
1776817186124329500,11.95232958984375,-20.05603790283203,27.520511627197266,-19.751060485839844
1776817186134366500,11.962366455078126,-19.28058624267578,27.646617889404297,-19.96222686767578
1776817186144403700,11.97240380859375,-18.967376708984375,27.931766510009766,-20.132484436035156
1776817186154439700,11.982439697265624,-18.391456604003906,28.347789764404297,-20.415374755859375
1776817186164476700,11.9924765625,-17.869483947753906,28.605365753173828,-20.516448974609375
1776817186174513700,12.002513671875,-17.013084411621094,28.707904815673828,-20.799835205078125
1776817186184550400,12.01255029296875,-16.536216735839844,28.93564224243164,-21.08343505859375
1776817186194587600,12.022587646484375,-16.536216735839844,28.93564224243164,-21.08343505859375
1776817186204623600,12.03262353515625,-15.954216003417969,29.027721405029297,-21.25572967529297
1776817186214660600,12.04266064453125,-15.413482666015625,29.252330780029297,-21.434555053710938
1776817186224697600,12.052697509765625,-14.746490478515625,29.317813873291016,-21.68486785888672
1776817186234734600,12.062734619140626,-14.215957641601562,29.580806732177734,-22.14173126220703
1776817186244771600,12.072771484375,-13.678131103515625,29.60348892211914,-22.322860717773438
1776817186254807800,12.082807861328124,-13.032173156738281,29.71200942993164,-22.564132690429688
1776817186264844500,12.092844482421874,-12.544326782226562,29.649677276611328,-22.77813720703125
1776817186274881500,12.102881591796875,-12.039718627929688,29.764575958251953,-22.98705291748047
1776817186284918500,12.11291845703125,-11.957878112792969,29.74850082397461,-23.12926483154297
1776817186294954500,12.12295458984375,-11.766456604003906,29.776653289794922,-23.286697387695312
1776817186304991500,12.132991455078125,-11.739341735839844,29.787830352783203,-23.504737854003906
1776817186315028700,12.14302880859375,-11.588775634765625,29.833202362060547,-23.531646728515625
1776817186325065700,12.153065673828126,-11.848556518554688,29.69571304321289,-23.672164916992188
1776817186335102500,12.1631025390625,-11.7701416015625,29.390201568603516,-23.73436737060547
1776817186345138400,12.173138427734376,-11.773239135742188,29.321613311767578,-23.800247192382812
1776817186355175400,12.183175537109374,-11.728523254394531,29.394298553466797,-24.011474609375
1776817186365212700,12.193212646484374,-11.204719543457031,29.537212371826172,-24.01190948486328
1776817186375249700,12.203249755859375,-11.010963439941406,29.622425079345703,-24.216094970703125
1776817186385286700,12.21328662109375,-10.704071044921875,29.65365982055664,-24.347320556640625
1776817186395322600,12.223322509765625,-10.292991638183594,29.67514419555664,-24.29900360107422
1776817186405359600,12.233359619140625,-10.230728149414062,29.952953338623047,-24.35315704345703
1776817186415396600,12.243396728515625,-10.028839111328125,29.971378326416016,-24.009239196777344
1776817186425433600,12.25343359375,-10.243247985839844,30.224491119384766,-23.831344604492188
1776817186435469600,12.263469482421876,-10.289115905761719,30.331951141357422,-23.56610107421875
1776817186445506600,12.273506591796876,-10.593368530273438,30.536617279052734,-23.376144409179688
1776817186455543600,12.28354345703125,-10.694786071777344,30.67293930053711,-23.11559295654297
1776817186465580800,12.293580810546874,-10.905799865722656,30.776226043701172,-22.959671020507812
1776817186475617500,12.303617431640625,-11.0618896484375,30.780582427978516,-22.881858825683594
1776817186485653800,12.31365380859375,-11.210769653320312,30.65787124633789,-22.765594482421875
1776817186495690500,12.3236904296875,-11.580291748046875,30.711688995361328,-22.8614501953125
1776817186505727500,12.3337275390625,-11.372566223144531,30.691699981689453,-22.688636779785156
1776817186515764500,12.343764404296875,-11.401405334472656,30.583438873291016,-22.866653442382812
1776817186525801700,12.3538017578125,-11.212997436523438,30.437183380126953,-22.94255828857422
1776817186535837700,12.363837646484376,-11.289695739746094,30.508586883544922,-23.12029266357422
1776817186545874700,12.373874755859376,-11.274971008300781,30.460742950439453,-23.210357666015625
1776817186555911400,12.383911376953124,-10.992729187011719,30.506855010986328,-23.1448974609375
1776817186565948400,12.393948486328124,-10.857749938964844,30.53377914428711,-23.295738220214844
1776817186575984400,12.403984375,-10.766952514648438,30.58437728881836,-23.36536407470703
1776817186586021600,12.414021728515625,-10.811378479003906,30.547000885009766,-23.3785400390625
1776817186596058600,12.42405859375,-10.861175537109375,30.532421112060547,-23.363372802734375
1776817186606095600,12.434095703125,-10.491531372070312,30.615734100341797,-23.174179077148438
1776817186616132600,12.444132568359375,-10.553268432617188,30.548397064208984,-23.23296356201172
1776817186626168600,12.45416845703125,-10.637367248535156,30.610179901123047,-23.286354064941406
1776817186636205600,12.46420556640625,-10.615936279296875,30.680370330810547,-23.281837463378906
1776817186646242600,12.47424267578125,-10.540565490722656,30.734172821044922,-23.287025451660156
1776817186656279600,12.484279541015624,-10.305656433105469,30.87955093383789,-23.275619506835938
1776817186666316500,12.494316650390624,-10.548507690429688,30.791866302490234,-23.22936248779297
1776817186676352500,12.5043525390625,-10.617805480957031,30.645442962646484,-23.033615112304688
1776817186686389800,12.5143896484375,-10.951690673828125,30.929180145263672,-23.033660888671875
1776817186696426800,12.5244267578125,-10.847740173339844,30.891422271728516,-23.04364013671875
1776817186706463500,12.53446337890625,-10.846275329589844,30.90213394165039,-23.140548706054688
1776817186716499500,12.54449951171875,-10.978195190429688,30.894039154052734,-23.050506591796875
1776817186726536400,12.554536376953125,-10.990745544433594,30.93282699584961,-23.03044891357422
1776817186736573700,12.56457373046875,-10.960899353027344,30.898548126220703,-22.954193115234375
1776817186746610700,12.574610595703126,-10.606651306152344,30.885814666748047,-22.874313354492188
1776817186756647700,12.584647705078124,-10.797004699707031,30.857379913330078,-22.825401306152344
1776817186766683600,12.59468359375,-10.722579956054688,30.879566192626953,-22.911453247070312
1776817186776720600,12.604720703125,-10.75018310546875,30.935047149658203,-22.906295776367188
1776817186786757600,12.614757568359375,-10.702537536621094,30.99075698852539,-22.96245574951172
1776817186796794600,12.624794677734375,-10.696456909179688,31.031108856201172,-22.90711212158203
1776817186806831600,12.63483154296875,-10.633476257324219,31.100215911865234,-23.028244018554688
1776817186816867600,12.64486767578125,-10.704269409179688,31.089702606201172,-22.990036010742188
1776817186826904600,12.654904541015625,-10.752243041992188,31.142871856689453,-22.88195037841797
1776817186836941600,12.664941650390626,-10.8074951171875,30.970691680908203,-22.862892150878906
1776817186846979000,12.67497900390625,-10.933021545410156,31.04361343383789,-22.81537628173828
1776817186857015300,12.685015380859374,-10.866966247558594,31.207447052001953,-22.8236083984375
1776817186867052300,12.69505224609375,-11.010871887207031,30.997623443603516,-22.6834716796875
1776817186877089300,12.70508935546875,-10.910552978515625,31.001140594482422,-22.71453094482422
1776817186887126300,12.715126220703125,-10.969383239746094,31.017253875732422,-22.63019561767578
1776817186897163300,12.725163330078125,-11.149147033691406,30.939990997314453,-22.64392852783203
1776817186907199200,12.73519921875,-11.17236328125,31.042499542236328,-22.677528381347656
1776817186917236200,12.745236328125,-11.063896179199219,30.956256866455078,-22.63439178466797
1776817186927273200,12.755273193359375,-11.087966918945312,30.97757339477539,-22.637908935546875
1776817186937310200,12.765310302734376,-10.861701965332031,30.88399887084961,-22.406539916992188
1776817186947347200,12.77534716796875,-11.049629211425781,30.856983184814453,-22.482215881347656
1776817186957383200,12.785383056640624,-11.075881958007812,30.99758529663086,-22.478134155273438
1776817186967420400,12.79542041015625,-11.057518005371094,31.08211898803711,-22.58153533935547
