time,seconds_elapsed,z,y,x
1776020494886900200,0.069900146484375,-210.90892028808594,-19.571212768554688,67.16542053222656
1776020494896891400,0.079891357421875,-210.2491455078125,-18.812606811523438,67.34112548828125
1776020494906882300,0.08988232421875,-210.5288543701172,-19.25726318359375,67.31742858886719
1776020494916874200,0.099874267578125,-210.95242309570312,-19.837142944335938,67.69879150390625
1776020494926865400,0.109865478515625,-210.91836547851562,-19.812484741210938,67.55377197265625
1776020494936857300,0.119857421875,-210.94534301757812,-19.646408081054688,68.00706481933594
1776020494946850300,0.129850341796875,-210.92352294921875,-20.290863037109375,68.24336242675781
1776020494956842200,0.13984228515625,-211.4569549560547,-19.978775024414062,68.25215148925781
1776020494966834400,0.14983447265625,-211.55560302734375,-19.93829345703125,68.5081787109375
1776020494976828400,0.159828369140625,-211.2081756591797,-20.064117431640625,68.87025451660156
1776020494986821000,0.169821044921875,-210.7757110595703,-20.375320434570312,69.03990173339844
1776020494996813300,0.179813232421875,-210.96206665039062,-20.762130737304688,69.05305480957031
1776020495006805200,0.18980517578125,-211.1518096923828,-20.700531005859375,68.87277221679688
1776020495016798200,0.199798095703125,-210.9265899658203,-21.079818725585938,68.82907104492188
1776020495026791400,0.20979150390625,-211.18556213378906,-20.843490600585938,69.26333618164062
1776020495036784000,0.2197841796875,-210.65872192382812,-21.318435668945312,69.199462890625
1776020495046776300,0.2297763671875,-211.11476135253906,-21.452835083007812,69.00601196289062
1776020495056769000,0.23976904296875,-211.01089477539062,-21.691604614257812,69.46635437011719
1776020495066762200,0.24976220703125,-211.115234375,-21.879241943359375,70.27044677734375
1776020495076754400,0.25975439453125,-211.6040802001953,-21.584823608398438,70.77015686035156
1776020495086747100,0.2697470703125,-211.2337646484375,-21.4490966796875,71.4818115234375
1776020495096740400,0.279740234375,-211.48971557617188,-20.724624633789062,71.89376831054688
1776020495106733300,0.2897333984375,-211.248291015625,-20.349227905273438,72.80862426757812
1776020495116727300,0.299727294921875,-211.79681396484375,-19.7021484375,73.659423828125
1776020495126721000,0.309720947265625,-211.55056762695312,-18.64190673828125,75.75056457519531
1776020495136715300,0.31971533203125,-211.82369995117188,-17.39990234375,77.48377990722656
1776020495146708200,0.329708251953125,-211.6078643798828,-16.268936157226562,80.49983215332031
1776020495156699100,0.33969921875,-211.56436157226562,-14.67022705078125,83.42570495605469
1776020495166691300,0.34969140625,-211.05870056152344,-13.02947998046875,86.50019836425781
1776020495176684000,0.35968408203125,-210.12576293945312,-11.364730834960938,89.48489379882812
1776020495186676200,0.36967626953125,-210.11854553222656,-9.833969116210938,91.64112854003906
1776020495196668200,0.379668212890625,-209.5435333251953,-8.73541259765625,93.51638793945312
1776020495206660400,0.389660400390625,-208.51931762695312,-8.5159912109375,94.12144470214844
1776020495216653300,0.3996533203125,-208.68756103515625,-8.199050903320312,94.97334289550781
1776020495226644200,0.409644287109375,-208.40550231933594,-8.40130615234375,97.04428100585938
1776020495236635100,0.41963525390625,-207.76622009277344,-8.515655517578125,100.30511474609375
1776020495246626000,0.4296259765625,-206.48614501953125,-8.919097900390625,103.453125
1776020495256617200,0.4396171875,-205.9903564453125,-9.321578979492188,105.67532348632812
1776020495266609200,0.449609130859375,-205.26852416992188,-9.841888427734375,106.82867431640625
1776020495276600300,0.459600341796875,-204.8476104736328,-10.531936645507812,107.93618774414062
1776020495286592300,0.46959228515625,-204.76837158203125,-10.101959228515625,108.39253234863281
1776020495296584200,0.479584228515625,-204.99884033203125,-10.351837158203125,108.42008972167969
1776020495306575400,0.489575439453125,-205.34585571289062,-10.35003662109375,108.48008728027344
1776020495316568000,0.499568115234375,-204.99110412597656,-10.358047485351562,108.47872924804688
1776020495326562000,0.50956201171875,-205.33364868164062,-10.143417358398438,108.07316589355469
1776020495336555300,0.51955517578125,-205.56846618652344,-10.38958740234375,108.06784057617188
1776020495346548200,0.52954833984375,-205.9697723388672,-10.851165771484375,107.66937255859375
1776020495356541200,0.539541259765625,-206.46923828125,-11.755386352539062,107.64877319335938
1776020495366534100,0.5495341796875,-206.49009704589844,-12.014816284179688,107.49287414550781
1776020495376528400,0.5595283203125,-206.22543334960938,-12.3924560546875,107.24029541015625
1776020495386522400,0.5695224609375,-206.43255615234375,-12.86151123046875,107.05084228515625
1776020495396514300,0.579514404296875,-207.00132751464844,-12.831619262695312,107.10740661621094
1776020495406507300,0.58950732421875,-207.5395050048828,-12.774002075195312,106.75843811035156
1776020495416500200,0.599500244140625,-207.7856903076172,-12.915023803710938,106.16015625
1776020495426492200,0.6094921875,-207.895263671875,-12.513565063476562,106.00694274902344
1776020495436484400,0.619484375,-207.99972534179688,-12.179306030273438,105.27482604980469
1776020495446476300,0.629476318359375,-208.64256286621094,-12.349700927734375,104.39579772949219
1776020495456469200,0.63946923828125,-209.02020263671875,-11.873275756835938,103.38009643554688
1776020495466462200,0.649462158203125,-210.19056701660156,-11.96673583984375,102.12619018554688
1776020495476456200,0.659456298828125,-210.7261505126953,-12.253219604492188,100.95645141601562
1776020495486449200,0.66944921875,-210.6832275390625,-12.076339721679688,99.73590087890625
1776020495496441000,0.679441162109375,-211.45701599121094,-12.138153076171875,98.5345458984375
1776020495506433300,0.689433349609375,-212.7528076171875,-11.70562744140625,97.52090454101562
1776020495516426200,0.69942626953125,-212.37913513183594,-11.721710205078125,96.55259704589844
1776020495526417200,0.709417236328125,-213.05982971191406,-11.61566162109375,95.55860900878906
1776020495536409000,0.7194091796875,-213.78477478027344,-11.002166748046875,94.73332214355469
1776020495546400300,0.729400146484375,-213.763671875,-10.645645141601562,94.04998779296875
1776020495556391200,0.73939111328125,-214.4278106689453,-10.271255493164062,93.18533325195312
1776020495566382000,0.749382080078125,-215.04067993164062,-10.195755004882812,92.91184997558594
1776020495576373200,0.759373291015625,-215.1589813232422,-9.362945556640625,93.08203125
1776020495586365200,0.769365234375,-215.44491577148438,-9.127700805664062,92.66726684570312
1776020495596357400,0.779357421875,-216.07456970214844,-8.167129516601562,92.71647644042969
1776020495606349300,0.789349365234375,-216.3073272705078,-7.7673187255859375,92.44056701660156
1776020495616343300,0.79934326171875,-217.13063049316406,-7.08203125,92.54135131835938
1776020495626334200,0.809334228515625,-217.18743896484375,-6.8955230712890625,92.6619873046875
1776020495636326400,0.819326416015625,-218.17835998535156,-6.0738525390625,92.47921752929688
1776020495646318000,0.829318115234375,-218.80401611328125,-5.04998779296875,92.51875305175781
1776020495656310300,0.839310302734375,-219.20928955078125,-4.5803070068359375,92.50851440429688
1776020495666302200,0.84930224609375,-219.29978942871094,-3.020538330078125,92.43881225585938
1776020495676294400,0.85929443359375,-219.8314971923828,-2.0659027099609375,92.95118713378906
1776020495686286300,0.869286376953125,-221.0365753173828,-0.658966064453125,93.38505554199219
1776020495696277200,0.87927734375,-221.10069274902344,0.94677734375,93.93844604492188
1776020495706270200,0.889270263671875,-221.10598754882812,3.0404815673828125,94.56211853027344
1776020495716261000,0.89926123046875,-221.3115692138672,5.246734619140625,95.10585021972656
1776020495726252300,0.909252197265625,-221.58761596679688,7.6327056884765625,95.357177734375
1776020495736243200,0.9192431640625,-221.47970581054688,9.594314575195312,95.15727233886719
1776020495746234000,0.929234130859375,-221.056640625,12.157546997070312,94.90481567382812
1776020495756226300,0.939226318359375,-220.80465698242188,14.730255126953125,94.05680847167969
1776020495766219300,0.94921923828125,-219.57559204101562,17.380416870117188,93.20211791992188
1776020495776210400,0.95921044921875,-218.8900604248047,20.433868408203125,92.09170532226562
1776020495786202000,0.9692021484375,-217.0834503173828,22.38165283203125,91.217529296875
1776020495796194300,0.9791943359375,-215.56015014648438,24.800140380859375,89.74839782714844
1776020495806185200,0.989185302734375,-213.3809051513672,26.082778930664062,89.277587890625
1776020495816176000,0.999176025390625,-211.13693237304688,27.543701171875,89.09133911132812
1776020495826167300,1.009167236328125,-208.39195251464844,29.135818481445312,89.1932373046875
1776020495836158200,1.019158203125,-207.06089782714844,29.620193481445312,89.50727844238281
1776020495846148400,1.0291484375,-205.3547821044922,30.545120239257812,89.62460327148438
1776020495856138200,1.03913818359375,-202.84750366210938,30.80303955078125,90.37382507324219
1776020495866128100,1.049128173828125,-201.5668182373047,31.07379150390625,90.90165710449219
1776020495876120300,1.059120361328125,-200.7329864501953,31.476119995117188,91.54676818847656
1776020495886111200,1.069111328125,-199.53529357910156,32.03306579589844,92.23472595214844
1776020495896103200,1.079103271484375,-198.0388641357422,32.29158020019531,92.672119140625
1776020495906095400,1.089095458984375,-196.65048217773438,33.0380859375,93.50056457519531
1776020495916087000,1.099087158203125,-194.9202880859375,34.30317687988281,94.21868896484375
1776020495926080300,1.109080322265625,-193.0083770751953,34.98663330078125,95.48100280761719
1776020495936072400,1.119072509765625,-191.46359252929688,36.397308349609375,96.286865234375
1776020495946064100,1.129064208984375,-189.2501678466797,37.13545227050781,96.94400024414062
1776020495956057300,1.139057373046875,-188.28504943847656,37.49583435058594,97.81703186035156
1776020495966050000,1.149050048828125,-187.06532287597656,37.800048828125,98.62728881835938
1776020495976041200,1.159041259765625,-186.1037139892578,38.22700500488281,99.33467102050781
1776020495986034200,1.1690341796875,-185.6520233154297,38.795989990234375,100.27871704101562
1776020495996027100,1.179027099609375,-185.13058471679688,38.990203857421875,101.1201171875
1776020496006020400,1.189020263671875,-185.4811248779297,39.16230773925781,102.04550170898438
1776020496016013000,1.199012939453125,-185.33975219726562,39.03358459472656,102.89801025390625
1776020496026006300,1.20900634765625,-186.06434631347656,38.65815734863281,103.90225219726562
1776020496035998500,1.21899853515625,-186.48605346679688,38.489227294921875,104.94371032714844
1776020496045989400,1.2289892578125,-187.19039916992188,38.03279113769531,105.79389953613281
1776020496055980300,1.238980224609375,-188.28089904785156,37.6011962890625,107.01478576660156
1776020496065973200,1.24897314453125,-189.31988525390625,37.087921142578125,108.33189392089844
1776020496075967200,1.25896728515625,-190.47015380859375,36.37498474121094,110.0548095703125
1776020496085959200,1.268959228515625,-191.07940673828125,35.80464172363281,112.16165161132812
1776020496095953200,1.278953125,-192.0010528564453,35.17893981933594,113.47416687011719
1776020496105946400,1.2889462890625,-192.47555541992188,34.90492248535156,115.2755126953125
1776020496115939000,1.29893896484375,-193.44955444335938,34.519561767578125,116.75784301757812
1776020496125932300,1.308932373046875,-193.58351135253906,33.91465759277344,117.93669128417969
1776020496135924200,1.31892431640625,-194.0168914794922,33.458282470703125,119.3341064453125
1776020496145917200,1.328917236328125,-194.86500549316406,32.93800354003906,120.93653869628906
1776020496155909400,1.338909423828125,-194.89659118652344,32.60237121582031,123.2366943359375
1776020496165903400,1.3489033203125,-194.71739196777344,32.09173583984375,124.6875
1776020496175897300,1.3588974609375,-194.50064086914062,31.828521728515625,125.64926147460938
1776020496185889300,1.36888916015625,-194.223876953125,31.428573608398438,127.01506042480469
1776020496195882200,1.37888232421875,-194.8418426513672,31.498153686523438,127.60661315917969
1776020496205876200,1.388876220703125,-195.8510284423828,31.836898803710938,128.43458557128906
1776020496215867400,1.398867431640625,-197.0514373779297,31.770233154296875,129.06556701660156
1776020496225860400,1.4088603515625,-198.62086486816406,32.47474670410156,129.07281494140625
1776020496235852300,1.418852294921875,-203.63067626953125,34.25563049316406,128.4232940673828
1776020496245844200,1.42884423828125,-211.07936096191406,36.3831787109375,125.47286987304688
1776020496255835400,1.43883544921875,-218.4212646484375,40.84028625488281,123.7845458984375
1776020496265826300,1.448826416015625,-225.63389587402344,48.38484191894531,124.74755859375
1776020496275818200,1.458818359375,-233.47412109375,58.82191467285156,127.19602966308594
1776020496285810200,1.46881005859375,-242.45066833496094,72.34521484375,132.364013671875
1776020496295804200,1.47880419921875,-253.00323486328125,87.74581909179688,140.37879943847656
1776020496305797400,1.48879736328125,-261.1239013671875,102.56777954101562,150.1416015625
1776020496315790300,1.498790283203125,-268.8306884765625,109.85098266601562,157.64471435546875
1776020496325783300,1.508783203125,-272.5679931640625,105.10011291503906,157.69595336914062
1776020496335775500,1.518775390625,-274.43756103515625,96.26004028320312,155.20489501953125
1776020496345768200,1.528768310546875,-273.8619689941406,87.33340454101562,153.34571838378906
1776020496355760400,1.538760498046875,-273.2707214355469,79.67835998535156,153.23117065429688
1776020496365751300,1.548751220703125,-273.6531982421875,74.90983581542969,153.1470184326172
1776020496375743500,1.558743408203125,-272.04150390625,72.82357788085938,153.66107177734375
1776020496385734400,1.568734375,-270.0583190917969,73.13656616210938,154.95489501953125
1776020496395726300,1.578726318359375,-268.36724853515625,73.73983764648438,155.8998260498047
1776020496405718300,1.58871826171875,-268.635498046875,74.00553894042969,155.66355895996094
1776020496415711500,1.59871142578125,-268.8783874511719,74.33084106445312,154.55982971191406
1776020496425703200,1.608703125,-269.4317321777344,74.34550476074219,153.48536682128906
1776020496435696400,1.6186962890625,-270.29241943359375,75.02394104003906,152.24087524414062
1776020496445688300,1.628688232421875,-271.2069091796875,75.81697082519531,150.94290161132812
1776020496455679500,1.638679443359375,-272.1316833496094,76.16780090332031,150.7779541015625
1776020496465670400,1.64867041015625,-272.17864990234375,76.79655456542969,150.2969207763672
1776020496475661300,1.658661376953125,-272.427490234375,78.0916748046875,150.07571411132812
1776020496485652200,1.66865234375,-273.103515625,79.56158447265625,150.0703887939453
1776020496495645200,1.678645263671875,-273.7660827636719,81.61849975585938,149.5406494140625
1776020496505638400,1.688638427734375,-274.78955078125,83.90208435058594,148.6202392578125
1776020496515629300,1.69862939453125,-275.25897216796875,85.54096984863281,148.68368530273438
1776020496525620200,1.7086201171875,-275.0467529296875,87.05221557617188,148.6366729736328
1776020496535611400,1.718611328125,-274.9793701171875,88.32159423828125,150.179443359375
1776020496545603300,1.728603271484375,-273.9427795410156,89.25413513183594,150.5972900390625
1776020496555595500,1.738595458984375,-273.49798583984375,90.23735046386719,150.10093688964844
1776020496565587200,1.748587158203125,-273.76007080078125,90.97410583496094,149.30490112304688
1776020496575580400,1.758580322265625,-274.54833984375,92.22502136230469,148.41587829589844
1776020496585572400,1.768572265625,-275.6558837890625,93.47871398925781,148.16331481933594
1776020496595564300,1.778564208984375,-276.935302734375,94.03549194335938,148.33885192871094
1776020496605556200,1.78855615234375,-277.62078857421875,93.79904174804688,149.80215454101562
1776020496615547400,1.79854736328125,-279.00396728515625,92.19740295410156,151.27182006835938
1776020496625539300,1.808539306640625,-281.92718505859375,90.08549499511719,154.14230346679688
1776020496635531500,1.818531494140625,-285.3289794921875,89.84022521972656,159.4239959716797
1776020496645522400,1.8285224609375,-287.16632080078125,90.13128662109375,166.85562133789062
1776020496655514400,1.838514404296875,-290.1950988769531,86.7620849609375,169.1196746826172
1776020496665506300,1.84850634765625,-291.5732116699219,82.62046813964844,171.70213317871094
1776020496675497200,1.858497314453125,-293.98626708984375,78.34550476074219,173.84226989746094
1776020496685488000,1.868488037109375,-298.34765625,73.93707275390625,177.0599822998047
1776020496695480300,1.878480224609375,-302.34185791015625,68.17582702636719,180.45068359375
1776020496705474300,1.888474365234375,-306.5089111328125,59.87217712402344,183.53433227539062
1776020496715467300,1.89846728515625,-309.61846923828125,49.607177734375,184.54620361328125
1776020496725460200,1.908460205078125,-312.2044982910156,38.8482666015625,183.05972290039062
1776020496735453400,1.918453369140625,-313.32000732421875,27.72467041015625,180.61395263671875
1776020496745446400,1.9284462890625,-313.98321533203125,17.836715698242188,177.67074584960938
1776020496755437300,1.938437255859375,-313.7076110839844,9.332168579101562,174.22579956054688
1776020496765430300,1.94843017578125,-312.7434387207031,1.74188232421875,171.36309814453125
1776020496775423200,1.95842333984375,-311.6806640625,-4.8822479248046875,166.99386596679688
1776020496785415400,1.96841552734375,-310.135498046875,-11.48040771484375,162.28004455566406
1776020496795407400,1.978407470703125,-310.53265380859375,-17.887725830078125,157.42759704589844
1776020496805399300,1.9883994140625,-310.9454650878906,-24.852035522460938,151.7422637939453
1776020496815390500,1.998390380859375,-312.4017028808594,-30.3111572265625,145.5879669189453
1776020496825383400,2.008383544921875,-314.18701171875,-34.30061340332031,140.69313049316406
1776020496835375400,2.018375244140625,-315.2469482421875,-36.272369384765625,137.06654357910156
1776020496845368300,2.028368408203125,-315.3988037109375,-37.13713073730469,132.85491943359375
1776020496855359200,2.038359130859375,-315.36151123046875,-38.112396240234375,128.85226440429688
1776020496865351400,2.048351318359375,-315.3050537109375,-38.712310791015625,123.83615112304688
1776020496875342300,2.05834228515625,-314.809814453125,-38.45060729980469,119.0174560546875
1776020496885333200,2.068333251953125,-313.251953125,-38.38276672363281,114.40377807617188
1776020496895323400,2.078323486328125,-312.609130859375,-37.06721496582031,111.06187438964844
1776020496905313300,2.088313232421875,-311.5352478027344,-37.12255859375,108.59078979492188
1776020496915305500,2.098305419921875,-310.83221435546875,-36.68846130371094,108.03875732421875
1776020496925296400,2.10829638671875,-311.3235778808594,-36.23793029785156,107.87371826171875
1776020496935286300,2.118286376953125,-310.98638916015625,-36.37776184082031,107.78561401367188
1776020496945276200,2.128276123046875,-310.39630126953125,-36.255279541015625,107.5616455078125
1776020496955266300,2.138266357421875,-309.56134033203125,-36.74534606933594,106.52607727050781
1776020496965256200,2.148256103515625,-307.08697509765625,-37.426055908203125,104.40420532226562
1776020496975247400,2.158247314453125,-304.7541198730469,-39.069366455078125,102.69578552246094
1776020496985238300,2.16823828125,-301.7232666015625,-41.25099182128906,100.51612854003906
1776020496995230500,2.17823046875,-300.69879150390625,-43.524322509765625,98.72099304199219
1776020497005222400,2.188222412109375,-300.0285949707031,-46.144012451171875,97.13998413085938
1776020497015214300,2.19821435546875,-299.28228759765625,-47.64100646972656,95.54425048828125
1776020497025207300,2.208207275390625,-298.13763427734375,-49.50604248046875,94.01739501953125
1776020497035199500,2.218199462890625,-297.76678466796875,-50.33186340332031,92.21058654785156
1776020497045192200,2.228192138671875,-297.27972412109375,-51.90580749511719,90.08061218261719
1776020497055183400,2.238183349609375,-296.49615478515625,-53.040283203125,88.15065002441406
1776020497065176300,2.24817626953125,-295.8129577636719,-54.02424621582031,86.85580444335938
1776020497075169300,2.258169189453125,-294.97845458984375,-55.902252197265625,85.54063415527344
1776020497085162500,2.26816259765625,-294.6610412597656,-56.89039611816406,85.43562316894531
1776020497095155200,2.2781552734375,-295.88818359375,-56.27964782714844,86.45988464355469
1776020497105147400,2.2881474609375,-298.6796875,-53.69000244140625,89.05302429199219
1776020497115140400,2.298140380859375,-301.35223388671875,-50.59217834472656,92.74906921386719
1776020497125131300,2.30813134765625,-301.87506103515625,-49.81700134277344,95.14122009277344
1776020497135122200,2.3181220703125,-301.0261535644531,-51.61872863769531,97.32199096679688
1776020497145114400,2.3281142578125,-301.37860107421875,-51.80616760253906,98.48593139648438
1776020497155105300,2.338105224609375,-301.9931945800781,-50.876007080078125,99.24024963378906
1776020497165097200,2.34809716796875,-302.30194091796875,-50.87776184082031,100.95835876464844
1776020497175090400,2.35809033203125,-302.23480224609375,-51.01654052734375,101.69285583496094
1776020497185083400,2.36808349609375,-302.58734130859375,-50.931549072265625,102.46803283691406
1776020497195074300,2.37807421875,-303.1973571777344,-51.125701904296875,102.5574951171875
1776020497205065200,2.388065185546875,-303.72021484375,-51.13664245605469,102.72463989257812
1776020497215057400,2.398057373046875,-303.3253173828125,-51.543487548828125,102.73594665527344
1776020497225050000,2.408050048828125,-303.69793701171875,-51.528656005859375,102.98025512695312
1776020497235043300,2.418043212890625,-304.06292724609375,-51.66502380371094,102.87187194824219
1776020497245034200,2.4280341796875,-304.28826904296875,-51.55638122558594,102.78895568847656
1776020497255024400,2.4380244140625,-304.36572265625,-51.56182861328125,102.63404846191406
1776020497265015300,2.448015380859375,-304.42791748046875,-51.83717346191406,102.76446533203125
1776020497275006200,2.458006103515625,-304.26556396484375,-51.92987060546875,102.56869506835938
1776020497284998400,2.467998291015625,-304.4324035644531,-51.77900695800781,102.32792663574219
1776020497294990300,2.477990234375,-304.23529052734375,-51.84248352050781,101.79214477539062
1776020497304982500,2.487982421875,-304.76104736328125,-51.48829650878906,101.38327026367188
1776020497314976300,2.497976318359375,-304.862548828125,-51.518707275390625,100.65364074707031
1776020497324970200,2.50797021484375,-304.367919921875,-51.045135498046875,100.14778137207031
1776020497334963200,2.517963134765625,-304.9959716796875,-50.71595764160156,99.68191528320312
1776020497344957400,2.52795751953125,-305.13958740234375,-49.83152770996094,99.46675109863281
1776020497354950400,2.537950439453125,-305.4800109863281,-49.48182678222656,99.89582824707031
1776020497364945400,2.5479453125,-306.14691162109375,-48.24662780761719,100.76576232910156
1776020497374939400,2.557939453125,-307.03387451171875,-47.4200439453125,101.54554748535156
1776020497384931300,2.567931396484375,-308.039306640625,-46.78028869628906,103.0023193359375
1776020497394924300,2.57792431640625,-308.09454345703125,-46.717071533203125,103.43022155761719
1776020497404917200,2.587917236328125,-309.2801513671875,-46.155181884765625,104.36280822753906
1776020497414909400,2.597909423828125,-310.47833251953125,-44.97981262207031,105.921142578125
1776020497424899300,2.6078994140625,-311.890869140625,-43.48573303222656,107.12094116210938
1776020497434891300,2.617891357421875,-313.8138732910156,-41.82789611816406,108.74372863769531
1776020497444883500,2.627883544921875,-314.9217529296875,-40.27809143066406,109.87870788574219
1776020497454874400,2.637874267578125,-317.00469970703125,-39.030548095703125,111.16993713378906
1776020497464864300,2.6478642578125,-318.1387939453125,-37.68016052246094,111.60588073730469
1776020497474854100,2.657854248046875,-320.15545654296875,-35.91502380371094,112.29495239257812
1776020497484846300,2.667846435546875,-322.2222900390625,-33.16932678222656,112.91648864746094
1776020497494838300,2.67783837890625,-324.5048522949219,-30.08624267578125,113.63789367675781
1776020497504830500,2.68783056640625,-325.9112548828125,-26.057662963867188,114.40629577636719
1776020497514822100,2.697822265625,-328.3052978515625,-23.065017700195312,114.75688171386719
1776020497524814300,2.707814453125,-330.60028076171875,-20.089218139648438,115.63203430175781
1776020497534807600,2.7178076171875,-334.0116882324219,-18.439208984375,116.6927490234375
1776020497544800300,2.72780029296875,-336.4751892089844,-16.987564086914062,117.88209533691406
1776020497554792400,2.73779248046875,-338.7611389160156,-16.671035766601562,118.60108947753906
1776020497564784400,2.747784423828125,-340.99920654296875,-16.279693603515625,118.8839111328125
1776020497574776300,2.7577763671875,-343.2624206542969,-16.530044555664062,118.89407348632812
1776020497584768300,2.767768310546875,-343.7923278808594,-17.79736328125,118.86506652832031
1776020497594760400,2.777760498046875,-343.8470764160156,-19.656585693359375,118.38368225097656
1776020497604753200,2.787753173828125,-343.79156494140625,-20.777297973632812,117.96385192871094
1776020497614746400,2.797746337890625,-343.43865966796875,-22.543594360351562,117.35389709472656
1776020497624739300,2.8077392578125,-343.85333251953125,-22.310073852539062,117.246826171875
1776020497634730200,2.817730224609375,-343.4546203613281,-22.099227905273438,117.30416870117188
1776020497644722200,2.82772216796875,-343.6409912109375,-21.20684814453125,117.6380615234375
1776020497654713300,2.83771337890625,-344.3056640625,-20.444015502929688,118.07940673828125
1776020497664705300,2.847705322265625,-343.61968994140625,-20.929534912109375,118.52622985839844
1776020497674694400,2.8576943359375,-344.062255859375,-21.243560791015625,118.74749755859375
1776020497684686300,2.867686279296875,-342.884033203125,-23.062774658203125,119.85714721679688
1776020497694678300,2.87767822265625,-343.73468017578125,-24.353713989257812,120.94999694824219
1776020497704670500,2.88767041015625,-343.51690673828125,-26.448944091796875,122.22219848632812
1776020497714662400,2.897662353515625,-343.1576232910156,-29.252029418945312,123.53453063964844
1776020497724654300,2.907654296875,-340.76544189453125,-34.76618957519531,124.66256713867188
1776020497734645200,2.917645263671875,-338.9299011230469,-41.109222412109375,126.31443786621094
1776020497744637200,2.92763720703125,-337.5738220214844,-46.56031799316406,128.06053161621094
1776020497754629400,2.93762939453125,-336.4566345214844,-49.46148681640625,129.40048217773438
1776020497764622300,2.947622314453125,-336.8423767089844,-49.68389892578125,130.9951934814453
1776020497774616300,2.9576162109375,-336.7323303222656,-49.95051574707031,130.97457885742188
1776020497784608300,2.967608154296875,-336.1156005859375,-49.8095703125,131.2398681640625
1776020497794602500,2.9776025390625,-336.11578369140625,-50.22467041015625,132.0892791748047
1776020497804593400,2.987593505859375,-336.37066650390625,-50.630126953125,131.6004638671875
1776020497814585000,2.997585205078125,-336.71697998046875,-51.87004089355469,131.4542236328125
1776020497824578300,3.007578369140625,-337.4808349609375,-52.01747131347656,130.8527069091797
1776020497834571300,3.0175712890625,-337.218017578125,-52.12049865722656,131.02978515625
1776020497844564500,3.027564453125,-336.88946533203125,-52.51029968261719,130.73309326171875
1776020497854557200,3.03755712890625,-336.7826843261719,-52.25184631347656,130.66879272460938
1776020497864548000,3.047548095703125,-336.93011474609375,-51.99848937988281,130.64036560058594
1776020497874539300,3.057539306640625,-336.6607971191406,-51.84065246582031,130.21778869628906
1776020497884530400,3.067530517578125,-336.6070556640625,-51.98255920410156,129.57945251464844
1776020497894522400,3.0775224609375,-336.5924072265625,-52.29576110839844,128.70706176757812
1776020497904514300,3.087514404296875,-336.9902038574219,-52.9541015625,126.52406311035156
1776020497914505200,3.097505126953125,-336.1201171875,-53.21893310546875,123.75164794921875
1776020497924498400,3.10749853515625,-335.36236572265625,-53.07391357421875,119.96464538574219
1776020497934490400,3.117490478515625,-333.76483154296875,-52.77351379394531,115.75849914550781
1776020497944482300,3.127482421875,-331.44476318359375,-52.08171081542969,110.64100646972656
1776020497954474200,3.13747412109375,-328.2445068359375,-51.42987060546875,106.26242065429688
1776020497964466400,3.147466552734375,-324.6478271484375,-49.9949951171875,102.66705322265625
1776020497974457300,3.157457275390625,-321.5798034667969,-48.271942138671875,99.11575317382812
1776020497984447200,3.167447265625,-318.9739990234375,-46.99574279785156,95.89155578613281
1776020497994437000,3.17743701171875,-317.0987548828125,-45.03179931640625,94.14773559570312
1776020498004427500,3.187427490234375,-315.72509765625,-42.80393981933594,93.11712646484375
1776020498014416100,3.197416015625,-314.5157775878906,-41.15667724609375,92.50477600097656
1776020498024407300,3.2074072265625,-313.9154357910156,-39.21430969238281,92.44779968261719
1776020498034395100,3.21739501953125,-314.08642578125,-38.105865478515625,92.44615173339844
1776020498044385500,3.227385498046875,-313.3065185546875,-37.35240173339844,92.59463500976562
1776020498054376400,3.23737646484375,-313.4290466308594,-37.23078918457031,92.36549377441406
1776020498064367400,3.247367431640625,-313.6546630859375,-37.17021179199219,93.00849914550781
1776020498074359300,3.257359375,-314.0091552734375,-37.40327453613281,93.95843505859375
1776020498084351200,3.267351318359375,-314.081298828125,-37.460235595703125,94.12654113769531
1776020498094343400,3.277343505859375,-314.0776672363281,-37.390228271484375,94.52175903320312
1776020498104335400,3.28733544921875,-314.4410400390625,-36.69158935546875,95.25978088378906
1776020498114326300,3.297326171875,-315.5750732421875,-36.71464538574219,96.29173278808594
1776020498124319200,3.3073193359375,-315.1485595703125,-36.5455322265625,97.13485717773438
1776020498134311400,3.3173115234375,-315.76055908203125,-35.8636474609375,98.34634399414062
1776020498144303400,3.327303466796875,-316.04766845703125,-35.60438537597656,99.09153747558594
1776020498154295600,3.337295654296875,-316.49053955078125,-35.57279968261719,99.51420593261719
1776020498164286500,3.347286376953125,-316.28253173828125,-35.31224060058594,99.77865600585938
1776020498174278100,3.357278076171875,-316.11224365234375,-35.486419677734375,100.51249694824219
1776020498184270300,3.367270263671875,-316.77215576171875,-35.58027648925781,100.80622863769531
1776020498194262300,3.37726220703125,-316.35614013671875,-35.9488525390625,100.52729797363281
1776020498204254500,3.38725439453125,-316.1773681640625,-36.12120056152344,100.65463256835938
1776020498214247200,3.3972470703125,-316.2349853515625,-36.46220397949219,100.56065368652344
1776020498224240400,3.407240478515625,-316.34326171875,-36.592529296875,100.86958312988281
1776020498234232300,3.417232421875,-315.12530517578125,-36.95359802246094,100.969970703125
1776020498244225300,3.427225341796875,-315.28802490234375,-37.25750732421875,101.142578125
1776020498254217500,3.437217529296875,-315.74554443359375,-38.01490783691406,101.85055541992188
1776020498264209200,3.447209228515625,-315.2581787109375,-38.262481689453125,102.0645751953125
1776020498274202400,3.457202392578125,-315.54931640625,-38.06768798828125,102.67176818847656
1776020498284195300,3.4671953125,-315.2532958984375,-38.21685791015625,103.05607604980469
1776020498294188300,3.477188232421875,-315.49322509765625,-38.07008361816406,103.64926147460938
1776020498304180500,3.487180419921875,-315.7933349609375,-38.543487548828125,103.51896667480469
1776020498314173700,3.497173583984375,-315.641357421875,-38.55775451660156,103.84117126464844
1776020498324165600,3.50716552734375,-315.3314208984375,-39.06578063964844,103.70550537109375
1776020498334158600,3.51715869140625,-314.8067321777344,-39.27239990234375,103.88079833984375
1776020498344150500,3.527150634765625,-315.08026123046875,-39.7510986328125,103.40573120117188
1776020498354143700,3.537143798828125,-315.2205505371094,-39.93153381347656,103.80412292480469
1776020498364134700,3.547134765625,-314.7208251953125,-39.70953369140625,104.16262817382812
1776020498374126600,3.557126708984375,-314.85797119140625,-39.74540710449219,104.2855224609375
1776020498384118500,3.567118408203125,-315.19921875,-39.66810607910156,104.55616760253906
1776020498394110700,3.57711083984375,-315.43060302734375,-39.59642028808594,104.83584594726562
1776020498404101600,3.5871015625,-314.894287109375,-39.32331848144531,104.77328491210938
1776020498414093800,3.59709375,-315.24884033203125,-38.95771789550781,105.06430053710938
1776020498424085500,3.60708544921875,-315.50634765625,-39.32902526855469,105.68643188476562
1776020498434078700,3.61707861328125,-315.627197265625,-38.46681213378906,105.92123413085938
1776020498444069600,3.627069580078125,-315.5160217285156,-38.64018249511719,106.0059814453125
1776020498454060500,3.637060546875,-315.7366027832031,-38.72404479980469,105.60231018066406
1776020498464050400,3.647050537109375,-315.66632080078125,-38.631378173828125,105.46452331542969
1776020498474040600,3.65704052734375,-315.798095703125,-39.19361877441406,105.56498718261719
1776020498484030700,3.66703076171875,-315.8194580078125,-39.01063537597656,105.5234375
1776020498494019600,3.67701953125,-315.294921875,-39.36961364746094,105.39776611328125
1776020498504009700,3.687009765625,-316.049072265625,-39.2109375,105.25117492675781
1776020498513999600,3.69699951171875,-315.1328125,-39.059814453125,105.22213745117188
1776020498523990500,3.706990478515625,-315.693115234375,-39.08290100097656,105.34786987304688
1776020498533981400,3.7169814453125,-316.00946044921875,-38.774505615234375,105.53814697265625
1776020498543971600,3.7269716796875,-315.99017333984375,-38.95790100097656,105.47520446777344
1776020498553961500,3.73696142578125,-315.66033935546875,-38.77357482910156,105.85939025878906
1776020498563951600,3.74695166015625,-315.78887939453125,-38.90211486816406,105.86143493652344
1776020498573942800,3.75694287109375,-316.0616455078125,-38.831878662109375,105.84062194824219
1776020498583932700,3.7669326171875,-315.4960021972656,-38.58888244628906,105.89067077636719
1776020498593923600,3.776923583984375,-315.1756591796875,-38.505035400390625,105.73284912109375
1776020498603914500,3.78691455078125,-315.4443664550781,-38.5672607421875,106.17674255371094
1776020498613904600,3.796904541015625,-315.22882080078125,-38.4715576171875,106.20513916015625
1776020498623895600,3.8068955078125,-315.243408203125,-38.59173583984375,106.12429809570312
1776020498633884700,3.816884765625,-315.0638427734375,-38.60685729980469,106.23475646972656
1776020498643874600,3.82687451171875,-315.7352600097656,-38.35743713378906,106.18011474609375
1776020498653863700,3.83686376953125,-315.48809814453125,-38.271697998046875,106.22970581054688
1776020498663855600,3.846855712890625,-315.04296875,-38.17884826660156,106.249267578125
1776020498673846800,3.8568466796875,-315.27490234375,-38.37040710449219,106.19894409179688
1776020498683837700,3.866837646484375,-315.79156494140625,-38.34727478027344,106.07148742675781
1776020498693829600,3.87682958984375,-314.84564208984375,-38.55224609375,106.126708984375
1776020498703819500,3.886819580078125,-315.49005126953125,-38.4300537109375,106.11994934082031
1776020498713810700,3.896810791015625,-315.90478515625,-38.26033020019531,106.02578735351562
1776020498723803600,3.9068037109375,-315.46954345703125,-38.13877868652344,106.10002136230469
1776020498733793800,3.916793701171875,-315.27154541015625,-38.606658935546875,105.9935302734375
1776020498743784700,3.92678466796875,-315.5021057128906,-38.51197814941406,105.96923828125
1776020498753775600,3.936775634765625,-315.23040771484375,-38.142425537109375,106.12579345703125
1776020498763764700,3.9467646484375,-315.5482177734375,-38.27241516113281,106.11257934570312
1776020498773754600,3.956754638671875,-315.7299499511719,-38.270599365234375,106.31730651855469
1776020498783745500,3.96674560546875,-314.6922607421875,-38.182098388671875,106.17253112792969
1776020498793736700,3.97673681640625,-315.6112976074219,-38.35935974121094,106.16079711914062
1776020498803728600,3.986728759765625,-315.3341064453125,-38.30210876464844,106.365234375
1776020498813721600,3.9967216796875,-315.080078125,-38.36351013183594,106.42376708984375
1776020498823712500,4.00671240234375,-315.8650207519531,-39.27976989746094,106.04714965820312
1776020498833704700,4.01670458984375,-315.525390625,-40.402374267578125,105.66911315917969
1776020498843696600,4.026696533203125,-314.93914794921875,-41.298370361328125,105.47120666503906
1776020498853688800,4.036688720703125,-314.87652587890625,-41.26618957519531,104.92488098144531
1776020498863681500,4.046681640625,-314.21417236328125,-41.158935546875,104.40635681152344
1776020498873673700,4.056673828125,-314.631103515625,-41.3431396484375,104.59211730957031
1776020498883664600,4.06666455078125,-314.198974609375,-41.29331970214844,104.17997741699219
1776020498893655600,4.076655517578125,-313.87664794921875,-41.26020812988281,103.89259338378906
1776020498903645400,4.0866455078125,-313.89898681640625,-41.29827880859375,104.56828308105469
1776020498913635800,4.0966357421875,-314.5798034667969,-41.10075378417969,104.43467712402344
1776020498923626800,4.106626708984375,-314.81597900390625,-40.930267333984375,104.89459228515625
1776020498933618400,4.116618408203125,-314.23980712890625,-40.94854736328125,105.14863586425781
1776020498943609600,4.126609619140625,-314.45111083984375,-40.792510986328125,105.23818969726562
1776020498953598500,4.136598388671875,-314.07666015625,-40.929901123046875,105.13348388671875
1776020498963587600,4.146587646484375,-314.22821044921875,-40.742523193359375,104.94120788574219
1776020498973576400,4.156576416015625,-314.4627685546875,-40.644439697265625,104.86296081542969
1776020498983566600,4.166566650390625,-314.7281188964844,-40.69401550292969,105.04026794433594
1776020498993556500,4.176556396484375,-314.2928771972656,-40.5084228515625,105.13931274414062
1776020499003543600,4.18654345703125,-314.4395751953125,-40.36064147949219,105.33529663085938
1776020499013532700,4.19653271484375,-314.195556640625,-40.351959228515625,105.36561584472656
1776020499023521500,4.206521484375,-314.3588562011719,-39.80195617675781,105.69479370117188
1776020499033511700,4.21651171875,-314.40325927734375,-39.80604553222656,105.71231079101562
1776020499043502600,4.226502685546875,-314.4787902832031,-39.67401123046875,105.83140563964844
1776020499053494800,4.236494873046875,-313.6874694824219,-39.480010986328125,106.02653503417969
1776020499063485700,4.246485595703125,-314.44036865234375,-39.37535095214844,106.20585632324219
1776020499073475600,4.2564755859375,-314.5679931640625,-39.39472961425781,106.15791320800781
1776020499083467800,4.2664677734375,-314.82708740234375,-39.16233825683594,106.48255920410156
1776020499093458700,4.276458740234375,-314.4369812011719,-39.07305908203125,106.72276306152344
1776020499103449600,4.28644970703125,-314.6173400878906,-38.97477722167969,106.2855224609375
1776020499113441800,4.29644189453125,-314.1449279785156,-39.14558410644531,106.71429443359375
1776020499123429600,4.3064296875,-314.96807861328125,-38.879058837890625,106.69232177734375
1776020499133418500,4.31641845703125,-315.076416015625,-39.30863952636719,106.51942443847656
1776020499143409700,4.32640966796875,-314.3932800292969,-39.37921142578125,106.27883911132812
1776020499153399800,4.33639990234375,-314.96337890625,-39.0736083984375,106.5628662109375
1776020499163390700,4.346390625,-315.017578125,-39.606414794921875,106.20256042480469
1776020499173381600,4.356381591796875,-314.76739501953125,-38.93049621582031,106.32020568847656
1776020499183372800,4.366372802734375,-315.3189697265625,-39.45611572265625,106.496337890625
1776020499193362700,4.37636279296875,-314.8702392578125,-39.43824768066406,106.65892028808594
1776020499203353600,4.386353515625,-314.9520263671875,-39.90007019042969,106.42106628417969
1776020499213343700,4.39634375,-314.8832092285156,-39.45671081542969,106.58824157714844
1776020499223335400,4.40633544921875,-314.8070068359375,-39.63999938964844,106.32260131835938
1776020499233327600,4.41632763671875,-314.7386474609375,-39.88995361328125,106.28376770019531
1776020499243318500,4.426318603515625,-314.58526611328125,-39.74699401855469,106.26853942871094
1776020499253307600,4.4363076171875,-314.83587646484375,-40.23748779296875,105.99870300292969
1776020499263299600,4.446299560546875,-314.42901611328125,-39.84588623046875,106.56777954101562
1776020499273289700,4.456289794921875,-314.794189453125,-39.859100341796875,106.08145141601562
1776020499283282400,4.466282470703125,-314.789306640625,-40.11228942871094,106.17655944824219
1776020499293272800,4.47627294921875,-314.79638671875,-40.12312316894531,105.86859130859375
1776020499303262700,4.4862626953125,-315.34906005859375,-40.267974853515625,106.04345703125
1776020499313252000,4.496252197265625,-315.5203857421875,-40.0865478515625,106.12460327148438
1776020499323242500,4.506242431640625,-314.76934814453125,-40.39739990234375,106.08035278320312
1776020499333233400,4.5162333984375,-315.35089111328125,-40.32640075683594,106.02494812011719
1776020499343223300,4.526223388671875,-315.19354248046875,-40.26310729980469,105.65382385253906
1776020499353213200,4.536213134765625,-315.1722412109375,-40.16969299316406,105.74986267089844
1776020499363203300,4.546203369140625,-314.93890380859375,-40.51185607910156,105.74992370605469
1776020499373194200,4.5561943359375,-314.9324951171875,-40.44110107421875,105.67475891113281
1776020499383184400,4.566184326171875,-315.0348815917969,-40.552703857421875,106.01425170898438
1776020499393175300,4.57617529296875,-314.95831298828125,-40.21458435058594,105.97325134277344
1776020499403166200,4.586166259765625,-314.98040771484375,-40.30513000488281,106.11619567871094
1776020499413157000,4.5961572265625,-314.9999084472656,-40.136077880859375,105.99205017089844
1776020499423147500,4.6061474609375,-315.37457275390625,-40.10704040527344,105.97637939453125
1776020499433137400,4.616137451171875,-315.0277404785156,-40.28965759277344,106.12612915039062
1776020499443127300,4.626127197265625,-314.4497985839844,-40.34028625488281,106.09832763671875
1776020499453118200,4.6361181640625,-314.53228759765625,-40.32237243652344,106.01710510253906
1776020499463111400,4.646111328125,-315.17181396484375,-40.22261047363281,106.31059265136719
1776020499473103400,4.656103271484375,-314.905517578125,-40.285797119140625,106.07891845703125
1776020499483095300,4.66609521484375,-315.0997314453125,-40.162567138671875,106.22544860839844
1776020499493086500,4.67608642578125,-315.24139404296875,-40.35304260253906,106.01704406738281
1776020499503078100,4.686078125,-315.368896484375,-40.246063232421875,106.01179504394531
1776020499513070300,4.6960703125,-315.2469482421875,-40.23773193359375,106.1751708984375
1776020499523063300,4.706063232421875,-315.57867431640625,-40.50787353515625,106.05990600585938
1776020499533055200,4.71605517578125,-315.4712219238281,-40.08598327636719,106.14634704589844
1776020499543046100,4.726046142578125,-314.81878662109375,-40.380462646484375,106.19212341308594
1776020499553036300,4.736036376953125,-314.7529296875,-40.30720520019531,105.89533996582031
1776020499563025200,4.746025146484375,-315.5466003417969,-40.201812744140625,106.24183654785156
1776020499573015300,4.756015380859375,-315.3135070800781,-40.61326599121094,106.0079345703125
1776020499583004200,4.766004150390625,-315.37078857421875,-40.294525146484375,105.97981262207031
1776020499592995300,4.775995361328125,-315.2743225097656,-40.31439208984375,105.99232482910156
1776020499602985500,4.7859853515625,-315.56707763671875,-40.4122314453125,106.23237609863281
1776020499612975400,4.795975341796875,-314.80023193359375,-40.269927978515625,106.23088073730469
1776020499622966300,4.80596630859375,-314.7021484375,-40.36540222167969,106.02531433105469
1776020499632957200,4.815957275390625,-314.93310546875,-40.531951904296875,106.2333984375
1776020499642948400,4.8259482421875,-315.06048583984375,-40.36866760253906,106.15632629394531
1776020499652940300,4.835940185546875,-315.39385986328125,-40.47967529296875,106.14163208007812
1776020499662931500,4.845931396484375,-314.8251953125,-40.51579284667969,106.16845703125
1776020499672922400,4.85592236328125,-315.57025146484375,-40.74263000488281,106.03390502929688
1776020499682914300,4.865914306640625,-315.4481201171875,-40.37779235839844,106.33099365234375
1776020499692905500,4.875905517578125,-315.209716796875,-40.551544189453125,105.99301147460938
1776020499702895400,4.885895263671875,-315.027099609375,-40.922515869140625,106.40647888183594
1776020499712886300,4.89588623046875,-315.16552734375,-40.97528076171875,105.99517822265625
1776020499722878200,4.905878173828125,-315.2154541015625,-40.81683349609375,106.13218688964844
1776020499732869400,4.915869384765625,-314.7148742675781,-40.98292541503906,106.36398315429688
1776020499742858500,4.9258583984375,-315.70989990234375,-40.660552978515625,106.37620544433594
1776020499752849400,4.935849365234375,-315.5267333984375,-40.56330871582031,106.12495422363281
1776020499762840300,4.94584033203125,-315.4987487792969,-40.58317565917969,106.24620056152344
1776020499772830200,4.955830322265625,-315.58599853515625,-40.47087097167969,106.17643737792969
1776020499782820400,4.9658203125,-315.0357666015625,-40.340240478515625,106.02775573730469
1776020499792811500,4.9758115234375,-315.4079895019531,-40.331787109375,106.35284423828125
1776020499802802400,4.985802490234375,-314.8760070800781,-40.552215576171875,106.17266845703125
1776020499812793300,4.99579345703125,-315.1099853515625,-40.65000915527344,106.72146606445312
1776020499822784500,5.005784423828125,-314.86175537109375,-40.833709716796875,106.150390625
1776020499832775400,5.015775390625,-315.3936767578125,-40.399932861328125,106.4156494140625
1776020499842765300,5.025765380859375,-315.47515869140625,-40.18675231933594,106.2176513671875
1776020499852755200,5.035755126953125,-314.75531005859375,-40.40863037109375,106.01945495605469
1776020499862745300,5.045745361328125,-315.19207763671875,-40.43675231933594,105.99220275878906
1776020499872735200,5.0557353515625,-314.97705078125,-40.36634826660156,106.6953125
1776020499882724400,5.065724365234375,-315.50689697265625,-40.250457763671875,106.14096069335938
1776020499892717300,5.07571728515625,-314.90911865234375,-40.13172912597656,106.30307006835938
1776020499902708200,5.085708251953125,-314.74481201171875,-40.66780090332031,106.23088073730469
1776020499912700400,5.095700439453125,-315.2121276855469,-40.3721923828125,106.145263671875
1776020499922691300,5.10569140625,-315.328125,-40.24699401855469,106.24995422363281
1776020499932683300,5.115683349609375,-315.1059875488281,-40.13157653808594,105.86334228515625
1776020499942675500,5.125675537109375,-315.5460205078125,-40.13893127441406,106.22621154785156
1776020499952665300,5.135665283203125,-315.3396911621094,-39.80116271972656,106.07574462890625
1776020499962656300,5.14565625,-315.13043212890625,-40.10734558105469,106.10821533203125
1776020499972647400,5.1556474609375,-315.3514709472656,-40.13853454589844,106.461181640625
1776020499982638300,5.165638427734375,-314.78936767578125,-40.237945556640625,106.45254516601562
1776020499992629200,5.175629150390625,-315.2718811035156,-39.95973205566406,106.29287719726562
1776020500002619400,5.185619384765625,-315.57684326171875,-40.20948791503906,106.34573364257812
1776020500012611300,5.195611328125,-315.00390625,-40.34169006347656,106.28433227539062
1776020500022603300,5.205603271484375,-314.94195556640625,-39.85203552246094,106.45196533203125
1776020500032595500,5.215595458984375,-314.5926208496094,-40.03143310546875,106.46577453613281
1776020500042586400,5.22558642578125,-315.73175048828125,-39.67393493652344,106.14640808105469
1776020500052577300,5.235577392578125,-315.2495422363281,-39.89836120605469,106.46693420410156
1776020500062568400,5.245568359375,-315.29473876953125,-40.10716247558594,106.35581970214844
1776020500072560400,5.255560302734375,-315.0505676269531,-40.06282043457031,106.3114013671875
1776020500082553300,5.26555322265625,-315.5187072753906,-40.157470703125,106.22557067871094
1776020500092545300,5.275545166015625,-315.52020263671875,-40.09515380859375,105.85557556152344
1776020500102538200,5.285538330078125,-315.3686828613281,-40.18885803222656,106.34098815917969
1776020500112530200,5.2955302734375,-315.50933837890625,-40.10639953613281,106.00355529785156
1776020500122522400,5.3055224609375,-315.56109619140625,-40.12852478027344,106.11561584472656
1776020500132515300,5.315515380859375,-315.683349609375,-40.21372985839844,106.37809753417969
1776020500142506200,5.32550634765625,-315.57745361328125,-40.20698547363281,106.33403015136719
1776020500152500500,5.33550048828125,-315.27484130859375,-40.335968017578125,106.35047912597656
1776020500162495500,5.34549560546875,-315.05340576171875,-40.34361267089844,106.30535888671875
1776020500172489500,5.355489501953125,-315.37127685546875,-40.219573974609375,106.54747009277344
1776020500182483500,5.3654833984375,-316.2867736816406,-40.01731872558594,106.61070251464844
1776020500192477200,5.375477294921875,-315.531982421875,-39.898040771484375,106.64059448242188
1776020500202472200,5.38547216796875,-315.5771484375,-40.322265625,106.41668701171875
1776020500212468500,5.395468505859375,-315.10870361328125,-39.9117431640625,106.44879150390625
1776020500222462500,5.40546240234375,-315.5,-40.356689453125,106.34078979492188
1776020500232457500,5.41545751953125,-315.72186279296875,-40.35821533203125,106.43203735351562
1776020500242450200,5.4254501953125,-315.33160400390625,-39.88067626953125,106.41259765625
1776020500252443400,5.435443359375,-315.06024169921875,-39.52952575683594,106.72499084472656
1776020500262436400,5.445436279296875,-315.3454895019531,-39.61085510253906,106.76663208007812
1776020500272429300,5.45542919921875,-315.550537109375,-39.84596252441406,106.627685546875
1776020500282424300,5.46542431640625,-315.64813232421875,-39.69242858886719,106.72335815429688
1776020500292419300,5.47541943359375,-315.46868896484375,-39.90565490722656,106.57124328613281
1776020500302415400,5.485415283203125,-315.2201843261719,-39.58546447753906,106.93157958984375
1776020500312408600,5.49540869140625,-315.50152587890625,-39.63697814941406,106.70188903808594
1776020500322402600,5.505402587890625,-315.7520751953125,-39.52384948730469,106.70512390136719
1776020500332397600,5.5153974609375,-315.41748046875,-39.54573059082031,106.88517761230469
1776020500342391600,5.5253916015625,-315.071533203125,-39.541229248046875,107.04641723632812
1776020500352386600,5.535386474609375,-314.89166259765625,-39.48912048339844,106.75515747070312
1776020500362380500,5.545380615234375,-315.87420654296875,-39.882843017578125,106.93913269042969
1776020500372374500,5.55537451171875,-315.1942138671875,-39.80134582519531,106.91455078125
1776020500382369500,5.56536962890625,-314.94793701171875,-39.954559326171875,106.59934997558594
1776020500392363500,5.575363525390625,-315.4997863769531,-39.58232116699219,106.63105773925781
1776020500402357500,5.585357421875,-315.3551330566406,-39.69236755371094,106.5926513671875
1776020500412352500,5.5953525390625,-315.08367919921875,-39.64341735839844,106.43853759765625
1776020500422346500,5.605346435546875,-314.74163818359375,-39.673370361328125,106.61122131347656
1776020500432340700,5.6153408203125,-315.444091796875,-39.446258544921875,106.64456176757812
1776020500442335500,5.62533544921875,-315.00640869140625,-39.62626647949219,106.32830810546875
1776020500452330500,5.63533056640625,-315.034423828125,-39.25831604003906,106.65029907226562
1776020500462325500,5.645325439453125,-315.49432373046875,-39.488311767578125,106.62351989746094
1776020500472320500,5.655320556640625,-314.91876220703125,-39.75148010253906,106.60139465332031
1776020500482315500,5.6653154296875,-314.9417419433594,-39.654937744140625,106.71965026855469
1776020500492311600,5.6753115234375,-314.7109375,-39.54743957519531,106.78761291503906
1776020500502307600,5.6853076171875,-314.14599609375,-39.44560241699219,106.30967712402344
1776020500512302600,5.695302490234375,-314.6055908203125,-39.52851867675781,106.57244873046875
1776020500522296600,5.705296630859375,-315.31585693359375,-39.05487060546875,106.52760314941406
1776020500532289500,5.71528955078125,-315.24957275390625,-39.23304748535156,106.78659057617188
1776020500542283500,5.725283447265625,-315.47271728515625,-39.13362121582031,106.73043823242188
1776020500552276700,5.73527685546875,-315.43023681640625,-39.428375244140625,106.91941833496094
1776020500562269700,5.745269775390625,-315.4192199707031,-39.029022216796875,106.77375793457031
1776020500572262400,5.755262451171875,-315.8973388671875,-39.116851806640625,107.00521850585938
1776020500582256600,5.765256591796875,-315.1170654296875,-38.996551513671875,107.08822631835938
1776020500592251600,5.775251708984375,-315.30279541015625,-38.732269287109375,107.18406677246094
1776020500602246400,5.785246337890625,-315.98876953125,-38.928985595703125,107.31027221679688
1776020500612241400,5.795241455078125,-315.7418212890625,-38.821868896484375,107.84121704101562
1776020500622235600,5.805235595703125,-315.6533203125,-38.89833068847656,107.45233154296875
1776020500632230400,5.81523046875,-316.07672119140625,-38.7454833984375,107.58638000488281
1776020500642225400,5.825225341796875,-315.2159118652344,-38.764068603515625,107.56036376953125
1776020500652219600,5.8352197265625,-315.7483825683594,-38.5057373046875,107.71150207519531
1776020500662215400,5.84521533203125,-316.3901672363281,-38.56407165527344,108.02793884277344
1776020500672209400,5.85520947265625,-315.80548095703125,-38.75682067871094,108.04454040527344
1776020500682203600,5.86520361328125,-315.757568359375,-38.286773681640625,107.98689270019531
1776020500692198400,5.875198486328125,-315.3049621582031,-38.3544921875,107.8370361328125
1776020500702191600,5.885191650390625,-315.52838134765625,-38.234527587890625,108.03904724121094
1776020500712186600,5.8951865234375,-316.21466064453125,-38.22904968261719,108.14497375488281
1776020500722180600,5.9051806640625,-316.41717529296875,-38.65467834472656,107.85459899902344
1776020500732173600,5.915173583984375,-315.64996337890625,-38.54736328125,107.84774780273438
1776020500742168600,5.92516845703125,-315.63653564453125,-38.783447265625,108.0126953125
1776020500752162600,5.93516259765625,-315.2749938964844,-38.31159973144531,107.93539428710938
1776020500762156500,5.945156494140625,-315.09954833984375,-38.583465576171875,107.99539184570312
1776020500772151600,5.955151611328125,-315.73187255859375,-38.54457092285156,107.86302185058594
1776020500782146800,5.965146728515625,-315.5089111328125,-38.12211608886719,108.04373168945312
1776020500792140500,5.975140625,-315.9937744140625,-38.49693298339844,108.12197875976562
1776020500802135600,5.985135498046875,-315.42510986328125,-37.8721923828125,108.02485656738281
1776020500812128500,5.99512841796875,-315.0118713378906,-37.94477844238281,107.89559936523438
1776020500822121700,6.005121826171875,-314.8024597167969,-38.10606384277344,108.27931213378906
1776020500832115700,6.01511572265625,-315.1011962890625,-37.555267333984375,107.90713500976562
1776020500842109700,6.025109619140625,-315.10614013671875,-37.94700622558594,108.04200744628906
1776020500852103400,6.035103515625,-315.16986083984375,-37.62388610839844,108.07296752929688
1776020500862097400,6.045097412109375,-315.2383728027344,-37.50352478027344,108.33207702636719
1776020500872090600,6.055090576171875,-315.9898376464844,-37.62800598144531,108.46017456054688
1776020500882085600,6.065085693359375,-315.6361389160156,-37.59303283691406,108.470947265625
1776020500892080600,6.07508056640625,-315.32147216796875,-37.451873779296875,108.48899841308594
1776020500902075600,6.08507568359375,-315.23126220703125,-36.804718017578125,108.68791198730469
1776020500912069600,6.095069580078125,-316.20709228515625,-36.54823303222656,109.43266296386719
1776020500922063600,6.105063720703125,-316.17437744140625,-37.10282897949219,109.844482421875
1776020500932059600,6.1150595703125,-316.500244140625,-36.51866149902344,110.63838195800781
1776020500942054400,6.125054443359375,-316.89105224609375,-36.08634948730469,111.82666015625
1776020500952048600,6.135048583984375,-317.291259765625,-35.607147216796875,112.74589538574219
1776020500962042600,6.145042724609375,-318.03570556640625,-35.38325500488281,113.70248413085938
1776020500972037600,6.15503759765625,-318.5852966308594,-35.26805114746094,114.40509033203125
1776020500982031600,6.165031494140625,-319.07562255859375,-34.9918212890625,115.32023620605469
1776020500992026600,6.175026611328125,-319.66107177734375,-35.03611755371094,116.05279541015625
1776020501002021600,6.185021728515625,-320.1847229003906,-34.77032470703125,116.41998291015625
1776020501012016600,6.1950166015625,-320.2166748046875,-34.757568359375,116.9456787109375
1776020501022010600,6.2050107421875,-320.39996337890625,-34.60881042480469,117.05070495605469
1776020501032006400,6.21500634765625,-320.7290344238281,-34.420379638671875,117.1395263671875
1776020501042001400,6.22500146484375,-320.4569091796875,-34.32170104980469,117.38395690917969
1776020501051995400,6.234995361328125,-320.065185546875,-34.03022766113281,117.23100280761719
1776020501061988600,6.244988525390625,-320.83026123046875,-34.29119873046875,117.66810607910156
1776020501071982600,6.254982666015625,-320.85589599609375,-34.34580993652344,117.44854736328125
1776020501081976600,6.2649765625,-320.006103515625,-34.57722473144531,117.05839538574219
1776020501091969500,6.274969482421875,-320.27423095703125,-34.57720947265625,117.02201843261719
1776020501101961700,6.284961669921875,-320.44403076171875,-34.586212158203125,116.91084289550781
1776020501111954700,6.29495458984375,-319.7503356933594,-34.60737609863281,116.88134765625
1776020501121947600,6.30494775390625,-319.525390625,-34.81251525878906,117.01976013183594
1776020501131939600,6.314939697265625,-319.49267578125,-34.75007629394531,117.02607727050781
1776020501141932500,6.3249326171875,-319.07965087890625,-34.434661865234375,116.56527709960938
1776020501151926500,6.334926513671875,-319.2972412109375,-34.812408447265625,116.66789245605469
1776020501161919500,6.34491943359375,-318.85296630859375,-34.915435791015625,116.23731994628906
1776020501171911400,6.354911376953125,-318.941162109375,-34.910552978515625,115.7086181640625
1776020501181903600,6.364903564453125,-318.55950927734375,-35.405487060546875,115.72149658203125
1776020501191894500,6.37489453125,-318.72344970703125,-35.5091552734375,115.47488403320312
1776020501201886700,6.38488671875,-318.72930908203125,-35.25975036621094,115.20852661132812
1776020501211879400,6.39487939453125,-318.24249267578125,-35.264617919921875,115.20323181152344
1776020501221873400,6.404873291015625,-319.01348876953125,-35.16914367675781,115.59927368164062
1776020501231866600,6.41486669921875,-319.31207275390625,-35.38641357421875,115.85525512695312
1776020501241859600,6.424859619140625,-318.98089599609375,-35.28086853027344,115.60574340820312
1776020501251852500,6.4348525390625,-318.87249755859375,-35.151092529296875,115.79888916015625
1776020501261846500,6.444846435546875,-318.812744140625,-35.36219787597656,115.61483764648438
1776020501271840500,6.454840576171875,-319.31292724609375,-35.50836181640625,115.75758361816406
1776020501281834500,6.46483447265625,-318.80645751953125,-35.34916687011719,115.4737548828125
1776020501291826400,6.474826416015625,-318.6175231933594,-35.55232238769531,115.6512451171875
1776020501301820400,6.4848203125,-318.85723876953125,-35.35858154296875,116.09297180175781
1776020501311814400,6.494814453125,-318.1494140625,-35.17042541503906,115.62167358398438
1776020501321808100,6.50480810546875,-318.57537841796875,-35.396881103515625,115.8734130859375
1776020501331801000,6.514801025390625,-318.6313781738281,-35.25927734375,115.70468139648438
1776020501341794300,6.524794189453125,-318.31414794921875,-35.06639099121094,115.38925170898438
1776020501351786200,6.5347861328125,-318.99774169921875,-34.95661926269531,115.50862121582031
1776020501361779200,6.544779296875,-318.7377014160156,-34.926361083984375,115.69873046875
1776020501371771100,6.554771240234375,-318.5379638671875,-35.02398681640625,115.31594848632812
1776020501381765000,6.56476513671875,-318.62664794921875,-34.911041259765625,115.56340026855469
1776020501391759000,6.574759033203125,-318.68353271484375,-34.7796630859375,115.63616943359375
1776020501401753000,6.584753173828125,-318.36737060546875,-34.72911071777344,115.458984375
1776020501411747300,6.594747314453125,-318.43670654296875,-34.58294677734375,115.61512756347656
1776020501421740300,6.604740234375,-317.79779052734375,-34.57098388671875,115.80520629882812
1776020501431733200,6.614733154296875,-318.13726806640625,-34.69218444824219,115.77581787109375
1776020501441728000,6.62472802734375,-318.22760009765625,-34.653289794921875,115.81834411621094
1776020501451722200,6.63472216796875,-318.05426025390625,-34.21073913574219,116.20191955566406
1776020501461716200,6.64471630859375,-318.13336181640625,-34.483612060546875,115.61624145507812
1776020501471712000,6.6547119140625,-317.96368408203125,-34.2579345703125,115.78773498535156
1776020501481706200,6.664706298828125,-317.59637451171875,-34.62530517578125,115.76962280273438
1776020501491700200,6.6747001953125,-317.84393310546875,-34.01054382324219,115.66676330566406
1776020501501694200,6.684694091796875,-318.19549560546875,-34.196685791015625,115.71261596679688
1776020501511688200,6.694688232421875,-318.00445556640625,-33.97674560546875,115.57630920410156
1776020501521684200,6.704684326171875,-318.2231140136719,-34.32453918457031,115.79194641113281
1776020501531678200,6.71467822265625,-317.654296875,-34.048187255859375,115.88639831542969
1776020501541672200,6.724672119140625,-318.0715637207031,-34.284149169921875,115.99594116210938
1776020501551664000,6.7346640625,-318.0313720703125,-34.153778076171875,116.07333374023438
1776020501561657000,6.744656982421875,-318.01275634765625,-34.15264892578125,115.96072387695312
1776020501571651300,6.7546513671875,-318.6236572265625,-34.48100280761719,116.1656494140625
1776020501581644300,6.764644287109375,-317.9725036621094,-34.22544860839844,116.10501098632812
1776020501591637200,6.77463720703125,-318.43927001953125,-34.053131103515625,116.0450439453125
1776020501601630200,6.784630126953125,-318.15948486328125,-34.17393493652344,116.00032043457031
1776020501611625200,6.794625244140625,-318.58367919921875,-33.85877990722656,115.97508239746094
1776020501621619200,6.804619140625,-318.71478271484375,-33.920135498046875,115.96049499511719
1776020501631613200,6.81461328125,-318.7130126953125,-33.80162048339844,116.20201110839844
1776020501641605000,6.824605224609375,-318.493408203125,-33.723297119140625,116.09291076660156
1776020501651598300,6.834598388671875,-318.2218017578125,-34.20176696777344,116.00894165039062
1776020501661592300,6.84459228515625,-318.2066345214844,-34.13078308105469,116.04689025878906
1776020501671585000,6.8545849609375,-318.310302734375,-34.266510009765625,115.88960266113281
1776020501681577200,6.8645771484375,-318.216064453125,-34.15745544433594,115.75825500488281
1776020501691570200,6.874570068359375,-318.3543701171875,-34.17547607421875,115.50236511230469
1776020501701563100,6.884563232421875,-318.6019287109375,-33.99601745605469,115.94734191894531
1776020501711556000,6.89455615234375,-317.65362548828125,-34.188629150390625,115.90235900878906
1776020501721549300,6.90454931640625,-317.8529357910156,-34.144775390625,115.99722290039062
1776020501731543300,6.914543212890625,-318.4478759765625,-34.220733642578125,115.75340270996094
1776020501741537000,6.924537109375,-318.230712890625,-34.236175537109375,115.92756652832031
1776020501751531000,6.934531005859375,-318.0030517578125,-34.10130310058594,115.9678955078125
1776020501761524200,6.944524169921875,-318.04168701171875,-34.08837890625,115.97894287109375
1776020501771516200,6.95451611328125,-318.4435729980469,-33.99658203125,116.22871398925781
1776020501781509000,6.964509033203125,-318.1417541503906,-34.12959289550781,116.49688720703125
1776020501791501300,6.974501220703125,-317.9075622558594,-34.21992492675781,116.23468017578125
1776020501801493200,6.9844931640625,-318.19696044921875,-34.28453063964844,116.49137878417969
1776020501811485200,6.994485107421875,-318.7745666503906,-33.8580322265625,116.35005187988281
1776020501821480200,7.004480224609375,-318.7588806152344,-34.12379455566406,116.25791931152344
1776020501831476200,7.014476318359375,-318.54559326171875,-34.0628662109375,116.47773742675781
1776020501841470200,7.02447021484375,-318.5486145019531,-34.15705871582031,116.694580078125
1776020501851465200,7.03446533203125,-318.03985595703125,-34.237396240234375,116.17170715332031
1776020501861461200,7.044461181640625,-317.9919128417969,-34.172607421875,116.39567565917969
1776020501871456300,7.054456298828125,-318.34478759765625,-33.93267822265625,116.29864501953125
1776020501881450200,7.0644501953125,-318.82708740234375,-33.79151916503906,116.43952941894531
1776020501891442200,7.074442138671875,-318.2107238769531,-34.406890869140625,116.27047729492188
1776020501901436200,7.084436279296875,-318.690185546875,-34.43611145019531,116.33526611328125
1776020501911429000,7.09442919921875,-318.60028076171875,-34.42320251464844,116.25022888183594
1776020501921423000,7.104423095703125,-317.9486083984375,-34.379180908203125,116.111572265625
1776020501931416300,7.114416259765625,-317.8267822265625,-34.68901062011719,116.25297546386719
1776020501941410300,7.124410400390625,-318.4583435058594,-34.46180725097656,116.40765380859375
1776020501951402200,7.13440234375,-318.1664733886719,-34.216888427734375,116.26463317871094
1776020501961396200,7.144396240234375,-318.4564208984375,-34.45527648925781,116.43954467773438
1776020501971391200,7.15439111328125,-318.57061767578125,-34.162445068359375,116.17869567871094
1776020501981385200,7.16438525390625,-318.22540283203125,-34.31166076660156,116.2177734375
1776020501991377200,7.174377197265625,-317.92529296875,-34.51597595214844,116.27195739746094
1776020502001371100,7.18437109375,-318.9901123046875,-34.51277160644531,116.14939880371094
1776020502011364000,7.194364013671875,-318.7496337890625,-34.48065185546875,116.16714477539062
1776020502021357300,7.204357421875,-318.59466552734375,-34.356781005859375,116.30580139160156
1776020502031351000,7.21435107421875,-318.96392822265625,-33.88493347167969,116.33831787109375
1776020502041346300,7.22434619140625,-318.6875305175781,-34.11163330078125,115.91453552246094
1776020502051339300,7.23433935546875,-318.3570556640625,-34.367523193359375,116.35707092285156
1776020502061333200,7.244333251953125,-318.3375549316406,-34.136260986328125,116.30415344238281
1776020502071327200,7.2543271484375,-318.9459533691406,-34.20170593261719,116.57536315917969
1776020502081324000,7.264323974609375,-318.0604553222656,-33.947662353515625,116.20787048339844
1776020502091319000,7.274319091796875,-318.75408935546875,-34.438507080078125,116.34852600097656
1776020502101314300,7.284314208984375,-318.8056945800781,-34.18505859375,116.25143432617188
1776020502111309300,7.294309326171875,-318.427001953125,-34.21632385253906,116.54469299316406
1776020502121304300,7.30430419921875,-318.82989501953125,-34.338348388671875,116.15031433105469
1776020502131299300,7.31429931640625,-318.49365234375,-34.430328369140625,116.15237426757812
1776020502141295000,7.324295166015625,-318.48919677734375,-34.38758850097656,116.48298645019531
1776020502151290000,7.3342900390625,-318.593994140625,-33.75743103027344,116.56402587890625
1776020502161285000,7.34428515625,-318.71527099609375,-34.052093505859375,116.39070129394531
1776020502171280100,7.354280029296875,-318.56439208984375,-33.95582580566406,116.72685241699219
1776020502181275100,7.364275146484375,-318.54302978515625,-34.164825439453125,116.628173828125
1776020502191270100,7.374270263671875,-318.58477783203125,-34.12213134765625,116.53880310058594
1776020502201265200,7.38426513671875,-318.1625671386719,-34.43421936035156,116.39772033691406
1776020502211260400,7.394260498046875,-318.2789001464844,-34.46629333496094,116.57466125488281
1776020502221253000,7.404253173828125,-318.60296630859375,-34.67901611328125,116.34654235839844
1776020502231246300,7.414246337890625,-318.1754150390625,-34.80975341796875,116.15640258789062
1776020502241239300,7.4242392578125,-318.0802307128906,-34.398101806640625,115.95857238769531
1776020502251232300,7.434232177734375,-318.1012268066406,-34.74726867675781,116.26347351074219
1776020502261224200,7.44422412109375,-318.2356262207031,-34.9110107421875,115.90908813476562
1776020502271217200,7.454217041015625,-317.83831787109375,-34.89118957519531,115.6722412109375
1776020502281210000,7.464210205078125,-318.0778503417969,-34.81927490234375,115.92185974121094
1776020502291204000,7.4742041015625,-318.26953125,-34.93235778808594,115.96951293945312
1776020502301198300,7.4841982421875,-317.8377685546875,-34.857208251953125,115.66502380371094
1776020502311190500,7.4941904296875,-317.50018310546875,-34.47941589355469,115.87814331054688
1776020502321184500,7.5041845703125,-318.263916015625,-34.738525390625,115.66122436523438
1776020502331178800,7.5141787109375,-317.8807373046875,-34.74501037597656,115.86871337890625
1776020502341172700,7.5241728515625,-317.88421630859375,-34.7506103515625,115.97517395019531
1776020502351165400,7.53416552734375,-317.9735107421875,-34.78611755371094,115.61834716796875
1776020502361158700,7.54415869140625,-318.0528564453125,-34.76080322265625,115.55340576171875
1776020502371150800,7.55415087890625,-318.185546875,-34.25880432128906,115.86991882324219
1776020502381144600,7.56414453125,-318.00634765625,-34.394866943359375,116.09471130371094
1776020502391137500,7.574137451171875,-317.59844970703125,-34.4901123046875,116.15863037109375
1776020502401132500,7.584132568359375,-318.00006103515625,-34.203094482421875,116.15093994140625
1776020502411126500,7.59412646484375,-318.0518798828125,-34.49798583984375,116.38140869140625
1776020502421120800,7.604120849609375,-317.9615478515625,-34.47850036621094,116.36373901367188
1776020502431115500,7.614115478515625,-318.0529479980469,-34.65303039550781,116.63340759277344
1776020502441109800,7.62410986328125,-318.27215576171875,-34.20646667480469,116.59744262695312
1776020502451102700,7.634102783203125,-318.1378173828125,-34.051025390625,116.41954040527344
1776020502461096400,7.644096435546875,-318.17877197265625,-34.12408447265625,116.679443359375
1776020502471089700,7.654089599609375,-319.02459716796875,-33.91859436035156,116.7681884765625
1776020502481082600,7.66408251953125,-318.7683410644531,-34.2747802734375,116.747802734375
1776020502491075600,7.67407568359375,-318.1911315917969,-34.52557373046875,116.47903442382812
1776020502501068500,7.684068603515625,-318.6916198730469,-33.94854736328125,116.46977233886719
1776020502511062500,7.6940625,-318.2388916015625,-34.56694030761719,116.32699584960938
1776020502521056800,7.704056884765625,-318.1438903808594,-34.379608154296875,116.37283325195312
1776020502531052500,7.714052490234375,-318.78228759765625,-34.45477294921875,116.60176086425781
1776020502541047600,7.724047607421875,-318.8199157714844,-34.40583801269531,116.43035888671875
1776020502551042600,7.73404248046875,-318.6124267578125,-34.32511901855469,116.56338500976562
1776020502561036500,7.74403662109375,-318.5276794433594,-34.64646911621094,116.543212890625
1776020502571031600,7.754031494140625,-318.3394775390625,-34.56153869628906,116.49708557128906
1776020502581027600,7.764027587890625,-318.72711181640625,-34.46942138671875,116.39488220214844
1776020502591021600,7.774021484375,-318.9656677246094,-34.319488525390625,116.13714599609375
1776020502601016600,7.7840166015625,-319.371826171875,-34.16639709472656,116.74212646484375
1776020502611010600,7.794010498046875,-318.51983642578125,-33.99700927734375,116.47747802734375
1776020502621004500,7.804004638671875,-318.1640625,-34.5899658203125,116.39039611816406
1776020502630998500,7.81399853515625,-318.41632080078125,-34.71388244628906,116.36306762695312
1776020502640992800,7.82399267578125,-318.593505859375,-34.415924072265625,116.21279907226562
1776020502650985700,7.83398583984375,-318.24298095703125,-34.47174072265625,116.35493469238281
1776020502660979500,7.8439794921875,-318.40191650390625,-34.51832580566406,116.2603759765625
1776020502670972700,7.85397265625,-318.94970703125,-34.84928894042969,116.29182434082031
1776020502680965600,7.863965576171875,-318.6092529296875,-34.59751892089844,116.42378234863281
1776020502690958600,7.87395849609375,-318.62823486328125,-34.957122802734375,116.10372924804688
1776020502700951600,7.88395166015625,-318.93377685546875,-34.78509521484375,116.18113708496094
1776020502710945500,7.893945556640625,-318.2120666503906,-35.023681640625,116.060546875
1776020502720938800,7.903938720703125,-318.76544189453125,-35.03541564941406,115.93228149414062
1776020502730931500,7.913931396484375,-318.2552490234375,-35.05308532714844,115.96261596679688
1776020502740923600,7.923923583984375,-318.519775390625,-35.2313232421875,116.05279541015625
1776020502750917600,7.933917724609375,-318.9410095214844,-35.103668212890625,115.95628356933594
1776020502760910600,7.94391064453125,-318.8450927734375,-35.013092041015625,115.87640380859375
1776020502770903600,7.953903564453125,-318.7087707519531,-35.40483093261719,115.72328186035156
1776020502780897500,7.9638974609375,-318.58831787109375,-35.32722473144531,115.69978332519531
1776020502790891500,7.9738916015625,-318.5196838378906,-35.233306884765625,115.84841918945312
1776020502800885800,7.9838857421875,-318.77801513671875,-35.36607360839844,116.01046752929688
1776020502810880800,7.993880859375,-318.5121765136719,-35.12849426269531,116.17601013183594
1776020502820873500,8.00387353515625,-319.1620788574219,-35.46675109863281,116.37077331542969
1776020502830866700,8.01386669921875,-318.2993469238281,-35.82524108886719,116.14381408691406
1776020502840859600,8.023859619140625,-318.06048583984375,-35.37889099121094,116.32498168945312
1776020502850852600,8.0338525390625,-318.9547119140625,-35.27491760253906,116.33457946777344
1776020502860845600,8.043845458984375,-318.75018310546875,-35.130950927734375,116.29782104492188
1776020502870838500,8.053838623046875,-319.44342041015625,-35.29988098144531,116.08103942871094
1776020502880833500,8.06383349609375,-318.7453918457031,-35.46473693847656,116.29269409179688
1776020502890826800,8.07382666015625,-319.1036376953125,-35.6116943359375,116.2152099609375
1776020502900820700,8.08382080078125,-319.01751708984375,-35.79490661621094,116.34208679199219
1776020502910813700,8.093813720703125,-319.39105224609375,-35.69709777832031,116.35598754882812
1776020502920807700,8.1038076171875,-319.26788330078125,-35.50299072265625,115.9659423828125
1776020502930801700,8.1138017578125,-319.17388916015625,-35.9989013671875,115.98724365234375
1776020502940794600,8.123794677734375,-318.802490234375,-35.67478942871094,116.13919067382812
1776020502950789600,8.13378955078125,-318.96136474609375,-35.99201965332031,116.0203857421875
1776020502960784600,8.14378466796875,-318.8262939453125,-35.73956298828125,115.98603820800781
1776020502970778600,8.153778564453125,-318.75494384765625,-35.71270751953125,115.97808837890625
1776020502980772600,8.163772705078125,-318.67132568359375,-35.64726257324219,115.83763122558594
1776020502990766600,8.1737666015625,-318.9238586425781,-35.5101318359375,115.95205688476562
1776020503000760600,8.183760498046874,-318.57672119140625,-35.83447265625,116.09379577636719
1776020503010756600,8.193756591796875,-318.662353515625,-35.47447204589844,116.14212036132812
1776020503020750600,8.20375048828125,-319.18780517578125,-35.54139709472656,116.04469299316406
1776020503030744600,8.21374462890625,-319.0709533691406,-35.84239196777344,116.18174743652344
1776020503040739600,8.223739501953125,-318.8000183105469,-35.71562194824219,116.23564147949219
1776020503050734600,8.233734619140625,-318.245849609375,-35.74699401855469,116.04460144042969
1776020503060728600,8.243728515625,-318.92401123046875,-35.846221923828125,116.28666687011719
1776020503070722600,8.25372265625,-319.14501953125,-35.6546630859375,116.34016418457031
1776020503080716500,8.263716552734374,-319.10504150390625,-35.69842529296875,116.10357666015625
1776020503090711600,8.273711669921875,-318.79791259765625,-35.793243408203125,115.914794921875
1776020503100705500,8.28370556640625,-319.45343017578125,-35.80865478515625,115.86172485351562
1776020503110698800,8.29369873046875,-319.4581298828125,-35.808349609375,116.36248779296875
1776020503120691500,8.30369140625,-319.1142578125,-35.67283630371094,116.10829162597656
1776020503130684700,8.3136845703125,-319.1083068847656,-35.804595947265625,115.89923095703125
1776020503140678700,8.3236787109375,-318.8262634277344,-35.92045593261719,116.05087280273438
1776020503150672600,8.333672607421875,-318.77178955078125,-35.6634521484375,115.96104431152344
1776020503160665600,8.34366552734375,-319.3394775390625,-35.88148498535156,115.89657592773438
1776020503170660600,8.35366064453125,-318.9598388671875,-35.74443054199219,115.92578125
1776020503180654600,8.363654541015626,-319.28790283203125,-35.85279846191406,115.86296081542969
1776020503190648600,8.373648681640624,-319.1668701171875,-35.29486083984375,115.57966613769531
1776020503200641500,8.3836416015625,-319.3747253417969,-35.99603271484375,116.35520935058594
1776020503210636500,8.393636474609375,-319.3824462890625,-35.96995544433594,116.09585571289062
1776020503220631600,8.403631591796875,-319.7195739746094,-36.09471130371094,116.05033874511719
1776020503230626600,8.41362646484375,-319.56109619140625,-35.747344970703125,115.89082336425781
1776020503240622600,8.42362255859375,-319.55865478515625,-35.419403076171875,115.94886779785156
1776020503250618600,8.43361865234375,-319.36749267578125,-36.27656555175781,116.10118103027344
1776020503260612600,8.443612548828124,-318.9231872558594,-36.136505126953125,115.69390869140625
1776020503270607600,8.453607666015625,-319.78692626953125,-35.85478210449219,115.78970336914062
1776020503280602600,8.4636025390625,-319.3552551269531,-36.142333984375,115.64137268066406
1776020503290598700,8.4735986328125,-318.9784851074219,-36.11894226074219,115.57705688476562
1776020503300593700,8.48359375,-319.603759765625,-36.230987548828125,115.52227783203125
1776020503310589700,8.493589599609376,-319.13970947265625,-36.06805419921875,115.38760375976562
1776020503320583700,8.503583740234374,-318.7549743652344,-36.06414794921875,115.38841247558594
1776020503330576600,8.51357666015625,-319.08966064453125,-35.87971496582031,115.43455505371094
1776020503340571600,8.523571533203125,-319.1583557128906,-36.220703125,115.53337097167969
1776020503350566700,8.533566650390625,-319.1280517578125,-36.32383728027344,115.53372192382812
1776020503360563700,8.543563720703125,-319.2247619628906,-36.28080749511719,115.61238098144531
1776020503370559700,8.553559814453125,-319.4083251953125,-36.292724609375,115.65284729003906
1776020503380552700,8.563552734375,-319.14593505859375,-36.32054138183594,115.28178405761719
1776020503390547700,8.573547607421874,-319.7413330078125,-36.26263427734375,115.28729248046875
1776020503400543700,8.583543701171875,-319.7298583984375,-36.33287048339844,115.1884765625
1776020503410537700,8.593537841796875,-319.2087707519531,-36.53855895996094,114.8446044921875
1776020503420532700,8.60353271484375,-319.21142578125,-36.3101806640625,114.83328247070312
1776020503430526700,8.613526611328124,-318.79937744140625,-36.68428039550781,115.37887573242188
1776020503440521700,8.623521728515625,-319.3221435546875,-36.31394958496094,115.14443969726562
1776020503450517800,8.633517822265626,-319.27691650390625,-36.54789733886719,115.25251770019531
1776020503460513500,8.643513427734375,-318.8542175292969,-36.799713134765625,115.20919799804688
1776020503470509800,8.653509765625,-319.318115234375,-36.89384460449219,115.330810546875
1776020503480505600,8.663505615234374,-319.93743896484375,-37.00981140136719,114.97807312011719
1776020503490503700,8.673503662109376,-319.13201904296875,-36.79490661621094,115.18740844726562
1776020503500499700,8.683499755859375,-319.80267333984375,-36.646087646484375,115.25596618652344
1776020503510495700,8.693495849609375,-319.26788330078125,-36.70320129394531,115.55938720703125
1776020503520491500,8.703491455078124,-319.15386962890625,-36.88768005371094,115.15480041503906
1776020503530487800,8.71348779296875,-319.3116149902344,-36.944366455078125,115.38604736328125
1776020503540483800,8.72348388671875,-319.2422180175781,-36.90455627441406,115.05160522460938
1776020503550479600,8.733479736328125,-319.2340393066406,-36.648193359375,115.19352722167969
1776020503560476700,8.7434765625,-319.34320068359375,-36.87007141113281,115.08131408691406
1776020503570471700,8.7534716796875,-319.3653564453125,-36.96556091308594,115.12228393554688
1776020503580467700,8.7634677734375,-319.3409729003906,-37.01823425292969,115.35214233398438
1776020503590464500,8.773464599609374,-319.4915466308594,-36.63258361816406,115.23030090332031
1776020503600461800,8.7834619140625,-319.1781311035156,-36.64520263671875,115.5772705078125
1776020503610458600,8.793458740234374,-320.00079345703125,-36.61152648925781,115.49424743652344
1776020503620455000,8.803454833984375,-319.44927978515625,-36.9393310546875,115.52027893066406
1776020503630449700,8.81344970703125,-319.2326965332031,-37.15534973144531,115.04670715332031
1776020503640444700,8.823444580078124,-319.5741882324219,-36.85420227050781,115.30412292480469
1776020503650441700,8.833441650390625,-319.2481689453125,-36.8062744140625,115.43092346191406
1776020503660436700,8.843436767578124,-319.4947509765625,-36.88020324707031,115.32565307617188
1776020503670433800,8.853433837890625,-318.7429504394531,-36.665496826171875,115.3128662109375
1776020503680427800,8.863427734375,-319.5506896972656,-36.66633605957031,115.30509948730469
1776020503690423800,8.873423828125,-319.5908203125,-36.73542785644531,115.35150146484375
1776020503700419600,8.883419677734375,-319.3171081542969,-36.77485656738281,115.19496154785156
1776020503710413600,8.89341357421875,-319.22564697265625,-37.08650207519531,115.22662353515625
1776020503720408600,8.90340869140625,-319.3974609375,-36.99188232421875,114.95428466796875
1776020503730403600,8.913403564453125,-319.41265869140625,-36.967041015625,115.17910766601562
1776020503740398600,8.923398681640625,-319.244873046875,-37.18348693847656,115.09315490722656
1776020503750395600,8.933395751953125,-319.7821960449219,-37.48182678222656,115.21870422363281
1776020503760391700,8.9433916015625,-318.91033935546875,-37.43601989746094,114.82392883300781
1776020503770387700,8.9533876953125,-319.6372375488281,-37.45924377441406,115.12037658691406
1776020503780382700,8.9633828125,-319.7451171875,-37.329681396484375,115.16926574707031
1776020503790376700,8.973376708984375,-319.36517333984375,-37.47088623046875,115.43524169921875
1776020503800371700,8.983371826171876,-320.21136474609375,-37.081512451171875,115.32923889160156
1776020503810367500,8.993367431640625,-319.22320556640625,-37.11578369140625,115.03871154785156
1776020503820362800,9.00336279296875,-319.82818603515625,-37.33583068847656,115.46308898925781
1776020503830358800,9.01335888671875,-319.42919921875,-37.24446105957031,115.470947265625
1776020503840355600,9.02335546875,-319.75238037109375,-37.32456970214844,115.447021484375
1776020503850351900,9.033351806640624,-319.8409423828125,-37.172576904296875,115.39518737792969
1776020503860347000,9.043346923828125,-319.6236267089844,-37.57569885253906,115.32771301269531
1776020503870343700,9.05334375,-319.3091735839844,-37.23057556152344,115.08200073242188
1776020503880339700,9.063339599609375,-319.7469482421875,-37.12376403808594,114.98527526855469
1776020503890335700,9.073335693359375,-319.82940673828125,-36.87931823730469,115.30706787109375
1776020503900330800,9.083330810546874,-319.2243957519531,-37.34068298339844,114.98622131347656
1776020503910325800,9.09332568359375,-319.938720703125,-37.277099609375,115.35096740722656
1776020503920319700,9.10331982421875,-319.131103515625,-37.29277038574219,115.14744567871094
1776020503930313500,9.1133134765625,-319.176513671875,-37.29924011230469,115.33576965332031
1776020503940307700,9.1233076171875,-319.1597900390625,-37.29121398925781,115.25384521484375
1776020503950302700,9.133302734375,-319.64263916015625,-37.46881103515625,115.40463256835938
1776020503960296700,9.143296630859375,-319.45562744140625,-37.344146728515625,115.36180114746094
1776020503970289700,9.15328955078125,-319.25384521484375,-37.51084899902344,115.2808837890625
1776020503980284700,9.16328466796875,-319.4288635253906,-37.24168395996094,115.25257873535156
1776020503990278700,9.173278564453126,-319.66021728515625,-37.18254089355469,115.26638793945312
1776020504000273700,9.183273681640625,-319.7731018066406,-37.198486328125,115.35078430175781
1776020504010269700,9.193269775390625,-319.79241943359375,-37.19184875488281,115.67829895019531
1776020504020264700,9.2032646484375,-319.4020690917969,-37.23419189453125,115.33572387695312
1776020504030258700,9.2132587890625,-319.3909912109375,-37.300872802734375,115.30827331542969
1776020504040254700,9.223254638671875,-319.7384338378906,-37.13618469238281,115.00704956054688
1776020504050250800,9.233250732421874,-318.8592834472656,-37.13722229003906,115.36054992675781
1776020504060246800,9.243246826171875,-319.39898681640625,-37.09828186035156,115.34315490722656
1776020504070242600,9.25324267578125,-319.7996826171875,-37.273345947265625,115.26655578613281
1776020504080239900,9.263239990234375,-319.77825927734375,-36.99827575683594,115.31491088867188
1776020504090235600,9.273235595703126,-319.3050231933594,-37.2479248046875,115.27468872070312
1776020504100231700,9.283231689453125,-319.0138854980469,-37.14398193359375,115.21022033691406
1776020504110228700,9.293228759765626,-319.2083740234375,-37.310028076171875,115.53179931640625
1776020504120226600,9.3032265625,-319.182373046875,-36.83331298828125,115.32661437988281
1776020504130223900,9.313223876953124,-319.32147216796875,-37.07275390625,115.55470275878906
1776020504140220700,9.323220703125,-319.24603271484375,-36.81121826171875,115.37324523925781
1776020504150216700,9.333216796875,-319.2281494140625,-37.14900207519531,115.5899658203125
1776020504160213800,9.3432138671875,-319.15155029296875,-37.30128479003906,115.63650512695312
1776020504170209500,9.35320947265625,-319.55157470703125,-37.15309143066406,115.5810546875
1776020504180206800,9.363206787109375,-319.9897155761719,-37.071624755859375,115.7154541015625
1776020504190203600,9.37320361328125,-318.9689636230469,-36.77337646484375,115.72163391113281
1776020504200200700,9.38320068359375,-319.1873474121094,-36.9232177734375,115.65104675292969
1776020504210196700,9.39319677734375,-318.8583984375,-37.19474792480469,115.71627807617188
1776020504220193500,9.403193603515625,-319.40887451171875,-37.06901550292969,116.02259826660156
1776020504230188500,9.4131884765625,-319.563232421875,-36.9217529296875,115.91465759277344
1776020504240184800,9.423184814453125,-319.14398193359375,-37.14625549316406,115.72061157226562
1776020504250180600,9.4331806640625,-319.6087951660156,-37.295318603515625,115.66119384765625
1776020504260176600,9.4431767578125,-318.6797790527344,-36.967041015625,115.56280517578125
1776020504270172700,9.453172607421875,-318.8838195800781,-36.7333984375,116.00538635253906
1776020504280166700,9.463166748046875,-318.8316650390625,-36.92387390136719,115.91127014160156
1776020504290162700,9.47316259765625,-319.04754638671875,-36.92805480957031,115.94003295898438
1776020504300157700,9.48315771484375,-318.9798583984375,-36.98420715332031,115.8797607421875
1776020504310152700,9.493152587890625,-319.3866271972656,-36.62261962890625,115.93101501464844
1776020504320147000,9.50314697265625,-319.45123291015625,-37.00404357910156,116.06886291503906
1776020504330142000,9.513141845703124,-319.19146728515625,-37.01374816894531,115.93942260742188
1776020504340137000,9.523136962890625,-319.4328918457031,-36.90385437011719,115.70478820800781
1776020504350132000,9.533132080078126,-318.61871337890625,-37.25030517578125,115.74005126953125
1776020504360127000,9.543126953125,-319.15936279296875,-37.188446044921875,115.83364868164062
1776020504370122000,9.5531220703125,-319.2432861328125,-36.783050537109375,116.07139587402344
1776020504380115000,9.563114990234375,-319.3557434082031,-36.81178283691406,115.94068908691406
1776020504390109200,9.573109130859375,-318.80548095703125,-36.81800842285156,116.27742004394531
1776020504400104000,9.58310400390625,-319.6524658203125,-36.63911437988281,116.15304565429688
1776020504410099000,9.593098876953125,-319.3357849121094,-36.9017333984375,115.8916015625
1776020504420094000,9.603093994140625,-319.07830810546875,-36.853271484375,116.02116394042969
1776020504430089000,9.6130888671875,-318.8520202636719,-36.82939147949219,115.95793151855469
1776020504440083000,9.6230830078125,-319.23187255859375,-36.652862548828125,116.08030700683594
1776020504450077200,9.6330771484375,-318.5999755859375,-36.59515380859375,115.94578552246094
1776020504460071000,9.64307080078125,-319.0682678222656,-36.390655517578125,116.13668823242188
1776020504470066000,9.65306591796875,-319.19207763671875,-36.23274230957031,116.03822326660156
1776020504480061000,9.66306103515625,-319.3580322265625,-36.74717712402344,115.67373657226562
1776020504490056000,9.673055908203125,-319.36688232421875,-36.73944091796875,116.04302978515625
1776020504500052000,9.683052001953126,-318.85467529296875,-36.600006103515625,115.70501708984375
1776020504510046000,9.6930458984375,-319.0760498046875,-36.625274658203125,115.87474060058594
1776020504520042000,9.7030419921875,-319.35675048828125,-36.725433349609375,115.93614196777344
1776020504530037800,9.713037841796876,-318.72821044921875,-36.66777038574219,115.8486328125
1776020504540034000,9.723033935546875,-319.3701171875,-36.6112060546875,115.76300048828125
1776020504550029000,9.733029052734375,-319.17926025390625,-36.953948974609375,115.78245544433594
1776020504560024000,9.743024169921876,-319.300048828125,-37.13398742675781,115.77998352050781
1776020504570019000,9.75301904296875,-319.1678161621094,-36.615936279296875,115.70420837402344
1776020504580014800,9.763014892578125,-319.1719970703125,-36.98486328125,115.73117065429688
1776020504590009900,9.773009765625,-319.5455322265625,-37.16131591796875,115.68887329101562
1776020504600006000,9.783005859375,-319.13104248046875,-36.62788391113281,115.48013305664062
1776020504610001000,9.7930009765625,-319.735107421875,-36.71122741699219,115.68814086914062
1776020504619997000,9.802996826171874,-319.4117431640625,-36.70692443847656,115.42282104492188
1776020504629994000,9.812993896484375,-318.89605712890625,-37.091888427734375,115.5435791015625
1776020504639989000,9.822989013671876,-318.65582275390625,-36.85052490234375,115.19895935058594
1776020504649984000,9.83298388671875,-319.3745422363281,-37.00523376464844,115.38418579101562
1776020504659980000,9.84297998046875,-319.62640380859375,-36.69148254394531,115.43751525878906
1776020504669975000,9.85297509765625,-319.708251953125,-37.11564636230469,115.47706604003906
1776020504679970000,9.862969970703125,-319.0674133300781,-36.81480407714844,115.7476806640625
1776020504689964000,9.872964111328125,-319.04888916015625,-36.723724365234375,115.96076965332031
1776020504699959000,9.882958984375,-319.2592468261719,-36.65327453613281,115.61875915527344
1776020504709955000,9.892955078125,-319.78839111328125,-36.70979309082031,115.67021179199219
1776020504719950800,9.902950927734375,-318.9932861328125,-36.99462890625,115.80453491210938
1776020504729948200,9.9129482421875,-319.17572021484375,-37.14039611816406,116.03407287597656
1776020504739945000,9.922945068359375,-318.7706298828125,-36.80485534667969,116.04843139648438
1776020504749941000,9.93294091796875,-319.44891357421875,-36.62687683105469,115.78984069824219
1776020504759935700,9.942935791015625,-319.1492919921875,-37.15394592285156,115.88995361328125
1776020504769932000,9.95293212890625,-319.13232421875,-36.88533020019531,115.75006103515625
1776020504779927000,9.962927001953124,-319.1872253417969,-36.78857421875,115.65330505371094
1776020504789923000,9.972923095703125,-319.009765625,-36.9368896484375,115.37696838378906
1776020504799918800,9.9829189453125,-318.78497314453125,-36.62940979003906,115.55160522460938
1776020504809913900,9.992913818359375,-319.63092041015625,-36.63844299316406,115.73388671875
1776020504819910100,10.00291015625,-319.43377685546875,-37.0255126953125,115.56344604492188
1776020504829905200,10.0129052734375,-319.2161865234375,-36.825408935546875,115.66435241699219
1776020504839900000,10.02289990234375,-319.73138427734375,-36.73838806152344,115.35847473144531
1776020504849895000,10.03289501953125,-319.35162353515625,-37.1824951171875,115.72032165527344
1776020504859890000,10.042889892578126,-319.2620544433594,-37.11445617675781,115.72854614257812
1776020504869885000,10.052885009765625,-319.32415771484375,-37.064544677734375,115.64631652832031
1776020504879879000,10.06287890625,-319.5571594238281,-37.18470764160156,115.440673828125
1776020504889873200,10.072873046875,-320.05450439453125,-36.502716064453125,115.65338134765625
1776020504899867100,10.0828671875,-319.4666442871094,-37.129058837890625,115.73565673828125
1776020504909862100,10.092862060546874,-319.3555908203125,-37.223358154296875,115.661865234375
1776020504919857200,10.102857177734375,-319.62139892578125,-37.20631408691406,115.96548461914062
1776020504929851100,10.11285107421875,-319.59130859375,-37.1368408203125,115.573486328125
1776020504939844900,10.122844970703126,-319.43670654296875,-37.08088684082031,115.7060546875
1776020504949837800,10.132837890625,-319.4944763183594,-36.782928466796875,115.76234436035156
1776020504959832800,10.142832763671874,-319.809814453125,-36.94825744628906,115.9554443359375
1776020504969828900,10.152828857421875,-319.81524658203125,-36.747406005859375,115.99604797363281
1776020504979822800,10.16282275390625,-319.39898681640625,-37.18571472167969,115.83061218261719
1776020504989816800,10.17281689453125,-319.69580078125,-36.68145751953125,115.85415649414062
1776020504999811800,10.182811767578125,-319.95697021484375,-36.82667541503906,115.68038940429688
1776020505009805800,10.192805908203125,-319.7845458984375,-36.80836486816406,115.56887817382812
1776020505019800800,10.20280078125,-319.6812744140625,-36.6171875,115.72833251953125
1776020505029795800,10.2127958984375,-319.9917907714844,-36.31401062011719,115.92845153808594
1776020505039789800,10.222789794921875,-320.453125,-36.60249328613281,115.80683898925781
1776020505049784000,10.2327841796875,-320.1808166503906,-36.64332580566406,115.68453979492188
1776020505059779800,10.24277978515625,-319.62115478515625,-37.16656494140625,115.98542785644531
1776020505069773800,10.25277392578125,-319.73492431640625,-36.84757995605469,115.70701599121094
1776020505079768000,10.26276806640625,-318.9747314453125,-36.858734130859375,116.01972961425781
1776020505089762000,10.272761962890625,-319.4166259765625,-37.05299377441406,115.78292846679688
1776020505099757000,10.282757080078126,-319.78216552734375,-37.19532775878906,115.51197814941406
1776020505109751000,10.2927509765625,-319.09747314453125,-37.08189392089844,115.45379638671875
1776020505119744000,10.302743896484374,-319.6388854980469,-36.70616149902344,115.76962280273438
1776020505129739000,10.312739013671875,-319.2529296875,-37.057891845703125,115.53001403808594
1776020505139732700,10.322732666015625,-319.8135681152344,-36.747894287109375,115.62623596191406
1776020505149726000,10.332725830078125,-319.6657409667969,-36.79290771484375,115.478759765625
1776020505159721000,10.342720947265626,-320.2880554199219,-36.66413879394531,115.25588989257812
1776020505169714000,10.3527138671875,-319.9656066894531,-36.516021728515625,115.57376098632812
1776020505179705900,10.362705810546874,-319.49212646484375,-36.77931213378906,115.80233764648438
1776020505189699800,10.372699951171874,-319.2297668457031,-36.77253723144531,115.58003234863281
1776020505199693000,10.382693115234375,-319.70989990234375,-36.85258483886719,115.79154968261719
1776020505209686000,10.39268603515625,-319.6338195800781,-36.76762390136719,116.04483032226562
1776020505219679000,10.402678955078125,-319.119140625,-36.727752685546875,115.73367309570312
1776020505229673000,10.4126728515625,-319.79827880859375,-36.6849365234375,115.8331298828125
1776020505239666000,10.422666015625,-319.789306640625,-36.46110534667969,115.86076354980469
1776020505249660000,10.432659912109376,-319.6809387207031,-36.524200439453125,115.89529418945312
1776020505259651000,10.442651123046875,-319.79046630859375,-36.50602722167969,115.68879699707031
1776020505269644000,10.45264404296875,-319.76177978515625,-36.28753662109375,115.86709594726562
1776020505279636700,10.46263671875,-319.8599853515625,-36.4449462890625,116.14521789550781
1776020505289630000,10.4726298828125,-320.26959228515625,-36.8004150390625,115.91618347167969
1776020505299622100,10.4826220703125,-319.6959533691406,-36.47857666015625,115.91145324707031
1776020505309615900,10.492615966796874,-319.43695068359375,-36.35321044921875,115.89118957519531
1776020505319607600,10.502607666015624,-319.34063720703125,-36.4776611328125,115.66598510742188
1776020505329600300,10.512600341796874,-319.6976623535156,-36.646636962890625,115.65715026855469
1776020505339594200,10.52259423828125,-319.93292236328125,-36.32566833496094,115.65776062011719
1776020505349588500,10.53258837890625,-319.4314270019531,-36.69917297363281,115.35232543945312
1776020505359581400,10.54258154296875,-319.93865966796875,-36.42674255371094,115.92752075195312
1776020505369575400,10.552575439453125,-319.5655822753906,-36.63221740722656,115.98355102539062
1776020505379570400,10.5625703125,-319.32830810546875,-36.56207275390625,115.87982177734375
1776020505389564400,10.572564453125,-319.386474609375,-36.59373474121094,116.01356506347656
1776020505399557400,10.582557373046875,-319.4654846191406,-36.6453857421875,115.90940856933594
1776020505409551400,10.59255126953125,-319.47442626953125,-36.43415832519531,115.66641235351562
1776020505419545300,10.60254541015625,-319.62152099609375,-36.545562744140625,115.79393005371094
1776020505429538600,10.61253857421875,-319.94677734375,-36.51666259765625,115.78239440917969
1776020505439533600,10.622533447265624,-319.8103332519531,-36.79156494140625,115.5189208984375
1776020505449527600,10.632527587890625,-318.84539794921875,-36.909881591796875,115.72506713867188
1776020505459519500,10.64251953125,-319.12176513671875,-36.615753173828125,115.96791076660156
1776020505469513500,10.652513427734375,-319.52606201171875,-36.54756164550781,115.80253601074219
1776020505479507500,10.662507568359375,-319.3811950683594,-36.61952209472656,115.75698852539062
1776020505489500400,10.67250048828125,-318.7860107421875,-36.82305908203125,115.45849609375
1776020505499493400,10.682493408203126,-319.7598876953125,-36.45599365234375,115.48249816894531
1776020505509487400,10.6924873046875,-319.697265625,-36.74772644042969,115.66731262207031
1776020505519481300,10.7024814453125,-319.3614501953125,-36.86297607421875,116.06025695800781
1776020505529475300,10.712475341796875,-319.56622314453125,-36.37187194824219,115.53425598144531
1776020505539469600,10.722469482421875,-318.5771484375,-36.17851257324219,115.52426147460938
1776020505549464600,10.732464599609376,-319.15802001953125,-36.568878173828125,115.35179138183594
1776020505559458600,10.74245849609375,-318.7795715332031,-36.5118408203125,115.67683410644531
1776020505569452500,10.75245263671875,-319.17669677734375,-36.80877685546875,115.66650390625
1776020505579447600,10.762447509765625,-319.1321716308594,-36.89955139160156,115.64639282226562
1776020505589441500,10.772441650390626,-319.2531433105469,-36.655975341796875,115.53541564941406
1776020505599436500,10.7824365234375,-319.5841064453125,-37.027801513671875,115.44180297851562
1776020505609429200,10.79242919921875,-319.4267883300781,-36.880889892578125,115.58198547363281
1776020505619422500,10.80242236328125,-318.93927001953125,-37.478729248046875,115.3482666015625
1776020505629417500,10.81241748046875,-319.41802978515625,-37.150115966796875,115.14897155761719
1776020505639412500,10.82241259765625,-318.979248046875,-37.19508361816406,114.91670227050781
1776020505649406500,10.832406494140624,-319.4891052246094,-37.21501159667969,115.00387573242188
1776020505659400400,10.842400390625,-319.15618896484375,-37.079071044921875,115.12300109863281
1776020505669396500,10.852396484375,-319.07366943359375,-37.15496826171875,114.97703552246094
1776020505679391500,10.8623916015625,-319.3965148925781,-37.39515686035156,114.92720031738281
1776020505689386200,10.87238623046875,-319.3624267578125,-37.490570068359375,115.13870239257812
1776020505699380500,10.88238037109375,-319.96722412109375,-37.29376220703125,114.94102478027344
1776020505709375500,10.89237548828125,-319.30462646484375,-37.52317810058594,114.99407958984375
1776020505719370200,10.902370361328124,-319.6001892089844,-37.26676940917969,114.53315734863281
1776020505729364500,10.912364501953125,-318.64727783203125,-37.21894836425781,114.60630798339844
1776020505739358500,10.9223583984375,-319.25384521484375,-37.59562683105469,114.57415771484375
1776020505749353500,10.932353515625,-318.9421691894531,-37.455108642578125,114.39140319824219
1776020505759347500,10.942347412109376,-319.01873779296875,-37.42317199707031,114.11637878417969
1776020505769341400,10.952341552734374,-318.7179870605469,-37.43336486816406,114.25755310058594
1776020505779336400,10.96233642578125,-319.29254150390625,-37.528839111328125,114.28326416015625
1776020505789332500,10.97233251953125,-318.66864013671875,-37.22395324707031,114.42593383789062
1776020505799327500,10.982327392578124,-319.0840148925781,-37.09661865234375,114.44673156738281
1776020505809321500,10.992321533203125,-319.15106201171875,-37.27989196777344,114.54107666015625
1776020505819315500,11.0023154296875,-318.78936767578125,-37.089508056640625,114.50967407226562
1776020505829309400,11.012309326171875,-319.4022216796875,-37.12290954589844,114.40370178222656
1776020505839304400,11.022304443359374,-319.3701477050781,-37.06982421875,114.64677429199219
1776020505849300500,11.032300537109375,-319.06756591796875,-37.219329833984375,114.71623229980469
1776020505859295500,11.04229541015625,-319.016845703125,-37.20292663574219,114.9107666015625
1776020505869291500,11.05229150390625,-319.2865905761719,-36.533905029296875,114.98390197753906
1776020505879287600,11.06228759765625,-319.2967834472656,-36.69915771484375,115.19587707519531
1776020505889283300,11.072283447265624,-319.578125,-36.812164306640625,115.36961364746094
1776020505899278300,11.0822783203125,-319.3450012207031,-36.20429992675781,114.95445251464844
1776020505909274400,11.0922744140625,-319.74078369140625,-36.39445495605469,114.88714599609375
1776020505919269600,11.10226953125,-319.71490478515625,-36.26548767089844,114.90025329589844
1776020505929264600,11.1122646484375,-319.46197509765625,-36.29634094238281,114.68687438964844
1776020505939259600,11.122259765625,-319.88189697265625,-36.53962707519531,114.94477844238281
1776020505949254400,11.13225439453125,-318.65350341796875,-36.44755554199219,114.666015625
1776020505959250400,11.14225048828125,-319.85943603515625,-36.296600341796875,114.54707336425781
1776020505969244400,11.152244384765625,-319.84576416015625,-36.53340148925781,114.71229553222656
1776020505979238400,11.16223828125,-319.9337158203125,-36.23301696777344,114.80894470214844
1776020505989234400,11.172234375,-319.15362548828125,-36.38389587402344,114.93008422851562
1776020505999229400,11.1822294921875,-319.7789306640625,-35.95820617675781,114.89532470703125
1776020506009223400,11.192223388671875,-319.30291748046875,-36.287689208984375,114.82833862304688
1776020506019219500,11.202219482421874,-319.5431823730469,-35.84660339355469,114.78919982910156
1776020506029215200,11.21221533203125,-319.30279541015625,-36.08807373046875,114.91011047363281
1776020506039210500,11.22221044921875,-319.87689208984375,-36.76518249511719,115.53224182128906
1776020506049206500,11.23220654296875,-320.9731750488281,-37.51356506347656,117.00857543945312
1776020506059202600,11.24220263671875,-320.63067626953125,-36.74615478515625,116.60354614257812
1776020506069199600,11.25219970703125,-320.2937927246094,-37.107513427734375,115.75813293457031
1776020506079195400,11.2621953125,-320.20916748046875,-36.78504943847656,115.75559997558594
1776020506089190400,11.2721904296875,-320.10394287109375,-36.53834533691406,115.34591674804688
1776020506099184600,11.2821845703125,-320.0821533203125,-36.323486328125,114.50650024414062
1776020506109179400,11.292179443359375,-320.33123779296875,-35.913421630859375,114.53607177734375
1776020506119175400,11.302175537109376,-320.4677429199219,-36.5416259765625,113.54144287109375
1776020506129172500,11.31217236328125,-320.09027099609375,-37.414703369140625,112.96798706054688
1776020506139169500,11.32216943359375,-319.16326904296875,-38.325347900390625,112.82301330566406
1776020506149166300,11.332166259765625,-319.6484069824219,-39.036895751953125,113.17361450195312
1776020506159162600,11.34216259765625,-320.0054931640625,-38.29071044921875,113.84394836425781
1776020506169158400,11.352158447265625,-320.00634765625,-37.51667785644531,114.39088439941406
1776020506179153400,11.3621533203125,-319.687255859375,-36.89125061035156,114.85284423828125
1776020506189149400,11.3721494140625,-320.04376220703125,-36.418670654296875,114.3353271484375
1776020506199145500,11.3821455078125,-319.29296875,-36.31123352050781,114.54847717285156
1776020506209139500,11.392139404296875,-319.88092041015625,-36.667083740234375,114.31965637207031
1776020506219134500,11.402134521484374,-319.19757080078125,-36.96867370605469,113.74748229980469
1776020506229127400,11.41212744140625,-318.66461181640625,-37.59779357910156,113.94483947753906
1776020506239120400,11.422120361328124,-319.4308166503906,-37.39508056640625,113.56619262695312
1776020506249114600,11.432114501953125,-318.79815673828125,-37.78086853027344,113.54937744140625
1776020506259110400,11.4421103515625,-318.84417724609375,-37.833892822265625,113.16322326660156
1776020506269104400,11.4521044921875,-319.0651550292969,-37.44145202636719,112.84085083007812
1776020506279100400,11.462100341796875,-319.0464172363281,-37.1666259765625,112.85032653808594
1776020506289097500,11.472097412109376,-318.224609375,-37.435089111328125,112.54322814941406
1776020506299094500,11.482094482421875,-318.43768310546875,-37.34260559082031,112.10797119140625
1776020506309090300,11.49209033203125,-318.10491943359375,-37.572967529296875,111.90406799316406
1776020506319086300,11.50208642578125,-317.9563293457031,-38.044342041015625,111.63046264648438
1776020506329080300,11.512080322265625,-318.8720703125,-38.19538879394531,111.62043762207031
1776020506339076400,11.522076416015626,-318.2921142578125,-38.1295166015625,111.83148193359375
1776020506349072100,11.532072021484375,-318.9875183105469,-37.877532958984375,112.167724609375
1776020506359069400,11.5420693359375,-318.666748046875,-37.114288330078125,112.37728881835938
1776020506369065200,11.552065185546875,-318.5218200683594,-37.26542663574219,112.863037109375
1776020506379059200,11.56205908203125,-318.8053894042969,-36.947021484375,113.10903930664062
1776020506389054200,11.57205419921875,-318.8177795410156,-36.42643737792969,113.17672729492188
1776020506399050200,11.58205029296875,-318.89678955078125,-36.67619323730469,112.65327453613281
1776020506409046500,11.592046630859375,-318.2620849609375,-36.802154541015625,112.49613952636719
1776020506419042300,11.602042236328124,-318.48358154296875,-36.96818542480469,112.28036499023438
1776020506429039400,11.612039306640625,-318.456298828125,-37.462310791015625,112.13784790039062
1776020506439035400,11.622035400390626,-318.2137756347656,-37.48060607910156,111.8623046875
1776020506449032200,11.6320322265625,-318.175048828125,-37.490081787109375,111.49569702148438
1776020506459028200,11.6420283203125,-318.3200378417969,-37.774078369140625,111.38487243652344
1776020506469024500,11.6520244140625,-318.45526123046875,-37.50410461425781,111.17243957519531
1776020506479021300,11.662021240234376,-318.4261474609375,-37.750701904296875,110.99679565429688
1776020506489018400,11.672018310546875,-318.1958923339844,-37.701568603515625,110.86181640625
1776020506499014400,11.682014404296876,-318.1868896484375,-37.667083740234375,110.68556213378906
1776020506509011200,11.69201123046875,-317.86968994140625,-37.864501953125,110.78164672851562
1776020506519006200,11.702006103515625,-318.103515625,-38.00389099121094,110.60203552246094
1776020506529001200,11.712001220703126,-318.08367919921875,-38.167266845703125,109.89736938476562
1776020506538995200,11.7219951171875,-317.57952880859375,-38.32972717285156,109.90422058105469
1776020506548991500,11.731991455078125,-317.16241455078125,-38.34986877441406,109.77777099609375
1776020506558986500,11.741986572265626,-316.56396484375,-38.11454772949219,109.61358642578125
1776020506568979200,11.751979248046876,-316.4110107421875,-38.313934326171875,109.34169006347656
1776020506578974200,11.76197412109375,-316.192626953125,-38.287506103515625,109.26771545410156
1776020506588969200,11.77196923828125,-316.14556884765625,-38.1318359375,108.83497619628906
1776020506598964200,11.781964111328126,-315.8875732421875,-38.324981689453125,108.32514953613281
1776020506608960500,11.79196044921875,-316.04376220703125,-38.47447204589844,107.35169982910156
1776020506618955300,11.801955322265625,-315.5010986328125,-38.99285888671875,107.18771362304688
1776020506628949500,11.811949462890626,-314.9316711425781,-38.86930847167969,106.84100341796875
1776020506638943500,11.821943603515624,-314.5284423828125,-39.13313293457031,106.15061950683594
1776020506648936200,11.831936279296874,-314.5903015136719,-39.46147155761719,105.88861083984375
1776020506658931200,11.84193115234375,-314.40118408203125,-39.92254638671875,105.38165283203125
1776020506668923400,11.85192333984375,-313.62640380859375,-39.60821533203125,104.79505920410156
1776020506678918400,11.86191845703125,-313.1306457519531,-39.975921630859375,104.10826110839844
1776020506688913400,11.871913330078126,-313.2482604980469,-40.04718017578125,103.74923706054688
1776020506698906400,11.88190625,-313.311767578125,-39.826202392578125,103.57633972167969
1776020506708900000,11.891900146484375,-312.71551513671875,-39.820892333984375,103.03752136230469
1776020506718893300,11.901893310546875,-312.96124267578125,-39.972137451171875,102.71879577636719
1776020506728887300,11.91188720703125,-312.6651306152344,-39.88458251953125,102.335205078125
1776020506738883300,11.92188330078125,-312.1661376953125,-40.368408203125,101.82716369628906
1776020506748878300,11.93187841796875,-311.64453125,-40.52626037597656,101.26708984375
1776020506758872300,11.941872314453125,-311.44232177734375,-40.96504211425781,100.8701171875
1776020506768865300,11.951865234375,-311.56182861328125,-41.25617980957031,100.17753601074219
1776020506778860300,11.9618603515625,-311.09161376953125,-41.30419921875,99.91712951660156
1776020506788854300,11.971854248046874,-310.99737548828125,-41.28706359863281,99.41641235351562
1776020506798848500,11.9818486328125,-310.7506408691406,-41.55158996582031,99.44398498535156
1776020506808843300,11.99184326171875,-310.59405517578125,-41.472076416015625,98.83694458007812
1776020506818836200,12.001836181640625,-310.41015625,-41.55302429199219,98.37580871582031
1776020506828830200,12.011830322265626,-310.3218078613281,-41.91265869140625,98.25355529785156
1776020506838823400,12.021823486328126,-309.88226318359375,-42.01652526855469,97.80757141113281
1776020506848818200,12.031818115234374,-309.837890625,-42.379547119140625,97.19770812988281
1776020506858813200,12.041813232421875,-309.5218811035156,-42.550384521484375,96.99870300292969
1776020506868808200,12.05180810546875,-309.1816711425781,-42.9981689453125,96.65562438964844
1776020506878803200,12.06180322265625,-308.4684143066406,-43.48124694824219,96.42698669433594
1776020506888798200,12.071798095703125,-308.83685302734375,-43.40864562988281,96.11111450195312
1776020506898792200,12.081792236328125,-308.09442138671875,-42.961273193359375,95.78678894042969
1776020506908784400,12.091784423828125,-308.24932861328125,-43.247650146484375,95.5111083984375
1776020506918778400,12.1017783203125,-307.42034912109375,-43.111846923828125,95.38320922851562
1776020506928773400,12.1117734375,-307.8240966796875,-42.9940185546875,94.84776306152344
1776020506938766300,12.121766357421874,-306.7538146972656,-43.38349914550781,94.47917175292969
1776020506948760300,12.13176025390625,-306.6419677734375,-43.82659912109375,93.72488403320312
1776020506958752500,12.14175244140625,-305.7252502441406,-43.99668884277344,93.41433715820312
1776020506968743400,12.151743408203124,-305.42816162109375,-44.18635559082031,92.62248229980469
1776020506978737400,12.1617373046875,-304.9579162597656,-44.621002197265625,91.91854858398438
1776020506988731400,12.1717314453125,-305.05230712890625,-44.87060546875,91.1971435546875
1776020506998726400,12.181726318359376,-304.8273620605469,-45.318206787109375,90.75086975097656
1776020507008720400,12.191720458984374,-303.940673828125,-45.51792907714844,90.21043395996094
1776020507018714400,12.20171435546875,-303.68072509765625,-45.44584655761719,89.5335693359375
1776020507028709400,12.21170947265625,-303.41204833984375,-45.89384460449219,89.15463256835938
1776020507038704400,12.221704345703126,-302.988037109375,-46.104034423828125,88.58279418945312
1776020507048699400,12.231699462890624,-302.31329345703125,-46.786956787109375,88.25643920898438
1776020507058693400,12.241693359375,-302.5523681640625,-47.12776184082031,87.67683410644531
1776020507068687400,12.251687255859375,-301.35089111328125,-47.04542541503906,87.05064392089844
1776020507078683400,12.261683349609376,-300.51177978515625,-47.79783630371094,86.73582458496094
1776020507088679400,12.271679443359375,-299.9779968261719,-48.00218200683594,86.10226440429688
1776020507098673400,12.28167333984375,-299.76605224609375,-48.26148986816406,85.54934692382812
1776020507108668400,12.29166845703125,-298.460205078125,-48.58747863769531,84.46223449707031
1776020507118663400,12.301663330078124,-298.32159423828125,-48.97467041015625,83.92948913574219
1776020507128657400,12.311657470703125,-297.86883544921875,-49.5771484375,83.22808837890625
1776020507138652400,12.32165234375,-296.53631591796875,-49.682342529296875,82.1512451171875
1776020507148645400,12.331645263671875,-295.89166259765625,-50.205078125,80.76116943359375
1776020507158638300,12.341638427734376,-294.4089660644531,-51.148529052734375,79.18865966796875
1776020507168632300,12.35163232421875,-293.34381103515625,-51.9554443359375,77.72529602050781
1776020507178625300,12.361625244140624,-292.264892578125,-53.176788330078125,76.33125305175781
1776020507188618500,12.371618408203124,-290.6920471191406,-54.60186767578125,74.42361450195312
1776020507198612200,12.3816123046875,-288.60546875,-56.197784423828125,72.13214111328125
1776020507208607500,12.391607421875,-287.42596435546875,-57.99298095703125,70.28587341308594
1776020507218602500,12.4016025390625,-285.9425964355469,-59.459381103515625,68.47503662109375
1776020507228599300,12.411599365234375,-284.2523193359375,-60.709014892578125,67.4322509765625
1776020507238596400,12.421596435546874,-284.2232666015625,-61.19233703613281,67.03369140625
1776020507248591400,12.43159130859375,-283.08416748046875,-61.51795959472656,66.59254455566406
1776020507258585000,12.441585205078125,-282.916015625,-61.454742431640625,66.46913146972656
1776020507268579300,12.451579345703125,-282.5679626464844,-61.83580017089844,66.24801635742188
1776020507278572300,12.461572265625,-281.47918701171875,-61.6331787109375,65.9715576171875
1776020507288567300,12.4715673828125,-281.6474304199219,-61.75323486328125,65.69085693359375
1776020507298562300,12.481562255859375,-280.6312255859375,-61.6258544921875,65.27330017089844
1776020507308555300,12.49155517578125,-280.301025390625,-61.4561767578125,64.46412658691406
1776020507318549800,12.5015498046875,-279.9862060546875,-61.61077880859375,63.52842712402344
1776020507328542700,12.511542724609376,-278.8486633300781,-61.10430908203125,62.253143310546875
1776020507338535000,12.521534912109376,-277.57220458984375,-60.960601806640625,61.51348876953125
1776020507348528600,12.531528564453126,-276.23565673828125,-61.4051513671875,60.14215087890625
1776020507358522600,12.541522705078124,-275.3636474609375,-61.732574462890625,58.88108825683594
1776020507368516600,12.5515166015625,-274.9305419921875,-62.44514465332031,58.2562255859375
1776020507378511600,12.56151171875,-273.436767578125,-62.9322509765625,57.618865966796875
1776020507388506600,12.571506591796876,-273.16552734375,-63.13240051269531,57.39402770996094
1776020507398501600,12.581501708984375,-272.0724792480469,-63.27790832519531,57.08460998535156
1776020507408494600,12.59149462890625,-271.7728576660156,-63.478057861328125,56.961822509765625
1776020507418487800,12.60148779296875,-270.9766845703125,-63.4088134765625,56.72554016113281
1776020507428481800,12.611481689453125,-270.218994140625,-64.00701904296875,56.83085632324219
1776020507438477800,12.621477783203124,-268.52752685546875,-64.51531982421875,56.57843017578125
1776020507448473600,12.6314736328125,-267.54974365234375,-64.98933410644531,56.45182800292969
1776020507458471000,12.641470947265624,-266.229736328125,-65.98115539550781,56.25852966308594
1776020507468467700,12.6514677734375,-266.0956115722656,-66.58827209472656,56.031005859375
1776020507478463700,12.661463623046876,-264.72113037109375,-66.79010009765625,56.47703552246094
1776020507488460800,12.671460693359375,-265.31207275390625,-66.65951538085938,56.53123474121094
1776020507498455800,12.681455810546876,-264.44146728515625,-66.76533508300781,56.57691955566406
1776020507508451600,12.69145166015625,-264.4235534667969,-66.18904113769531,56.95506286621094
1776020507518447600,12.701447509765625,-263.81048583984375,-65.7344970703125,57.214691162109375
1776020507528443000,12.71144287109375,-263.5469970703125,-64.63656616210938,57.54338073730469
1776020507538439700,12.721439697265625,-264.1915283203125,-63.87895202636719,58.88789367675781
1776020507548436700,12.731436767578124,-266.6740417480469,-62.75309753417969,63.29632568359375
1776020507558434800,12.741434814453125,-270.23504638671875,-60.146392822265625,68.11624145507812
1776020507568433000,12.751432861328125,-272.177490234375,-56.88795471191406,73.90318298339844
1776020507578429700,12.7614296875,-273.96368408203125,-53.450469970703125,79.36972045898438
1776020507588426800,12.7714267578125,-274.7196044921875,-50.022308349609375,83.1248779296875
1776020507598423800,12.781423828125,-274.1497802734375,-49.20159912109375,82.5654296875
1776020507608417800,12.791417724609374,-273.216796875,-48.48448181152344,81.66851806640625
1776020507618412800,12.801412841796875,-274.1275329589844,-47.30912780761719,81.16090393066406
1776020507628406800,12.81140673828125,-274.64483642578125,-46.31532287597656,81.17892456054688
1776020507638400800,12.82140087890625,-274.73297119140625,-45.86323547363281,81.26814270019531
