time,seconds_elapsed,z,y,x
1776556117084968000,0.237968017578125,-8.947353137800096,-2.256454108415544,3.320191593186557
1776556117095008800,0.2480087890625,-8.863484768024087,-2.2055118566855785,3.569977670393884
1776556117105048800,0.258048828125,-8.779472021341324,-2.1411567272834477,3.8087668450295924
1776556117115089000,0.2680888671875,-8.70791718969345,-2.0492212247774004,4.01786698384434
1776556117125130000,0.2781298828125,-8.67671833383143,-1.9106568036958573,4.151424974940717
1776556117135169800,0.288169677734375,-8.673709799665213,-1.7360861264705656,4.2335742658391595
1776556117145209900,0.2982099609375,-8.676892521354555,-1.5422146825782954,4.301569359178841
1776556117155250700,0.308250732421875,-8.659828573828936,-1.3433034909531474,4.401510327355563
1776556117165290800,0.318290771484375,-8.611908300268649,-1.1509287153594194,4.547612742726504
1776556117175330800,0.328330810546875,-8.527671097180248,-0.9819153069350868,4.741840306580066
1776556117185372000,0.338371826171875,-8.411413784974814,-0.8318151271648705,4.972582660621405
1776556117195412000,0.348411865234375,-8.276156004223227,-0.6954005045283586,5.214599272871017
1776556117205452000,0.3584521484375,-8.121618937984108,-0.567830501800403,5.466923928645253
1776556117215492900,0.368492919921875,-7.957835904493927,-0.4843106166685,5.710400676575302
1776556117225532700,0.37853271484375,-7.792969751942158,-0.47554921806398776,5.934127014374733
1776556117235572700,0.38857275390625,-7.6306427624791855,-0.49891043910291044,6.139606332343816
1776556117245613800,0.39861376953125,-7.482135624054074,-0.5397346169224009,6.316384456485509
1776556117255654000,0.40865380859375,-7.3553791296660895,-0.598273351663351,6.458394049584865
1776556117265694000,0.41869384765625,-7.246715925851464,-0.6582345569554716,6.574361438933014
1776556117275734800,0.42873486328125,-7.14243137551248,-0.6995577703382819,6.683312812039255
1776556117285774800,0.43877490234375,-7.035988770356774,-0.7149719048302621,6.793678143596649
1776556117295814700,0.448814697265625,-6.921461058422922,-0.7052853542048484,6.911318434593081
1776556117305855700,0.458855712890625,-6.814550251233578,-0.6867749341979622,7.018591645354032
1776556117315895800,0.468895751953125,-6.723576433366537,-0.6705634387832135,7.107337265777588
1776556117325937000,0.47893701171875,-6.661344141337275,-0.6567018674954772,7.166981879401207
1776556117335977000,0.48897705078125,-6.6356608340263366,-0.6473675643738359,7.191613631832599
1776556117346016800,0.499016845703125,-6.658488751906156,-0.6517413955438882,7.170086275157332
1776556117356057900,0.509057861328125,-6.733793875998258,-0.6877303352266549,7.096015076774358
1776556117366098000,0.519097900390625,-6.833048030954599,-0.7544651263069361,6.993613271442055
1776556117376138000,0.529137939453125,-6.93771018243432,-0.8449310677170753,6.879291895735263
1776556117386179000,0.539178955078125,-7.045075163131952,-0.9576899433474987,6.754267339706421
1776556117396219000,0.549218994140625,-7.145976500773429,-1.0847351915489882,6.62787675602138
1776556117406259000,0.559259033203125,-7.233382981547713,-1.2229539409980177,6.507912990513444
1776556117416299800,0.5692998046875,-7.301477443608642,-1.3681541468322276,6.402106345173716
1776556117426339600,0.579339599609375,-7.333838328987359,-1.4948006049744784,6.336463952440023
1776556117436379600,0.589379638671875,-7.327093530902266,-1.5957576183259485,6.319623876798152
1776556117446420700,0.599420654296875,-7.291890700095892,-1.6776989655621348,6.339088455724716
1776556117456460800,0.609460693359375,-7.2436425097554915,-1.748575605687499,6.375148195621371
1776556117466501600,0.619501708984375,-7.193841829276084,-1.818701573576033,6.411813500195741
1776556117476541700,0.629541748046875,-7.138140984842181,-1.913996907903999,6.446234825235605
1776556117486581800,0.639581787109375,-7.068281266674399,-2.037833130931109,6.485139433169365
1776556117496622800,0.649622802734375,-6.992764545658231,-2.178635978589207,6.521133122092485
1776556117506663000,0.659662841796875,-6.917527810627222,-2.3225471675261855,6.551638734993338
1776556117516702700,0.66970263671875,-6.843966315332055,-2.4603926266834137,6.578524988353252
1776556117526743600,0.67974365234375,-6.7645952569752925,-2.5884371150553225,6.611401422038674
1776556117536783600,0.68978369140625,-6.668619100776314,-2.715510420307517,6.657770959025621
1776556117546824700,0.69982470703125,-6.567980797985196,-2.8527941539287567,6.7002668694496155
1776556117556864800,0.70986474609375,-6.476735177439451,-3.0110175074651835,6.719826140922308
1776556117566904800,0.71990478515625,-6.403876277455687,-3.176834384870529,6.713305214720964
1776556117576945700,0.729945556640625,-6.384197178995609,-3.3311686220139265,6.657005819872022
1776556117586985700,0.73998583984375,-6.40413112899959,-3.446495083110034,6.5786904080480335
1776556117597025500,0.750025634765625,-6.4328387525677675,-3.495860879303515,6.524410536327958
1776556117607066600,0.760066650390625,-6.452355353942513,-3.471980822022259,6.517886687517166
1776556117617106700,0.770106689453125,-6.4490557278752325,-3.38844562972337,6.564945375812053
1776556117627146800,0.780146728515625,-6.413657666757702,-3.2748353248953816,6.656637571081519
1776556117637187800,0.790187744140625,-6.3583841078251595,-3.1545933269679542,6.7668211163312195
1776556117647227600,0.8002275390625,-6.296552213290333,-3.0192437762796875,6.8853452044248575
1776556117657268700,0.810268798828125,-6.21710984326303,-2.8678935233831404,7.0209051829934115
1776556117667308800,0.820308837890625,-6.129774674159288,-2.6938687896028157,7.165146480667591
1776556117677348600,0.8303486328125,-6.042897185695171,-2.5002900450468064,7.30768974225223
1776556117687389700,0.8403896484375,-5.954749531164765,-2.292219541540742,7.44695032890439
1776556117697429800,0.8504296875,-5.865206622883677,-2.068871973925829,7.582183559736609
1776556117707469800,0.8604697265625,-5.781595442739128,-1.8249748086266218,7.707983191791176
1776556117717510700,0.8705107421875,-5.711213162001967,-1.560865607034415,7.817679830306768
1776556117727550700,0.88055078125,-5.653668735527992,-1.2824579771071671,7.909595897459983
1776556117737591800,0.890591796875,-5.609248579043149,-0.9984946127489208,7.981836957806348
1776556117747631900,0.9006318359375,-5.575451523381472,-0.7155037466846406,8.035719354641436
1776556117757672000,0.910671875,-5.548043876495957,-0.43050515752714125,8.074915638998151
1776556117767712800,0.920712646484375,-5.529001906895637,-0.1292932280576788,8.098382439303398
1776556117777752600,0.930752685546875,-5.520806910002231,0.20507963286070152,8.10240745703578
1776556117787793700,0.940793701171875,-5.509702163141966,0.5784218557784333,8.091908859375119
1776556117797833700,0.950833740234375,-5.477785514399409,0.9860393280625342,8.074154591497779
1776556117807873800,0.960873779296875,-5.412117402702569,1.4179608186610042,8.054114843031764
1776556117817914600,0.97091455078125,-5.311340568223596,1.8665834148220717,8.02969001134932
1776556117827954700,0.98095458984375,-5.183428474059701,2.325878357775509,7.993294171366095
1776556117837994800,0.990994873046875,-5.046215467587113,2.791850148144364,7.931687317758798
1776556117848035800,1.001035888671875,-4.915860071924328,3.2586420227244495,7.8349191343992945
1776556117858075600,1.01107568359375,-4.79572358019799,3.717613286681473,7.703945314577221
1776556117868116700,1.02111669921875,-4.6765442430660125,4.160638793487847,7.549132354006171
1776556117878156500,1.031156494140625,-4.547347077527642,4.582428912302851,7.381962600687146
1776556117888196600,1.041196533203125,-4.403818019776046,4.982782567596435,7.20754068428278
1776556117898237700,1.05123779296875,-4.251317427800595,5.367333673602342,7.020570836472511
1776556117908277800,1.06127783203125,-4.0957355286836625,5.745758990204334,6.810403068426251
1776556117918317800,1.07131787109375,-3.9306872975632547,6.127711311888694,6.5704819671511645
1776556117928359000,1.08135888671875,-3.746943718323111,6.513876282832026,6.3008104552567
1776556117938398700,1.091398681640625,-3.543000523880124,6.890431129387021,6.011613574159145
1776556117948439800,1.101439697265625,-3.3246438964203,7.241536477386951,5.716404300904274
1776556117958479600,1.111479736328125,-3.1014217087507245,7.557192326343059,5.425901597905159
1776556117968519700,1.121519775390625,-2.876080336970091,7.835968351191282,5.147441214877366
1776556117978560800,1.131560791015625,-2.646420517468452,8.0831024525851,4.881628131976723
1776556117988600800,1.141600830078125,-2.404096592835337,8.308259115448594,4.622070310078561
1776556117998641000,1.151640869140625,-2.1355225207887587,8.51811708689332,4.3648166734695435
1776556118008681700,1.161681640625,-1.8367147846505045,8.71209652120471,4.110506104575097
1776556118018721800,1.1717216796875,-1.5073038204558193,8.883815023869275,3.8699183560848236
1776556118028763000,1.181762939453125,-1.1544038441240787,9.026832332706451,3.6543197951614856
1776556118038802700,1.191802734375,-0.7878577658861875,9.13813757546246,3.4704642799794674
1776556118048842800,1.2018427734375,-0.41805962704978883,9.21738354613483,3.321965324860811
1776556118058883600,1.211883544921875,-0.048487538354494604,9.262005362671614,3.222312525975704
1776556118068923600,1.221923583984375,0.32221907992921767,9.272765241616964,3.1752745882079005
1776556118078963700,1.231963623046875,0.6937787485454231,9.253932530853152,3.1707705547869205
1776556118089004800,1.2420048828125,1.0649369236886501,9.208197784638404,3.200840698879957
1776556118099044900,1.252044921875,1.4275560377411542,9.141449476489424,3.2506004628270864
1776556118109085700,1.262085693359375,1.7739967549309132,9.059613489323853,3.30858591106683
1776556118119125800,1.272125732421875,2.104280848698318,8.964062280538677,3.3746061972022057
1776556118129165600,1.28216552734375,2.420013416152447,8.851360030466317,3.4593913895621893
1776556118139206700,1.29220654296875,2.7178154823794958,8.719374987775087,3.571610824553668
1776556118149246700,1.302246826171875,2.9920410043165084,8.568114751249551,3.7155776892006394
1776556118159286800,1.312286865234375,3.2389640933081507,8.394345745795965,3.900572145284712
1776556118169327600,1.32232763671875,3.4556495726853607,8.195092170473933,4.131507391549647
1776556118179367700,1.33236767578125,3.644300213189423,7.965710583391785,4.408728588171303
1776556118189408800,1.34240869140625,3.8127538688391445,7.715169303902983,4.702070021727681
1776556118199448800,1.35244873046875,3.9482986498385664,7.492544789865613,4.943994279518723
1776556118209488600,1.362488525390625,4.0296415927901865,7.337408004167676,5.108305720797181
1776556118219529700,1.37252978515625,4.068226759511232,7.255895257607102,5.193450686380267
1776556118229569800,1.38256982421875,4.064747977484762,7.232028644329309,5.229335654231906
1776556118239609600,1.392609619140625,4.015839277409017,7.240921560359001,5.2547600183457135
1776556118249650700,1.402650634765625,3.917286256459355,7.255290277451277,5.309051580503582
1776556118259690800,1.412690673828125,3.777772571828961,7.255243515700101,5.409277795362472
1776556118269731800,1.42273193359375,3.6149586756318803,7.233102995562553,5.548394589629769
1776556118279772000,1.43277197265625,3.445167633898556,7.1884203887492415,5.7120788389205925
1776556118289812000,1.44281201171875,3.271949248065054,7.123077855744958,5.892919974717498
1776556118299852800,1.452852783203125,3.0877833517596125,7.035241751381754,6.0943725213885305
1776556118309892600,1.462892578125,2.898625346255302,6.933840647524595,6.300019012618065
1776556118319932700,1.4729326171875,2.73401433750838,6.8339154614388935,6.480210744595527
1776556118329973800,1.482973876953125,2.6239637709885835,6.742001732373237,6.6204702791571615
1776556118340013800,1.493013916015625,2.5676798659697173,6.653156158706546,6.731487937143444
1776556118350054700,1.5030546875,2.5347081552162765,6.564078529849648,6.830704098176955
1776556118360094700,1.5130947265625,2.511132926100492,6.464608686316013,6.933498702219128
1776556118370134800,1.523134765625,2.496010760292411,6.347071855694055,7.046630575880408
1776556118380176000,1.53317578125,2.4777470815882086,6.223987327817082,7.1619210888803
1776556118390215700,1.543215576171875,2.469651745676994,6.112039695504308,7.260455112868547
1776556118400255700,1.553255859375,2.475845047359168,5.980144669184089,7.367392808064818
1776556118410297000,1.563297119140625,2.467387600137293,5.8296758752971884,7.489813903596997
1776556118420337200,1.573337158203125,2.4665967420205472,5.683257818105816,7.601767965650558
1776556118430378200,1.583378173828125,2.478665949998796,5.551468590247631,7.694659015315771
1776556118440418300,1.593418212890625,2.4856401729255913,5.43263119842112,7.776790770557522
1776556118450458000,1.6034580078125,2.465127253989875,5.30141012583971,7.873283644106984
1776556118460499000,1.6134990234375,2.42044625461176,5.160522230246663,7.980026693513989
1776556118470539000,1.6235390625,2.370841388965398,5.012966108936071,8.088243907126785
1776556118480579000,1.6335791015625,2.3035765095964074,4.865298051683604,8.197121630474925
1776556118490620200,1.6436201171875,2.2078584198117257,4.727135197140276,8.303611581903695
1776556118500660200,1.65366015625,2.098847717733681,4.609322179925441,8.397582828021049
1776556118510701000,1.663701171875,1.9769461160309612,4.518635946828127,8.476082948762178
1776556118520741000,1.6737412109375,1.8509357638351618,4.452091636818647,8.539514095187187
1776556118530781000,1.683781005859375,1.7284587003320455,4.406618464149535,8.588629716011882
1776556118540822000,1.693822021484375,1.6062376574166117,4.3758655984893435,8.627989666497706
1776556118550862000,1.703862060546875,1.4872037201046944,4.351733320012689,8.661468157729505
1776556118560902100,1.713902099609375,1.3750249093845486,4.3258091896831985,8.692933555573225
1776556118570943200,1.723943115234375,1.2724996238030493,4.294178956666588,8.724170405358075
1776556118580983000,1.733983154296875,1.1748843220949172,4.253458531482518,8.757747096267343
1776556118591024000,1.744024169921875,1.095553741879016,4.20190545437783,8.792846466699242
1776556118601064200,1.754064208984375,1.0503305253829807,4.164262829203904,8.816241370812058
1776556118611104300,1.764104248046875,1.0355848647370933,4.141818065422773,8.828550817286967
1776556118621145300,1.774145263671875,1.0285790045630185,4.1311473260656,8.834367394611238
1776556118631185200,1.78418505859375,1.0268003044527023,4.1084322209104895,8.845159422260522
1776556118641226000,1.79422607421875,1.0237559683207422,4.071651181001961,8.862502771249414
1776556118651266000,1.80426611328125,1.0003062652807682,4.022158543558419,8.88774418001175
1776556118661306000,1.81430615234375,0.9380246542170644,3.988355934938788,8.909743245851994
1776556118671347200,1.82434716796875,0.8512117554217576,3.9848134400263424,8.920038429895042
1776556118681387300,1.83438720703125,0.7486284560427069,3.994312797516584,8.924988745778798
1776556118691427300,1.84442724609375,0.6275657163169235,4.003591497993469,8.930162349024414
1776556118701468200,1.85446826171875,0.49574656824450936,4.010709221044182,8.935257041814923
1776556118711508000,1.864508056640625,0.35168997948747127,4.011332613639533,8.941805440545082
1776556118721548000,1.874548095703125,0.21450766041409222,4.000918771652877,8.950810584777592
1776556118731589000,1.884589111328125,0.0973226845702622,3.980745167674124,8.961840512835979
1776556118741629200,1.894629150390625,0.011398364078556187,3.955464888206124,8.973546148198842
1776556118751670000,1.904669921875,-0.02910454133073799,3.9349645364910364,8.982513883030414
1776556118761710000,1.9147099609375,-0.03175237525866832,3.9209725437566636,8.988624474865198
1776556118771750100,1.924750244140625,-0.02714269178941613,3.903181743261218,8.99637815773189
1776556118781791200,1.934791259765625,-0.04955352818476967,3.8665506332173942,9.012086598995328
1776556118791831300,1.944831298828125,-0.11028520639273337,3.8062691829949613,9.037174278500675
1776556118801871000,1.95487109375,-0.20219766594991087,3.7364912978917357,9.064665512016415
1776556118811912000,1.964911865234375,-0.30061246573897077,3.675494100615382,9.086846364164352
1776556118821952000,1.974951904296875,-0.3746993183488026,3.639108489765227,9.098729109659791
1776556118831993000,1.9849931640625,-0.41402839877232905,3.6387145220115777,9.09718246473968
1776556118842033200,1.995033203125,-0.43766522188223894,3.66494172694087,9.085539957740902
1776556118852073200,2.0050732421875,-0.46588652323819696,3.7003763206765052,9.069760789328813
1776556118862114300,2.0151142578125,-0.520052193994075,3.7308036076441407,9.054339348313212
1776556118872154000,2.025154052734375,-0.6008897812394425,3.7569583318591118,9.038504650321602
1776556118882194000,2.03519384765625,-0.6964543974954635,3.791042387768626,9.017389966100454
1776556118892235000,2.045235107421875,-0.7841080579638481,3.835362883271277,8.991414982366562
1776556118902275000,2.055275146484375,-0.8539696027625352,3.8882773118570446,8.962278319731354
1776556118912316200,2.065316162109375,-0.9089505354240536,3.9427465686693783,8.9330253372401
1776556118922356200,2.075356201171875,-0.9436355529014021,3.995178182174265,8.906092906650901
1776556118932396300,2.085396240234375,-0.9530292580600828,4.059012940964102,8.87617766085863
1776556118942437000,2.09543701171875,-0.9464541905187069,4.144360443381965,8.837357224076985
1776556118952477200,2.105477294921875,-0.9218656927071511,4.248412061747908,8.790422454422712
1776556118962517200,2.115517333984375,-0.8736695248149335,4.363266813679039,8.738935428291558
1776556118972558300,2.125558349609375,-0.8102746918123215,4.474806449712813,8.688494111821054
1776556118982598100,2.13559814453125,-0.7396822754558176,4.574527053137123,8.642740076383948
1776556118992639000,2.145638916015625,-0.6678232001643627,4.664827501787245,8.600221954128145
1776556119002679000,2.155678955078125,-0.5893775860894471,4.755248361946642,8.556322022125125
1776556119012719000,2.165718994140625,-0.4911472942881286,4.865646426729858,8.500273387166857
1776556119022760200,2.17576025390625,-0.36683110572434957,5.005733819594979,8.424869478875397
1776556119032800300,2.18580029296875,-0.22300511085279284,5.165961790952086,8.332675763824582
1776556119042840300,2.19584033203125,-0.08705652569229715,5.324521536836028,8.23481920070648
1776556119052881200,2.205881103515625,0.026084097531018778,5.462746935221553,8.144207201889158
1776556119062921000,2.2159208984375,0.11427156348200514,5.589622087553143,8.056889568442106
1776556119072962000,2.225962158203125,0.18542241743886842,5.731332405444979,7.955366299510001
1776556119083002000,2.236002197265625,0.26499334574928507,5.903581069463491,7.82610512882471
1776556119093042200,2.246042236328125,0.3564698341751471,6.1043701837897295,7.666810054403543
1776556119103083000,2.2560830078125,0.4454258459463715,6.3247197386324405,7.48130384940505
1776556119113123000,2.266123046875,0.5165743983482942,6.5488108180910345,7.281251817181706
1776556119123163100,2.2761630859375,0.5820174325849861,6.771965493482351,7.069097259232401
1776556119133204200,2.286204345703125,0.6501905128400772,6.9965750438570975,6.84072981762886
1776556119143244300,2.296244384765625,0.722210404716432,7.216874329817295,6.600420593819022
1776556119153284000,2.3062841796875,0.8147218804795294,7.429061036470532,6.349460796657204
1776556119163325200,2.3163251953125,0.9426165851172059,7.618744234892725,6.102180564790964
1776556119173365000,2.326364990234375,1.1035869723394514,7.771866758158803,5.877971411910653
1776556119183406000,2.336406005859375,1.2911423649527132,7.876995942628383,5.6970408442646265
1776556119193446100,2.346446044921875,1.4963834902517497,7.934356244707107,5.5657186493963
1776556119203486200,2.356486328125,1.7138842315346001,7.948675861960649,5.481928605553508
1776556119213527300,2.36652734375,1.9546439755909144,7.927700878471136,5.431514761611819
1776556119223567400,2.3765673828125,2.208129199577123,7.883516868829727,5.398586305478215
1776556119233607200,2.386607177734375,2.471226739908755,7.811687896415591,5.388964490652084
1776556119243648000,2.39664794921875,2.730891237051785,7.700550411441922,5.4234799237161875
1776556119253688000,2.40668798828125,2.967267213065922,7.549164502710104,5.511424749150872
1776556119263728000,2.41672802734375,3.1655095655187964,7.373571788960695,5.63740909012258
1776556119273769200,2.426769287109375,3.3270293302521106,7.193919570687413,5.7748383696943515
1776556119283809300,2.436809326171875,3.456993680770695,7.0202201233386985,5.910678918769955
1776556119293849300,2.446849365234375,3.5547847774371504,6.857901901704072,6.041778410798311
1776556119303890200,2.45689013671875,3.614258418408036,6.706755646947026,6.174705118253827
1776556119313930000,2.466929931640625,3.6314752184078096,6.568533755692839,6.311667949357629
1776556119323971000,2.47697119140625,3.607840368059277,6.454372538983821,6.441658018839359
1776556119334011100,2.48701123046875,3.551739126130938,6.386606578224897,6.539632070857286
1776556119344051200,2.49705126953125,3.475763555431366,6.371442326840758,6.595010259208083
1776556119354092000,2.507092041015625,3.3731495686531066,6.382110435849428,6.63783583997786
1776556119364132000,2.517132080078125,3.2324177404046055,6.378043917062878,6.711365771090984
1776556119374172200,2.527172119140625,3.0580320643573997,6.333624345099926,6.834036457470059
1776556119384213200,2.537213134765625,2.871425496901572,6.23989918269813,6.999212991145253
1776556119394253300,2.54725341796875,2.6980656567707655,6.125390175464749,7.167316810443997
1776556119404293000,2.557293212890625,2.565330672495067,6.022464053997397,7.302012865659594
1776556119414334000,2.567333984375,2.478773794287443,5.925191428247094,7.410677823039889
1776556119424374000,2.5773740234375,2.4326880426779387,5.814065049189328,7.513259076592326
1776556119434414000,2.5874140625,2.4040822720490396,5.672127936804294,7.63005590250194
1776556119444455200,2.597455078125,2.3723557390511036,5.510987526777386,7.7570187331169835
1776556119454495200,2.6074951171875,2.374043692138046,5.3347705436497925,7.8787389869034286
1776556119464535000,2.61753515625,2.4108047121718523,5.144975701546668,7.992972099804878
1776556119474576000,2.627575927734375,2.4480673981174825,4.960167415684461,8.0977815508008
1776556119484616000,2.637615966796875,2.471800155882537,4.788639467155933,8.193260278871655
1776556119494657000,2.647656982421875,2.4636741325721143,4.6347816153526304,8.283688737815618
1776556119504697000,2.657697021484375,2.4136082252852615,4.508107246290147,8.367903729072212
1776556119514737200,2.667737060546875,2.3422265582472086,4.41236226849854,8.438924307712911
1776556119524778200,2.6777783203125,2.2737663316138086,4.343219466428458,8.493340373033284
1776556119534818000,2.687818115234375,2.203293303853273,4.301378220520913,8.533114749538898
1776556119544858000,2.697858154296875,2.1100030257374045,4.269989979566634,8.57236714799702
1776556119554899200,2.707899169921875,1.9956268511034547,4.223574849872291,8.622601543718575
1776556119564939000,2.71793896484375,1.8740308082185684,4.140041118878126,8.690136618331074
1776556119574979000,2.72797900390625,1.7559391201928256,4.015576242558658,8.772811978930234
1776556119585020200,2.738020263671875,1.672495551700145,3.8945211746826764,8.843407610157131
1776556119595060200,2.748060302734375,1.6322984197378159,3.8109286992385982,8.887228631705046
1776556119605100000,2.75810009765625,1.633623384731263,3.7652220100745555,8.906445373350381
1776556119615141000,2.76814111328125,1.6533711645133793,3.740901223288476,8.913046963572501
1776556119625181200,2.77818115234375,1.654703289899975,3.7110304011598227,8.925278668636084
1776556119635221000,2.788220947265625,1.6265915863983331,3.6516914924845096,8.954872427389025
1776556119645262000,2.798261962890625,1.5558059855572879,3.5651842986375093,9.002185382705926
1776556119655302100,2.80830224609375,1.4507142104886472,3.480282201899588,9.052816084268688
1776556119665342200,2.81834228515625,1.3432282337598502,3.428519865958392,9.089079237782954
1776556119675383000,2.828383056640625,1.2593211394086479,3.424938208079338,9.102433809396624
1776556119685423000,2.838423095703125,1.1936055353082715,3.449445457348227,9.102035165467857
1776556119695463200,2.848463134765625,1.1410381665945053,3.4689588438525796,9.10136004268527
1776556119705504300,2.858504150390625,1.0889333738911897,3.4701205811083313,9.107297616040706
1776556119715544300,2.86854443359375,1.0238521221715957,3.4622681140422817,9.117829531449079
1776556119725584100,2.878584228515625,0.942046822405234,3.466027466575801,9.125215550047159
1776556119735625000,2.888625,0.8274878385502844,3.493967905163765,9.125670308077336
1776556119745665000,2.8986650390625,0.6848134979318827,3.54319400062561,9.118507576841115
1776556119755705000,2.908705078125,0.5183257720602676,3.5956390581339597,9.108956489163637
1776556119765746200,2.91874609375,0.32640527957268056,3.6552857175841926,9.0941037879467
1776556119775786200,2.9287861328125,0.13532272661342284,3.752001878495514,9.059500676599145
1776556119785827000,2.9388271484375,-0.031604740099038464,3.9016976421833034,8.997007687807082
1776556119795867100,2.9488671875,-0.17404879050934685,4.09131946580708,8.91073576402068
1776556119805907000,2.958906982421875,-0.2876129729069769,4.3006221414566035,8.808651354074478
1776556119815948000,2.968947998046875,-0.37162860566657036,4.521810777471959,8.693992124715447
1776556119825988000,2.978988037109375,-0.4469399037711322,4.7471071410670875,8.56945856707394
1776556119836028200,2.989028076171875,-0.5420300709158182,4.96915794686973,8.43706435905993
1776556119846069000,2.999069091796875,-0.6568748859748244,5.191574955636263,8.293760049974917
1776556119856109000,3.009109130859375,-0.7712474804122,5.407045506265759,8.144901029372214
1776556119866149000,3.019149169921875,-0.8778891152713447,5.613394008284807,7.9930913422703735
1776556119876190200,3.029190185546875,-0.9709554484382271,5.802355906695127,7.846037325263023
1776556119886230000,3.03922998046875,-1.0280307230304926,5.966330078843235,7.7146899959534405
1776556119896270000,3.04927001953125,-1.0298298083417117,6.127482179307937,7.587079515084624
1776556119906311000,3.059310791015625,-1.0336077194452284,6.281735167908668,7.459345115575194
1776556119916351000,3.06935107421875,-1.0813541708085685,6.392545905146003,7.357745858797431
1776556119926391000,3.07939111328125,-1.1323164424132555,6.449942447581887,7.299760118296742
1776556119936432000,3.08943212890625,-1.1665808963909745,6.470463257563114,7.276165307697653
1776556119946472200,3.09947216796875,-1.1923251401089132,6.463575836136937,7.278113519155979
1776556119956512300,3.10951220703125,-1.2086083125203848,6.431974244692921,7.303380646881461
1776556119966553000,3.119552978515625,-1.2097460113134235,6.378703257754445,7.349766550481319
1776556119976593000,3.129593017578125,-1.1957743307147175,6.315174496173858,7.406691968274116
1776556119986633000,3.139633056640625,-1.1666251739241182,6.256230724295974,7.46116180960834
1776556119996674000,3.149674072265625,-1.1191269982334227,6.2140107082039115,7.503600436887145
1776556120006714000,3.159714111328125,-1.0539419938784091,6.204948865348101,7.520520007506012
1776556120016754200,3.169754150390625,-0.977975191007182,6.228010591983795,7.511711847150325
1776556120026795300,3.179795166015625,-0.8798654568456112,6.267215644168854,7.4912091573476784
1776556120036835000,3.1898349609375,-0.7838285834353417,6.313607392987609,7.462863937351107
1776556120046875000,3.199875,-0.7031344597812742,6.35525048597455,7.435507728391885
1776556120056915000,3.2099150390625,-0.6570722351778299,6.391610085600615,7.408506908741593
1776556120066956000,3.2199560546875,-0.6500804765943438,6.433332089042663,7.372924723228812
1776556120076996000,3.22999609375,-0.6629379123408347,6.490611142578721,7.32139853413105
1776556120087036200,3.2400361328125,-0.6818995832465589,6.56358928502798,7.254287237888574
1776556120097077200,3.2500771484375,-0.6986975733123719,6.648665277028083,7.174778816887736
1776556120107117000,3.260116943359375,-0.7071427455745637,6.7461968459755175,7.082312714636325
1776556120117157000,3.2701572265625,-0.7348695414118468,6.861743964084982,6.967554116556048
1776556120127198200,3.2801982421875,-0.7854085461031645,6.9970882540762425,6.825998696964978
1776556120137238000,3.290238037109375,-0.8346135987769812,7.142199904844165,6.668042177671194
1776556120147278000,3.300278076171875,-0.8464452716723084,7.298128717702626,6.495479625397921
1776556120157319200,3.310319091796875,-0.7969896783035249,7.4619737105131145,6.313014103269577
1776556120167359200,3.320359130859375,-0.7138972613360732,7.6209455443292855,6.130410049453378
1776556120177399000,3.33039892578125,-0.6166356684364378,7.766026799958944,5.956421848291158
1776556120187440000,3.340440185546875,-0.531961060311459,7.8946403203904625,5.793276528182625
1776556120197480200,3.350480224609375,-0.4716344923056662,8.006037917605042,5.643697376611828
1776556120207520000,3.36052001953125,-0.44151177777517586,8.110110286498069,5.4955953118562695
1776556120217561000,3.37056103515625,-0.4382299796255305,8.21800016785264,5.333181813153624
1776556120227601200,3.38060107421875,-0.4475550765274092,8.340060613378881,5.139403454372286
1776556120237641200,3.39064111328125,-0.45561654670163987,8.489239367455244,4.888313308829069
1776556120247682000,3.40068212890625,-0.45314233860783276,8.672064955067635,4.556351344977319
1776556120257722000,3.41072216796875,-0.43739111764859406,8.881304502353071,4.135395338898897
1776556120267762200,3.42076220703125,-0.4074998372538015,9.101031541383266,3.6298113768488167
1776556120277803300,3.43080322265625,-0.355276203943789,9.313329307195543,3.0505873013094065
1776556120287843000,3.440843017578125,-0.27422409716490653,9.501742924073337,2.4108266317427156
1776556120297883100,3.450883056640625,-0.1580808763258159,9.652318685466051,1.725733805412799
1776556120307924000,3.460924072265625,0.006740789201078587,9.753733233326672,1.0173771540038288
1776556120317964000,3.470964111328125,0.20726609178800134,9.799515325814484,0.3113786100283265
1776556120328004000,3.481004150390625,0.43433636972047385,9.789923321604729,-0.373013045762293
1776556120338045200,3.491045166015625,0.6857035786394029,9.732740129658579,-0.9869035436764358
1776556120348085200,3.501085205078125,0.9537125641491263,9.644306643924116,-1.4993955315493046
1776556120358125300,3.511125244140625,1.2323529068537056,9.54181716030836,-1.898799777163565
1776556120368166100,3.521166259765625,1.4143025884144007,9.456825923982262,-2.176825129774958
1776556120378206000,3.5312060546875,1.4456199560895562,9.413006656000018,-2.3400544749051333
1776556120388246000,3.54124609375,1.34520084900707,9.408467843526601,-2.4169290402710435
1776556120398286000,3.5512861328125,1.153185042918846,9.427457790678739,-2.4420412696957587
1776556120408327200,3.5613271484375,0.9231585820619016,9.455924006706475,-2.4297465823985633
1776556120418367000,3.571366943359375,0.706810152619332,9.483485967370868,-2.3946428280524907
1776556120428407000,3.581406982421875,0.5587621926711872,9.506638294899464,-2.341365995895117
1776556120438447900,3.59144775390625,0.5011550031593069,9.525206217247247,-2.2780841948129233
1776556120448487700,3.60148779296875,0.5274204577397554,9.540374560284613,-2.2075977230489254
1776556120458527700,3.61152783203125,0.6126209894349798,9.553256838211416,-2.128471579363942
1776556120468568800,3.62156884765625,0.7193839491188526,9.563758943003416,-2.0463103057667613
1776556120478609000,3.63160888671875,0.8196501306619495,9.571499766388534,-1.9710200869828463
1776556120488649000,3.64164892578125,0.896013531635329,9.576527239161729,-1.912505646432936
1776556120498689800,3.651689697265625,0.9390951329927891,9.579134206789732,-1.8784812117561698
1776556120508729900,3.661729736328125,0.9490618157338351,9.579522913846374,-1.871476739821583
1776556120518769700,3.671769775390625,0.9350617858234792,9.577563011950254,-1.8884734673298895
1776556120528810800,3.681810791015625,0.9094909259110688,9.574037175911664,-1.9186036710470913
1776556120538850800,3.691850830078125,0.8846025683701038,9.570165302914381,-1.9493105056084692
1776556120548891000,3.701890869140625,0.8667966433707625,9.566979074093698,-1.9728018558330833
1776556120558931000,3.711930908203125,0.8514009943835437,9.565500233712791,-1.98663237439543
1776556120568971800,3.7219716796875,0.8300396419249475,9.565452302917837,-1.9958831639520822
1776556120579011800,3.73201171875,0.7987640675649046,9.565712415158748,-2.0073662426054475
1776556120589052000,3.742052001953125,0.7614657257840037,9.565200958505272,-2.0242155244670808
1776556120599093000,3.752093017578125,0.7244774728655815,9.563419920307398,-2.046095347841829
1776556120609132800,3.7621328125,0.6931086672641337,9.560745732662081,-2.0693311158701775
1776556120619172900,3.7721728515625,0.6711106974024326,9.557974514383076,-2.089283624444157
1776556120629213700,3.782213623046875,0.6616263182856142,9.555860298708081,-2.1019503599241376
1776556120639253800,3.792253662109375,0.6664115067355334,9.554378535717726,-2.1071607880488035
1776556120649293800,3.8022939453125,0.6854856981050222,9.55312239817679,-2.106737740331143
1776556120659334000,3.812333984375,0.7135716095782816,9.552386485117673,-2.1007344082631167
1776556120669375000,3.822375,0.7409935772500932,9.552496375232934,-2.0907206715099513
1776556120679414800,3.832414794921875,0.7604563295457512,9.553238718032837,-2.080310044393688
1776556120689454800,3.842454833984375,0.7713351586956531,9.554132452002166,-2.0721971728257835
1776556120699495700,3.85249560546875,0.7767145867116749,9.55494727551639,-2.0664159590758384
1776556120709535700,3.86253564453125,0.7794402122832834,9.555617722123861,-2.0622908419698476
1776556120719575800,3.872575927734375,0.7827736675549298,9.555678512400387,-2.0607479964420197
1776556120729617000,3.882616943359375,0.7897470136988908,9.554553307762742,-2.0633013341866433
1776556120739654000,3.89265380859375,0.7987711548928171,9.552529108458756,-2.0691803092226384
1776556120749694000,3.90269384765625,0.8046827170241624,9.550511338895559,-2.0761977867692707
1776556120759734000,3.912734130859375,0.8087317732192576,9.548239886832237,-2.085049055614322
1776556120769774800,3.92277490234375,0.8159486457955092,9.545204464659093,-2.096105871679634
1776556120779815000,3.93281494140625,0.8239899134319275,9.542910216242074,-2.1033986590363085
1776556120789854700,3.942854736328125,0.824881820770353,9.542776360729336,-2.103660524842888
1776556120799895800,3.952895751953125,0.8252070341367274,9.542124034300446,-2.1064894646584986
1776556120809936000,3.962935791015625,0.8360688390865921,9.539159923797845,-2.1156137052260338
1776556120819976000,3.972975830078125,0.8525648505311458,9.53551484529376,-2.125442440801114
1776556120830016000,3.98301611328125,0.8647617034770548,9.532740119883417,-2.1329428795590997
1776556120840056800,3.993056884765625,0.8693259426526725,9.530790739381313,-2.139790991888195
1776556120850097000,4.003096923828125,0.8690913301791995,9.52959948377013,-2.1451848137557503
1776556120860136700,4.01313671875,0.8662329450733959,9.529595392116903,-2.146361602450162
1776556120870177800,4.023177734375,0.8624621212977915,9.530410800153016,-2.144252939733118
1776556120880217900,4.0332177734375,0.8576044521335512,9.531588611760736,-2.140962958277017
1776556120890258000,4.0432578125,0.8512155548140407,9.532539044353365,-2.139281142669916
1776556120900298800,4.053298828125,0.8423574178367853,9.53329541567862,-2.1394111987903712
1776556120910338800,4.0633388671875,0.8290616637382656,9.534405422747135,-2.1396553828097877
1776556120920379000,4.07337890625,0.8118643721565604,9.535729949349165,-2.140359585556388
1776556120930419000,4.0834189453125,0.7929102269701659,9.536993685674666,-2.1418261509776113
1776556120940460000,4.0934599609375,0.7699985763296484,9.53842225717306,-2.143819516751915
1776556120950499800,4.103499755859375,0.7422430658545345,9.540023847150803,-2.1464840597860513
1776556120960540000,4.113539794921875,0.7115856964580715,9.541783258038759,-2.149040612401068
1776556120970580700,4.123580810546875,0.6805471457242965,9.543750758719444,-2.150358270870894
1776556120980620800,4.133620849609375,0.6505111230965703,9.546179447171092,-2.148874900445342
1776556120990660900,4.143660888671875,0.6234788123294711,9.548985152241587,-2.1444217204287646
1776556121000701000,4.153700927734375,0.5982720364890992,9.552401682686805,-2.1363715388335285
1776556121010742000,4.163741943359375,0.5734698593942448,9.556078909894824,-2.1267077845618125
1776556121020781800,4.17378173828125,0.5491630646008998,9.560070609879492,-2.1151488641932605
1776556121030822000,4.18382177734375,0.5289766742058098,9.564351648199558,-2.100885945563018
1776556121040862700,4.19386279296875,0.5150149670118466,9.56891617963612,-2.0835009493894874
1776556121050902800,4.20390283203125,0.5044312118183821,9.573463759937882,-2.0651219737425444
1776556121060942800,4.21394287109375,0.49254039261434224,9.578529811155795,-2.0443897129677233
1776556121070984000,4.22398388671875,0.47515470232106743,9.585022680306434,-2.017904295493662
1776556121081024000,4.23402392578125,0.45127873669303953,9.592978023225069,-1.9853228992320595
1776556121091063800,4.244063720703125,0.4220108854262158,9.602071430262923,-1.9474482188679276
1776556121101103900,4.254103759765625,0.3873920285202563,9.611518473044038,-1.907628688046336
1776556121111144700,4.264144775390625,0.34574857020713384,9.620830491268634,-1.8682788205631076
1776556121121184800,4.274184814453125,0.2958382188081741,9.629866030639409,-1.8299112421154975
1776556121131224800,4.284224853515625,0.23653502076705915,9.638975219768286,-1.7901412495240567
1776556121141266000,4.294265869140625,0.16414905379097908,9.648948332250118,-1.7439095135726033
1776556121151306000,4.304305908203125,0.07699771682154387,9.659429978775977,-1.6911096512772141
1776556121161346000,4.314345947265625,-0.018892676773143467,9.669269235745071,-1.6356249338120221
1776556121171385900,4.3243857421875,-0.1202711509566754,9.678459673416613,-1.5758705762036145
1776556121181426700,4.3344267578125,-0.22653544040340928,9.687201782798766,-1.50903692785874
1776556121191466800,4.344466796875,-0.33805173209421335,9.695128484144806,-1.435482008434832
1776556121201506800,4.3545068359375,-0.45745187237001955,9.701528414314986,-1.3570039533950387
1776556121211548000,4.3645478515625,-0.5867941454675049,9.705580320054292,-1.2758359286189078
1776556121221588000,4.374587890625,-0.7255082772180438,9.70660790953636,-1.1940515255101025
1776556121231628000,4.3846279296875,-0.8710699367757886,9.70442822740972,-1.1116113619063048
1776556121241667800,4.394667724609375,-1.0186379677198827,9.699117261520028,-1.029497872973606
1776556121251708700,4.404708740234375,-1.1597815185744316,9.69143021414876,-0.949451326508075
1776556121261748700,4.414748779296875,-1.2877967077866195,9.682687520244716,-0.870355797157064
1776556121271788800,4.424788818359375,-1.399542241656035,9.67399041904807,-0.7909398036800325
1776556121281828900,4.434828857421875,-1.498603358258307,9.665437694758177,-0.7098615030139684
1776556121291870000,4.444869873046875,-1.591641561309248,9.65625310230553,-0.6275802562989294
1776556121301910000,4.454909912109375,-1.6847481534212827,9.645330726274848,-0.5473609105497599
1776556121311950000,4.4649501953125,-1.7813509170860051,9.631825348013638,-0.4744508649006486
1776556121321991000,4.474990966796875,-1.8803554811954497,9.615755672222376,-0.41459271812420334
1776556121332030700,4.48503076171875,-1.9799235244065523,9.597574703365563,-0.36989827474262565
1776556121342070800,4.49507080078125,-2.074494928374141,9.578711597463489,-0.3392936219140887
1776556121352110800,4.50511083984375,-2.161007090657204,9.560314355507492,-0.31753497723359614
1776556121362152000,4.51515185546875,-2.23749879418537,9.543280803120135,-0.2996574665690772
1776556121372192000,4.52519189453125,-2.3042086700201034,9.527895017939805,-0.2832355615403503
1776556121382232000,4.535232177734375,-2.360730329317599,9.51449777622819,-0.2676912065311335
1776556121392273000,4.54527294921875,-2.405763210873306,9.50365957134962,-0.25131847440637645
1776556121402312700,4.555312744140625,-2.4382440693698824,9.495918163442612,-0.2299460890971124
1776556121412352800,4.565352783203125,-2.4576094257056713,9.491585102674364,-0.20087054553199557
1776556121422393000,4.57539306640625,-2.4635829471573234,9.490745729240775,-0.16398085761722175
1776556121432434200,4.58543408203125,-2.458575932650268,9.492684003826975,-0.12130920703383162
1776556121442474000,4.595473876953125,-2.446702101113647,9.496215100562573,-0.07706511950194835
1776556121452514000,4.60551416015625,-2.4319207115672525,9.500252393254637,-0.03713037850258406
1776556121462555000,4.615554931640625,-2.4173193547628817,9.504047693884372,-0.005293228161957813
1776556121472595000,4.625594970703125,-2.40406663608849,9.507399342399834,0.015182803104270714
1776556121482635000,4.635635009765625,-2.392350187070668,9.51033948750496,0.022546769700746518
1776556121492675000,4.645675048828125,-2.3809001339040696,9.513220011377333,0.018570766183774685
1776556121502716200,4.655716064453125,-2.3681014426074922,9.516427867507934,0.009445836633894941
1776556121512756000,4.665755859375,-2.3538800250314176,9.51996013328731,0.0003806885037312895
1776556121522796000,4.675796142578125,-2.3385646747387945,9.523729714953898,-0.009324554050006553
1776556121532835800,4.6858359375,-2.3215562567926944,9.52786754541099,-0.02212297763099195
1776556121542877000,4.695876953125,-2.3030453253291547,9.53230815820694,-0.038436250636493786
1776556121552917000,4.7059169921875,-2.2854918407209217,9.536436051791906,-0.05743799782427959
1776556121562957000,4.71595703125,-2.269467465376109,9.540115032565593,-0.07827089682882651
1776556121572998100,4.725998046875,-2.2527761505551633,9.543878184491396,-0.0988420852904208
1776556121583038200,4.7360380859375,-2.2330206258580088,9.548310613980888,-0.11726728383242152
1776556121593078000,4.746078125,-2.2094405744366346,9.55358884664476,-0.1330813956937287
1776556121603117800,4.756117919921875,-2.182082319650799,9.559669627863169,-0.14701291781198234
1776556121613159000,4.766158935546875,-2.151168125949055,9.566447159174084,-0.16104045678377152
1776556121623199000,4.776198974609375,-2.115618381401151,9.574085106706619,-0.17729296006234363
1776556121633239000,4.786239013671875,-2.0758817065574227,9.582371873536706,-0.19808718015747143
1776556121643280100,4.796280029296875,-2.0351883155107497,9.590516017025708,-0.22448048063497988
1776556121653320200,4.8063203125,-1.9977230927303433,9.597606852069497,-0.2557663754596375
1776556121663360000,4.816360107421875,-1.9655384407013654,9.603297172665595,-0.28938378197178244
1776556121673399800,4.82639990234375,-1.9384791688621044,9.60772667954564,-0.32291835077237335
1776556121683441000,4.83644091796875,-1.9143482055597005,9.611462358942628,-0.3542083555165678
1776556121693481000,4.84648095703125,-1.8897336965240537,9.615154783719777,-0.3848303248060867
1776556121703521000,4.85652099609375,-1.8615579878754913,9.619301382005213,-0.41719829751271753
1776556121713561000,4.86656103515625,-1.82758937503919,9.624257543107866,-0.45163211670797315
1776556121723602200,4.876602294921875,-1.7883999588146804,9.629851417592167,-0.4878292557813227
1776556121733642000,4.88664208984375,-1.745945841705799,9.635619479599594,-0.5261959209134802
1776556121743681800,4.896681884765625,-1.7045559928275644,9.640715341433882,-0.5669858311371877
1776556121753723000,4.906722900390625,-1.667299736622721,9.644678984367847,-0.6088340913074091
1776556121763763000,4.916762939453125,-1.6352097771398721,9.647517422664166,-0.6495296377785503
1776556121773803000,4.926802978515625,-1.6056955133639275,9.649791212815046,-0.6882349968131631
1776556121783843000,4.936843017578125,-1.5737332719139754,9.652398764964937,-0.7245227733120322
1776556121793884200,4.94688427734375,-1.53359912218526,9.656295772403478,-0.7579111751075833
1776556121803924000,4.956924072265625,-1.484645267793536,9.661578096720575,-0.7874928780965507
1776556121813963800,4.9669638671875,-1.4272694758847355,9.667954061493276,-0.8148477718815207
1776556121824003800,4.97700390625,-1.363620448925346,9.674798812821507,-0.8421440673470497
1776556121834045000,4.987044921875,-1.2943642496086656,9.68161784518659,-0.872519404931739
1776556121844085000,4.9970849609375,-1.2187390997819603,9.687971598127485,-0.9100876496952026
1776556121854125000,5.007125,-1.1359964461002499,9.69338836247921,-0.9581870792146772
1776556121864166100,5.017166259765625,-1.0452978649780154,9.697552496421336,-1.0174633709825576
1776556121874206000,5.0272060546875,-0.9451805173210799,9.700851537966727,-1.0818973377745598
1776556121884245800,5.037245849609375,-0.8373453618284314,9.703913263624907,-1.1416312371168285
1776556121894285800,5.047285888671875,-0.7260041709762066,9.707385323649644,-1.1874116491042077
1776556121904327000,5.057326904296875,-0.6147298348151147,9.711742349815369,-1.2143155111860484
1776556121914367000,5.067366943359375,-0.5029325342258438,9.717052146661281,-1.2232432793334125
1776556121924407000,5.077406982421875,-0.3928125922642648,9.722994396191835,-1.2163261934213339
1776556121934447000,5.087447021484375,-0.29366827262425793,9.72896937894821,-1.1963714198250324
1776556121944488000,5.097488037109375,-0.2178151227279566,9.73411784775257,-1.1704261005770413
1776556121954528000,5.107528076171875,-0.17760606286581604,9.737647775444389,-1.1476399760123341
1776556121964567800,5.11756787109375,-0.17612952403984963,9.739088621902464,-1.1355717909473926
1776556121974608000,5.12760791015625,-0.20373428266635163,9.738298348307609,-1.1377277268722652
1776556121984649000,5.13764892578125,-0.24450307703679425,9.736096454349159,-1.148492135862261
1776556121994689000,5.14768896484375,-0.2876236038988456,9.733799867844581,-1.1579380826648324
1776556122004729000,5.15772900390625,-0.3275511251395568,9.73150737299323,-1.1665538622535765
1776556122014770000,5.16777001953125,-0.35925416766405105,9.728543847012519,-1.1818503617152571
1776556122024810000,5.17781005859375,-0.3816575034562498,9.725232530507444,-1.2019028965976088
1776556122034849800,5.187849853515625,-0.39942817447911944,9.721948686531185,-1.2225210294734685
1776556122044889900,5.197889892578125,-0.42031018245555457,9.718448569455742,-1.2431674385957419
1776556122054931000,5.207930908203125,-0.446698971154727,9.714412445807456,-1.265315411387384
1776556122064971000,5.217970947265625,-0.47766328760851173,9.709722826686502,-1.2897799905583263
1776556122075011000,5.228010986328125,-0.5126038142168894,9.70437386687398,-1.3163476794883608
1776556122085051100,5.238051025390625,-0.550623930933699,9.69810545412898,-1.3468344415582716
1776556122095092000,5.248092041015625,-0.5879368126966059,9.691233814793824,-1.380119309914112
1776556122105131800,5.2581318359375,-0.620297259683907,9.683870008027553,-1.4171322588823736
1776556122115171800,5.268171875,-0.6431701126839965,9.676700262528657,-1.4553969614773987
1776556122125212000,5.2782119140625,-0.6508522646844387,9.669016722288728,-1.5022972443401812
1776556122135253000,5.2882529296875,-0.6387758963130414,9.659585461598635,-1.5667672322936355
1776556122145293000,5.29829296875,-0.6042447542231529,9.648729136541485,-1.645392294588685
1776556122155333000,5.3083330078125,-0.5369632159803063,9.637443187895416,-1.732563359171897
1776556122165374000,5.3183740234375,-0.4247181350909173,9.626080082359909,-1.824443185967952
1776556122175414000,5.3284140625,-0.26461415543965994,9.61503904838562,-1.9108571485735475
1776556122185453800,5.338453857421875,-0.053679974164743904,9.604770752349495,-1.9788523880437014
1776556122195494000,5.348493896484375,0.19976970815062522,9.593916180858015,-2.021696819644421
1776556122205535000,5.358534912109375,0.4728033168893307,9.58122796419859,-2.036400760040432
1776556122215575000,5.368574951171875,0.7381967130731791,9.566647065660357,-2.0260101527988907
1776556122225615000,5.378614990234375,0.9716641812294721,9.551434298959373,-1.999085759385675
1776556122235655200,5.3886552734375,1.1524648388855159,9.538314705145359,-1.9653842730529605
1776556122245696000,5.398696044921875,1.2638666738837956,9.530485618954897,-1.934648796918988
1776556122255735800,5.40873583984375,1.3077287580944597,9.52883726722598,-1.9135047404728829
1776556122265775900,5.41877587890625,1.3056041671559213,9.531192305919527,-1.903198450513929
1776556122275816000,5.42881591796875,1.2839476311430333,9.534468551111221,-1.9015183884724973
1776556122285857000,5.43885693359375,1.2575205197274684,9.537162612500786,-1.905668493889272
1776556122295897000,5.44889697265625,1.227129911508411,9.53928208887279,-1.9148551321685312
1776556122305937200,5.458937255859375,1.191235518241301,9.54103507001996,-1.9287223294794558
1776556122315978000,5.46897802734375,1.15274416728355,9.542212881627679,-1.9462062559828162
1776556122326018000,5.47901806640625,1.1164529567185788,9.542444936817883,-1.9661289539404212
1776556122336057900,5.489057861328125,1.0877724403530358,9.541862168493866,-1.9849429600037634
1776556122346098000,5.499097900390625,1.0703286266643552,9.540984801137446,-1.9985954916507005
1776556122356139000,5.509138916015625,1.0664710013881324,9.539965979483723,-2.0055156463026997
1776556122366179000,5.519178955078125,1.078000549531728,9.538474279621243,-2.006443428672105
1776556122376219100,5.52921923828125,1.106098151442781,9.536007597246765,-2.002873168969899
1776556122386259200,5.53925927734375,1.1489647218100727,9.532299390378594,-1.996380738210678
1776556122396300000,5.549300048828125,1.199747983586043,9.527669392490386,-1.9885956372924147
1776556122406339800,5.55933984375,1.2488102667883039,9.523052838605642,-1.9804849576815962
1776556122416380000,5.5693798828125,1.2918090121679007,9.518968784162402,-1.972532829633355
1776556122426420000,5.579419921875,1.3250968031331896,9.515972524955869,-1.9648859681420028
1776556122436461000,5.5894609375,1.3440861657634378,9.514911033204198,-1.957117379967123
1776556122446500900,5.5995009765625,1.3439467572927475,9.51688204101622,-1.9476016558639704
1776556122456541000,5.609541015625,1.3226641691587864,9.522212880650162,-1.9360744458079338
1776556122466581000,5.6195810546875,1.2842661955729127,9.52977074868381,-1.9247186467960475
1776556122476621800,5.629621826171875,1.2403995813176034,9.537835397195815,-1.9135012333415446
1776556122486662000,5.639661865234375,1.200283040310815,9.545491464906931,-1.9008692769140003
1776556122496702000,5.649701904296875,1.1683240867964924,9.552455458700656,-1.8857379048861562
1776556122506741800,5.65974169921875,1.1480161889135836,9.558236380189657,-1.8688409844905136
1776556122516782800,5.669782958984375,1.1416346711829304,9.562326864373683,-1.8517424040429293
1776556122526823000,5.679822998046875,1.147450663985312,9.564567336776852,-1.8365176546432076
1776556122536863000,5.689863037109375,1.1554847712285816,9.565384498378634,-1.8271996450692414
1776556122546902800,5.69990283203125,1.161757494822517,9.56440133256018,-1.8283654739782214
1776556122556944000,5.70994384765625,1.1706276875637471,9.560781973019242,-1.8415913046456873
1776556122566984000,5.71998388671875,1.184869636471197,9.554498947227001,-1.8649486532270907
1776556122577023700,5.730023681640625,1.1986563889570534,9.547233924660086,-1.893130937746912
1776556122587064800,5.74006494140625,1.1958979570943862,9.542406942895054,-1.9190309565484522
1776556122597105000,5.75010498046875,1.1571578920725731,9.543929037895799,-1.9351456405252216
1776556122607145000,5.76014501953125,1.088136086033657,9.551857492807507,-1.9360653857186436
1776556122617184800,5.770184814453125,1.0139603312976657,9.562140986412762,-1.9255407768338917
1776556122627225900,5.780225830078125,0.9559043020397424,9.570897124320268,-1.911688046439737
1776556122637266000,5.790265869140625,0.9264641264133154,9.576724223038553,-1.8969418743371962
1776556122647306000,5.800305908203125,0.9280247267935424,9.579555062550305,-1.8818265766613185
1776556122657345800,5.810345703125,0.9381691041890531,9.582018822315336,-1.8641747462451457
1776556122667387000,5.820386962890625,0.9323786111541091,9.587671733510494,-1.8378328288950025
1776556122677426700,5.8304267578125,0.906832081965357,9.59635188357234,-1.8050195235736668
1776556122687466800,5.840466796875,0.8684939488079398,9.6047988094002,-1.7787459952846167
1776556122697506800,5.8505068359375,0.8269369997344911,9.610269349765778,-1.7689834568135439
1776556122707548000,5.8605478515625,0.7939296331457794,9.61231517637968,-1.7729862627141177
1776556122717588000,5.870587890625,0.7809973055321723,9.611750528234243,-1.7817641740620136
1776556122727627800,5.880627685546875,0.7943878252420574,9.609131870168447,-1.7899517183013258
1776556122737667800,5.890667724609375,0.8311726645428686,9.604506548455356,-1.7980458851687608
1776556122747708700,5.900708740234375,0.8794337874300777,9.598460838550329,-1.8073451900422572
1776556122757748700,5.910748779296875,0.9256586552493273,9.592653029054402,-1.8150952196471393
1776556122767788800,5.920788818359375,0.959850555447489,9.58861164470911,-1.8186862298764288
1776556122777828900,5.930828857421875,0.9781125536512583,9.587487609115243,-1.814867109979689
1776556122787870000,5.940869873046875,0.9866558525256812,9.588335165855288,-1.8057414081074297
1776556122797910000,5.950909912109375,0.9930861778341233,9.590355273506045,-1.7914407878153025
1776556122807949800,5.96094970703125,0.9924415232550352,9.59317851423323,-1.7766168743014334
1776556122817990000,5.970989990234375,0.9860952229682356,9.595836335265636,-1.765760403113812
1776556122828030700,5.98103076171875,0.979863342841342,9.598940146499872,-1.7523178609557448
1776556122838070800,5.99107080078125,0.9679705874085426,9.604983518317342,-1.7256060873799024
1776556122848110800,6.00111083984375,0.9512609332133084,9.614799394410849,-1.6796217503182589
1776556122858151000,6.01115087890625,0.9407406351774931,9.626281157889961,-1.6186742374025285
1776556122868192000,6.02119189453125,0.9447736900858581,9.635887190625072,-1.5580325755655764
1776556122878231800,6.031231689453125,0.9564045797120779,9.641674541854858,-1.5145254422724246
1776556122888272000,6.04127197265625,0.9572210837267339,9.644446344655751,-1.4962565028712154
1776556122898312000,6.05131201171875,0.935900063278526,9.64605085724294,-1.4993952392883598
1776556122908352800,6.061352783203125,0.9031946022458374,9.646618427997828,-1.5157177207969128
1776556122918392800,6.071392822265625,0.8806813032731413,9.64499170357883,-1.5391260689131914
1776556122928433000,6.081432861328125,0.8844604564856737,9.640522449210286,-1.5647553079493344
1776556122938472700,6.09147265625,0.9187320708565413,9.633374331021308,-1.5888428705014288
1776556122948513800,6.101513671875,0.9781115307379513,9.623814475515484,-1.6111800822548568
1776556122958553900,6.111553955078125,1.0498960064232348,9.61216612329781,-1.6353531311333178
1776556122968594000,6.121593994140625,1.117500346879661,9.599663200077414,-1.6637423364020882
1776556122978634000,6.131634033203125,1.1676886384371667,9.587749474921822,-1.6976298468261957
1776556122988674800,6.1416748046875,1.196791325737536,9.578397709208726,-1.7298463552981613
1776556122998715000,6.15171484375,1.2075015203222632,9.572340308865904,-1.755735122053325
1776556123008755000,6.1617548828125,1.2119549925997852,9.568065115764737,-1.7758575803667307
1776556123018794800,6.171794677734375,1.2293350203372537,9.562291793060302,-1.794913286231458
1776556123028835800,6.1818359375,1.2744536804802715,9.552411035037041,-1.8159353237330913
1776556123038876000,6.1918759765625,1.3433752410151063,9.538819732058048,-1.8375681866094469
1776556123048916000,6.201916015625,1.4142341993533074,9.525064178428053,-1.8556565087467431
1776556123058956000,6.2119560546875,1.469138194321096,9.514053539592027,-1.8694484488643706
1776556123068996900,6.221996826171875,1.5068419020324944,9.5057860619843,-1.8814444454759358
1776556123079037000,6.232036865234375,1.5372108829416333,9.49841699452102,-1.8940623733781277
1776556123089076700,6.24207666015625,1.5682048638813197,9.490385079234837,-1.9088477084472775
1776556123099116800,6.25211669921875,1.5995755691789089,9.481123914414644,-1.9287467332683503
1776556123109158000,6.262157958984375,1.6340128224402666,9.469104975318908,-1.9586774688906967
1776556123119198000,6.272197998046875,1.6793711365580557,9.451777408421039,-2.0034918853901327
1776556123129238000,6.282238037109375,1.7299889786392448,9.430832820069789,-2.0583765911355614
1776556123139277800,6.29227783203125,1.7634001037232576,9.413336326345801,-2.1094771021671592
1776556123149319000,6.30231884765625,1.7728961002126336,9.402675816121697,-2.148698520965129
1776556123159358700,6.312358642578125,1.7662471637174486,9.397471817737816,-2.1767620014108715
1776556123169398800,6.322398681640625,1.75806648761034,9.39364086127281,-2.199799470388144
1776556123179438800,6.33243896484375,1.7588946089975535,9.388744321402907,-2.219945601838082
1776556123189479000,6.34247900390625,1.7796823993518947,9.381732396814227,-2.2329883310236034
1776556123199520000,6.35252001953125,1.8247667188338934,9.373381332576274,-2.2316712570756674
1776556123209559800,6.362559814453125,1.8887889630198478,9.364914533004164,-2.213869789055735
1776556123219600000,6.372599853515625,1.9663044566377996,9.354159330233932,-2.191744758748263
1776556123229639700,6.3826396484375,2.061436709358543,9.336022785040736,-2.181633991361409
1776556123239680800,6.3926806640625,2.150459539288282,9.31117359046638,-2.2018001426860687
1776556123249720800,6.402720947265625,2.204114849369228,9.283129983764887,-2.2662224921055136
1776556123259761000,6.412760986328125,2.2103676261536775,9.259188551685213,-2.356281971606612
1776556123269801000,6.422801025390625,2.1846897256702182,9.241520793047547,-2.447814592400193
1776556123279841800,6.432841796875,2.1680017718501388,9.222895003032685,-2.5314687349036333
1776556123289881900,6.4428818359375,2.1881787368297574,9.20192118858695,-2.5897686559200284
1776556123299921700,6.452921630859375,2.2428670432202518,9.183346836498378,-2.6088515420526264
1776556123309961700,6.462961669921875,2.31162829862684,9.167357824727892,-2.6050521497696635
1776556123320002800,6.4730029296875,2.3738556222200393,9.15381971324086,-2.5966882260501385
1776556123330043000,6.48304296875,2.421091128386557,9.140495536765455,-2.600012402036786
1776556123340085800,6.493085693359375,2.4574083501756188,9.122541946923732,-2.6288316692858933
1776556123350125800,6.503125732421875,2.492231826275587,9.09777926158905,-2.681337224809825
1776556123360167000,6.5131669921875,2.529234984502196,9.06898220617175,-2.743525969958305
1776556123370206700,6.523206787109375,2.567279176214337,9.038101330217719,-2.8093083556845784
1776556123380246800,6.533246826171875,2.6058000455275176,9.005494361123443,-2.8777243047848344
1776556123390286800,6.543286865234375,2.64431740770936,8.97242912686765,-2.945083146047592
1776556123400328000,6.553327880859375,2.682429403960705,8.940247105187177,-3.0078184191629287
1776556123410368000,6.563367919921875,2.7177137755706906,8.90963569382429,-3.066394526772201
1776556123420407600,6.573407470703125,2.7488129704505204,8.879939643740654,-3.1242759301155805
1776556123430447600,6.583447509765625,2.777092723995447,8.850041349083185,-3.1835365128576756
1776556123440488700,6.59348876953125,2.8035622132480142,8.819730966493486,-3.2438825527489183
1776556123450528500,6.603528564453125,2.829263056215644,8.789078638598323,-3.3042046272426844
1776556123460568600,6.613568603515625,2.857795323216915,8.757295845368503,-3.3635043729513883
1776556123470608600,6.623608642578125,2.8887103937014937,8.725369844275713,-3.4196009387046096
1776556123480648700,6.633648681640625,2.9130019543930885,8.696382819244265,-3.472420967005193
1776556123490689800,6.643689697265625,2.9231249967396256,8.671806011870503,-3.5249823443695902
1776556123500729600,6.6537294921875,2.9196774866342543,8.649871243438124,-3.5812826160013675
1776556123510769700,6.663769775390625,2.911641187433898,8.62643542279303,-3.6438086302801964
1776556123520809700,6.673809814453125,2.9110549119785425,8.597738905140757,-3.711474053274095
1776556123530850600,6.6838505859375,2.924414744289219,8.562392281949519,-3.7820126936167475
1776556123540890600,6.693890625,2.951066604371369,8.520427117401361,-3.8553745746865866
1776556123550930700,6.7039306640625,2.9872213290750977,8.471513156628609,-3.934508024895191
1776556123560970500,6.713970458984375,3.031839053958654,8.414144086721539,-4.02250078112483
1776556123571011600,6.724011474609375,3.083214144147932,8.34737473578453,-4.121348985628783
1776556123581051600,6.7340517578125,3.1373668823570013,8.272509172153473,-4.230003129354119
1776556123591091700,6.744091796875,3.191829417167604,8.191737599349022,-4.344883015726507
1776556123601131800,6.7541318359375,3.245804752983153,8.10658152785003,-4.463011674761772
1776556123611172600,6.764172607421875,3.30069661912173,8.01777570167184,-4.581600644785166
1776556123621212700,6.774212646484375,3.3563886957272886,7.927567607480287,-4.696669039466977
1776556123631252700,6.784252685546875,3.4097146277233956,7.841486822351813,-4.801595979362726
1776556123641292500,6.79429248046875,3.459420031134784,7.767356587257981,-4.885796942093968
1776556123651332600,6.80433251953125,3.5092066830888387,7.710871314448117,-4.939464819395542
1776556123661373700,6.814373779296875,3.5599347075462338,7.6735940154552456,-4.9611681171596045
1776556123671413800,6.824413818359375,3.606572247819602,7.654509960278868,-4.956964235728979
1776556123681453800,6.834453857421875,3.6372640309423208,7.653370727115869,-4.936254625177384
1776556123691493600,6.84449365234375,3.63605348610878,7.672016975396871,-4.9081210021048784
1776556123701534700,6.85453466796875,3.5885090601235627,7.7135338116556404,-4.877947397637367
1776556123711574500,6.864574462890625,3.490098077993095,7.77892135284543,-4.845410571169853
1776556123721614600,6.874614501953125,3.3485783142372965,7.865490798273682,-4.805358254505694
1776556123731654700,6.884654541015625,3.1796924046501513,7.965991738420724,-4.754252044385671
1776556123741695700,6.89469580078125,3.0006410748794674,8.071562236917018,-4.692166467350721
1776556123751735800,6.90473583984375,2.8267814685329795,8.175249990406632,-4.620065107735991
1776556123761775600,6.914775634765625,2.6699887323215603,8.273937159129977,-4.536902840402722
1776556123771815400,6.9248154296875,2.5360633692175147,8.36850403305292,-4.439247937336564
1776556123781855500,6.93485546875,2.4236139248624444,8.460310794612765,-4.326619044761359
1776556123791896600,6.944896484375,2.325855999813229,8.549064013820885,-4.204081337112188
1776556123801936600,6.9549365234375,2.230049501092732,8.633716811972857,-4.081201976418495
1776556123811976700,6.964976806640625,2.1182551596455275,8.712947000554204,-3.9708860369607804
1776556123822016800,6.975016845703125,1.978270642632991,8.787015276327729,-3.8788124411582943
1776556123832057600,6.9850576171875,1.808854133300483,8.858528022399545,-3.7980093041718006
1776556123842097700,6.99509765625,1.610765656235069,8.929508269029855,-3.7201769996896386
1776556123852137500,7.005137451171875,1.3837404230207204,8.998345658412575,-3.644915130217373
1776556123862177500,7.015177490234375,1.1354098053187132,9.065095135605334,-3.564442248098552
1776556123872217600,7.025217529296875,0.8786623646661639,9.129282068833708,-3.471968254801631
1776556123882258700,7.0352587890625,0.6254512814462184,9.190085204842687,-3.364752619446814
1776556123892298800,7.045298828125,0.3832721355786547,9.246733559259772,-3.2436753397390246
1776556123902338800,7.0553388671875,0.15334931775927543,9.298333982637525,-3.1125337621346114
1776556123912378600,7.065378662109375,-0.06896858714749105,9.342903776726127,-2.9792268231898547
1776556123922419500,7.07541943359375,-0.2883146001040004,9.37850057528615,-2.8514921314194797
1776556123932459500,7.08545947265625,-0.5091657660596073,9.403968778541683,-2.7343182888910174
1776556123942499600,7.09549951171875,-0.7336764591697603,9.41925110334754,-2.6286507597610353
1776556123952539600,7.10553955078125,-0.9601268881708382,9.424989354738592,-2.5333950267910956
1776556123962579700,7.115579833984375,-1.1827698877129702,9.422816686874627,-2.4458042754910885
1776556123972620800,7.125620849609375,-1.3953838068023323,9.415324869814514,-2.3611323342472312
1776556123982660600,7.13566064453125,-1.5956525505162775,9.405067095172404,-2.2735445055566728
1776556123992700700,7.14570068359375,-1.7840598837837576,9.3939249389112,-2.177544383960217
1776556124002740700,7.15574072265625,-1.958605134306848,9.38394598121047,-2.06780697504282
1776556124012781600,7.165781494140625,-2.1179140911228953,9.3762986813277,-1.9416155671916902
1776556124022821600,7.175821533203125,-2.261660737147927,9.370790147039294,-1.8009943597108125
1776556124032861700,7.18586181640625,-2.3906213174514472,9.3662104180336,-1.652096322271973
1776556124042901800,7.19590185546875,-2.5077850769773122,9.3609111425817,-1.5015817895472048
1776556124052941600,7.205941650390625,-2.6164830598443745,9.353723861426115,-1.3536115344777702
1776556124062982700,7.215982666015625,-2.719689751818776,9.344168097573519,-1.2083924047473817
1776556124073022700,7.226022705078125,-2.8188401541396972,9.332126362124084,-1.0658077151738106
1776556124083062500,7.2360625,-2.9137857982471584,9.317818435308336,-0.9265472746521234
1776556124093102600,7.2461025390625,-3.0033982646331188,9.30173648455739,-0.7922592157155275
1776556124103143700,7.256143798828125,-3.0862744085013865,9.284542188650368,-0.6652507923930883
1776556124113183700,7.266183837890625,-3.1626985997512933,9.2665628798455,-0.546383626482822
1776556124123223600,7.2762236328125,-3.2340295595154163,9.24783772110939,-0.4346618753477931
1776556124133263600,7.286263671875,-3.3001983142107725,9.228785230115056,-0.3295421528263017
1776556124143303700,7.2963037109375,-3.3613398883938785,9.209711111810803,-0.2302385327050462
1776556124153344500,7.306344482421875,-3.416780620586872,9.19115838703215,-0.13636375096580014
1776556124163384600,7.316384521484375,-3.466343400657177,9.17346023325622,-0.049742420086683704
1776556124173424600,7.326424560546875,-3.5103222431153056,9.156818895056844,0.026320557184994684
1776556124183464700,7.336464599609375,-3.5478114312931894,9.14196210218668,0.0891978029041551
1776556124193504500,7.34650439453125,-3.579442541092634,9.129028970855474,0.13720333446194416
1776556124203545600,7.356545654296875,-3.6053842070788145,9.11827552165091,0.16927699126396328
1776556124213585700,7.366585693359375,-3.6244632938191295,9.110394413012266,0.1854330849633552
1776556124223625700,7.376625732421875,-3.6369977812215684,9.105357003366947,0.18737746049677953
1776556124233665800,7.386665771484375,-3.6447219457328317,9.102444915312528,0.17857488963166251
1776556124243705900,7.396705810546875,-3.651227089843154,9.100115595582126,0.1638189450537786
1776556124253746700,7.40674658203125,-3.6609587947845457,9.096478700384496,0.14775692284600808
1776556124263786500,7.416786376953125,-3.6782939604669806,9.089693570289015,0.13424613775731994
1776556124273826600,7.42682666015625,-3.707148591290414,9.078087303647399,0.1255909851394128
1776556124283866600,7.43686669921875,-3.74789707352519,9.061358287164568,0.12426726225498132
1776556124293906700,7.44690673828125,-3.798603178411722,9.040099226036668,0.1327265087082982
1776556124303947800,7.45694775390625,-3.85520097168535,9.01579422134161,0.15247191387023776
1776556124313987800,7.46698779296875,-3.91450831617862,8.989641542953253,0.1826796398030594
1776556124324027600,7.477027587890625,-3.976381419506669,8.961620148083567,0.21942420189240947
1776556124334067500,7.4870673828125,-4.044332673704624,8.930149489542842,0.25729480886962264
1776556124344108500,7.497108642578125,-4.121674564321339,8.893570694208144,0.29424800874097273
1776556124354148600,7.507148681640625,-4.207768501192331,8.851748737522959,0.3341021542182192
1776556124364188700,7.517188720703125,-4.300546153610944,8.805052452799677,0.3830777455177158
1776556124374228700,7.527228759765625,-4.394851453988254,8.755280998414754,0.44804008356537667
1776556124384268800,7.537268798828125,-4.475050195340812,8.709667832753063,0.5347937995193526
1776556124394309600,7.5473095703125,-4.5232633143678305,8.676841667950153,0.650306175108999
1776556124404349400,7.557349365234375,-4.532648105567693,8.659016088402272,0.8043244781710207
1776556124414390500,7.567390625,-4.5126314457163215,8.651376387304067,0.979920187595114
1776556124424430600,7.5774306640625,-4.487002791202068,8.642647721925377,1.1583780084520579
1776556124434470700,7.587470703125,-4.484858472649753,8.608822609212995,1.394493726094812
1776556124444511700,7.59751171875,-4.50217990206778,8.546964995715022,1.6882430097997188
1776556124454551800,7.6075517578125,-4.543920610210299,8.465147713249921,1.9658201802521942
1776556124464591600,7.617591552734375,-4.641778926894069,8.359264495542645,2.178753905880451
1776556124474631400,7.62763134765625,-4.822493513701856,8.21538910857141,2.328373243331164
1776556124484671500,7.63767138671875,-5.089064429232478,8.032837077203393,2.3969432139493523
1776556124494712600,7.647712646484375,-5.395038842129707,7.835245882135629,2.381776770608127
1776556124504752600,7.657752685546875,-5.692354147753119,7.6449904367834325,2.3068615226164457
1776556124514792700,7.667792724609375,-5.961133679243922,7.467259541961551,2.208010103242099
1776556124524832800,7.677832763671875,-6.193896140936016,7.293156774508953,2.1484633970350027
1776556124534872600,7.68787255859375,-6.370607045060396,7.11744014211893,2.219865960730612
1776556124544913400,7.697913330078125,-6.478961036795377,6.947737070930004,2.4335956590421497
1776556124554953500,7.707953369140625,-6.528993187943101,6.819583569225668,2.6525281866937873
1776556124564993500,7.71799365234375,-6.540960104590654,6.74749740718007,2.803124698613584
1776556124575033600,7.72803369140625,-6.553969223767519,6.694061000546813,2.8992107449278235
1776556124585073700,7.73807373046875,-6.602301585260033,6.613457770046591,2.9735815107792614
1776556124595114800,7.74811474609375,-6.6981058920234435,6.4863786195755,3.038528906986117
1776556124605154800,7.75815478515625,-6.823623784527182,6.32813159290254,3.092457481050491
1776556124615194600,7.768194580078125,-6.945305459868908,6.166482648831606,3.1476351783931253
1776556124625234700,7.778234619140625,-7.043301139196753,6.022859190794825,3.2074066332668063
1776556124635274800,7.788274658203125,-7.122433128100633,5.8989908190637825,3.2623964068219062
1776556124645314800,7.798314697265625,-7.19364426087737,5.7811710798472165,3.31661461148262
1776556124655355600,7.808355712890625,-7.264845456781983,5.658749984315038,3.3720845697700974
1776556124665395700,7.818395751953125,-7.337013451892137,5.531874831983447,3.4259275113776324
1776556124675435500,7.828435546875,-7.400773684141039,5.408673984250426,3.4849937405914067
1776556124685475600,7.8384755859375,-7.449200153657793,5.301143583858013,3.546502686782181
1776556124695515600,7.848515625,-7.490534034565091,5.210017790299654,3.5941622635796664
1776556124705556700,7.858556640625,-7.5323852173447605,5.123832375752926,3.630412557612359
1776556124715596800,7.8685966796875,-7.573614468833804,5.035975813123583,3.667382690352201
1776556124725636600,7.87863671875,-7.615570865553617,4.948771576923131,3.699069621992111
1776556124735673600,7.888673583984375,-7.655760252600908,4.867464289806783,3.7239106332600116
1776556124745713700,7.898713623046875,-7.694448587435484,4.7908773092105985,3.74344009411633
1776556124755754800,7.908754638671875,-7.733193036371469,4.716484331527352,3.7580426199644803
1776556124765794800,7.918794921875,-7.773391191247105,4.643719831828773,3.7657185614198445
1776556124775834600,7.928834716796875,-7.816115649729967,4.571498352965713,3.765649587836861
1776556124785874700,7.938874755859375,-7.851253014084696,4.502125833792984,3.776118667142093
1776556124795914800,7.948914794921875,-7.877116354137659,4.440110399384796,3.7956352685168384
1776556124805954800,7.958954833984375,-7.902082453089952,4.388723911018669,3.803495626628399
1776556124815995600,7.96899560546875,-7.9321847458869215,4.345599055041372,3.790329271063208
1776556124826035700,7.97903564453125,-7.961809484300017,4.30676546651721,3.772498723079264
1776556124836075500,7.989075439453125,-7.980804107627272,4.279906685686111,3.7629172402635214
1776556124846115600,7.999115478515625,-7.982200530421734,4.280472502875328,3.7593101556822655
1776556124856155600,8.00915576171875,-7.9626435970366,4.311229460188747,3.7656323444411157
1776556124866196700,8.01919677734375,-7.928896225735545,4.353879976652562,3.78770622908324
1776556124876236800,8.02923681640625,-7.893346188926697,4.392930422797799,3.816757551522553
1776556124886276600,8.039276611328125,-7.8668720234990115,4.429565916755795,3.8290544307768344
1776556124896316700,8.049316650390624,-7.8528376529276365,4.469513019479811,3.811401869708299
1776556124906356500,8.0593564453125,-7.848215838345885,4.516356019197404,3.765425131431222
1776556124916396500,8.069396484375,-7.842806088256835,4.5701399240940805,3.7114144320413467
1776556124926437600,8.079437744140625,-7.829792292904854,4.628046754139661,3.6668680188283322
1776556124936477700,8.089477783203124,-7.806058950617909,4.6922976925149555,3.6356808534041045
1776556124946517800,8.099517822265625,-7.771803045272827,4.770108661948144,3.6077044667199254
1776556124956557800,8.109557861328126,-7.722834723964333,4.8641725547850125,3.5872041150048375
1776556124966597600,8.11959765625,-7.664525742858648,4.967708332583308,3.5703368590950966
1776556124976638500,8.129638427734376,-7.608340914300084,5.070608150565624,3.5457670659840104
1776556124986678500,8.139678466796875,-7.557746453094482,5.169995576512814,3.5102690516233443
1776556124996718600,8.149718505859376,-7.512601489466428,5.267022703069448,3.4626100593477487
1776556125006758700,8.159758544921875,-7.4692743889152995,5.36289949054718,3.4087574731290338
1776556125016798700,8.169798828125,-7.423433844238519,5.461820468026399,3.3513477789506316
1776556125026838500,8.179838623046875,-7.372382871437073,5.56629615702331,3.2916113953903317
1776556125036879600,8.189879638671876,-7.314906834024191,5.675072173562645,3.2335861996620894
1776556125046919700,8.199919677734375,-7.250705287748575,5.787494437649846,3.178452925983071
1776556125056959700,8.209959716796876,-7.181375730934739,5.905208378404379,3.118772656524181
1776556125066999600,8.21999951171875,-7.107679795604944,6.0265422632217405,3.054842620666325
1776556125077039600,8.23003955078125,-7.0283508228242395,6.14743249592483,2.9969550798431035
1776556125087079700,8.24007958984375,-6.949177332866191,6.266840381115674,2.9336037206560373
1776556125097120800,8.250120849609376,-6.870114317545294,6.3860162111163135,2.8619401679366825
1776556125107160600,8.26016064453125,-6.787828248524665,6.506508384412527,2.785878380258381
1776556125117200600,8.27020068359375,-6.698576432144641,6.630585430458187,2.708283391663432
1776556125127240700,8.28024072265625,-6.598258447349071,6.761179311051964,2.630555716599524
1776556125137280800,8.29028076171875,-6.485979975646734,6.900269217312336,2.5472990489810705
1776556125147320800,8.30032080078125,-6.365548592627048,7.045390220430493,2.452070204018056
1776556125157361700,8.310361572265625,-6.240227099478244,7.193255553820729,2.3424407855197784
1776556125167401500,8.3204013671875,-6.109862935987114,7.343810856947302,2.2154916911691425
1776556125177441500,8.330441650390625,-5.974429214146733,7.495857859936356,2.0709156085826455
1776556125187481600,8.340481689453124,-5.833107018789649,7.646283983725309,1.9182231472969054
1776556125197521700,8.350521728515625,-5.682143719384074,7.7962682089656585,1.7612020091570912
1776556125207561700,8.360561767578124,-5.517255939522386,7.948013014137745,1.599799441062659
1776556125217602800,8.370602783203125,-5.338144403997063,8.100129575231671,1.4361441256053744
1776556125227642600,8.380642578125,-5.149853536716103,8.24888396641612,1.2670108171284198
1776556125237682700,8.3906826171875,-4.9502930874019855,8.395169337138533,1.0890891489747911
1776556125247722800,8.40072265625,-4.733895485055446,8.541012809312344,0.9009522301465273
1776556125257762600,8.410762451171875,-4.499428265272081,8.685101546773314,0.703232805589214
1776556125267803600,8.4208037109375,-4.251737991300225,8.82287686330378,0.4999396360201761
1776556125277843700,8.43084375,-3.9985207706004378,8.94954860201776,0.2963270252384245
1776556125287883800,8.4408837890625,-3.7470851726204155,9.062003599330783,0.09918029513568617
1776556125297923600,8.450923583984375,-3.5038998088523745,9.15893194168806,-0.08382732537956908
1776556125307963600,8.460963623046876,-3.276599411958456,9.23992913994193,-0.2408449929206632
1776556125318003700,8.471003662109375,-3.065034052073955,9.30824396675527,-0.3640706645676866
1776556125328043800,8.481043701171876,-2.8601623446092006,9.36923064263761,-0.45538288407623767
1776556125338084600,8.491084716796875,-2.647908125677705,9.427956387850642,-0.5221369643788785
1776556125348124700,8.501124755859376,-2.4209682326592503,9.485637007924915,-0.5761894570838659
1776556125358164500,8.51116455078125,-2.181496336456388,9.540288051044941,-0.6279821881633252
1776556125368204500,8.52120458984375,-1.9383217863433062,9.588785247710346,-0.684472940865904
1776556125378244600,8.53124462890625,-1.7041145326703786,9.628390112867951,-0.7486523483749479
1776556125388285700,8.54128564453125,-1.4874610558666288,9.658208912548423,-0.8227206241484731
1776556125398325800,8.55132568359375,-1.2909117710672318,9.678860655432938,-0.9075121731840073
1776556125408365800,8.56136572265625,-1.1132578870043157,9.691486912772058,-1.0030581212721765
1776556125418405600,8.571405517578125,-0.9515409922637045,9.69736018871963,-1.107325355150178
1776556125428445700,8.58144580078125,-0.801547853064537,9.697744804123044,-1.217236586264521
1776556125438485500,8.591485595703125,-0.6630290246903896,9.69333107933402,-1.3304630063414573
1776556125448526600,8.601526611328126,-0.5409137802369892,9.684916302210093,-1.4422903732754289
1776556125458566400,8.61156640625,-0.4369196642119437,9.673390699589252,-1.550801893659681
1776556125468606500,8.6216064453125,-0.34777024876046925,9.659441669213772,-1.6566956327609716
1776556125478646500,8.631646484375,-0.270483358000312,9.64432125697136,-1.7562177910037338
1776556125488686600,8.6416865234375,-0.20039136544661595,9.627930094140767,-1.8528914279475808
1776556125498726700,8.6517265625,-0.13244410243718885,9.609875966534018,-1.950160546566546
1776556125508767500,8.661767578125,-0.06321376821412704,9.59014133849442,-2.0483136084131894
1776556125518807300,8.671807373046875,0.012509491100144805,9.568808627608417,-2.1466601470053193
1776556125528847400,8.681847412109375,0.09677315179556607,9.54718950099647,-2.2387973095633087
1776556125538887400,8.691887451171874,0.18445333494469524,9.52607481677532,-2.3216994646556675
1776556125548927500,8.701927490234375,0.26851045049214733,9.50556277462244,-2.3963668753661214
1776556125558967600,8.711967529296874,0.3478462731387466,9.486797283875942,-2.459689154589176
1776556125569008600,8.722008544921875,0.42628995098490263,9.470520687335728,-2.509557931868732
1776556125579048700,8.732048583984374,0.5055593755980953,9.457503384852409,-2.543707746490836
1776556125589088500,8.742088623046875,0.5821619190895929,9.447567681771517,-2.5641683507174253
1776556125599128600,8.752128662109374,0.654141004031524,9.439863683265447,-2.5751664223328232
1776556125609168600,8.762168701171875,0.7159481294512748,9.433993329927326,-2.5802275051146744
1776556125619208400,8.77220849609375,0.7655599362950771,9.429250519314408,-2.5833169955626127
1776556125629248500,8.78224853515625,0.8095056071359664,9.42441593876481,-2.587555656045675
1776556125639289600,8.79228955078125,0.8568013190571219,9.418113623750209,-2.595267545597255
1776556125649329400,8.802329345703125,0.9132112616084516,9.409505954402684,-2.607223940850794
1776556125659369500,8.812369384765624,0.9790023420978337,9.398877592882513,-2.6216405887380243
1776556125669409500,8.822409423828125,1.0497706995431333,9.388003147646785,-2.633198632323742
1776556125679449600,8.83244970703125,1.1251369792379438,9.377690427947044,-2.638817641249299
1776556125689489700,8.84248974609375,1.2011647915814072,9.368341000321507,-2.638515151171386
1776556125699530500,8.852530517578124,1.2697542706176639,9.361015187478065,-2.6323931611597535
1776556125709570300,8.8625703125,1.3226219374522565,9.356533658149838,-2.6222774253368377
1776556125719610400,8.8726103515625,1.353945150346309,9.354992858448623,-2.611769183064997
1776556125729650400,8.882650390625,1.3650617337748407,9.356032722890376,-2.60223329295665
1776556125739690500,8.8926904296875,1.3620517383038997,9.359052362972497,-2.5929431943029164
1776556125749730600,8.90273046875,1.3491751594655215,9.363743151137232,-2.5827169838428494
1776556125759771600,8.912771728515626,1.3279241355136036,9.370239527419209,-2.5701389495596287
1776556125769811700,8.922811767578125,1.298298958709091,9.378210067906975,-2.556165953786671
1776556125779851500,8.9328515625,1.265879036619514,9.386325569823384,-2.54260913759917
1776556125789891600,8.9428916015625,1.2375288481868802,9.393557274642585,-2.52982535161078
1776556125799931600,8.952931640625,1.2142273214459418,9.39888343810141,-2.5213228962033987
1776556125809971500,8.962971435546875,1.1918974892813712,9.400109180504083,-2.5273919869840142
1776556125820012500,8.973012451171876,1.1676629194740205,9.396078902074693,-2.553560739724338
1776556125830052600,8.983052490234375,1.1431757631450892,9.38804581774473,-2.5938719995856285
1776556125840092400,8.993092529296876,1.1171633700102568,9.378941889312863,-2.6377625792384145
1776556125850132500,9.003132568359375,1.077437728017196,9.371315047696232,-2.6810370728194712
1776556125860172500,9.013172607421875,1.0147262011036275,9.367449604439734,-2.718753640012443
1776556125870212600,9.023212646484374,0.9332798708427696,9.367724914249777,-2.746830564461648
1776556125880252700,9.033252685546875,0.8481774292271583,9.370450539821386,-2.765072615855932
1776556125890293500,9.04329345703125,0.779103893001005,9.37406054701209,-2.7731562613293526
1776556125900333300,9.053333251953125,0.738751205150783,9.377805578759313,-2.771536843433976
1776556125910373400,9.063373291015624,0.726787211112678,9.38187618919909,-2.7608982527807355
1776556125920413400,9.073413330078125,0.731295409252122,9.387556572923064,-2.7403207441762087
1776556125930453500,9.08345361328125,0.7323924837738275,9.396034478411078,-2.710815832750499
1776556125940493600,9.09349365234375,0.7105068882454186,9.407870462155342,-2.6753572736173865
1776556125950534700,9.10353466796875,0.652941857374832,9.422274835082888,-2.639094120103121
1776556125960574700,9.11357470703125,0.5640082035658881,9.436637122434377,-2.608099554641545
1776556125970614500,9.123614501953124,0.46672366818208244,9.449787695908546,-2.5795506287664174
1776556125980654600,9.133654541015625,0.3876285041572526,9.462306401219964,-2.5465508609622716
1776556125990694400,9.1436943359375,0.3433852751418948,9.47430429752767,-2.5079957971185443
1776556126000734500,9.153734375,0.32911033728029576,9.485130227446556,-2.4686846542105076
1776556126010775600,9.163775634765624,0.3290694938132539,9.493616900762914,-2.435847821883112
1776556126020815600,9.173815673828125,0.32040808498449624,9.50119873419404,-2.407270546696335
1776556126030855400,9.18385546875,0.2876092283136211,9.509745613265038,-2.3774800963275133
1776556126040895500,9.1938955078125,0.23700939681315794,9.520039628264307,-2.3415961513891816
1776556126050935600,9.203935546875,0.1886886709595099,9.532221648967266,-2.2959856160759924
1776556126060975600,9.2139755859375,0.15377196361813694,9.54580944481492,-2.2414890328653154
1776556126071015700,9.224015625,0.1392193139268551,9.55992798653841,-2.1814662335790693
1776556126081056500,9.234056396484375,0.15057679343917407,9.572936521193384,-2.122876535835862
1776556126091096600,9.2440966796875,0.19161475100666284,9.5820264210999,-2.0780909070394933
1776556126101136400,9.254136474609375,0.25879951434414833,9.58428267559409,-2.0603296248994765
1776556126111176400,9.264176513671876,0.3359904887154698,9.577492284801602,-2.0806591500923037
1776556126121216500,9.274216552734375,0.41221568679455667,9.56119406095147,-2.1410339776866136
1776556126131256600,9.284256591796876,0.490658780118823,9.537105913877486,-2.230079457839578
1776556126141297700,9.294297607421875,0.5863278796626255,9.507956391760706,-2.3292433041639624
1776556126151337700,9.304337646484376,0.7052314320605247,9.477086037200689,-2.420304508053511
1776556126161377500,9.31437744140625,0.8372441664762794,9.447689262324571,-2.492099432067573
1776556126171417600,9.32441748046875,0.9685266138561069,9.421632445526123,-2.5426722659632564
1776556126181457400,9.33445751953125,1.0895005793198942,9.39916693121791,-2.5766280193179845
1776556126191497500,9.34449755859375,1.197883358757943,9.380319022884965,-2.5971228180751202
1776556126201538600,9.35453857421875,1.293957130112499,9.366147289669513,-2.6021768865942954
1776556126211578600,9.36457861328125,1.3773241262376308,9.356516122493147,-2.594023390755057
1776556126221618400,9.374618408203125,1.45147350442335,9.347684581261873,-2.5854244892358778
1776556126231658500,9.384658447265625,1.5227242385581135,9.33661256762743,-2.584450383506715
1776556126241698600,9.394698486328124,1.5902227805525064,9.323719183784723,-2.5903373957186937
1776556126251738600,9.404738525390625,1.6504535235010087,9.31031726589799,-2.6008473915562034
1776556126261778700,9.41477880859375,1.70336152234599,9.296634777504206,-2.615629950146377
1776556126271819500,9.424819580078125,1.7532022425748406,9.282056217053531,-2.6344094694182276
1776556126281859600,9.434859619140624,1.8026441727444529,9.266396291106938,-2.6560788649126885
1776556126291899400,9.4448994140625,1.8506730212457476,9.249358647066353,-2.682308700190484
1776556126301939500,9.454939453125,1.8933708839826284,9.23047508289814,-2.7173291601672767
1776556126311979500,9.4649794921875,1.9218150343090294,9.21184344766438,-2.760250310266018
1776556126322019600,9.47501953125,1.929938135010004,9.196351864022017,-2.805852954533696
1776556126332060700,9.485060791015625,1.9216912617988884,9.185441178429127,-2.8469582873821255
1776556126342100700,9.495100830078124,1.909929950726032,9.17825506631732,-2.8778824179559943
1776556126352140500,9.505140625,1.9075306344993412,9.172941762340068,-2.8963547709748148
1776556126362180400,9.515180419921874,1.9188214054509996,9.168355019071697,-2.903411411488056
1776556126372220400,9.525220458984375,1.9383496972635388,9.164054107007384,-2.9040184374704956
1776556126382260500,9.535260498046876,1.9590638378597796,9.159321233266592,-2.9050445656478403
1776556126392301600,9.545301513671875,1.9743892711549995,9.154224786910413,-2.9107287487640976
1776556126402341600,9.555341552734374,1.9835396690770983,9.148037622708081,-2.923929591120779
1776556126412381400,9.56538134765625,2.0009214503802357,9.138948891845345,-2.9404657153800127
1776556126422421500,9.57542138671875,2.046874515520781,9.127328596678376,-2.9449256173983214
1776556126432461300,9.58546142578125,2.1538661328613755,9.106018682146072,-2.9345693508177995
1776556126442501400,9.59550146484375,2.3071670814342795,9.071491558644174,-2.924960103212297
1776556126452541400,9.60554150390625,2.430861265642196,9.0315733897537,-2.948216767898202
1776556126462582300,9.615582275390626,2.470645725150406,8.993390666353703,-3.0307082963630556
1776556126472622300,9.625622314453125,2.4169456991449,8.963678249657153,-3.159312172183394
1776556126482662400,9.635662353515626,2.3051874519243833,8.947804973220824,-3.285316679160297
1776556126492702200,9.6457021484375,2.2014424152895806,8.945824028536677,-3.3609953127399086
1776556126502742300,9.6557421875,2.1624681031204758,8.954293750718236,-3.363744611448049
1776556126512782300,9.6657822265625,2.194086791829765,8.967573503530025,-3.3074142369389534
1776556126522823400,9.675823486328126,2.261181721459329,8.982368337079881,-3.2209500054508444
1776556126532863500,9.685863525390625,2.325028462947905,8.997420360261202,-3.132264883042872
1776556126542903300,9.6959033203125,2.3692295698545873,9.007323330116272,-3.0700542183235284
1776556126552943400,9.705943359375,2.3977394788935777,9.002167847049236,-3.063035571733117
1776556126562983200,9.715983154296875,2.427234453447163,8.977003595176338,-3.1132498014494776
1776556126573023200,9.726023193359374,2.467427055364847,8.939245234668254,-3.189370918099582
1776556126583064300,9.736064208984375,2.510947048139572,8.900250610363482,-3.2635955534785985
1776556126593104400,9.7461044921875,2.5518565661549566,8.866531296113132,-3.323110695503652
1776556126603144400,9.75614453125,2.5853300889506934,8.839443382701278,-3.3690824653446674
1776556126613184500,9.7661845703125,2.610758544717729,8.81439311259687,-3.414791784857213
1776556126623224300,9.776224365234375,2.630449333615601,8.78626650378704,-3.471695575340092
1776556126633264400,9.786264404296874,2.646066589464247,8.753004870176316,-3.5431112907782194
1776556126643304400,9.796304443359375,2.6612007379710674,8.714861894264816,-3.6248578460946677
1776556126653345300,9.80634521484375,2.678855637127161,8.673119432556629,-3.710950029399991
1776556126663385300,9.81638525390625,2.701961202904582,8.62779911236167,-3.798801039071381
1776556126673425400,9.82642529296875,2.732805838501453,8.577385268419981,-3.8898087592080235
1776556126683465200,9.83646533203125,2.7681542152583596,8.521960902839899,-3.9854567063659427
1776556126693505300,9.84650537109375,2.802894396989047,8.462754680633545,-4.0860727973252535
1776556126703545300,9.85654541015625,2.8344816676467657,8.400257015666366,-4.191873012924194
1776556126713586400,9.86658642578125,2.865583492875099,8.333812074378132,-4.301908674135804
1776556126723626500,9.87662646484375,2.899313913041353,8.26285345505774,-4.414708539363741
1776556126733666300,9.886666259765626,2.935591679602861,8.187370636311172,-4.529860520675778
1776556126743706400,9.896706298828125,2.975707709152996,8.107253143501282,-4.646286759707332
1776556126753746200,9.90674609375,3.016527503058314,8.025086901468038,-4.761186227563023
1776556126763786200,9.9167861328125,3.0491122603207823,7.94895409438014,-4.866973291419447
1776556126773826300,9.926826416015626,3.0712998344704507,7.885072866100073,-4.956121355164051
1776556126783867400,9.936867431640625,3.0899267935290933,7.831151306298374,-5.029498141542077
1776556126793907500,9.946907470703126,3.112320411644876,7.782630728757381,-5.090628609809279
1776556126803947500,9.956947509765625,3.140097476364672,7.7370105488330125,-5.142842781171202
1776556126813987300,9.9669873046875,3.176106947378814,7.692845243892073,-5.186794151100516
1776556126824027400,9.97702734375,3.2217242046937344,7.646474537861347,-5.2270770616501565
1776556126834067500,9.9870673828125,3.2711443614229556,7.591691977316141,-5.276005635470152
1776556126844108300,9.9971083984375,3.3144813988462087,7.522275911262631,-5.347892475551366
1776556126854148400,10.0071484375,3.3509052958801386,7.443987971967458,-5.434044572350382
1776556126864188400,10.0171884765625,3.382465970791876,7.371767369887232,-5.512378688874841
1776556126874228200,10.027228271484375,3.399014077749848,7.3176476571649305,-5.5739720984786745
1776556126884268300,10.037268310546875,3.390483565291762,7.288500473135709,-5.617187555348873
1776556126894308400,10.047308349609375,3.359516764619946,7.280333533293009,-5.646307266849279
1776556126904348400,10.057348388671874,3.3202193579763173,7.284021281895041,-5.664767637169361
1776556126914389200,10.06738916015625,3.2841999500900507,7.295906949999928,-5.670465556550026
1776556126924429300,10.07742919921875,3.2559561446413396,7.316777304071188,-5.659852392598986
1776556126934469400,10.087469482421875,3.232231277921796,7.3494322039604185,-5.631068781185149
1776556126944509200,10.09750927734375,3.205846252082288,7.397039173787832,-5.583615540614724
1776556126954549200,10.10754931640625,3.1660701220110057,7.462530759873986,-5.518788555917143
1776556126964589300,10.11758935546875,3.104636286883056,7.5464043903470035,-5.439063277295231
1776556126974630400,10.12763037109375,3.0154265560790896,7.647324432688951,-5.347522473195195
1776556126984670500,10.13767041015625,2.8982740485996006,7.761562221765518,-5.24676492793858
1776556126994710500,10.14771044921875,2.758250368620455,7.884070995581149,-5.138471726480126
1776556127004750300,10.157750244140624,2.6056001390412447,8.009314162796736,-5.023161924257874
1776556127014790400,10.167790283203125,2.453266135804355,8.133695160225033,-4.898453010049462
1776556127024830500,10.17783056640625,2.311328877288848,8.255835100728273,-4.761235035140812
1776556127034870300,10.187870361328125,2.182257676217705,8.375263444185256,-4.611194988059998
1776556127044911400,10.197911376953124,2.0647553323872385,8.490698918613791,-4.451429665778577
1776556127054951400,10.207951416015625,1.9548047191105782,8.600108556881546,-4.288036508388817
1776556127064991500,10.217991455078124,1.8444430408149957,8.701963249725102,-4.12846992354989
1776556127075031300,10.22803125,1.7220502945944667,8.795493181815743,-3.980478333431482
1776556127085071400,10.2380712890625,1.5762141289442777,8.881284044086932,-3.8482097976237535
1776556127095111400,10.248111328125,1.399318369772285,8.960577361032366,-3.730995915345847
1776556127105152300,10.25815234375,1.1908397969219833,9.034584846529365,-3.6233363356158135
1776556127115192300,10.2681923828125,0.9570610708594322,9.103498808279634,-3.518628299167752
1776556127125232400,10.278232421875,0.7089345243621618,9.165640499415993,-3.414501569738984
1776556127135272200,10.288272216796875,0.4592459161799401,9.21865020506978,-3.313000220377743
1776556127145313300,10.298313232421876,0.21559616803685203,9.262555397769809,-3.2138685227572914
1776556127155353300,10.308353271484375,-0.01864575737394625,9.29828546732068,-3.1163921911284325
1776556127165393400,10.318393310546876,-0.24438250113073734,9.328304173487425,-3.0155244634956118
1776556127175434200,10.328434326171875,-0.4657331227747723,9.355033774980901,-2.904621956321597
1776556127185474300,10.338474365234376,-0.689777184753865,9.378765363702177,-2.7808912394955754
1776556127195514400,10.348514404296875,-0.9188035286575555,9.398128235819936,-2.646009306319058
1776556127205554200,10.35855419921875,-1.1478186205148697,9.41115605969727,-2.5066005433678624
1776556127215594200,10.36859423828125,-1.366789142089337,9.417747128525376,-2.3681867828033862
1776556127225634300,10.37863427734375,-1.5678332540899513,9.419540441682933,-2.2326072227515277
1776556127235675400,10.38867529296875,-1.743164248163253,9.419010864850879,-2.1009462974481283
1776556127245715500,10.398715576171876,-1.8883188612900674,9.418263845875858,-1.9750828063771126
1776556127255755500,10.408755615234375,-2.009934485658258,9.417378879734873,-1.8556736060120165
1776556127265795600,10.418795654296876,-2.12076801924929,9.41525940336287,-1.7394374827250838
1776556127275835400,10.42883544921875,-2.232207702039927,9.4104289144665,-1.622181076479703
1776556127285875200,10.438875244140625,-2.351470479671657,9.401182947215437,-1.5029020783655345
1776556127295915300,10.448915283203124,-2.476959730602801,9.38692879641354,-1.3858685210905968
1776556127305956400,10.458956298828125,-2.599821263378858,9.369401323029399,-1.2750009390994905
1776556127315996400,10.468996337890625,-2.7121058725610374,9.350951474103331,-1.1724277957882732
1776556127326036500,10.479036376953125,-2.8107065320447084,9.333331061738729,-1.076677995691076
1776556127336076300,10.489076171875,-2.8965879952087996,9.317423883032799,-0.9827356834072619
1776556127346116400,10.499116455078125,-2.972758211697638,9.30309725151658,-0.8862702093213796
1776556127356156400,10.509156494140624,-3.042162295052409,9.28970643954575,-0.7854911098200827
1776556127366196500,10.519196533203125,-3.108993020787835,9.275711231940985,-0.6824344938408583
1776556127376237300,10.5292373046875,-3.1749960635274648,9.260154181846977,-0.5825320310436188
1776556127386277400,10.53927734375,-3.2396357089594003,9.243077959361672,-0.49055681758169084
1776556127396317200,10.549317138671874,-3.3003657797321675,9.225582634681462,-0.408162319750525
1776556127406357200,10.559357177734375,-3.353779974533617,9.209246416908503,-0.33516090602353216
1776556127416397300,10.569397216796874,-3.397717608198523,9.195222567731141,-0.2716067360070534
1776556127426437600,10.579437744140625,-3.432695105816424,9.183650787881016,-0.21809960222514346
1776556127436477700,10.589477783203124,-3.459975326929986,9.174326494696736,-0.17518398681804537
1776556127446518800,10.599518798828125,-3.4836955174744126,9.16590937948525,-0.14267651430917902
1776556127456558600,10.60955859375,-3.506232051192224,9.157621443611383,-0.12121384776742197
1776556127466598400,10.619598388671875,-3.529898465722799,9.148677089655399,-0.10918729162081144
1776556127476638500,10.629638427734376,-3.5548823925927278,9.139038323694468,-0.10579740258734673
1776556127486678500,10.639678466796875,-3.5790272382900117,9.129552702468633,-0.1105528352198191
1776556127496718600,10.649718505859376,-3.6003108493372795,9.121028619751334,-0.12239670087643899
1776556127506758700,10.659758544921875,-3.6178660875111817,9.113810943457484,-0.14097333625364117
1776556127516799700,10.6697998046875,-3.632596623653173,9.107543115234375,-0.16513835708927363
1776556127526839600,10.679839599609375,-3.646614335350692,9.101430769833922,-0.1911663131194189
1776556127536879600,10.689879638671876,-3.6614307962104675,9.09494199233651,-0.21531556099718435
1776556127546919700,10.699919677734375,-3.680684070473909,9.086683867079019,-0.23480056165726854
1776556127556959700,10.709959716796876,-3.7107308336913585,9.07414879515469,-0.2463756477093324
1776556127566999600,10.71999951171875,-3.7557778899028893,9.055656860652565,-0.24416799986353144
1776556127577039600,10.73003955078125,-3.8145559498250483,9.031596770629287,-0.22316452093189582
1776556127587080700,10.740080810546875,-3.880169700986147,9.00449424417019,-0.18371864572828633
1776556127597120500,10.75012060546875,-3.9454868072882294,8.976986059519648,-0.13127383481510915
1776556127607160600,10.76016064453125,-4.009234764577448,8.949406563198567,-0.06739538758059498
1776556127617200600,10.77020068359375,-4.073213608013093,8.920709461024403,0.016288310952536994
1776556127627240700,10.78024072265625,-4.133621022702753,8.891856876027584,0.1358813194774091
1776556127637280800,10.79028076171875,-4.176256926119327,8.867720213636755,0.30462977508893235
1776556127647320600,10.800320556640624,-4.181163987383246,8.855817594397067,0.5125965807585046
1776556127657360600,10.810360595703125,-4.144427078877389,8.85728474434018,0.7366259566251188
1776556127667401500,10.8204013671875,-4.090698119038343,8.85620571693182,1.0020869381524622
1776556127677441500,10.830441650390625,-4.054920118692517,8.826189348852633,1.3514398895271122
1776556127687481600,10.840481689453124,-4.063080921055376,8.751506156051159,1.752968726079911
1776556127697521700,10.850521728515625,-4.1272617168039085,8.642574656689167,2.107603855641186
1776556127707561500,10.8605615234375,-4.262725833782554,8.516580378845333,2.3382516632668673
1776556127717601500,10.8706015625,-4.499030498126149,8.368854161664842,2.4272192558780312
1776556127727641600,10.8806416015625,-4.814117607283592,8.19838069062531,2.4044160340480505
1776556127737682700,10.8906826171875,-5.150356810063124,8.018286573803424,2.3132861488364638
1776556127747722800,10.90072265625,-5.47151827069819,7.839889908549189,2.183806951486319
1776556127757762600,10.910762451171875,-5.769643723660707,7.659722726491093,2.0518895672038195
1776556127767802600,10.920802734375,-6.030193771466612,7.473291223341226,1.9892402188062666
1776556127777842400,10.930842529296875,-6.228829507151246,7.286164139142632,2.0697521177612246
1776556127787882500,10.940882568359376,-6.3504755266577,7.120729246792197,2.2665068620048463
1776556127797922600,10.950922607421875,-6.404204194235802,7.006129638665914,2.4638787152335047
1776556127807962600,10.960962646484376,-6.404532111015915,6.948930664628744,2.620062671896815
1776556127818003700,10.971003662109375,-6.378177188053726,6.915223040816188,2.769283803810179
1776556127828043800,10.981043701171876,-6.36321401219964,6.861508986285329,2.932507742112875
1776556127838083600,10.99108349609375,-6.385765451225638,6.766310244199633,3.0999077970564364
1776556127848123600,11.00112353515625,-6.447184088784456,6.638142129448056,3.2464258074909447
1776556127858163700,11.011163818359375,-6.537749910372495,6.500984652554989,3.341468189971149
1776556127868203500,11.02120361328125,-6.64835372686088,6.367827643474936,3.379430256357789
1776556127878243600,11.03124365234375,-6.765877698001265,6.241047183689474,3.3826930575460192
1776556127888284700,11.04128466796875,-6.879174991357326,6.116804717949033,3.3811285847082733
1776556127898324500,11.051324462890625,-6.982910091120004,5.991549860295653,3.392740696568787
1776556127908364500,11.061364501953125,-7.0733256905823945,5.868507417994738,3.420390920038521
1776556127918404600,11.071404541015625,-7.142343112707137,5.754973393273353,3.4695240765199062
1776556127928444700,11.081444580078125,-7.180840308883786,5.657860341998934,3.548877014698088
1776556127938484700,11.091484619140624,-7.19746878760159,5.577563400968909,3.641099955843389
1776556127948524800,11.10152490234375,-7.208011808925867,5.506330056360364,3.727637252567708
1776556127958564600,11.111564697265624,-7.225338791301846,5.4342555847525595,3.799173964037001
1776556127968604700,11.121604736328125,-7.259439213824272,5.354743072098493,3.846771873775124
1776556127978645500,11.1316455078125,-7.310977093359828,5.269290648001432,3.867115573623776
1776556127988685600,11.141685546875,-7.374523975118994,5.184124639630317,3.861558231757581
1776556127998725600,11.1517255859375,-7.444499428620934,5.100018953967094,3.8392221890479323
1776556128008765700,11.161765625,-7.511883696585893,5.015844294720888,3.818808054311573
1776556128018805500,11.171805419921874,-7.570306074938178,4.932330729731917,3.8122123093083498
1776556128028845600,11.181845458984375,-7.616781994909048,4.853450085240603,3.8208682017117734
1776556128038885600,11.1918857421875,-7.650353425121307,4.780286357091367,3.8459514973029494
1776556128048925700,11.20192578125,-7.678129320797324,4.710272325144708,3.876860430307686
1776556128058966500,11.211966552734374,-7.706626516485214,4.642452588371932,3.9020404642716047
1776556128069006600,11.222006591796875,-7.741575664791465,4.574317502039671,3.913312384392321
1776556128079046400,11.23204638671875,-7.779380787050724,4.5053360280111425,3.9183623612582683
1776556128089086500,11.24208642578125,-7.817778614506125,4.441209885059297,3.915147198604047
1776556128099126500,11.25212646484375,-7.855229516500234,4.387846835923194,3.9003272306129335
1776556128109166600,11.26216650390625,-7.887019908514619,4.347634944783151,3.881155789414048
1776556128119206700,11.27220654296875,-7.903667091932892,4.329843267504871,3.8671556133732197
1776556128129246700,11.282246826171875,-7.89628633403182,4.340224376265704,3.8705946479111906
1776556128139286500,11.29228662109375,-7.865493136361241,4.375795748123526,3.8931761898145076
1776556128149327600,11.30232763671875,-7.82118228546977,4.4274648528233165,3.92390742816478
1776556128159367700,11.31236767578125,-7.777747632890939,4.482534121355414,3.947646907931566
1776556128169407500,11.322407470703125,-7.744409426912665,4.529012671674788,3.960120312796533
1776556128179447600,11.332447509765625,-7.722672226879,4.567928385524452,3.957870780304074
1776556128189487600,11.342487548828124,-7.707859273150563,4.6087367812529205,3.939394920153916
1776556128199527400,11.35252734375,-7.691928129047155,4.653457381989061,3.9179032193139194
1776556128209567500,11.3625673828125,-7.669715128195286,4.706257828806341,3.898332257403433
1776556128219607600,11.372607666015625,-7.64506993176043,4.771458615252375,3.867360488295555
1776556128229647600,11.382647705078124,-7.615051225593685,4.847251522861421,3.8321719782754777
1776556128239688700,11.392688720703125,-7.574420524519682,4.932170570734143,3.8042385539501904
1776556128249728800,11.402728759765624,-7.528583486974239,5.02518436999619,3.7733717065215107
1776556128259768800,11.412768798828125,-7.476387435790896,5.123996041882037,3.7441535030826922
1776556128269808600,11.42280859375,-7.423439689457416,5.226380311557651,3.707812608157098
1776556128279848400,11.432848388671875,-7.372622525411844,5.331583730307221,3.659104399089515
1776556128289888500,11.442888427734376,-7.3209291630536315,5.440196665239334,3.6025875620976087
1776556128299928600,11.452928466796875,-7.266396193355321,5.555013130986691,3.5371877459481356
1776556128309968600,11.46296875,-7.202371757212281,5.676769040608406,3.4742665948718785
1776556128320008400,11.473008544921875,-7.122716036695241,5.805700540947914,3.4250746939405796
1776556128330049500,11.483049560546876,-7.031960245493054,5.942174711751938,3.3782354936152696
1776556128340089600,11.493089599609375,-6.934707493487,6.084364922115206,3.3257664707094428
1776556128350129700,11.503129638671876,-6.836106249481439,6.228254337611794,3.2629557942703364
1776556128360169700,11.513169677734375,-6.734096658337116,6.372452965188026,3.195960233362019
1776556128370209800,11.523209716796876,-6.628374768671393,6.51737406181991,3.123918787240982
1776556128380249600,11.53324951171875,-6.521485004270076,6.6655608822494745,3.0349487104117867
1776556128390289700,11.54328955078125,-6.4143626001566645,6.816710644137859,2.9255405334487556
1776556128400329500,11.55332958984375,-6.3066498289346695,6.968138638445734,2.800284214490652
1776556128410369500,11.56336962890625,-6.19394640981853,7.1204258799314495,2.6655124636903405
1776556128420409600,11.57340966796875,-6.073347269016504,7.274867084580659,2.5221307054549453
1776556128430454000,11.5834541015625,-5.941319556227326,7.432322668614983,2.3731178094647825
1776556128440494000,11.593494140625,-5.793599768787622,7.59454736674726,2.2197829586222766
1776556128450534000,11.603533935546874,-5.630407102406025,7.76094321308434,2.0583149240761993
1776556128460574000,11.613573974609375,-5.451371554726362,7.930330057930946,1.8875398397415875
1776556128470614000,11.623614013671874,-5.255519896802306,8.100911665520071,1.7102962900452314
1776556128480654000,11.633654052734375,-5.042513690459728,8.270286235406994,1.5315991805396973
1776556128490694100,11.643694091796876,-4.814121991197765,8.435482058304547,1.3554505864731967
1776556128500734200,11.653734130859375,-4.5748184372991325,8.592836520051955,1.1851431196503341
1776556128510774000,11.66377392578125,-4.329522949509323,8.739584832111001,1.0223846799675376
1776556128520813800,11.673813720703125,-4.081404220992327,8.875019138473272,0.8640309049844741
1776556128530855000,11.68385498046875,-3.8352170450598,8.997759967479109,0.7083794477626681
1776556128540895000,11.69389501953125,-3.594483750618994,9.107111738079785,0.5573186793319881
1776556128550935000,11.70393505859375,-3.361981108906865,9.203065682446956,0.41358394294045864
1776556128560975000,11.71397509765625,-3.139566145966947,9.286288155534862,0.27991313911937177
1776556128571015000,11.724014892578126,-2.925535565012693,9.358801603081822,0.15641150007518007
1776556128581055000,11.734054931640625,-2.716704306267202,9.422748297813534,0.04170662777640391
1776556128591095000,11.744094970703125,-2.509794078712165,9.479811662772297,-0.06694589481400326
1776556128601135000,11.754135009765625,-2.3023614347182213,9.530967849513887,-0.1736835921924561
1776556128611175200,11.764175048828125,-2.0949114011980594,9.576161912980675,-0.2808254681913182
1776556128621215000,11.774215087890624,-1.8878871918745337,9.615326633155345,-0.3895445303790271
1776556128631255800,11.784255859375,-1.6822621818244456,9.648356796097755,-0.49957127763181924
1776556128641296000,11.7942958984375,-1.4792568527534604,9.675214407885074,-0.610257438641414
1776556128651336000,11.8043359375,-1.279354750394821,9.69598071705997,-0.7222247255027294
1776556128661376000,11.8143759765625,-1.0802374417383223,9.711162504100798,-0.834741097614169
1776556128671416000,11.824416015625,-0.880464226456359,9.721131524929403,-0.9459320663407444
1776556128681456000,11.8344560546875,-0.6810281341742723,9.726077164638042,-1.0535751333273946
1776556128691496000,11.844495849609375,-0.48596364457253366,9.726106390732527,-1.1563200530089437
1776556128701536000,11.854535888671874,-0.3038309345951304,9.721125679710507,-1.2560931172728538
1776556128711576000,11.864576171875,-0.1407907096957322,9.711560563507675,-1.3550455128036438
1776556128721616100,11.8746162109375,0.0025095197233167706,9.698077397078276,-1.4552248197808861
1776556128731656200,11.88465625,0.12865018091378733,9.68109878974855,-1.5588918227434156
1776556128741696000,11.894696044921876,0.24127205922631545,9.660761519640683,-1.6678829433381557
1776556128751735800,11.90473583984375,0.34087354804929343,9.637321607342361,-1.7821933592595158
1776556128761775900,11.91477587890625,0.43130869246236975,9.61089771079719,-1.9013243272051215
1776556128771816000,11.92481591796875,0.5141438467331231,9.581873276364803,-2.023305423884839
1776556128781856000,11.93485595703125,0.5956175033923238,9.550330721631646,-2.1463512271866203
1776556128791895800,11.944895751953124,0.6711160311646759,9.518343345740437,-2.26298906314224
1776556128801936000,11.954935791015625,0.7349439218223095,9.487300557222962,-2.370943388035148
1776556128811976000,11.964975830078124,0.782059089544788,9.45877062830925,-2.4678774294808505
1776556128822016000,11.97501611328125,0.8114510421153157,9.433933124172688,-2.5520231548935173
1776556128832056000,11.98505615234375,0.8260090712346136,9.41231282851696,-2.626107505019009
1776556128842096000,11.99509619140625,0.8342696807101369,9.393229357862472,-2.691022168000042
1776556128852136000,12.005135986328124,0.8459494509793818,9.37633375264108,-2.745745984095335
1776556128862176000,12.015176025390625,0.8706509076461195,9.361199311873316,-2.7893147844478485
1776556128872216800,12.025216796875,0.9164761816885322,9.346807213905453,-2.8227026747867465
1776556128882257000,12.0352568359375,0.9876825652249157,9.331727133673429,-2.8484637235090133
1776556128892297000,12.045296875,1.0779356676019727,9.316534825238586,-2.8654128124833105
1776556128902337000,12.0553369140625,1.1758280326858161,9.302253786429763,-2.87331233356148
1776556128912376800,12.065376953125,1.27283879262954,9.289070479729771,-2.8746161096364258
1776556128922417000,12.0754169921875,1.3644758967109023,9.274814575362205,-2.8786157006666064
1776556128932457000,12.08545703125,1.449364987836778,9.258314691460132,-2.8902134917408224
1776556128942497000,12.0954970703125,1.52264196710214,9.241706671008467,-2.9056507148474453
1776556128952537000,12.105537109375,1.5767593417368828,9.227851164135336,-2.9207804794400927
1776556128962577000,12.115576904296875,1.608700102007389,9.219069891786575,-2.931080631919205
1776556128972617000,12.125616943359375,1.6234069650128482,9.21542364423871,-2.93443724887073
1776556128982657000,12.135656982421875,1.6327676446847617,9.214135357993841,-2.9332816490948197
1776556128992697900,12.14569775390625,1.6440037628397344,9.213387754496932,-2.929350447125733
1776556129002738000,12.155738037109375,1.6574742159180342,9.213120627993344,-2.922600388343632
1776556129012778000,12.165778076171875,1.672932920204103,9.21424700167477,-2.910208232021332
1776556129022818000,12.175818115234375,1.6921118140570819,9.216793763548136,-2.890999673682451
1776556129032857900,12.18585791015625,1.7146742128685115,9.220051304039359,-2.8672181083396073
1776556129042898000,12.19589794921875,1.7349860562741755,9.22329423148334,-2.8444840062230825
1776556129052938000,12.20593798828125,1.7467483902603387,9.226017518967389,-2.828400594167411
1776556129062978000,12.21597802734375,1.7479362848706543,9.227631383904814,-2.8223984311431645
1776556129073018000,12.22601806640625,1.7371404578290879,9.22799261843264,-2.827873355422914
1776556129083058000,12.236057861328124,1.7161179819360375,9.226337252441049,-2.846058415932953
1776556129093098000,12.246097900390625,1.6873551210492848,9.221946908527611,-2.877308709721267
1776556129103138000,12.256137939453126,1.6525502035193145,9.215482680949568,-2.91793268879354
1776556129113178000,12.26617822265625,1.6092508677579462,9.209714034420251,-2.960040184421837
1776556129123218200,12.27621826171875,1.5550458148397504,9.207268394833802,-2.996397445960343
1776556129133259000,12.286259033203125,1.488622500861436,9.208854202720522,-3.025127865882218
1776556129143298800,12.296298828125,1.4114265945866704,9.214241740977764,-3.04565744369179
1776556129153339000,12.3063388671875,1.329569418502599,9.223974614962934,-3.0530159897610543
1776556129163379000,12.31637890625,1.248358723628521,9.238591169336438,-3.043094899727404
1776556129173419000,12.3264189453125,1.1700611397221683,9.257751212358475,-3.0158512112319467
1776556129183459000,12.336458984375,1.0950430889431386,9.279856076660751,-2.975824613530934
1776556129193499100,12.3464990234375,1.0178012977000326,9.303727950635551,-2.928331625472009
1776556129203539000,12.3565390625,0.938431773713231,9.32965500357449,-2.871805436129868
1776556129213579000,12.3665791015625,0.8649369869787246,9.35813349456191,-2.801356227636337
1776556129223619000,12.376619140625,0.8036660142622888,9.38717020395398,-2.721315891715884
1776556129233659100,12.3866591796875,0.7576343309275806,9.413370228615403,-2.6428844522967934
1776556129243699200,12.39669921875,0.7283451811444014,9.435912899813056,-2.569720724147558
1776556129253739000,12.406739013671874,0.7065696949269622,9.455867308083176,-2.5015432599782943
1776556129263778800,12.41677880859375,0.67309222660847,9.472728426513076,-2.446368339114636
1776556129273820000,12.42681982421875,0.6278422682359814,9.484923306697606,-2.4108923904553055
1776556129283860000,12.43685986328125,0.5820418363738805,9.491571658670901,-2.396183773884177
1776556129293900000,12.446900146484374,0.5427812911419198,9.49303237887323,-2.399599865937978
1776556129303940000,12.456940185546875,0.5182393724184483,9.489035418191552,-2.4207455298192797
1776556129313980000,12.46697998046875,0.5102740926276892,9.479598312282562,-2.4591098933964965
1776556129324020000,12.47702001953125,0.5155601432718336,9.465027935138345,-2.513528004543483
1776556129334060000,12.48706005859375,0.5328059136377647,9.445894780123233,-2.581005796010792
1776556129344100000,12.49710009765625,0.5592690462147817,9.423808035999535,-2.655083716395497
1776556129354140200,12.50714013671875,0.5931643380865455,9.401097607019542,-2.7272534650713203
1776556129364180000,12.517179931640625,0.6380027199834585,9.37995252766013,-2.7892344126880166
1776556129374219800,12.5272197265625,0.6991142643544822,9.361344273301958,-2.8367048966541883
1776556129384259800,12.537259765625,0.7816413755893706,9.344523486882448,-2.8704224573388695
1776556129394300000,12.5472998046875,0.8830926021985709,9.328633259311317,-2.8926038940086958
1776556129404340000,12.557340087890625,0.9972258349221199,9.312514483681321,-2.9074089566916226
1776556129414380000,12.567380126953125,1.116746532837674,9.294626360291241,-2.9211642180606723
1776556129424415700,12.577415771484375,1.2299566593669353,9.274385536295174,-2.939961857511103
1776556129434456800,12.587456787109375,1.3246554891064761,9.253919671371579,-2.9632115079343317
1776556129444497000,12.597496826171875,1.397330703086406,9.236893717768789,-2.982892652221024
1776556129454537000,12.607536865234374,1.4585364285469054,9.223166805711388,-2.996042348912358
1776556129464577000,12.617576904296875,1.5207602450087665,9.209692407110333,-3.0065365626588463
1776556129474616800,12.627616943359374,1.5842745396725832,9.194173935461043,-3.0211916954770683
1776556129484657000,12.637656982421875,1.641389050296694,9.177155580642818,-3.0423738919764753
1776556129494697000,12.647697021484374,1.688013292697072,9.160323103785514,-3.067487582705915
1776556129504737000,12.657737060546875,1.7290249559126794,9.14292831687033,-3.0964044651106
1776556129514776800,12.66777685546875,1.762455808610469,9.125651018854976,-3.1283620303854343
1776556129524816600,12.677816650390625,1.7882966445706783,9.10897051768899,-3.162125476038456
1776556129534856700,12.687856689453126,1.809959610324353,9.092063222029804,-3.1982568198665975
1776556129544896800,12.697896728515625,1.826109511744976,9.074731563478707,-3.2380466862022876
1776556129554936800,12.707936767578126,1.830211540236324,9.058078534841536,-3.282057677364349
1776556129564977000,12.717976806640625,1.8222528363168238,9.042527914488314,-3.329037455204129
1776556129575017000,12.728016845703126,1.811533435512334,9.027108811560273,-3.376395710967481
1776556129585056800,12.738056884765625,1.795158931555599,9.013377223327755,-3.4215225544169545
1776556129595097900,12.748097900390626,1.765090102636814,9.002691578662395,-3.465026180578768
1776556129605138000,12.758137939453125,1.723026738411188,8.993323446336388,-3.5102246279597282
1776556129615178000,12.768177978515626,1.6857523620277641,8.98101049273014,-3.5595044994354246
1776556129625217800,12.7782177734375,1.6678157233208417,8.965228986230493,-3.607416005167365
1776556129635257900,12.7882578125,1.664128705371171,8.950732258844376,-3.6449241903066634
1776556129645297700,12.798297607421874,1.6818663143746553,8.939708760526775,-3.663787296208739
1776556129655337700,12.808337646484375,1.7334285976991057,8.932626108789444,-3.6570182404652236
1776556129665377800,12.818377685546874,1.827245968428999,8.922997864222525,-3.63478448908627
1776556129675417900,12.82841796875,1.9555472080409526,8.900899429661035,-3.6221798590570686
1776556129685458000,12.8384580078125,2.0664527839548885,8.863567185610533,-3.652029346136749
1776556129695497700,12.848497802734375,2.1111143479801715,8.816594422033429,-3.7391461963146924
1776556129705537800,12.858537841796876,2.072530496433377,8.776016327929495,-3.854419173657894
1776556129715577900,12.868577880859375,1.9728401420168578,8.752989672607184,-3.957705360609293
1776556129725618000,12.878617919921876,1.88015937410146,8.74268396717012,-4.025031760907173
1776556129735658000,12.888657958984375,1.8533507160224019,8.739314782997965,-4.044734532503783
1776556129745698000,12.898697998046876,1.8949908863998948,8.740072907888889,-4.023746981793642
1776556129755737900,12.90873779296875,1.9678512476883827,8.740473305383324,-3.9877398488670583
1776556129765778000,12.91877783203125,2.0402530515544117,8.731030354255438,-3.972013287425041
1776556129775818800,12.92881884765625,2.096095934807509,8.704194369778037,-4.001721320207417
1776556129785858800,12.93885888671875,2.1337781613394617,8.663095466670393,-4.070402349984645
1776556129795899000,12.94889892578125,2.1589907823987304,8.615782511353492,-4.1566117299288505
1776556129805939000,12.95893896484375,2.178083897664398,8.569986974862218,-4.240481561009585
1776556129815978800,12.968978759765625,2.2021992250062525,8.530241824451089,-4.30763202021867
1776556129826018800,12.979018798828125,2.234155475106835,8.493760644271969,-4.362908209499716
1776556129836059000,12.989058837890624,2.27335365915969,8.454789985364675,-4.41800436603874
1776556129846099000,12.999098876953125,2.320374791923165,8.40890209441483,-4.480697261317074
1776556129856139000,13.009138916015624,2.3777441540911792,8.35302881602347,-4.554517407548428
1776556129866178800,13.0191787109375,2.4524971972584724,8.286098137044906,-4.6364033713355655
1776556129876219000,13.029218994140624,2.5460867505818605,8.210498998442292,-4.71969569478929
1776556129886259000,13.039259033203125,2.649527543573081,8.127728945297003,-4.805247487607598
1776556129896299000,13.049299072265624,2.752598334208131,8.035953747919201,-4.9007197859376666
1776556129906338800,13.0593388671875,2.845461911344528,7.934993373566866,-5.010952431026101
1776556129916379000,13.06937890625,2.9241239446491,7.826670361492037,-5.134500484761595
1776556129926418700,13.079418701171875,2.9898849953263995,7.713530304524302,-5.26616111780405
1776556129936458800,13.089458740234376,3.0456729335218666,7.600409536778926,-5.397043752211332
1776556129946498800,13.099498779296875,3.1005805817514656,7.48881963186264,-5.520357412669062
1776556129956540000,13.109539794921876,3.16028043269366,7.37915748013854,-5.633028683081269
