time,seconds_elapsed,z,y,x
1776021784982091000,0.062091064453125,-0.01966984197497368,-0.04610064998269081,0.131709024310112
1776021784992152000,0.072152099609375,-0.044015660881996155,0.07882317900657654,0.10424411296844482
1776021785002214000,0.0822138671875,-0.04195011407136917,0.16755171120166779,0.05462010204792023
1776021785012275000,0.09227490234375,-0.02797357738018036,0.2011626660823822,0.024462465196847916
1776021785022336000,0.1023359375,-0.013113405555486679,0.1705767959356308,0.013761085458099842
1776021785032397000,0.11239697265625,0.006104231346398592,0.16743479669094086,0.0017574200173839927
1776021785042457900,0.122457763671875,0.10067787766456604,0.21426862478256226,0.006543386727571487
1776021785052520000,0.13252001953125,0.29152053594589233,0.5847838521003723,-0.07478449493646622
1776021785062580700,0.142580810546875,0.47653353214263916,0.5285218954086304,-0.08876103162765503
1776021785072641800,0.152641845703125,0.6734604239463806,0.3192882537841797,-0.12032534182071686
1776021785082702800,0.162702880859375,0.7025086283683777,0.18278446793556213,-0.1702263206243515
1776021785092764000,0.172763916015625,0.6260340809822083,0.10350295901298523,-0.1553664207458496
1776021785102826000,0.182825927734375,0.5046623945236206,0.2452651560306549,-0.11983878910541534
1776021785112886800,0.19288671875,0.45918703079223633,0.510097324848175,-0.09537259489297867
1776021785122947800,0.20294775390625,0.5060192346572876,0.7957727909088135,-0.10958002507686615
1776021785133009000,0.2130087890625,0.6103922724723816,1.0370935201644897,-0.1549464464187622
1776021785143070000,0.223070068359375,0.7780872583389282,1.0742864608764648,-0.22145383059978485
1776021785153131000,0.233131103515625,0.9157308340072632,0.9433555603027344,-0.29703885316848755
1776021785163193000,0.243193115234375,0.9276636838912964,0.8602856993675232,-0.33996662497520447
1776021785173254000,0.25325390625,1.0481892824172974,0.7839853763580322,-0.24662576615810394
1776021785183315000,0.26331494140625,0.99919193983078,0.8225628137588501,-0.13493011891841888
1776021785193375700,0.273375732421875,0.7860309481620789,0.7146981358528137,-0.048293497413396835
1776021785203436800,0.283436767578125,0.4625716507434845,0.24746465682983398,0.05853361636400223
1776021785213499000,0.293498779296875,0.11632341146469116,-0.19516204297542572,0.2812873423099518
1776021785223560000,0.303559814453125,0.3538334369659424,-0.1936861127614975,0.28139758110046387
1776021785233621000,0.31362109375,0.4582253694534302,-0.06810235232114792,0.1229938343167305
1776021785243681800,0.323681884765625,0.48971056938171387,-0.03187910467386246,-0.07922638207674026
1776021785253742800,0.333742919921875,0.6775113940238953,-0.20357176661491394,-0.12911750376224518
1776021785263805000,0.343804931640625,0.9322978258132935,-0.4823858141899109,0.08016087859869003
1776021785273866200,0.3538662109375,1.1182589530944824,-0.333047479391098,0.5575740337371826
1776021785283927300,0.36392724609375,1.307698130607605,-0.20111073553562164,1.0012530088424683
1776021785293988400,0.37398828125,1.2704426050186157,0.09776118397712708,1.1920061111450195
1776021785304049200,0.384049072265625,1.0637816190719604,0.6088316440582275,1.1080278158187866
1776021785314111200,0.394111328125,0.6922109723091125,1.666058897972107,0.66573566198349
1776021785324172300,0.40417236328125,0.3808474838733673,2.250872850418091,-0.09310038387775421
1776021785334233300,0.4142333984375,-0.08279421925544739,2.6261281967163086,-0.7632787227630615
1776021785344294100,0.424294189453125,-0.37283429503440857,2.7334189414978027,-1.081250548362732
1776021785354355200,0.434355224609375,-0.44258594512939453,2.944537878036499,-1.2826972007751465
1776021785364417000,0.4444169921875,-0.15127207338809967,3.0426557064056396,-1.5593208074569702
1776021785374478000,0.45447802734375,-0.07829746603965759,3.191196918487549,-1.7092093229293823
1776021785384539100,0.4645390625,-0.12964534759521484,2.866098403930664,-1.5947855710983276
1776021785394600200,0.47460009765625,-0.3819819986820221,2.7690515518188477,-1.3287906646728516
1776021785404661200,0.4846611328125,-0.35053858160972595,0.43900957703590393,0.3159518241882324
1776021785414723000,0.49472314453125,0.08265785872936249,-0.47499820590019226,1.2425047159194946
1776021785424784100,0.5047841796875,0.02081233821809292,-0.5988085865974426,1.01691734790802
1776021785434845200,0.51484521484375,-0.14408287405967712,-0.2737468481063843,0.47430846095085144
1776021785444906200,0.52490625,-0.12542183697223663,0.30422595143318176,-0.07687480747699738
1776021785454967300,0.53496728515625,0.05415910854935646,0.6953524351119995,-0.5476716160774231
1776021785465029000,0.545029052734375,0.16021284461021423,0.8327848315238953,-0.9362488985061646
1776021785475090200,0.555090087890625,0.32378312945365906,1.1941754817962646,-1.1682096719741821
1776021785485151200,0.565151123046875,0.5767391920089722,1.5664620399475098,-1.3678961992263794
1776021785495212000,0.5752119140625,0.8856704235076904,1.6380646228790283,-1.4964784383773804
1776021785505273000,0.585273193359375,1.0007213354110718,1.370863437652588,-1.5756224393844604
1776021785515334100,0.595334228515625,0.8220038414001465,0.7075465321540833,-1.5693614482879639
1776021785525396200,0.605396240234375,0.49147677421569824,-0.05272739380598068,-1.613391399383545
1776021785535457000,0.61545703125,-0.0073234266601502895,-0.6542063355445862,-1.7313209772109985
1776021785545518000,0.62551806640625,-0.43430963158607483,-0.8223130106925964,-1.8888155221939087
1776021785555579100,0.6355791015625,-0.8192224502563477,-0.6584463119506836,-2.267979145050049
1776021785565640200,0.64564013671875,-1.1921565532684326,-0.4924541711807251,-2.8352479934692383
1776021785575702300,0.655702392578125,-1.306886911392212,-0.25871172547340393,-3.4420666694641113
1776021785585763300,0.665763427734375,-1.2133209705352783,0.000477504770969972,-3.9787487983703613
1776021785595824000,0.67582421875,-1.1882423162460327,0.02701537311077118,-4.303334712982178
1776021785605885200,0.68588525390625,-1.2115588188171387,0.044982388615608215,-4.350727558135986
1776021785615946200,0.6959462890625,-1.2203642129898071,0.2403649389743805,-4.1014204025268555
1776021785626008300,0.70600830078125,-1.2159628868103027,0.404031366109848,-3.555785894393921
1776021785636069400,0.7160693359375,-1.1570571660995483,0.6013966202735901,-2.8920342922210693
1776021785646130200,0.726130126953125,-1.0734957456588745,0.8935158252716064,-2.2941300868988037
1776021785656191200,0.736191162109375,-1.0279372930526733,1.1235471963882446,-1.8566408157348633
1776021785666252000,0.746251953125,-1.0006837844848633,1.146451473236084,-1.5578386783599854
1776021785676314000,0.756314208984375,-1.0046935081481934,0.780719518661499,-1.202211856842041
1776021785686375200,0.766375244140625,-0.9325753450393677,-0.0018485001055523753,-0.7908448576927185
1776021785696436200,0.776436279296875,-0.7369286417961121,-1.2780754566192627,-0.584368109703064
1776021785706497300,0.786497314453125,-0.5129905939102173,-2.1521220207214355,-0.4496648907661438
1776021785716558300,0.796558349609375,-0.3407517373561859,-2.7053732872009277,-0.5209145545959473
1776021785726620200,0.8066201171875,-0.19486455619335175,-2.813859462738037,-0.6978256702423096
1776021785736681200,0.81668115234375,-0.033004820346832275,-2.569028615951538,-0.7110104560852051
1776021785746742300,0.8267421875,0.12894466519355774,-2.1771159172058105,-0.7198606729507446
1776021785756803300,0.83680322265625,0.20477046072483063,-1.547121286392212,-0.8040165901184082
1776021785766864100,0.846864013671875,0.20087504386901855,-0.783333420753479,-0.9141212701797485
1776021785776926200,0.85692626953125,0.23560106754302979,-0.3032677471637726,-1.0446712970733643
1776021785786987000,0.866987060546875,0.148964986205101,-0.08377452194690704,-1.123971939086914
1776021785797048000,0.877048095703125,-0.00020586235041264445,0.2862296402454376,-1.0469932556152344
1776021785807109000,0.887109130859375,-0.32523322105407715,0.6326653361320496,-0.747626543045044
1776021785817170200,0.897170166015625,-0.6927763223648071,0.7939077615737915,-0.40044593811035156
1776021785827232000,0.90723193359375,-0.8461863994598389,0.736785888671875,-0.21576105058193207
1776021785837293000,0.91729296875,-0.7917612195014954,0.4912163317203522,-0.1294890195131302
1776021785847354000,0.92735400390625,-0.6326730847358704,0.36569783091545105,-0.0957116112112999
1776021785857415200,0.937415283203125,-0.46850037574768066,0.5514687299728394,-0.045466016978025436
1776021785867476200,0.947476318359375,-0.2887322008609772,0.7946444153785706,-0.01623702608048916
1776021785877538300,0.957538330078125,-0.08140458166599274,0.9618967771530151,-0.019871709868311882
1776021785887599000,0.96759912109375,0.1179061308503151,1.0991790294647217,-0.08100217580795288
1776021785897660200,0.97766015625,0.32184621691703796,1.3434561491012573,-0.2247452288866043
1776021785907721200,0.98772119140625,0.3943808674812317,1.718204140663147,-0.4684324562549591
1776021785917782000,0.997781982421875,0.326291561126709,2.394055128097534,-0.875615119934082
1776021785927844400,1.00784423828125,0.2208695262670517,3.261864185333252,-1.366654396057129
1776021785937905200,1.0179052734375,0.14662379026412964,3.9827847480773926,-1.8116397857666016
1776021785947966200,1.02796630859375,0.12477149069309235,4.565385818481445,-2.092038869857788
1776021785958027000,1.038027099609375,0.20839768648147583,5.234890937805176,-2.2461495399475098
1776021785968088000,1.048088134765625,0.40461671352386475,6.107435703277588,-2.662851572036743
1776021785978150100,1.058150146484375,0.44398143887519836,6.331953525543213,-3.2318453788757324
1776021785988211200,1.068211181640625,0.40833184123039246,6.360624313354492,-3.658759593963623
1776021785998272300,1.078272216796875,0.44183120131492615,6.495545864105225,-3.998586416244507
1776021786008333300,1.088333251953125,0.45643118023872375,6.728294372558594,-4.341507434844971
1776021786018394000,1.09839404296875,0.38230663537979126,6.792888641357422,-4.608696937561035
1776021786028456200,1.108456298828125,0.4023575782775879,6.489326477050781,-4.780192852020264
1776021786038517200,1.118517333984375,0.49034014344215393,5.723223686218262,-4.902293682098389
1776021786048578300,1.128578369140625,0.5529190897941589,4.7456374168396,-4.965533256530762
1776021786058639400,1.138639404296875,0.573982834815979,3.839325428009033,-4.6412177085876465
1776021786068700200,1.1487001953125,0.6658501625061035,3.1671035289764404,-3.9805405139923096
1776021786078762200,1.15876220703125,0.34861791133880615,3.470229387283325,-2.315094470977783
1776021786088823000,1.168822998046875,-0.4008161127567291,4.4071550369262695,0.7475365400314331
1776021786098884000,1.178884033203125,-0.4922136962413788,3.645303726196289,2.139441967010498
1776021786108945200,1.188945068359375,0.020052803680300713,2.03953218460083,1.9288809299468994
1776021786119006200,1.199006103515625,0.6342816352844238,0.23048913478851318,1.0600429773330688
1776021786129067300,1.2090673828125,1.001297116279602,-0.7567971348762512,0.4861659109592438
1776021786139129000,1.219129150390625,1.0768992900848389,-1.065024971961975,0.3942897915840149
1776021786149190100,1.229190185546875,1.1801830530166626,-0.9904778003692627,0.6379085779190063
1776021786159251200,1.239251220703125,1.1550915241241455,-0.7317013740539551,0.9421281218528748
1776021786169312300,1.249312255859375,1.108497977256775,-0.35280945897102356,1.09341561794281
1776021786179373300,1.259373291015625,1.069500207901001,-0.16488349437713623,1.1780980825424194
1776021786189435100,1.26943505859375,0.9637511372566223,-0.22986355423927307,1.1792945861816406
1776021786199496200,1.27949609375,0.7446709871292114,-0.4282456338405609,1.0870248079299927
1776021786209557200,1.28955712890625,0.5373106002807617,-0.4145985245704651,1.087820053100586
1776021786219618000,1.2996181640625,0.36020612716674805,-0.20398642122745514,1.207124948501587
1776021786229679000,1.30967919921875,0.3728438913822174,-0.024984711781144142,1.3324377536773682
1776021786239741200,1.3197412109375,0.5982399582862854,-0.3147510290145874,1.5253196954727173
1776021786249802200,1.32980224609375,0.7899439334869385,-0.74247145652771,1.6249480247497559
1776021786259863000,1.339863037109375,1.0577723979949951,-0.7765974998474121,1.485079050064087
1776021786269924000,1.349924072265625,1.2686740159988403,-0.8028397560119629,1.158629298210144
1776021786279985200,1.359985107421875,1.2831008434295654,-1.130768895149231,0.8357183337211609
1776021786290047500,1.370047607421875,1.2393558025360107,-1.5076227188110352,0.6364547610282898
1776021786300108300,1.3801083984375,1.0984399318695068,-1.6285743713378906,0.6149039268493652
1776021786310169300,1.39016943359375,0.8489563465118408,-1.4350653886795044,0.8709686994552612
1776021786320230100,1.400230224609375,0.5704605579376221,-1.2839435338974,1.1942005157470703
1776021786330291200,1.410291259765625,0.24067679047584534,-1.526171088218689,1.1606721878051758
1776021786340352300,1.420352294921875,0.08369862288236618,-1.7729158401489258,0.6226081848144531
1776021786350414300,1.430414306640625,-0.0015707324491813779,-1.9831862449645996,0.20183724164962769
1776021786360475400,1.440475341796875,-0.07538077235221863,-2.1933789253234863,-0.05601613223552704
1776021786370536400,1.450536376953125,0.051114581525325775,-2.4464902877807617,-0.07882983237504959
1776021786380597200,1.46059716796875,0.30956771969795227,-3.085792064666748,0.18420632183551788
1776021786390658300,1.470658203125,0.7380130887031555,-4.305981159210205,0.49922364950180054
1776021786400720400,1.480720458984375,1.2624176740646362,-5.654955863952637,0.7567982077598572
1776021786410781400,1.490781494140625,1.488599181175232,-6.334690093994141,0.8746963739395142
1776021786420842500,1.500842529296875,1.360466480255127,-6.423820972442627,0.7571372389793396
1776021786430903300,1.5109033203125,1.136212944984436,-6.129786968231201,0.46422120928764343
1776021786440964000,1.520964111328125,0.8793856501579285,-5.456652641296387,0.03858014941215515
1776021786451026200,1.531026123046875,0.5098451375961304,-4.68091344833374,-0.4423457384109497
1776021786461087200,1.541087158203125,0.15343695878982544,-4.086826324462891,-0.9076436161994934
1776021786471148300,1.551148193359375,-0.07405638694763184,-3.5012876987457275,-1.2900605201721191
1776021786481209300,1.561209228515625,-0.2381071001291275,-2.9634742736816406,-1.4718884229660034
1776021786491270400,1.5712705078125,-0.3363034427165985,-2.900904893875122,-1.297857403755188
1776021786501332200,1.581332275390625,-0.2493584305047989,-2.8769702911376953,-0.9428352117538452
1776021786511393300,1.591393310546875,-0.13397617638111115,-2.5397183895111084,-0.4959322512149811
1776021786521454300,1.601454345703125,-0.18083955347537994,-1.9767004251480103,-0.17174965143203735
1776021786531515400,1.611515380859375,-0.2534264028072357,-1.3266561031341553,-0.2535100281238556
1776021786541576400,1.621576416015625,-0.3475568890571594,-0.7735558748245239,-0.6831260919570923
1776021786551638300,1.63163818359375,-0.4169977605342865,-0.8180700540542603,-1.2314096689224243
1776021786561699300,1.64169921875,-0.4707222282886505,-1.344321370124817,-1.5394383668899536
1776021786571760400,1.651760498046875,-0.4968832731246948,-1.6616742610931396,-1.5170204639434814
1776021786581821200,1.6618212890625,-0.40095433592796326,-1.4480749368667603,-1.2718745470046997
1776021786591882200,1.67188232421875,-0.32076096534729004,-1.0132198333740234,-0.9268748760223389
1776021786601944300,1.6819443359375,-0.2683694064617157,-0.4938296973705292,-0.6815854907035828
1776021786612005000,1.692005126953125,-0.18194369971752167,0.12045876681804657,-0.639437198638916
1776021786622066200,1.702066162109375,-0.2447895109653473,0.7877166867256165,-0.7792515754699707
1776021786632127200,1.712127197265625,-0.3850685954093933,1.4497859477996826,-1.0706629753112793
1776021786642188300,1.722188232421875,-0.5013781785964966,2.0133962631225586,-1.4056733846664429
1776021786652250400,1.73225048828125,-0.5888882875442505,2.4175140857696533,-1.660355806350708
1776021786662311400,1.7423115234375,-0.6076220273971558,2.7530977725982666,-1.6987934112548828
1776021786672372200,1.752372314453125,-0.5650668740272522,3.0391311645507812,-1.483590841293335
1776021786682433300,1.762433349609375,-0.4765572249889374,3.368936777114868,-1.1749629974365234
1776021786692494300,1.772494384765625,-0.365707129240036,3.8145923614501953,-0.9592921733856201
1776021786702555400,1.782555419921875,-0.2494194209575653,4.443429946899414,-1.0071529150009155
1776021786712617500,1.792617431640625,-0.0996999591588974,5.142235279083252,-1.2483223676681519
1776021786722678300,1.80267822265625,0.043831635266542435,5.548583030700684,-1.5023778676986694
1776021786732739300,1.8127392578125,0.19582223892211914,5.400579452514648,-1.976718783378601
1776021786742800100,1.822800048828125,0.6414290070533752,4.411448955535889,-2.555091381072998
1776021786752861200,1.832861083984375,1.2270351648330688,2.7905807495117188,-2.741518020629883
1776021786762923300,1.84292333984375,1.6163004636764526,1.553525686264038,-2.2841715812683105
1776021786772984300,1.852984375,1.347769856452942,1.4629063606262207,-0.9981091022491455
1776021786783045400,1.86304541015625,0.4885939061641693,2.2283737659454346,0.4981655776500702
1776021786793106400,1.8731064453125,0.004228833597153425,2.918034791946411,1.3763911724090576
1776021786803167200,1.883167236328125,0.06962861120700836,2.624499797821045,1.5927002429962158
1776021786813229300,1.893229248046875,-0.005689843557775021,1.9112039804458618,1.0849246978759766
1776021786823290400,1.903290283203125,-0.36356115341186523,2.2492549419403076,0.37356239557266235
1776021786833351400,1.913351318359375,-0.9286181926727295,3.2011702060699463,0.15102547407150269
1776021786843412500,1.92341259765625,-1.0836399793624878,3.601442813873291,0.3930218517780304
1776021786853473300,1.933473388671875,-0.3570569157600403,3.3152363300323486,0.6789934039115906
1776021786863535400,1.943535400390625,0.49453675746917725,2.977052927017212,0.9607923626899719
1776021786873596200,1.95359619140625,1.0576586723327637,2.8009703159332275,1.2039874792099
1776021786883657200,1.9636572265625,1.491378664970398,2.4287049770355225,1.3461179733276367
1776021786893718300,1.97371826171875,1.658659815788269,2.248906135559082,1.3515856266021729
1776021786903779300,1.983779296875,1.41105055809021,2.1486926078796387,1.1209242343902588
1776021786913841200,1.993841064453125,0.9616477489471436,1.6727607250213623,0.6850444078445435
1776021786923902200,2.003902099609375,0.4511996805667877,0.8772215247154236,0.30219900608062744
1776021786933963300,2.01396337890625,-0.06414783000946045,0.4134693443775177,0.3957047164440155
1776021786944024300,2.0240244140625,-0.5575966835021973,0.739181399345398,1.2297769784927368
1776021786954085400,2.03408544921875,-0.968856692314148,0.7208513617515564,1.9608296155929565
1776021786964146400,2.044146484375,-1.2400732040405273,0.3381841778755188,1.6434385776519775
1776021786974208300,2.054208251953125,-1.2968361377716064,0.24128292500972748,0.8735058903694153
1776021786984269300,2.064269287109375,-1.2023786306381226,0.3888934254646301,0.446586012840271
1776021786994330400,2.074330322265625,-1.0504177808761597,0.5084847807884216,0.30078861117362976
1776021787004391200,2.08439111328125,-0.8292369842529297,0.45566526055336,0.2865777015686035
1776021787014452200,2.0944521484375,-0.6534470319747925,0.2936585247516632,0.362011194229126
1776021787024514300,2.104514404296875,-0.5813616514205933,0.06289028376340866,0.40751636028289795
1776021787034575000,2.1145751953125,-0.5921066999435425,-0.1365216225385666,0.5771504044532776
1776021787044636200,2.12463623046875,-0.8483691215515137,-0.42444050312042236,0.8723852634429932
1776021787054697200,2.134697265625,-1.0475972890853882,-0.280042827129364,1.1698675155639648
1776021787064758300,2.14475830078125,-1.5132763385772705,-0.17410868406295776,1.7484136819839478
1776021787074820400,2.1548203125,-2.1484532356262207,-0.8336088061332703,1.9197388887405396
1776021787084881400,2.16488134765625,-2.652754306793213,-1.675095558166504,1.6642546653747559
1776021787094942200,2.174942138671875,-3.048651933670044,-2.0402681827545166,1.2754226922988892
1776021787105003300,2.185003173828125,-3.3398663997650146,-1.4819623231887817,0.8165819048881531
1776021787115064300,2.195064208984375,-3.6989173889160156,-0.48175784945487976,0.43891531229019165
1776021787125126400,2.20512646484375,-4.234436988830566,0.8020972609519958,0.2598976194858551
1776021787135187500,2.2151875,-4.567898750305176,2.7652437686920166,-0.25474947690963745
1776021787145248500,2.22524853515625,-4.7700910568237305,4.361225605010986,-0.8869354128837585
1776021787155309300,2.235309326171875,-4.77912712097168,4.528530120849609,-1.4048880338668823
1776021787165370000,2.2453701171875,-4.869844913482666,3.8445372581481934,-1.7136445045471191
1776021787175432200,2.25543212890625,-4.9784016609191895,3.1161692142486572,-1.9469372034072876
1776021787185493200,2.2654931640625,-5.11722469329834,2.168295383453369,-2.0703861713409424
1776021787195554300,2.27555419921875,-5.227175712585449,1.3848674297332764,-2.0617969036102295
1776021787205615400,2.285615478515625,-5.2618865966796875,0.9783039689064026,-1.9694632291793823
1776021787215676400,2.295676513671875,-5.091155529022217,0.7774459719657898,-1.7116279602050781
1776021787225737200,2.3057373046875,-4.733842372894287,0.5624132752418518,-1.324594259262085
1776021787235799300,2.31579931640625,-4.179142951965332,0.033900175243616104,-0.7755423188209534
1776021787245860400,2.3258603515625,-3.4900360107421875,-0.6263448596000671,-0.15627162158489227
1776021787255921400,2.33592138671875,-2.713191032409668,-1.4145880937576294,0.4061744213104248
1776021787265982500,2.345982421875,-1.9547293186187744,-2.3676044940948486,0.7328614592552185
1776021787276043800,2.356043701171875,-1.2923612594604492,-3.1884310245513916,0.8562774062156677
1776021787286105600,2.366105712890625,-0.7144893407821655,-3.8120534420013428,0.7833091616630554
1776021787296166700,2.376166748046875,0.18056152760982513,-4.6441216468811035,0.7349320650100708
1776021787306227700,2.386227783203125,1.875841498374939,-6.175969123840332,0.8432515859603882
1776021787316288800,2.396288818359375,3.368849754333496,-7.274526596069336,1.2728564739227295
1776021787326349800,2.406349853515625,3.325934886932373,-6.645653247833252,1.3105218410491943
1776021787336411600,2.41641162109375,1.3264225721359253,-1.178731918334961,-1.6117017269134521
1776021787346472700,2.42647265625,-0.10252504050731659,1.6744747161865234,-2.7729649543762207
1776021787356533800,2.43653369140625,-0.5445972681045532,2.403346538543701,-2.5804147720336914
1776021787366594800,2.4465947265625,-0.5894275903701782,2.669748067855835,-2.204918622970581
1776021787376655600,2.456655517578125,-0.5065838098526001,2.7082366943359375,-1.804343581199646
1776021787386717700,2.4667177734375,-0.41023147106170654,2.634476661682129,-1.3840727806091309
1776021787396778500,2.476778564453125,-0.3657737076282501,2.618307113647461,-0.786849319934845
1776021787406839600,2.486839599609375,-0.29020705819129944,2.5102951526641846,0.15102173388004303
1776021787416900600,2.496900634765625,-0.03668450936675072,1.920535922050476,1.0702227354049683
1776021787426961700,2.506961669921875,0.30070099234580994,1.1163995265960693,1.6583762168884277
1776021787437023700,2.517023681640625,0.5173683166503906,0.38269251585006714,1.932565450668335
1776021787447084500,2.52708447265625,0.5993670225143433,-0.18501593172550201,1.9525399208068848
1776021787457145600,2.5371455078125,0.5634830594062805,-0.5798506140708923,1.7558114528656006
1776021787467206700,2.54720654296875,0.42526260018348694,-0.7209349870681763,1.32429039478302
1776021787477267700,2.557267822265625,0.18999576568603516,-0.609777569770813,0.691131591796875
1776021787487329800,2.567329833984375,-0.04031040519475937,-0.5720254182815552,0.11381231993436813
1776021787497390800,2.577390869140625,-0.13423344492912292,-0.7665421962738037,-0.21323850750923157
1776021787507451600,2.58745166015625,-0.15534457564353943,-1.0725101232528687,-0.35764893889427185
1776021787517512400,2.597512451171875,-0.17495609819889069,-1.3768774271011353,-0.3942064344882965
1776021787527573500,2.607573486328125,-0.20771270990371704,-1.600984811782837,-0.3671492338180542
1776021787537635600,2.617635498046875,-0.21903806924819946,-1.6979780197143555,-0.3132055997848511
1776021787547696600,2.627696533203125,-0.19466908276081085,-1.6320774555206299,-0.2604654133319855
1776021787557757700,2.6377578125,-0.1606338918209076,-1.3828243017196655,-0.22249911725521088
1776021787567818800,2.64781884765625,-0.13760340213775635,-0.9857765436172485,-0.20312009751796722
1776021787577879600,2.657879638671875,-0.11888537555932999,-0.5461983680725098,-0.17047373950481415
1776021787587941600,2.667941650390625,-0.06793137639760971,-0.17908400297164917,-0.10979041457176208
1776021787598002700,2.678002685546875,0.004730839282274246,0.0901048555970192,-0.027457457035779953
1776021787608063700,2.688063720703125,0.15589559078216553,0.3179721236228943,0.07870093733072281
1776021787618124800,2.698124755859375,0.2662354111671448,0.4866649806499481,0.08651598542928696
1776021787628185900,2.708185791015625,0.2198585867881775,0.7014332413673401,0.01870950497686863
1776021787638246700,2.71824658203125,0.18102064728736877,0.7670345902442932,-0.0029582392890006304
1776021787648308700,2.728308837890625,0.18601647019386292,0.7126496434211731,-0.017412545159459114
1776021787658369800,2.738369873046875,0.17332065105438232,0.6080353856086731,-0.02346271462738514
1776021787668430600,2.7484306640625,0.12516377866268158,0.5132467746734619,-0.039388153702020645
1776021787678491600,2.75849169921875,0.05925187095999718,0.4035855531692505,-0.06237735599279404
1776021787688552700,2.768552734375,0.008862467482686043,0.25091612339019775,-0.08084211498498917
1776021787698614500,2.778614501953125,-0.02804122120141983,0.04734780639410019,-0.07720397412776947
1776021787708675600,2.788675537109375,-0.05615754425525665,-0.1840561181306839,-0.044799696654081345
1776021787718736600,2.798736572265625,-0.07629796862602234,-0.3879333436489105,0.0006966829532757401
1776021787728797700,2.808797607421875,-0.08747738599777222,-0.5052887201309204,0.01498214527964592
1776021787738858800,2.818858642578125,-0.09255097061395645,-0.5183659195899963,-0.0007070692372508347
1776021787748920600,2.828920654296875,-0.10055829584598541,-0.46812698245048523,-0.024882446974515915
1776021787758981600,2.838981689453125,-0.0888475775718689,-0.3887157738208771,-0.041059285402297974
1776021787769042700,2.849042724609375,-0.07375970482826233,-0.28585144877433777,-0.04974997788667679
1776021787779103700,2.859103759765625,-0.05784572288393974,-0.17104658484458923,-0.05037342384457588
1776021787789164800,2.869164794921875,-0.037685591727495193,-0.042506713420152664,-0.04297569766640663
1776021787799227000,2.879226806640625,-0.02027091756463051,0.07024966180324554,-0.03170386701822281
1776021787809287700,2.88928759765625,-0.00854714959859848,0.15768364071846008,-0.026377279311418533
1776021787819348500,2.899348388671875,0.0009893643436953425,0.21920426189899445,-0.030583474785089493
1776021787829409500,2.909409423828125,0.016382968053221703,0.24284593760967255,-0.04954678192734718
1776021787839470600,2.919470703125,0.024038756266236305,0.24903139472007751,-0.07981812953948975
1776021787849532700,2.92953271484375,0.022935941815376282,0.24225018918514252,-0.11137978732585907
1776021787859593700,2.93959375,0.015852199867367744,0.2296086996793747,-0.13292236626148224
1776021787869654500,2.949654541015625,0.014965367503464222,0.21853579580783844,-0.13764947652816772
1776021787879715600,2.959715576171875,-0.0016077503096312284,0.20461200177669525,-0.12065770477056503
1776021787889776600,2.969776611328125,-0.016925187781453133,0.17092354595661163,-0.07969669252634048
1776021787899838700,2.979838623046875,-0.024658475071191788,0.11568505316972733,-0.01594221405684948
1776021787909899800,2.989899658203125,-0.03021036647260189,0.02221156284213066,0.04585111141204834
1776021787919960800,2.9999609375,-0.02809049002826214,-0.06406447291374207,0.0813068374991417
1776021787930022000,3.01002197265625,-0.009227586910128593,-0.10962449759244919,0.07945434749126434
1776021787940082700,3.020082763671875,0.014508634805679321,-0.13042272627353668,0.05849766358733177
1776021787950144800,3.030144775390625,0.024085095152258873,-0.12344177812337875,0.042567167431116104
1776021787960205800,3.040205810546875,0.03575054183602333,-0.09644025564193726,0.04014475643634796
1776021787970266600,3.0502666015625,0.042993806302547455,-0.055155396461486816,0.04784981533885002
1776021787980327700,3.06032763671875,0.04015061631798744,-0.022764435037970543,0.06404928863048553
1776021787990388700,3.070388671875,0.042700592428445816,0.024028636515140533,0.06059011071920395
1776021788000450600,3.080450439453125,0.059792760759592056,0.07884448021650314,0.036788906902074814
1776021788010511600,3.09051171875,0.07553337514400482,0.1439925879240036,-0.0009411611245013773
1776021788020572700,3.10057275390625,0.08835303038358688,0.21005842089653015,-0.03736121952533722
1776021788030633700,3.1106337890625,0.0929270088672638,0.2811160981655121,-0.06895110756158829
1776021788040694800,3.12069482421875,0.09899289160966873,0.3517463207244873,-0.08512581139802933
1776021788050756600,3.130756591796875,0.09369506686925888,0.4075315594673157,-0.08291032910346985
1776021788060817700,3.140817626953125,0.06297364085912704,0.4431167244911194,-0.06427326053380966
1776021788070878700,3.150878662109375,0.026100575923919678,0.4552258253097534,-0.03509353846311569
1776021788080939800,3.160939697265625,-0.014944061636924744,0.41473859548568726,0.0026098978705704212
1776021788091000800,3.171000732421875,-0.04977447912096977,0.3238619565963745,0.03219228982925415
1776021788101062700,3.181062744140625,-0.06918759644031525,0.19698789715766907,0.05014466121792793
1776021788111123500,3.19112353515625,-0.0903213769197464,0.04970923438668251,0.05098116025328636
1776021788121184500,3.2011845703125,-0.10391787439584732,-0.12238183617591858,0.04716591536998749
1776021788131245600,3.21124560546875,-0.1112559512257576,-0.2898009121417999,0.04156848043203354
1776021788141306600,3.221306640625,-0.10545451939105988,-0.3776053488254547,0.034860510379076004
1776021788151368700,3.23136865234375,-0.08856528252363205,-0.4065384566783905,0.019768111407756805
1776021788161429800,3.2414296875,-0.08273082971572876,-0.38694503903388977,0.005474127363413572
1776021788171490600,3.251490478515625,-0.07465772330760956,-0.3122386038303375,-0.005711681675165892
1776021788181551600,3.261551513671875,-0.06460748612880707,-0.19810563325881958,-0.014764298684895039
1776021788191612700,3.27161279296875,-0.054907191544771194,-0.07562179118394852,-0.01588868536055088
1776021788201674800,3.2816748046875,-0.04150430113077164,0.027090473100543022,0.005338306538760662
1776021788211735800,3.29173583984375,-0.025852102786302567,0.07788494229316711,0.02863457426428795
1776021788221796900,3.301796875,-0.03044259361922741,0.05741002783179283,0.03165220096707344
1776021788231857700,3.311857666015625,-0.02640657313168049,0.03495452180504799,0.010418551973998547
1776021788241918500,3.32191845703125,-0.014646586962044239,0.047624245285987854,-0.025228656828403473
1776021788251980800,3.331980712890625,-0.028064390644431114,0.059244148433208466,-0.055275239050388336
1776021788262041600,3.34204150390625,-0.06833910942077637,0.04240737855434418,-0.08532794564962387
1776021788272102700,3.3521025390625,-0.08681105822324753,-0.0038282941095530987,-0.11926860362291336
1776021788282163000,3.362162841796875,-0.09217866510152817,-0.07090000808238983,-0.1377544105052948
1776021788292224000,3.37222412109375,-0.10770249366760254,-0.0961768627166748,-0.1512363851070404
1776021788302285800,3.382285888671875,-0.09056399017572403,-0.13283154368400574,-0.15793131291866302
1776021788312347000,3.392346923828125,-0.04474882781505585,-0.15969938039779663,-0.15495522320270538
1776021788322408000,3.402407958984375,0.019890617579221725,-0.1095520630478859,-0.09385699033737183
1776021788332469000,3.412468994140625,0.03873594477772713,0.12406548857688904,0.0258686151355505
1776021788342530000,3.422530029296875,0.026694994419813156,0.5331017374992371,0.1743457019329071
1776021788352592000,3.432591796875,0.03430231288075447,0.9804145097732544,0.27793681621551514
1776021788362653000,3.44265283203125,0.027639616280794144,1.3563843965530396,0.32322999835014343
1776021788372714000,3.4527138671875,0.008375641889870167,1.6237660646438599,0.3606652319431305
1776021788382775000,3.462775146484375,0.001294029993005097,1.757873773574829,0.41191938519477844
1776021788392835800,3.4728359375,0.03988403454422951,1.7254910469055176,0.39938655495643616
1776021788402898200,3.482898193359375,-0.0041428133845329285,1.4278546571731567,0.27144989371299744
1776021788412959000,3.492958984375,-0.08341473340988159,0.8195635676383972,0.08279740810394287
1776021788423019800,3.503019775390625,-0.020355870947241783,0.11157926172018051,-0.017551297321915627
1776021788433080800,3.513080810546875,0.1114085465669632,-0.298985093832016,-0.022408369928598404
1776021788443142000,3.523141845703125,0.10448246449232101,-0.2866021990776062,0.049848783761262894
1776021788453204000,3.533203857421875,-0.02274233102798462,-0.1009918600320816,0.06171875819563866
1776021788463265000,3.54326513671875,-0.24573546648025513,-0.20383141934871674,0.004038151353597641
1776021788473326000,3.553326171875,-0.3140910863876343,-0.6220561265945435,-0.10450350493192673
1776021788483387000,3.563386962890625,-0.20075547695159912,-1.1290966272354126,-0.21052341163158417
1776021788493448000,3.573447998046875,0.048049550503492355,-1.4637465476989746,-0.31161782145500183
1776021788503510000,3.583510009765625,0.1657934933900833,-1.4875462055206299,-0.38294845819473267
1776021788513571000,3.593571044921875,0.06950770318508148,-1.2346148490905762,-0.3552377223968506
1776021788523632000,3.603632080078125,-0.0378645583987236,-0.8993854522705078,-0.2653813362121582
1776021788533693200,3.613693115234375,-0.000844754686113447,-0.623738706111908,-0.1576889604330063
1776021788543754000,3.62375390625,0.1203107014298439,-0.3616599440574646,-0.06081594526767731
1776021788553814800,3.633814697265625,0.190938800573349,-0.04568200185894966,0.013439642265439034
1776021788563876900,3.643876953125,0.17570550739765167,0.31814467906951904,0.07654643803834915
1776021788573938000,3.65393798828125,0.1380111277103424,0.6747424602508545,0.1144309714436531
1776021788583999000,3.6639990234375,0.11217714101076126,0.9320650696754456,0.145624577999115
1776021788594060000,3.67406005859375,0.0921323224902153,1.0436300039291382,0.16004826128482819
1776021788604121900,3.684121826171875,0.0506778247654438,1.0076013803482056,0.1855325847864151
1776021788614183000,3.694182861328125,-0.009892844595015049,0.8137658834457397,0.1900026947259903
1776021788624244000,3.704243896484375,-0.04924078285694122,0.49577751755714417,0.17312917113304138
1776021788634305000,3.714304931640625,-0.05528882145881653,0.15152321755886078,0.1207469254732132
1776021788644366000,3.724365966796875,-0.08373058587312698,-0.1289380043745041,0.03874526545405388
1776021788654427100,3.73442724609375,-0.10044591128826141,-0.32339003682136536,-0.04567667469382286
1776021788664489000,3.744489013671875,-0.10224301367998123,-0.440569669008255,-0.10804204642772675
1776021788674550000,3.754550048828125,-0.09195762127637863,-0.486558735370636,-0.13337484002113342
1776021788684611000,3.764611083984375,-0.0715751200914383,-0.461081326007843,-0.12434884905815125
1776021788694672000,3.774671875,-0.04844050481915474,-0.3593222200870514,-0.09514942020177841
1776021788704734200,3.784734130859375,-0.02569630928337574,-0.19903826713562012,-0.04205717146396637
1776021788714794800,3.794794677734375,0.0027925907634198666,0.012140019796788692,0.010235327295958996
1776021788724855800,3.804855712890625,0.06899265199899673,0.22875861823558807,0.06877000629901886
1776021788734916900,3.814916748046875,0.09587353467941284,0.3954637050628662,0.13308215141296387
1776021788744978000,3.82497802734375,0.09418615698814392,0.4656238853931427,0.20237840712070465
1776021788755040000,3.8350400390625,0.09217227250337601,0.4289798438549042,0.23902563750743866
1776021788765101000,3.84510107421875,0.0765717402100563,0.3041039705276489,0.23745515942573547
1776021788775161900,3.855161865234375,0.06126788631081581,0.1153969019651413,0.20248866081237793
1776021788785223000,3.865222900390625,0.04555337131023407,-0.0855303481221199,0.13296817243099213
1776021788795284000,3.875283935546875,0.02743428759276867,-0.27325764298439026,0.03563948720693588
1776021788805346000,3.885345947265625,0.003186472225934267,-0.4335959255695343,-0.0654144287109375
1776021788815407000,3.895406982421875,-0.014669756405055523,-0.5602777004241943,-0.14836204051971436
1776021788825468200,3.90546826171875,-0.031264178454875946,-0.6195471286773682,-0.20680111646652222
1776021788835529200,3.915529296875,-0.04225531220436096,-0.5840301513671875,-0.2293437123298645
1776021788845589800,3.92558984375,-0.03176325559616089,-0.4553544819355011,-0.2153029888868332
1776021788855651800,3.93565185546875,-0.022851519286632538,-0.252733439207077,-0.16576074063777924
1776021788865713000,3.945712890625,0.015595205128192902,-0.010243316181004047,-0.08307677507400513
1776021788875774000,3.95577392578125,0.050876498222351074,0.2315482795238495,0.015089737251400948
1776021788885835000,3.9658349609375,0.05750909820199013,0.43217912316322327,0.11431485414505005
1776021788895896000,3.97589599609375,0.05168023705482483,0.5531619787216187,0.1686856895685196
1776021788905958000,3.9859580078125,0.033846113830804825,0.5707992911338806,0.1678965985774994
1776021788916019000,3.99601904296875,-0.006351905409246683,0.4406346380710602,0.13857093453407288
1776021788926080000,4.006080078125,-0.0043806335888803005,0.2231161743402481,0.053531400859355927
1776021788936141000,4.01614111328125,-0.037030190229415894,0.0472966767847538,-0.029289711266756058
1776021788946202000,4.0262021484375,-0.11098750680685043,0.19278356432914734,0.011291003786027431
1776021788956264000,4.036263916015625,-0.27340278029441833,0.9457162022590637,0.2590067982673645
1776021788966325000,4.046324951171875,-0.5906550288200378,2.699535608291626,0.9145057797431946
1776021788976386000,4.056385986328125,0.031213846057653427,4.383708953857422,0.8829489350318909
1776021788986446800,4.06644677734375,1.0616841316223145,4.442567348480225,-0.14422188699245453
1776021788996508000,4.0765078125,0.8966280221939087,3.4279885292053223,-0.7905439138412476
1776021789006570000,4.086570068359375,0.23706714808940887,1.8989092111587524,-0.9097693562507629
1776021789016630800,4.096630859375,-0.3787561058998108,0.2654423117637634,-0.679847776889801
1776021789026691800,4.10669189453125,-0.6755797863006592,-0.9660153388977051,-0.3066965639591217
1776021789036753000,4.1167529296875,-0.6894766688346863,-1.6714673042297363,-0.004618986509740353
1776021789046814000,4.12681396484375,-0.6153066158294678,-1.9600743055343628,0.16165973246097565
1776021789056876000,4.1368759765625,-0.5496399402618408,-1.9581307172775269,0.22450368106365204
1776021789066937000,4.14693701171875,-0.5061537623405457,-1.783661961555481,0.23873189091682434
1776021789076998000,4.156997802734375,-0.5059172511100769,-1.583474040031433,0.2590336799621582
1776021789087059000,4.167058837890625,-0.5380440354347229,-1.4594833850860596,0.2993451654911041
1776021789097120000,4.1771201171875,-0.5634759068489075,-1.4033924341201782,0.33971869945526123
1776021789107182000,4.18718212890625,-0.5581045746803284,-1.344447374343872,0.3347329795360565
1776021789117243100,4.1972431640625,-0.5134094953536987,-1.236960768699646,0.2789221704006195
1776021789127304200,4.20730419921875,-0.44965824484825134,-1.0871484279632568,0.18430086970329285
1776021789137365000,4.217364990234375,-0.39188680052757263,-0.91506028175354,0.08875890076160431
1776021789147425800,4.22742578125,-0.3401106894016266,-0.7339317798614502,0.012837767601013184
1776021789157487900,4.23748779296875,-0.28568020462989807,-0.5441378951072693,-0.030839139595627785
1776021789167549000,4.247548828125,-0.2222793996334076,-0.32994353771209717,-0.04276184365153313
1776021789177610000,4.25760986328125,-0.16178543865680695,-0.06994233280420303,-0.026028670370578766
1776021789187671000,4.267671142578125,-0.12401595711708069,0.2140028327703476,0.01992364041507244
1776021789197732000,4.277732177734375,-0.09344819188117981,0.5077769160270691,0.0747690424323082
1776021789207794000,4.2877939453125,-0.057851847261190414,0.7742107510566711,0.12224441766738892
1776021789217855000,4.29785498046875,-0.029038842767477036,1.015270471572876,0.14365863800048828
1776021789227916000,4.307916015625,-0.02430533990263939,1.1955273151397705,0.1417454183101654
1776021789237977000,4.31797705078125,-0.04880695417523384,1.3037683963775635,0.12012507766485214
1776021789248038100,4.3280380859375,-0.10093700140714645,1.3282885551452637,0.09146147221326828
1776021789258100000,4.338099853515625,-0.1606495976448059,1.251723289489746,0.06929198652505875
1776021789268161000,4.3481611328125,-0.2128419578075409,1.0815461874008179,0.0539788119494915
1776021789278222600,4.35822265625,-0.25900840759277344,0.821138858795166,0.047756604850292206
1776021789288283600,4.36828369140625,-0.31160208582878113,0.5189608931541443,0.03379924222826958
1776021789298344700,4.3783447265625,-0.39731699228286743,0.2236756980419159,0.0016133430181071162
1776021789308406500,4.388406494140625,-0.4792150557041168,-0.014785603620111942,-0.0674850344657898
1776021789318467600,4.398467529296875,-0.5359683632850647,-0.18819759786128998,-0.15914517641067505
1776021789328528600,4.408528564453125,-0.5708270072937012,-0.31720298528671265,-0.2401292473077774
1776021789338589700,4.418589599609375,-0.5861007571220398,-0.42699021100997925,-0.28847095370292664
1776021789348650800,4.428650634765625,-0.581305742263794,-0.5106560587882996,-0.3055759072303772
1776021789358712600,4.438712646484375,-0.558439314365387,-0.5261000394821167,-0.3055015802383423
1776021789368773600,4.448773681640625,-0.5269660949707031,-0.4201027452945709,-0.31122100353240967
1776021789378834400,4.45883447265625,-0.4777173101902008,-0.1994265615940094,-0.3115810453891754
1776021789388895500,4.4688955078125,-0.38505420088768005,0.0489765964448452,-0.24885375797748566
1776021789398956500,4.47895654296875,-0.265471875667572,0.21183554828166962,-0.10324915498495102
1776021789409018600,4.4890185546875,-0.14531885087490082,0.26237863302230835,0.11382563412189484
1776021789419079400,4.499079345703125,-0.04385533928871155,0.23731055855751038,0.32481908798217773
1776021789429140500,4.509140380859375,0.026012692600488663,0.1723611205816269,0.46693816781044006
1776021789439201500,4.519201416015625,0.06952714920043945,0.07796110957860947,0.5165802836418152
1776021789449262600,4.5292626953125,0.08857087790966034,-0.05385417863726616,0.5021408796310425
1776021789459324700,4.53932470703125,0.08603927493095398,-0.19878819584846497,0.45271873474121094
1776021789469385700,4.5493857421875,0.07466305047273636,-0.3286689519882202,0.3883131146430969
1776021789479446500,4.559446533203125,0.057255566120147705,-0.4098748564720154,0.3312287926673889
1776021789489507600,4.569507568359375,0.0412566252052784,-0.4389429986476898,0.2841196060180664
1776021789499568600,4.579568603515625,0.030075078830122948,-0.40268033742904663,0.25504401326179504
1776021789509630700,4.589630615234375,0.03774311766028404,-0.2904696464538574,0.24499057233333588
1776021789519691800,4.59969189453125,0.07171466946601868,-0.11121520400047302,0.25644615292549133
1776021789529752600,4.609752685546875,0.14368019998073578,0.13264858722686768,0.3044419288635254
1776021789539813600,4.619813720703125,0.2317890226840973,0.4326139986515045,0.3998856246471405
1776021789549875500,4.62987548828125,0.3136673867702484,0.7726296186447144,0.5301229953765869
1776021789559936500,4.6399365234375,0.40764421224594116,1.176336407661438,0.6611545085906982
1776021789569997600,4.64999755859375,0.5402089357376099,1.7231022119522095,0.7828900218009949
1776021789580058600,4.66005859375,0.7075228095054626,2.3819570541381836,0.9550220966339111
1776021789590119700,4.67011962890625,0.8977803587913513,2.985788106918335,1.18292236328125
1776021789600181500,4.680181396484375,1.0509341955184937,3.375884771347046,1.3739995956420898
1776021789610242600,4.69024267578125,1.1410106420516968,3.453275442123413,1.4048906564712524
1776021789620303600,4.7003037109375,1.1859018802642822,3.0809738636016846,1.2301918268203735
1776021789630364700,4.71036474609375,1.2325549125671387,2.287180185317993,0.9025332927703857
1776021789640425700,4.72042578125,1.3330559730529785,1.2974939346313477,0.5581514239311218
1776021789650487600,4.730487548828125,1.4617047309875488,0.41421130299568176,0.31450653076171875
1776021789660548600,4.740548583984375,1.5370423793792725,-0.19354629516601562,0.18550647795200348
1776021789670609700,4.750609619140625,1.4867280721664429,-0.4538077116012573,0.12814278900623322
1776021789680670500,4.76067041015625,1.3287540674209595,-0.5245588421821594,0.052914880216121674
1776021789690731500,4.7707314453125,1.2038260698318481,-0.7526511549949646,0.01865890622138977
1776021789700793600,4.780793701171875,1.0506300926208496,-1.0982309579849243,0.022650983184576035
1776021789710854700,4.790854736328125,0.9097464680671692,-1.3847886323928833,0.09917452186346054
1776021789720915500,4.80091552734375,0.7951631546020508,-1.5986156463623047,0.23963522911071777
1776021789730976500,4.8109765625,0.6983468532562256,-1.8428627252578735,0.42757663130760193
1776021789741037600,4.82103759765625,0.6172134280204773,-2.109722375869751,0.5936622619628906
1776021789751099600,4.831099609375,0.5676469206809998,-2.237442970275879,0.7033317685127258
1776021789761160700,4.84116064453125,0.6188395619392395,-2.08724045753479,0.7205004096031189
1776021789771221800,4.8512216796875,0.7887555956840515,-1.6070959568023682,0.642186164855957
1776021789781282600,4.861282470703125,0.9722713828086853,-0.9433337450027466,0.48216530680656433
1776021789791343600,4.871343505859375,1.0315924882888794,-0.35181954503059387,0.2662111818790436
1776021789801405700,4.88140576171875,0.8714089393615723,-0.061348844319581985,0.046610113233327866
1776021789811466800,4.891466796875,0.538863480091095,-0.15108218789100647,-0.10510324686765671
1776021789821527600,4.901527587890625,0.17674946784973145,-0.46863457560539246,-0.16709338128566742
1776021789831588600,4.911588623046875,-0.12697552144527435,-0.7924960255622864,-0.2039632499217987
1776021789841649400,4.9216494140625,-0.39388683438301086,-1.0319874286651611,-0.24382971227169037
1776021789851711500,4.93171142578125,-0.6466645002365112,-1.1331286430358887,-0.27708619832992554
1776021789861772500,4.9417724609375,-0.8969830274581909,-1.1446106433868408,-0.2671124041080475
1776021789871833600,4.95183349609375,-1.1525729894638062,-1.1458889245986938,-0.1894301176071167
1776021789881894700,4.961894775390625,-1.3669965267181396,-1.1185106039047241,-0.07324758172035217
1776021789891956500,4.97195654296875,-1.4824422597885132,-1.0316089391708374,0.030887076631188393
1776021789902017500,4.982017578125,-1.4996957778930664,-0.8941102623939514,0.04758269712328911
1776021789912078600,4.99207861328125,-1.4329279661178589,-0.6425315737724304,-0.05682333558797836
1776021789922139600,5.0021396484375,-1.3658287525177002,-0.262253999710083,-0.29168084263801575
1776021789932200700,5.01220068359375,-1.375750184059143,0.14062103629112244,-0.5933046340942383
1776021789942262500,5.022262451171875,-1.4353207349777222,0.46440044045448303,-0.8396525979042053
1776021789952323600,5.032323486328125,-1.5169402360916138,0.6253863573074341,-0.9151809215545654
1776021789962384600,5.042384521484375,-1.5981125831604004,0.5930984616279602,-0.8053638935089111
1776021789972445400,5.052445556640625,-1.649841547012329,0.4340856671333313,-0.5970886945724487
1776021789982506500,5.062506591796875,-1.6670669317245483,0.2112286239862442,-0.4092903137207031
1776021789992568600,5.072568603515625,-1.657163143157959,-0.08029430359601974,-0.2917096018791199
1776021790002629600,5.082629638671875,-1.6408108472824097,-0.4241877496242523,-0.2519286572933197
1776021790012690400,5.0926904296875,-1.6402944326400757,-0.7172231078147888,-0.2930680811405182
1776021790022751500,5.10275146484375,-1.6405740976333618,-0.8716177344322205,-0.3865189552307129
1776021790032812500,5.1128125,-1.617417335510254,-0.9111294746398926,-0.48104891180992126
1776021790042874600,5.12287451171875,-1.5469911098480225,-0.8943938612937927,-0.576896071434021
1776021790052935700,5.132935791015625,-1.4538739919662476,-0.8498501181602478,-0.6276397109031677
1776021790062996700,5.142996826171875,-1.367932677268982,-0.7881295084953308,-0.6114705801010132
1776021790073057500,5.1530576171875,-1.3258962631225586,-0.689864993095398,-0.5345606207847595
1776021790083119600,5.16311962890625,-1.3255740404129028,-0.6007921099662781,-0.4293287396430969
1776021790093180700,5.1731806640625,-1.3341073989868164,-0.5483927726745605,-0.32148507237434387
1776021790103241700,5.18324169921875,-1.3138779401779175,-0.5490388870239258,-0.25778600573539734
1776021790113302800,5.193302734375,-1.2297319173812866,-0.5433855056762695,-0.2976665794849396
1776021790123363600,5.203363525390625,-1.1042520999908447,-0.45173975825309753,-0.41143307089805603
1776021790133425700,5.21342578125,-1.0089728832244873,-0.2224852740764618,-0.5282824635505676
1776021790143486500,5.223486572265625,-0.9511101841926575,0.08511489629745483,-0.5987741947174072
1776021790153547500,5.233547607421875,-0.9247131943702698,0.4036204218864441,-0.6245773434638977
1776021790163608600,5.243608642578125,-0.8806841969490051,0.6538499593734741,-0.6076739430427551
1776021790173669600,5.253669677734375,-0.8290225863456726,0.787301242351532,-0.5689113736152649
1776021790183731500,5.2637314453125,-0.7912225127220154,0.7931716442108154,-0.5272079110145569
1776021790193792500,5.27379248046875,-0.7567753195762634,0.6875203251838684,-0.4913758635520935
1776021790203853600,5.283853515625,-0.7235971093177795,0.5055859684944153,-0.4538535177707672
1776021790213914600,5.29391455078125,-0.691287100315094,0.2581479251384735,-0.4261001646518707
1776021790223975700,5.3039755859375,-0.6498648524284363,-0.011974637396633625,-0.4172680675983429
1776021790234037800,5.314037841796875,-0.6045399308204651,-0.25945794582366943,-0.44814157485961914
1776021790244098600,5.3240986328125,-0.5472737550735474,-0.433173269033432,-0.5029595494270325
1776021790254159600,5.33415966796875,-0.4879978895187378,-0.4996654689311981,-0.5821741819381714
1776021790264220400,5.344220458984375,-0.4121350944042206,-0.4503690302371979,-0.6665151715278625
1776021790274281500,5.354281494140625,-0.32223156094551086,-0.26556774973869324,-0.7035661339759827
1776021790284343000,5.364343017578125,-0.19940711557865143,-0.09994737058877945,-0.6695458292961121
1776021790294404000,5.374404052734375,-0.08387333154678345,-0.021683724597096443,-0.5542677640914917
1776021790304465200,5.384465087890625,0.002177134156227112,-0.037225399166345596,-0.4114471971988678
1776021790314526200,5.394526123046875,0.06645519286394119,-0.10347845405340195,-0.2838602066040039
1776021790324588000,5.404588134765625,0.12151072174310684,-0.15682290494441986,-0.1928165853023529
1776021790334649000,5.414649169921875,0.15955157577991486,-0.16966067254543304,-0.12898088991641998
1776021790344710000,5.4247099609375,0.1868540346622467,-0.184422567486763,-0.07339885085821152
1776021790354771000,5.43477099609375,0.22917592525482178,-0.25315290689468384,-0.039262183010578156
1776021790364832000,5.44483203125,0.25644323229789734,-0.35841381549835205,-0.040831319987773895
1776021790374893800,5.454893798828125,0.2566200792789459,-0.41829872131347656,-0.05681028589606285
1776021790384955000,5.464954833984375,0.253999799489975,-0.3568710386753082,-0.06923499703407288
1776021790395016000,5.475015869140625,0.2851579785346985,-0.17800648510456085,-0.06929092109203339
1776021790405077000,5.485076904296875,0.35945484042167664,0.049439456313848495,-0.06265006214380264
1776021790415138000,5.495137939453125,0.41613754630088806,0.23995880782604218,-0.045462556183338165
1776021790425199900,5.505199951171875,0.45158928632736206,0.3583826422691345,-0.03093314915895462
1776021790435261000,5.515260986328125,0.4566519558429718,0.40834566950798035,-0.02274872176349163
1776021790445322000,5.525322021484375,0.41964173316955566,0.35903140902519226,-0.026343191042542458
1776021790455383000,5.535383056640625,0.3608497977256775,0.222340390086174,-0.02845267951488495
1776021790465445000,5.545445068359375,0.3137616515159607,0.005631520412862301,-0.016041550785303116
1776021790475506200,5.555506103515625,0.278398334980011,-0.23036769032478333,0.024451013654470444
1776021790485567000,5.56556689453125,0.2529422342777252,-0.4166153371334076,0.0920225977897644
1776021790495627800,5.575627685546875,0.24639059603214264,-0.49001869559288025,0.16930939257144928
1776021790505688800,5.585688720703125,0.2765255868434906,-0.43045470118522644,0.22317050397396088
1776021790515751000,5.5957509765625,0.32830891013145447,-0.2945096492767334,0.22197580337524414
1776021790525812000,5.60581201171875,0.38440439105033875,-0.14176060259342194,0.16431038081645966
1776021790535873000,5.615873046875,0.42308759689331055,-0.023612918332219124,0.06487700343132019
1776021790545934000,5.62593408203125,0.456371009349823,0.022468024864792824,-0.03683338314294815
1776021790555995000,5.635994873046875,0.48085635900497437,-0.010158628225326538,-0.09879288822412491
1776021790566057000,5.646056884765625,0.5043199062347412,-0.10298550128936768,-0.12273124605417252
1776021790576118000,5.656117919921875,0.530792236328125,-0.1989586353302002,-0.1414753645658493
1776021790586179000,5.666178955078125,0.5529622435569763,-0.20517419278621674,-0.18712222576141357
1776021790596240100,5.676240234375,0.5561649799346924,-0.0702483281493187,-0.25616520643234253
1776021790606301200,5.68630126953125,0.5545731782913208,0.1708255410194397,-0.2987731099128723
1776021790616363000,5.696363037109375,0.5470969080924988,0.35936030745506287,-0.30847102403640747
1776021790626424000,5.706424072265625,0.5291780829429626,0.35221076011657715,-0.3098587989807129
1776021790636484900,5.71648486328125,0.4841853082180023,0.255012571811676,-0.30127808451652527
1776021790646546000,5.7265458984375,0.46190744638442993,0.2600986957550049,-0.23982031643390656
1776021790656607000,5.73660693359375,0.4573816657066345,0.39119359850883484,-0.13565850257873535
1776021790666668800,5.746668701171875,0.4665378928184509,0.48304760456085205,-0.06534092128276825
1776021790676729900,5.756729736328125,0.46758928894996643,0.3791726231575012,-0.0843212753534317
1776021790686791000,5.766791015625,0.441434383392334,0.0978594496846199,-0.16238997876644135
1776021790696852000,5.77685205078125,0.4023013710975647,-0.1947455108165741,-0.24300305545330048
1776021790706914000,5.7869140625,0.37339621782302856,-0.3363194167613983,-0.28515851497650146
1776021790716974800,5.796974853515625,0.3553794026374817,-0.30915918946266174,-0.2985084056854248
1776021790727036000,5.807035888671875,0.35354581475257874,-0.20191848278045654,-0.3078545033931732
1776021790737097000,5.817096923828125,0.3563767671585083,-0.05877889320254326,-0.293934166431427
1776021790747158000,5.827157958984375,0.36377742886543274,0.08357159048318863,-0.24922341108322144
1776021790757220000,5.83722021484375,0.37877073884010315,0.16168077290058136,-0.20385192334651947
1776021790767281200,5.84728125,0.39957189559936523,0.17659953236579895,-0.17757637798786163
1776021790777342200,5.85734228515625,0.40932491421699524,0.12132616341114044,-0.17319069802761078
1776021790787402800,5.86740283203125,0.41934239864349365,-0.06543759256601334,-0.20056718587875366
1776021790797463800,5.8774638671875,0.40491339564323425,-0.3700243830680847,-0.2311495989561081
1776021790807526000,5.88752587890625,0.39449405670166016,-0.6899662017822266,-0.21215620636940002
1776021790817587000,5.8975869140625,0.4034004509449005,-0.9190387725830078,-0.1513138860464096
1776021790827648000,5.90764794921875,0.4256349205970764,-1.0620726346969604,-0.09837903082370758
1776021790837709000,5.917708984375,0.442253053188324,-1.1274033784866333,-0.0811459869146347
1776021790847771000,5.92777099609375,0.46898800134658813,-1.074378252029419,-0.08647124469280243
1776021790857832000,5.93783203125,0.4655708968639374,-0.8469933271408081,-0.06702031195163727
1776021790867893000,5.94789306640625,0.4127580225467682,-0.4617878794670105,-0.00577932596206665
1776021790877954000,5.9579541015625,0.36284345388412476,-0.07468009740114212,0.02846093662083149
1776021790888015000,5.96801513671875,0.3525439500808716,0.10214314609766006,0.009316270239651203
1776021790898077000,5.978076904296875,0.3275427222251892,0.03706001862883568,-0.02028343454003334
1776021790908138000,5.988137939453125,0.27220383286476135,-0.20092006027698517,-0.023185480386018753
1776021790918199000,5.998198974609375,0.2034575194120407,-0.4292387068271637,-0.01986505091190338
1776021790928260000,6.008260009765625,0.171234592795372,-0.49513542652130127,-0.0005898901727050543
1776021790938321000,6.01832080078125,0.18633686006069183,-0.4213922321796417,0.026914704591035843
1776021790948383000,6.028383056640625,0.2047928273677826,-0.2933301329612732,0.023207584396004677
1776021790958443800,6.03844384765625,0.19913174211978912,-0.12479173392057419,0.03567970171570778
1776021790968504800,6.0485048828125,0.18591713905334473,0.04530462995171547,0.09135947376489639
1776021790978566000,6.05856591796875,0.18270909786224365,0.11500141769647598,0.16551892459392548
1776021790988628000,6.0686279296875,0.1855674684047699,0.00177899154368788,0.2065768837928772
1776021790998689000,6.07868896484375,0.19789177179336548,-0.36709359288215637,0.18426597118377686
1776021791008750000,6.08875,0.23241113126277924,-0.8087010979652405,0.17519605159759521
1776021791018811000,6.098810791015625,0.24512480199337006,-1.2255762815475464,0.1894381046295166
1776021791028872000,6.108871826171875,0.23318877816200256,-1.615549921989441,0.20196588337421417
1776021791038934000,6.11893408203125,0.21360549330711365,-1.8931173086166382,0.21462760865688324
1776021791048995000,6.1289951171875,0.1931132674217224,-2.0292727947235107,0.2004619985818863
1776021791059056000,6.13905615234375,0.14997804164886475,-2.0033533573150635,0.18677733838558197
1776021791069117200,6.1491171875,0.0856027826666832,-1.779250979423523,0.201959490776062
1776021791079178000,6.159177978515625,0.053528204560279846,-1.4020984172821045,0.21462973952293396
1776021791089240000,6.169239990234375,0.07198257744312286,-0.9646962881088257,0.18058468401432037
1776021791099300900,6.17930078125,0.1068662628531456,-0.44879722595214844,0.14096617698669434
1776021791109362000,6.18936181640625,0.15818537771701813,0.06378137320280075,0.09550575166940689
1776021791119423000,6.199423095703125,0.22182294726371765,0.5293309688568115,0.042871300131082535
1776021791129484800,6.20948486328125,0.27110686898231506,0.8819457292556763,0.010249175131320953
1776021791139545900,6.2195458984375,0.2789120674133301,0.942866861820221,-0.00863316934555769
1776021791149607000,6.22960693359375,0.31567034125328064,0.55112224817276,-0.02383316121995449
1776021791159668000,6.23966796875,0.3139384984970093,0.20207080245018005,0.055101070553064346
1776021791169729000,6.24972900390625,0.26784849166870117,-0.08157289028167725,0.1484224945306778
1776021791179790800,6.259790771484375,0.20151101052761078,-0.4021035134792328,0.15442179143428802
1776021791189852000,6.269851806640625,0.08786647021770477,-0.5448017716407776,0.15121933817863464
1776021791199913000,6.279912841796875,0.01552356593310833,-0.6869469285011292,0.11795246601104736
1776021791209974000,6.28997412109375,0.05125067010521889,-1.003507375717163,0.07536079734563828
1776021791220036000,6.3000361328125,0.13320545852184296,-1.2320080995559692,0.10282411426305771
1776021791230097200,6.31009716796875,0.17998042702674866,-1.4384465217590332,0.1130908653140068
1776021791240158200,6.320158203125,0.16783852875232697,-1.4781758785247803,0.0981270968914032
1776021791250218800,6.33021875,0.13749182224273682,-1.3301278352737427,0.08062373846769333
1776021791260279800,6.34027978515625,0.10789930075407028,-0.9854667782783508,0.04766259342432022
1776021791270342000,6.350341796875,0.0801190733909607,-0.5657957792282104,-0.030305707827210426
1776021791280403200,6.3604033203125,0.0194887463003397,-0.13554558157920837,-0.07278898358345032
1776021791290464300,6.37046435546875,-0.00520727876573801,0.3222227692604065,-0.08984839916229248
1776021791300525000,6.380525146484375,0.004801679402589798,0.6052638292312622,-0.11968831717967987
1776021791310585900,6.3905859375,0.03327406570315361,0.49177613854408264,-0.14852821826934814
1776021791320648000,6.40064794921875,0.09101779013872147,0.21101397275924683,-0.09343088418245316
1776021791330709000,6.410708984375,0.163760706782341,-0.06793989986181259,-0.007725830189883709
1776021791340770000,6.42077001953125,0.23251765966415405,-0.321508526802063,0.02635490894317627
1776021791350831000,6.4308310546875,0.2924148142337799,-0.3516746759414673,0.058093130588531494
1776021791360892200,6.44089208984375,0.3258928954601288,-0.27686649560928345,0.08487920463085175
1776021791370954000,6.4509541015625,0.3171238899230957,-0.1865842640399933,0.13821566104888916
1776021791381015000,6.46101513671875,0.287402480840683,-0.07221534103155136,0.20234884321689606
1776021791391076000,6.471076171875,0.2591993510723114,0.00024474450037814677,0.23234988749027252
1776021791401137200,6.48113720703125,0.22296969592571259,0.08194945752620697,0.2541657090187073
1776021791411199000,6.491198974609375,0.21230852603912354,0.13384169340133667,0.2665579319000244
1776021791421260000,6.501260009765625,0.16675889492034912,-0.061458833515644073,0.24922633171081543
1776021791431321000,6.511321044921875,0.12641945481300354,-0.23402342200279236,0.23573662340641022
1776021791441382100,6.521382080078125,0.14323332905769348,-0.26309555768966675,0.1730886846780777
1776021791451443000,6.53144287109375,0.18224969506263733,-0.07526146620512009,0.1001894474029541
1776021791461505000,6.541505126953125,0.15870974957942963,0.29471951723098755,0.0705370157957077
1776021791471566000,6.551566162109375,0.12450996786355972,0.7522851824760437,0.09943205118179321
1776021791481627000,6.561626953125,0.108003169298172,1.0656564235687256,0.14152278006076813
1776021791491688000,6.57168798828125,0.10341800004243851,1.2003711462020874,0.16015584766864777
1776021791501750000,6.58175,0.10254848003387451,1.1480122804641724,0.13462118804454803
1776021791511811000,6.59181103515625,0.11399713903665543,0.9067394733428955,0.09197360277175903
1776021791521872100,6.6018720703125,0.10705214738845825,0.5507731437683105,0.05097929388284683
1776021791531933200,6.61193310546875,0.1045631617307663,0.24775972962379456,0.05621080845594406
1776021791541994000,6.621993896484375,0.11945848912000656,0.06266764551401138,0.08745075017213821
1776021791552056000,6.63205615234375,0.14806483685970306,0.014331535436213017,0.11834342032670975
1776021791562117000,6.6421171875,0.1632286012172699,0.05547257885336876,0.1529293656349182
1776021791572178200,6.65217822265625,0.14122210443019867,0.0972442626953125,0.1991405338048935
1776021791582239200,6.6622392578125,0.1362675577402115,0.10300148278474808,0.21102994680404663
1776021791592301000,6.672301025390625,0.14292067289352417,0.1463870406150818,0.20248199999332428
1776021791602362000,6.682362060546875,0.1405041217803955,0.19625340402126312,0.1746269315481186
1776021791612423000,6.6924228515625,0.1511591523885727,0.2487669438123703,0.1533685177564621
1776021791622484000,6.70248388671875,0.1633327305316925,0.28355634212493896,0.1332952082157135
1776021791632545000,6.712544921875,0.1541653275489807,0.30438733100891113,0.10985299944877625
1776021791642606800,6.72260693359375,0.14277978241443634,0.3130202293395996,0.10062674432992935
1776021791652668000,6.73266796875,0.12536564469337463,0.2707204520702362,0.09127292037010193
1776021791662729000,6.74272900390625,0.0866779014468193,0.22003568708896637,0.1126040443778038
1776021791672790000,6.7527900390625,0.057132795453071594,0.1291249692440033,0.14926990866661072
1776021791682852000,6.76285205078125,0.019592875614762306,0.009612679481506348,0.17271052300930023
1776021791692913200,6.7729130859375,-0.0006468818173743784,-0.07189363241195679,0.1586860567331314
1776021791702974200,6.78297412109375,-0.00361763802357018,-0.046188000589609146,0.13558392226696014
1776021791713035000,6.793034912109375,0.0019707391038537025,0.04842345789074898,0.0904204472899437
1776021791723096000,6.803095947265625,0.02798875793814659,0.1814587414264679,0.04821466654539108
1776021791733158100,6.813158203125,0.05975840613245964,0.30855491757392883,0.034984081983566284
1776021791743219200,6.82321923828125,0.07232479751110077,0.28181037306785583,0.019002452492713928
1776021791753280300,6.8332802734375,0.04571902006864548,0.19247090816497803,0.038356710225343704
1776021791763341000,6.843341064453125,-0.004864530172199011,0.07215408980846405,0.03050251491367817
1776021791773403100,6.853403076171875,-0.014022075571119785,0.008146610110998154,-0.04601729288697243
1776021791783464000,6.8634638671875,0.006888532545417547,0.03808293864130974,-0.1355474442243576
1776021791793525000,6.87352490234375,0.0334000363945961,0.08555591106414795,-0.17430922389030457
1776021791803586000,6.8835859375,0.06515636295080185,0.08373457938432693,-0.16874374449253082
1776021791813647000,6.893647216796875,0.057546116411685944,0.054431017488241196,-0.12224601954221725
1776021791823709000,6.903708984375,-0.005299957003444433,-0.045994121581315994,-0.10162170231342316
1776021791833770000,6.91377001953125,-0.04964558407664299,-0.13347230851650238,-0.16562198102474213
1776021791843831000,6.9238310546875,-0.040643833577632904,-0.11979644000530243,-0.27368825674057007
1776021791853892000,6.93389208984375,0.0013859090395271778,-0.014369351789355278,-0.3529362082481384
1776021791863953200,6.943953125,0.0375489741563797,0.10539646446704865,-0.41476336121559143
1776021791874015000,6.954014892578125,0.038185469806194305,0.19687683880329132,-0.418602854013443
1776021791884076000,6.964075927734375,0.0030360035598278046,0.21983382105827332,-0.40778934955596924
1776021791894137000,6.97413720703125,-0.03273531049489975,0.1325114369392395,-0.4421081840991974
1776021791904198100,6.9841982421875,-0.07676881551742554,0.012632970698177814,-0.45190194249153137
1776021791914260200,6.99426025390625,-0.09388921409845352,-0.1280365288257599,-0.4826801121234894
1776021791924321000,7.004321044921875,-0.08691039681434631,-0.162511944770813,-0.5033321380615234
1776021791934382000,7.014382080078125,-0.064536914229393,-0.13667155802249908,-0.5133200287818909
1776021791944443000,7.02444287109375,-0.054370831698179245,-0.1142357587814331,-0.5277541279792786
1776021791954504000,7.03450390625,-0.05095798894762993,-0.06145616993308067,-0.5144249796867371
1776021791964566000,7.04456591796875,-0.053996387869119644,0.022097578272223473,-0.49827051162719727
1776021791974627000,7.054626953125,-0.06809116899967194,0.07477810233831406,-0.49621376395225525
1776021791984688000,7.064688232421875,-0.06661497801542282,0.13938212394714355,-0.4927854537963867
1776021791994749200,7.074749267578125,-0.020907413214445114,0.21514587104320526,-0.5162039995193481
1776021792004811000,7.08481103515625,0.025288311764597893,0.299841046333313,-0.545219361782074
1776021792014872000,7.0948720703125,0.01943308673799038,0.34033840894699097,-0.5350205302238464
1776021792024933000,7.10493310546875,-0.02069489285349846,0.26207607984542847,-0.486223965883255
1776021792034994200,7.114994140625,-0.08072573691606522,0.11959750205278397,-0.4196910262107849
1776021792045055200,7.12505517578125,-0.10188961029052734,-0.04656324163079262,-0.40945756435394287
1776021792055117000,7.135116943359375,-0.09022895991802216,-0.16905027627944946,-0.4391787052154541
1776021792065178000,7.14517822265625,-0.09446045756340027,-0.1958954632282257,-0.4451393783092499
1776021792075239000,7.155239013671875,-0.09225136786699295,-0.18733499944210052,-0.4075310230255127
1776021792085300000,7.165300048828125,-0.10800129920244217,-0.21210666000843048,-0.3329468071460724
1776021792095362000,7.175362060546875,-0.10644548386335373,-0.2592789828777313,-0.27537113428115845
1776021792105422800,7.1854228515625,-0.08696552366018295,-0.2669384777545929,-0.2660790979862213
1776021792115484000,7.19548388671875,-0.08272018283605576,-0.23792147636413574,-0.23794864118099213
1776021792125545000,7.205544921875,-0.05724331736564636,-0.17227190732955933,-0.19279928505420685
1776021792135606000,7.21560595703125,-0.019334282726049423,-0.08646698296070099,-0.11255663633346558
1776021792145668000,7.225668212890625,-0.021744709461927414,-0.035574771463871,-0.007735151331871748
1776021792155729200,7.235729248046875,-0.025047829374670982,-0.04502712935209274,0.10958055406808853
1776021792165790200,7.245790283203125,-0.014758439734578133,-0.05871710926294327,0.18401937186717987
1776021792175851000,7.25585107421875,-0.005545233841985464,-0.014721954241394997,0.20631375908851624
1776021792185913000,7.2659130859375,-0.01002067606896162,0.09293260425329208,0.21772220730781555
1776021792195974100,7.27597412109375,-0.009437710046768188,0.21140173077583313,0.2671387493610382
1776021792206035200,7.28603515625,-0.013743242248892784,0.2618364095687866,0.34864747524261475
1776021792216096300,7.29609619140625,-0.04662689194083214,0.22166500985622406,0.4211781322956085
1776021792226157000,7.306156982421875,-0.08230765908956528,0.15241935849189758,0.43109947443008423
1776021792236219100,7.31621923828125,-0.10729822516441345,0.14615215361118317,0.40788814425468445
1776021792246280000,7.326280029296875,-0.13195377588272095,0.15825141966342926,0.3864273428916931
1776021792256341000,7.336341064453125,-0.14783979952335358,0.16906864941120148,0.37763410806655884
1776021792266402000,7.346402099609375,-0.14623230695724487,0.18423348665237427,0.3779374361038208
1776021792276463900,7.3564638671875,-0.15797418355941772,0.14918921887874603,0.3847742974758148
1776021792286525000,7.36652490234375,-0.1855219304561615,0.10415436327457428,0.371645450592041
1776021792296586000,7.3765859375,-0.1884079873561859,0.09394434094429016,0.338323175907135
1776021792306647000,7.38664697265625,-0.19923295080661774,0.0808652862906456,0.27271702885627747
1776021792316708000,7.3967080078125,-0.20991408824920654,0.10103553533554077,0.21859411895275116
1776021792326770200,7.406770263671875,-0.21341267228126526,0.1384636014699936,0.17479658126831055
1776021792336831000,7.4168310546875,-0.2313714325428009,0.17124392092227936,0.14788959920406342
1776021792346892000,7.42689208984375,-0.252578467130661,0.17586077749729156,0.13000141084194183
1776021792356953000,7.436953125,-0.2816593647003174,0.11949683725833893,0.10172982513904572
1776021792367015200,7.44701513671875,-0.298644483089447,0.049909237772226334,0.07842902839183807
1776021792377076200,7.457076171875,-0.28903234004974365,0.0019981698133051395,0.07306462526321411
1776021792387137000,7.467136962890625,-0.26192429661750793,0.014346448704600334,0.0695955902338028
1776021792397198000,7.477197998046875,-0.24681217968463898,0.0430782288312912,0.03214195743203163
1776021792407259000,7.4872587890625,-0.24118918180465698,0.10884392261505127,-0.008371912874281406
1776021792417321000,7.497321044921875,-0.22200803458690643,0.17606370151042938,-0.03542909771203995
1776021792427382000,7.507382080078125,-0.20285697281360626,0.17208094894886017,-0.06451267749071121
1776021792437443000,7.517443115234375,-0.185561865568161,0.17266525328159332,-0.06899584829807281
1776021792447504100,7.527504150390625,-0.17572228610515594,0.16061177849769592,-0.05864706635475159
1776021792457566000,7.53756591796875,-0.18551793694496155,0.09446658194065094,-0.0749027356505394
1776021792467627000,7.547626953125,-0.19262830913066864,0.00032091091270558536,-0.10681299865245819
1776021792477688000,7.55768798828125,-0.19318942725658417,-0.0677361711859703,-0.14000503718852997
1776021792487749000,7.5677490234375,-0.1816890984773636,-0.10941357910633087,-0.17272570729255676
1776021792497810200,7.57781005859375,-0.16307920217514038,-0.08765315264463425,-0.18988950550556183
1776021792507872000,7.5878720703125,-0.1239435151219368,-0.061532601714134216,-0.22602061927318573
1776021792517933000,7.59793310546875,-0.07666654884815216,-0.0961502343416214,-0.28588953614234924
1776021792527994000,7.607994140625,-0.04306437820196152,-0.15078844130039215,-0.3258742392063141
1776021792538055000,7.618054931640625,-0.03736921027302742,-0.21515172719955444,-0.3370265066623688
1776021792548117200,7.6281171875,-0.06192249059677124,-0.27248984575271606,-0.34708577394485474
1776021792558178000,7.638177978515625,-0.08501209318637848,-0.31407856941223145,-0.3791779577732086
1776021792568238800,7.64823876953125,-0.08111242949962616,-0.29536426067352295,-0.4147026538848877
1776021792578300000,7.6582998046875,-0.056045692414045334,-0.2649557590484619,-0.46930864453315735
1776021792588361000,7.66836083984375,-0.029041238129138947,-0.2448212057352066,-0.5292081832885742
1776021792598423000,7.678423095703125,-0.037045903503894806,-0.2214128077030182,-0.5524256229400635
1776021792608484000,7.688484130859375,-0.09086572378873825,-0.2619740962982178,-0.5690096616744995
1776021792618545200,7.698545166015625,-0.15943360328674316,-0.39059704542160034,-0.5940713286399841
1776021792628606200,7.708606201171875,-0.19698309898376465,-0.5017896294593811,-0.6409674882888794
1776021792638668000,7.71866796875,-0.19037500023841858,-0.5300537347793579,-0.6831114888191223
1776021792648729000,7.72872900390625,-0.1704159379005432,-0.5267205238342285,-0.7068988084793091
1776021792658790100,7.7387900390625,-0.13435807824134827,-0.45576032996177673,-0.6655857563018799
1776021792668851200,7.748851318359375,-0.06290493160486221,-0.37860456109046936,-0.6033229231834412
1776021792678913000,7.7589130859375,0.00010333064710721374,-0.35894057154655457,-0.5805198550224304
1776021792688974000,7.76897412109375,0.0057340520434081554,-0.3844270408153534,-0.5560400485992432
1776021792699035100,7.77903515625,-0.03928668424487114,-0.42807358503341675,-0.556276261806488
1776021792709096000,7.789095947265625,-0.07753180712461472,-0.4265387952327728,-0.6038832068443298
1776021792719157000,7.799156982421875,-0.05932857096195221,-0.2889487147331238,-0.5966601967811584
1776021792729219000,7.809218994140625,-0.011215370148420334,-0.1400175541639328,-0.5286287069320679
1776021792739280000,7.81927978515625,0.06417711824178696,-0.05576659366488457,-0.43680474162101746
1776021792749341000,7.8293408203125,0.11932932585477829,-0.07986367493867874,-0.37589505314826965
1776021792759402000,7.839402099609375,0.13650964200496674,-0.17559419572353363,-0.33542007207870483
1776021792769464000,7.849464111328125,0.10493040829896927,-0.33196115493774414,-0.33568426966667175
1776021792779525000,7.859525146484375,0.04754834249615669,-0.4987344443798065,-0.37399569153785706
1776021792789586200,7.869586181640625,0.01696087419986725,-0.5110467672348022,-0.3502397835254669
1776021792799647000,7.87964697265625,0.02335432544350624,-0.4112794101238251,-0.24761459231376648
1776021792809708000,7.8897080078125,0.060861486941576004,-0.21690621972084045,-0.11889789253473282
1776021792819770000,7.89977001953125,0.10864844918251038,0.006643787957727909,0.007508516311645508
1776021792829831200,7.9098310546875,0.15940962731838226,0.26010775566101074,0.1364065706729889
1776021792839892200,7.919892333984375,0.19659002125263214,0.4468744397163391,0.2377939224243164
1776021792849953000,7.929953125,0.23080019652843475,0.5619238018989563,0.35605689883232117
1776021792860015000,7.94001513671875,0.30086982250213623,0.6240249872207642,0.5066368579864502
1776021792870076000,7.950075927734375,0.3707706034183502,0.5474761128425598,0.6412018537521362
1776021792880137000,7.960136962890625,0.3962986171245575,0.42515769600868225,0.7762795090675354
1776021792890198000,7.970197998046875,0.39202743768692017,0.3142372965812683,0.8791797757148743
1776021792900259000,7.980259033203125,0.36491936445236206,0.2014676034450531,0.84482741355896
1776021792910321000,7.99032080078125,0.2894406020641327,0.10145977884531021,0.6956794857978821
1776021792920382000,8.0003818359375,0.17005695402622223,-0.03899054229259491,0.5110973715782166
1776021792930443000,8.010443115234375,0.013558685779571533,-0.19148287177085876,0.34767675399780273
1776021792940504000,8.020504150390625,-0.09963471442461014,-0.25607678294181824,0.3065420985221863
1776021792950566100,8.030566162109375,-0.15075889229774475,-0.15160976350307465,0.3402446508407593
1776021792960627200,8.040627197265625,-0.21995793282985687,0.04230138286948204,0.35306909680366516
1776021792970688000,8.05068798828125,-0.33809414505958557,0.11848510056734085,0.32056790590286255
1776021792980749000,8.0607490234375,-0.4012768566608429,-0.0015507587231695652,0.2837808430194855
1776021792990810000,8.07081005859375,-0.3640407919883728,-0.3192453682422638,0.20429135859012604
1776021793000872200,8.0808720703125,-0.4266115128993988,-0.582880973815918,0.14861929416656494
1776021793010933200,8.090933349609376,-0.6123310327529907,-0.6209412813186646,0.059658270329236984
1776021793020994000,8.100994140625,-0.8262273669242859,-0.49412423372268677,-0.1462259143590927
1776021793031054800,8.111054931640625,-0.9964557886123657,-0.20073629915714264,-0.37594592571258545
1776021793041117000,8.121116943359375,-1.1289536952972412,0.06487327069044113,-0.5273261070251465
1776021793051178000,8.131177978515625,-1.1521878242492676,0.10419297963380814,-0.5323514938354492
1776021793061239000,8.141239013671875,-1.0515185594558716,-0.1925468146800995,-0.3781856596469879
1776021793071300000,8.151300048828125,-0.937473714351654,-0.5376088619232178,-0.10332798957824707
1776021793081362000,8.16136181640625,-0.7355035543441772,-0.9117283821105957,0.07450166344642639
1776021793091423000,8.171423095703124,-0.3488868772983551,-1.3234357833862305,0.14679397642612457
1776021793101484000,8.181484130859374,-0.0072898706421256065,-1.1513090133666992,0.12768764793872833
1776021793111545000,8.191545166015626,0.12365908920764923,-0.6674818992614746,-0.38009166717529297
1776021793121606100,8.201606201171876,-0.29066911339759827,-0.5606374740600586,-1.0323693752288818
1776021793131668000,8.21166796875,-0.828382670879364,-0.9700151681900024,-1.1834204196929932
1776021793141729000,8.22172900390625,-0.9629266262054443,-1.3673512935638428,-0.9671261310577393
1776021793151790000,8.2317900390625,-0.7201616168022156,-1.2403451204299927,-0.7256943583488464
1776021793161851100,8.24185107421875,-0.37156662344932556,-0.7610933780670166,-0.5820159912109375
1776021793171913200,8.251913330078125,-0.11245330423116684,0.059240419417619705,-0.4566037654876709
1776021793181974300,8.261974365234375,0.032635707408189774,1.061298131942749,-0.1470102220773697
1776021793192035000,8.27203515625,0.2099074274301529,1.7762017250061035,0.4376303255558014
1776021793202095900,8.282095947265624,0.47656601667404175,1.73956298828125,0.970734715461731
1776021793212157000,8.292156982421876,0.5864624381065369,1.2569220066070557,1.148460030555725
1776021793222219000,8.302218994140626,0.5990259051322937,0.9875054359436035,0.9558740258216858
1776021793232280000,8.312280029296875,0.6590844392776489,0.9659463763237,0.5678282976150513
1776021793242341000,8.322341064453125,0.7146957516670227,0.8056637644767761,0.28278616070747375
1776021793252402200,8.332402099609375,0.6742849349975586,0.36666855216026306,0.3290623128414154
1776021793262464000,8.342464111328125,0.557607889175415,-0.2138904482126236,0.4936017096042633
1776021793272525000,8.352525146484375,0.4000246226787567,-0.6139664649963379,0.5474042296409607
1776021793282585900,8.3625859375,0.19215825200080872,-0.7870282530784607,0.40563884377479553
1776021793292647000,8.37264697265625,0.003498062025755644,-0.7697089314460754,0.22099043428897858
1776021793302709000,8.382708984375,-0.08037926256656647,-0.5315078496932983,0.11922279745340347
1776021793312769800,8.392769775390626,-0.0667734369635582,-0.10283583402633667,0.06641284376382828
1776021793322830800,8.402830810546876,-0.044010333716869354,0.3875733017921448,0.12095890939235687
1776021793332892000,8.412891845703125,0.03511990234255791,0.5263117551803589,0.29706284403800964
1776021793342953000,8.422952880859375,0.14682859182357788,0.15155303478240967,0.39699769020080566
1776021793353015000,8.43301513671875,0.20205563306808472,-0.141815185546875,0.2723279297351837
1776021793363076000,8.443076171875,0.13208000361919403,-0.13585610687732697,0.007217432837933302
1776021793373137000,8.453136962890625,0.047585628926754,-0.24102486670017242,-0.15531182289123535
1776021793383198000,8.463197998046875,0.2018420398235321,-0.6080180406570435,-0.26984745264053345
1776021793393260000,8.473260009765625,0.4506465196609497,-0.7527720332145691,-0.35339295864105225
1776021793403321000,8.483321044921874,0.4468219578266144,-0.3481891453266144,-0.1443433314561844
1776021793413382100,8.493382080078124,0.3063149154186249,0.1453859508037567,0.18378767371177673
1776021793423443200,8.503443115234376,0.3119214177131653,0.17150011658668518,0.26033759117126465
1776021793433505000,8.513505126953126,0.19334149360656738,-0.03602724149823189,0.14185380935668945
1776021793443566000,8.523566162109375,-0.07732674479484558,-0.04867539554834366,0.03959454596042633
1776021793453627000,8.533626953125,-0.2800052762031555,-0.024144750088453293,0.07733180373907089
1776021793463688000,8.54368798828125,-0.3621462285518646,-0.0946844294667244,0.17782644927501678
1776021793473749000,8.5537490234375,-0.34787115454673767,-0.18481884896755219,0.268982470035553
1776021793483810800,8.563810791015625,-0.26687511801719666,-0.18543270230293274,0.2838386297225952
1776021793493871900,8.573871826171874,-0.13378149271011353,-0.14190919697284698,0.15928232669830322
1776021793503933000,8.583932861328124,0.010129866190254688,-0.10598155856132507,0.002567820018157363
1776021793513994000,8.593993896484376,0.07270216941833496,-0.028172515332698822,-0.05217771604657173
1776021793524056000,8.60405615234375,0.058585282415151596,0.04910842329263687,0.006951915565878153
1776021793534116900,8.614116943359376,0.02906201221048832,0.15009735524654388,0.09517551958560944
1776021793544178000,8.624177978515625,0.0020722055342048407,0.27874401211738586,0.18236234784126282
1776021793554239000,8.634239013671875,-0.002231995342299342,0.3049793541431427,0.218247652053833
1776021793564301000,8.644301025390625,0.03296593949198723,0.28511616587638855,0.20442478358745575
1776021793574362000,8.654362060546875,0.10501962900161743,0.24883565306663513,0.20508736371994019
1776021793584423200,8.664423095703125,0.17536889016628265,0.15325267612934113,0.24008476734161377
1776021793594484000,8.67448388671875,0.25349512696266174,0.03160027042031288,0.24993367493152618
1776021793604544800,8.684544677734374,0.3090135157108307,-0.036973197013139725,0.2492460459470749
1776021793614606800,8.69460693359375,0.336784690618515,-0.07743753492832184,0.2386714369058609
1776021793624668000,8.70466796875,0.3373657763004303,-0.08151616156101227,0.22282588481903076
1776021793634729000,8.71472900390625,0.31124016642570496,-0.05080485716462135,0.213711217045784
1776021793644790000,8.7247900390625,0.2852967083454132,-0.051295679062604904,0.2181917279958725
1776021793654851800,8.734851806640625,0.2462739497423172,-0.04436773061752319,0.23278184235095978
1776021793664913000,8.744912841796875,0.19419823586940765,-0.026022812351584435,0.23146198689937592
1776021793674974000,8.754973876953125,0.20694571733474731,0.011782357469201088,0.25236088037490845
1776021793685035000,8.765034912109375,0.29567664861679077,0.0701785534620285,0.23340076208114624
1776021793695097000,8.77509716796875,0.3564976751804352,0.16004399955272675,0.19927795231342316
1776021793705158000,8.785157958984374,0.46610671281814575,0.2033291459083557,0.20999930799007416
1776021793715219000,8.795218994140624,0.574582040309906,0.149099200963974,0.2515113353729248
1776021793725280000,8.805280029296876,0.5110355615615845,0.12933161854743958,0.2765447795391083
1776021793735341000,8.815341064453126,0.33639585971832275,0.22087885439395905,0.3090236186981201
1776021793745403100,8.825403076171876,0.2523651421070099,0.31629592180252075,0.371234267950058
1776021793755464200,8.835464111328125,0.31950077414512634,0.2516535520553589,0.38777461647987366
1776021793765525000,8.84552490234375,0.3965984880924225,0.09364552795886993,0.35434824228286743
1776021793775585800,8.855585693359375,0.4026811420917511,-0.05498335883021355,0.2916118800640106
1776021793785647900,8.86564794921875,0.36626559495925903,-0.16023893654346466,0.21367047727108002
1776021793795709000,8.875708984375,0.333053857088089,-0.22107060253620148,0.14050331711769104
1776021793805770000,8.88577001953125,0.31353849172592163,-0.257179856300354,0.08978261798620224
1776021793815831000,8.8958310546875,0.29830867052078247,-0.2770316004753113,0.06783390790224075
1776021793825892900,8.905892822265624,0.3093186914920807,-0.27568379044532776,0.09231740981340408
1776021793835954000,8.915953857421876,0.33235636353492737,-0.24055321514606476,0.14150039851665497
1776021793846015000,8.926014892578126,0.3339691758155823,-0.18879255652427673,0.18464148044586182
1776021793856076000,8.936075927734375,0.34526631236076355,-0.10534000396728516,0.20549564063549042
1776021793866137000,8.94613720703125,0.35498979687690735,-0.006346845533698797,0.18963810801506042
1776021793876199000,8.956198974609375,0.37204599380493164,0.05493994802236557,0.17832419276237488
1776021793886260000,8.966260009765625,0.38317134976387024,0.06830395758152008,0.17194779217243195
1776021793896321000,8.976321044921875,0.3688211739063263,0.003980893176048994,0.15519145131111145
1776021793906382000,8.986382080078124,0.3379511535167694,-0.06887999922037125,0.19714155793190002
1776021793916444200,8.996444091796874,0.3241778016090393,-0.1135726347565651,0.2344822734594345
1776021793926505200,9.006505126953124,0.36283785104751587,-0.13831712305545807,0.22154836356639862
1776021793936565800,9.016565673828126,0.46631285548210144,-0.19502301514148712,0.22033795714378357
1776021793946626800,9.026626708984375,0.5881636738777161,-0.2839888334274292,0.27017396688461304
1776021793956689000,9.03668896484375,0.6577195525169373,-0.39773350954055786,0.3665127456188202
1776021793966750000,9.04675,0.5664455890655518,-0.31204310059547424,0.4203019440174103
1776021793976811000,9.05681103515625,0.30872082710266113,0.009727728553116322,0.3295970857143402
1776021793986872000,9.0668720703125,0.048958487808704376,0.37006619572639465,0.22403736412525177
1776021793996932900,9.076932861328125,-0.10026241838932037,0.5718855857849121,0.16143442690372467
1776021794006995000,9.086994873046875,-0.07891212403774261,0.6394186019897461,0.0978810265660286
1776021794017056000,9.097055908203124,0.10690834373235703,0.6743853688240051,0.1132970005273819
1776021794027117000,9.107116943359374,0.28600406646728516,0.6199423670768738,0.18951533734798431
1776021794037178000,9.11717822265625,0.3737615942955017,0.5661137700080872,0.3079085648059845
1776021794047240000,9.127239990234376,0.37167689204216003,0.5377726554870605,0.3616902828216553
1776021794057301000,9.137301025390625,0.27761563658714294,0.5856368541717529,0.34295654296875
1776021794067362000,9.147362060546875,0.11696736514568329,0.6490530967712402,0.30477747321128845
1776021794077422800,9.1574228515625,-0.0551050640642643,0.5812777876853943,0.2534458339214325
1776021794087485200,9.167485107421875,-0.20477844774723053,0.3966842293739319,0.2093564122915268
1776021794097546000,9.1775458984375,-0.25843289494514465,0.04230910912156105,0.15931110084056854
1776021794107606800,9.187606689453125,-0.05224136635661125,-0.44434255361557007,0.2748408913612366
1776021794117667800,9.197667724609374,0.247929647564888,-0.867315411567688,0.4885430634021759
1776021794127730000,9.20772998046875,0.26588335633277893,-0.9648145437240601,0.49027276039123535
1776021794137791000,9.217791015625,-0.015780827030539513,-0.4884921908378601,0.20157626271247864
1776021794147852000,9.22785205078125,-0.32496264576911926,-0.36790743470191956,-0.1434706151485443
1776021794157913000,9.2379130859375,-0.4048539996147156,-0.7223497033119202,-0.17536382377147675
1776021794167974000,9.247973876953125,-0.4035264253616333,-0.8210360407829285,-0.10678503662347794
1776021794178036000,9.258035888671875,-0.4813341498374939,-0.3926681876182556,-0.0021046961192041636
1776021794188097000,9.268096923828125,-0.5335690975189209,0.22402191162109375,0.09761230647563934
1776021794198158000,9.278157958984375,-0.5329472422599792,0.6573498845100403,0.19299554824829102
1776021794208219100,9.28821923828125,-0.42005613446235657,0.6838036179542542,0.25345250964164734
1776021794218281000,9.298281005859375,-0.17241384088993073,0.530642032623291,0.17193154990673065
1776021794228342000,9.308342041015624,0.1474810689687729,0.510461688041687,0.01618056744337082
1776021794238403000,9.318403076171874,0.3456852436065674,0.5390352606773376,-0.1235584244132042
1776021794248464000,9.3284638671875,0.3858821988105774,0.49060940742492676,-0.1880982667207718
1776021794258526200,9.338526123046876,0.34364816546440125,0.4044729173183441,-0.1310834437608719
1776021794268586800,9.348586669921875,0.26603779196739197,0.24870941042900085,-0.06005614623427391
1776021794278647800,9.358647705078125,0.1910591721534729,0.1648789644241333,0.021462947130203247
1776021794288708900,9.368708984375,0.1098865494132042,0.209412083029747,0.1025647222995758
1776021794298770000,9.37877001953125,0.03293265029788017,0.21981118619441986,0.135127991437912
1776021794308832000,9.38883203125,0.00669305631890893,0.14289776980876923,0.09039434790611267
1776021794318893000,9.39889306640625,0.05040538311004639,0.10542576014995575,0.0595802403986454
1776021794328953900,9.408953857421874,0.11012543737888336,0.12701201438903809,0.06384742259979248
1776021794339015000,9.419014892578126,0.14468714594841003,0.17703069746494293,0.02985296957194805
1776021794349077000,9.429076904296876,0.16003094613552094,0.20065054297447205,-0.042868636548519135
1776021794359138000,9.439137939453126,0.16263924539089203,0.19150471687316895,-0.04506228491663933
1776021794369199000,9.44919921875,0.1620432287454605,0.13272050023078918,-0.062499597668647766
1776021794379260200,9.45926025390625,0.16218863427639008,0.08210445940494537,-0.08039151132106781
1776021794389322000,9.469322021484375,0.17764057219028473,0.0976349487900734,-0.053400106728076935
1776021794399383000,9.479383056640625,0.20148038864135742,0.1257914900779724,-0.0593770407140255
1776021794409443800,9.48944384765625,0.2266339361667633,0.11303840577602386,-0.08555591106414795
1776021794419505000,9.4995048828125,0.25577211380004883,0.08552155643701553,-0.07865805923938751
1776021794429567000,9.50956689453125,0.2907484769821167,0.10061103105545044,-0.08339715749025345
1776021794439627800,9.519627685546874,0.29906633496284485,0.10846655815839767,-0.11238912492990494
1776021794449688800,9.529688720703126,0.2785397469997406,0.03127509728074074,-0.11843503266572952
1776021794459750000,9.53975,0.22779135406017303,-0.03868800774216652,-0.12573902308940887
1776021794469811000,9.54981103515625,0.159486323595047,-0.06835535168647766,-0.1150703951716423
1776021794479873000,9.559873046875,0.11240830272436142,-0.08815488964319229,-0.05483022704720497
1776021794489934000,9.56993408203125,0.09723014384508133,-0.10149785876274109,-0.009282448329031467
1776021794499995000,9.579994873046875,0.10951238125562668,-0.09162925183773041,0.025298697873950005
1776021794510056000,9.590055908203125,0.14354145526885986,-0.06635478883981705,0.02732722833752632
1776021794520118000,9.600117919921875,0.16938184201717377,-0.046424489468336105,-0.04542393982410431
1776021794530179000,9.610178955078124,0.18727241456508636,-0.046657249331474304,-0.11398542672395706
1776021794540240100,9.620240234375,0.18154795467853546,-0.09513450413942337,-0.14626799523830414
1776021794550301200,9.63030126953125,0.13594798743724823,-0.19659455120563507,-0.12543942034244537
1776021794560363000,9.640363037109376,0.12065105140209198,-0.2599087953567505,-0.05642972141504288
1776021794570424000,9.650424072265626,0.08975572139024734,-0.21870145201683044,0.016651147976517677
1776021794580484900,9.66048486328125,0.024508006870746613,-0.11660251021385193,0.04602581635117531
1776021794590546000,9.6705458984375,-0.008776447735726833,-0.012586099095642567,0.07017109543085098
1776021794600608000,9.68060791015625,-0.01341514103114605,0.08359236270189285,0.09871379286050797
1776021794610668800,9.690668701171875,-0.014189056120812893,0.13134470582008362,0.08890696614980698
1776021794620729900,9.700729736328125,0.029290243983268738,0.1320967823266983,0.07216393947601318
1776021794630791000,9.710791015625,0.10961837321519852,0.09481119364500046,0.07205554842948914
1776021794640852000,9.72085205078125,0.19650639593601227,0.07297913730144501,0.08845663070678711
1776021794650914000,9.7309140625,0.24213433265686035,0.07720370590686798,0.125599205493927
1776021794660975000,9.74097509765625,0.23951378464698792,0.04090642184019089,0.15108059346675873
1776021794671036000,9.751035888671876,0.20870767533779144,-0.09221088886260986,0.15314801037311554
1776021794681097000,9.761096923828125,0.16019313037395477,-0.2741929292678833,0.21825270354747772
1776021794691159000,9.771158935546875,0.10932489484548569,-0.3938136100769043,0.27958956360816956
1776021794701220000,9.78122021484375,0.052989181131124496,-0.3766292929649353,0.24348722398281097
1776021794711281200,9.79128125,-0.02473464049398899,-0.1192409098148346,0.1917920708656311
1776021794721342200,9.80134228515625,-0.1621183305978775,0.35055774450302124,0.1704854518175125
1776021794731404000,9.811404052734375,-0.20900647342205048,0.5897333025932312,0.06782272458076477
1776021794741464800,9.82146484375,0.052253350615501404,0.5815116167068481,-0.02095108851790428
1776021794751526000,9.83152587890625,0.49968332052230835,0.4228852093219757,-0.023309849202632904
1776021794761587000,9.8415869140625,0.7646167278289795,0.16935120522975922,0.05679084360599518
1776021794771648000,9.85164794921875,0.7021533250808716,-0.07490459829568863,0.23010963201522827
1776021794781709800,9.861709716796875,0.4126648008823395,-0.26288169622421265,0.35315966606140137
1776021794791771000,9.87177099609375,-0.007911453023552895,-0.3197825253009796,0.22662808001041412
1776021794801832000,9.88183203125,-0.37068992853164673,-0.24982847273349762,-0.06883233040571213
1776021794811893000,9.89189306640625,-0.5523688793182373,-0.1837565153837204,-0.24067598581314087
1776021794821955000,9.901955078125,-0.6537474393844604,-0.12749351561069489,-0.2018955796957016
1776021794832016000,9.912015869140625,-0.7232426404953003,-0.007364705670624971,0.013677196577191353
1776021794842077000,9.922076904296874,-0.7504028677940369,0.11022743582725525,0.27539190649986267
1776021794852138000,9.932137939453124,-0.6907808184623718,0.13992035388946533,0.4205309748649597
1776021794862200000,9.942199951171874,-0.46857547760009766,0.06235498562455177,0.4358854293823242
1776021794872261000,9.95226123046875,-0.02695491909980774,-0.11390046775341034,0.3956037759780884
1776021794882322200,9.962322265625,0.3929230570793152,0.0073564499616622925,0.2472505420446396
1776021794892383000,9.972383056640625,0.4873257279396057,0.32901862263679504,-0.1291731595993042
1776021794902445000,9.982445068359375,0.3994768261909485,0.5744315981864929,-0.3539769947528839
1776021794912505900,9.992505859375,0.22207167744636536,0.8317534327507019,-0.3017697036266327
1776021794922567000,10.00256689453125,0.12907010316848755,0.5083878636360168,-0.3418566584587097
1776021794932628000,10.0126279296875,0.20157812535762787,0.1338065266609192,-0.323825478553772
1776021794942689800,10.022689697265625,0.28196749091148376,0.0902598574757576,-0.1999639868736267
1776021794952750800,10.032750732421874,0.1920117884874344,0.35514718294143677,-0.17375421524047852
1776021794962812000,10.04281201171875,-0.04126781225204468,0.5415226221084595,-0.16872429847717285
1776021794972873000,10.052873046875,-0.2268214225769043,0.5897612571716309,-0.032757945358753204
1776021794982934000,10.06293408203125,-0.4004126489162445,0.4206627905368805,0.15100602805614471
1776021794992996000,10.07299609375,-0.5266497135162354,0.10431762039661407,0.21805404126644135
1776021795003057000,10.083056884765625,-0.5203526616096497,-0.11708933860063553,0.15083451569080353
1776021795013118000,10.093117919921875,-0.42596009373664856,-0.1365296095609665,-0.011039867997169495
1776021795023179000,10.103178955078125,-0.28941822052001953,-0.07520740479230881,-0.13538604974746704
1776021795033241000,10.113240966796875,-0.18173916637897491,-0.11529170721769333,-0.16968463361263275
1776021795043302100,10.12330224609375,-0.15147048234939575,-0.23277519643306732,-0.13951927423477173
1776021795053363200,10.13336328125,-0.16912271082401276,-0.24531468749046326,-0.09662187844514847
1776021795063423700,10.143423828125,-0.18035459518432617,-0.146389439702034,-0.04285718500614166
1776021795073485800,10.15348583984375,-0.20677074790000916,0.005825664848089218,-0.0046940878964960575
1776021795083547000,10.163546875,-0.22316543757915497,0.16717328131198883,-0.0271285567432642
1776021795093608000,10.17360791015625,-0.2020268589258194,0.28093498945236206,-0.11492045968770981
1776021795103669000,10.1836689453125,-0.16976585984230042,0.2674703299999237,-0.20833562314510345
1776021795113730800,10.193730712890625,-0.14790290594100952,0.15691398084163666,-0.2528141438961029
1776021795123792000,10.2037919921875,-0.13284966349601746,0.02985483407974243,-0.2607855200767517
1776021795133853000,10.21385302734375,-0.11883850395679474,-0.05259157344698906,-0.25317952036857605
1776021795143914000,10.2239140625,-0.15058791637420654,-0.11129749566316605,-0.21845218539237976
1776021795153976000,10.23397607421875,-0.21755149960517883,-0.15976755321025848,-0.13463744521141052
1776021795164036900,10.244036865234374,-0.29006752371788025,-0.20343008637428284,-0.07312587648630142
1776021795174098000,10.254097900390626,-0.34917718172073364,-0.20250304043293,-0.047256194055080414
1776021795184159000,10.264158935546876,-0.3626580834388733,-0.13930410146713257,-0.04962880536913872
1776021795194220000,10.274219970703125,-0.33678415417671204,-0.05752800777554512,-0.0735543817281723
1776021795204282000,10.2842822265625,-0.25521284341812134,-0.008184160105884075,-0.07572352141141891
1776021795214343200,10.29434326171875,-0.1328461915254593,0.005890113301575184,-0.062131546437740326
1776021795224404000,10.304404052734375,-0.07584522664546967,0.0026258768048137426,-0.08133560419082642
1776021795234464800,10.31446484375,-0.09552466124296188,0.015427159145474434,-0.10289282351732254
1776021795244526800,10.32452685546875,-0.1256391555070877,0.014152570627629757,-0.12380902469158173
1776021795254588000,10.334587890625,-0.16611947119235992,-0.011854794807732105,-0.14445145428180695
1776021795264649000,10.34464892578125,-0.2170470952987671,-0.0278574638068676,-0.12485724687576294
1776021795274710000,10.3547099609375,-0.2509211599826813,-0.008620652370154858,-0.0661715641617775
1776021795284771800,10.364771728515626,-0.23014532029628754,0.06149079278111458,0.0070587084628641605
1776021795294833000,10.3748330078125,-0.18541567027568817,0.15313602983951569,0.06319734454154968
1776021795304894000,10.38489404296875,-0.18840746581554413,0.23760057985782623,0.07956086844205856
1776021795314955000,10.394955078125,-0.21707585453987122,0.256837397813797,0.05089407414197922
1776021795325017000,10.40501708984375,-0.2183389961719513,0.21447181701660156,-0.003156911116093397
1776021795335078000,10.415077880859375,-0.1934693306684494,0.192920982837677,0.028926989063620567
1776021795345139000,10.425138916015625,-0.1880876123905182,0.164413183927536,0.08640013635158539
1776021795355199700,10.43519970703125,-0.20385965704917908,0.11745259165763855,0.09479601681232452
1776021795365262000,10.445261962890624,-0.23756781220436096,0.12279649078845978,0.13013270497322083
1776021795375323000,10.455322998046874,-0.26538532972335815,0.14729811251163483,0.17401547729969025
1776021795385384000,10.465384033203126,-0.28161463141441345,0.15429049730300903,0.17130251228809357
1776021795395445000,10.475445068359376,-0.2965211570262909,0.13548804819583893,0.14310576021671295
1776021795405505800,10.485505859375,-0.28245753049850464,0.11771571636199951,0.14538569748401642
1776021795415568000,10.49556787109375,-0.2500852048397064,0.09897025674581528,0.12446469813585281
1776021795425629000,10.50562890625,-0.24274420738220215,0.09323380887508392,0.06263009458780289
1776021795435690000,10.51568994140625,-0.2581753432750702,0.0916028842329979,0.0002836266648955643
1776021795445751000,10.5257509765625,-0.2556525468826294,0.03964648023247719,-0.08534259349107742
1776021795455812900,10.535812744140625,-0.25032728910446167,-0.03526611253619194,-0.09671429544687271
1776021795465874000,10.5458740234375,-0.25886592268943787,-0.11804434657096863,-0.07143636792898178
1776021795475935000,10.55593505859375,-0.30833491683006287,-0.17375421524047852,-0.06150943413376808
1776021795485996000,10.56599609375,-0.3790019154548645,-0.18687348067760468,-0.11422298103570938
1776021795496058000,10.57605810546875,-0.40585777163505554,-0.1426793932914734,-0.1953689604997635
1776021795506119000,10.586118896484376,-0.4020851254463196,-0.11268473416566849,-0.23645834624767303
1776021795516180000,10.596179931640625,-0.5980796813964844,-0.4019527733325958,-0.4063091576099396
1776021795526240800,10.60624072265625,-1.0910241603851318,-0.5216160416603088,-0.5566248893737793
1776021795536303000,10.61630322265625,-1.5417656898498535,-0.4739563763141632,-0.7025997042655945
1776021795546364000,10.626364013671875,-1.5465503931045532,-0.5066107511520386,-0.8541538119316101
1776021795556425000,10.636425048828125,-1.2054545879364014,-0.5085521936416626,-0.9548708200454712
1776021795566485800,10.64648583984375,-0.8022511601448059,-0.39594921469688416,-1.0372698307037354
1776021795576547800,10.6565478515625,-0.4375680088996887,-0.14283651113510132,-0.9871981143951416
1776021795586609000,10.66660888671875,-0.16671894490718842,-0.00723607512190938,-0.8474572896957397
1776021795596670000,10.676669921875,-0.025858761742711067,0.020250676199793816,-0.7196527123451233
1776021795606731000,10.68673095703125,-0.047682300209999084,0.06301838159561157,-0.6649953126907349
1776021795616792800,10.696792724609375,-0.1981639564037323,0.08453299105167389,-0.7128174304962158
1776021795626854000,10.70685400390625,-0.3911571204662323,0.07085712999105453,-0.7356796264648438
1776021795636915000,10.7169150390625,-0.46675732731819153,0.0032056469935923815,-0.6762306690216064
1776021795646976000,10.72697607421875,-0.44853490591049194,-0.07326116412878036,-0.6026089191436768
1776021795657037000,10.737037109375,-0.35562148690223694,-0.03178136423230171,-0.5375910401344299
1776021795667099000,10.747098876953125,-0.2169823795557022,-0.005203284323215485,-0.4890943169593811
1776021795677160000,10.757159912109374,-0.01889779046177864,-0.045344844460487366,-0.4185125529766083
1776021795687220700,10.767220703125,0.0826895534992218,-0.032832782715559006,-0.35319480299949646
1776021795697281800,10.77728173828125,-0.019487414509058,0.04318848252296448,-0.299017071723938
1776021795707344000,10.78734375,-0.07193917036056519,0.0382070392370224,-0.18188245594501495
1776021795717405000,10.797405029296876,-0.05865931883454323,0.0006815029191784561,-0.08325973898172379
1776021795727466000,10.807466064453125,-0.11178405582904816,-0.035833898931741714,-0.014597584493458271
1776021795737526800,10.81752685546875,-0.14073580503463745,-0.09322848170995712,0.0010138654615730047
1776021795747588900,10.8275888671875,-0.14888827502727509,-0.11206208914518356,0.022584937512874603
1776021795757650000,10.83764990234375,-0.15254665911197662,-0.1611982136964798,0.08676046133041382
1776021795767711000,10.8477109375,-0.09019859880208969,-0.20643839240074158,0.142652228474617
1776021795777772000,10.85777197265625,-0.0317014716565609,-0.1991272121667862,0.20710818469524384
1776021795787833900,10.867833740234374,-0.013962953351438046,-0.21755576133728027,0.273579865694046
1776021795797895000,10.87789501953125,-0.022213958203792572,-0.22126899659633636,0.2962396442890167
1776021795807956000,10.8879560546875,-0.0941145122051239,-0.22715432941913605,0.28535157442092896
1776021795818017000,10.89801708984375,-0.17187295854091644,-0.25342321395874023,0.30147382616996765
1776021795828079000,10.9080791015625,-0.20162951946258545,-0.24531735479831696,0.3167915344238281
1776021795838140000,10.918139892578125,-0.22770985960960388,-0.2457948476076126,0.3562396168708801
1776021795848201000,10.928200927734375,-0.2538125514984131,-0.2753860354423523,0.39072728157043457
1776021795858261800,10.93826171875,-0.2550482749938965,-0.2596030831336975,0.42826133966445923
1776021795868324000,10.948323974609375,-0.22134517133235931,-0.17213074862957,0.3767819106578827
1776021795878385000,10.958385009765625,0.17216511070728302,-0.20094935595989227,0.058272626250982285
1776021795888446000,10.968446044921874,0.8900028467178345,-0.4546271562576294,-0.299734503030777
1776021795898506800,10.9785068359375,1.010328769683838,-0.3638535737991333,-0.29715684056282043
1776021795908567800,10.98856787109375,0.4339301288127899,0.23941391706466675,0.20596115291118622
1776021795918630000,10.9986298828125,0.049561694264411926,0.2891777455806732,0.6309627890586853
1776021795928691000,11.00869091796875,-0.11180642247200012,0.02002990059554577,0.47500088810920715
1776021795938752000,11.018751953125,-0.38382622599601746,-0.014181332662701607,0.1081770732998848
1776021795948813000,11.02881298828125,-0.44088098406791687,0.10385076701641083,-0.05993710458278656
1776021795958875000,11.038875,-0.17713455855846405,0.18908177316188812,0.0636380985379219
1776021795968936000,11.04893603515625,0.13610830903053284,0.03524240851402283,0.27872323989868164
1776021795978997000,11.0589970703125,0.24864736199378967,-0.09378401935100555,0.32929906249046326
1776021795989058000,11.06905810546875,0.2454683482646942,-0.08482380956411362,0.2150542438030243
1776021795999120000,11.079119873046874,0.21552562713623047,-0.1236196756362915,0.11410420387983322
1776021796009181000,11.089180908203126,0.11259578913450241,-0.22908325493335724,0.08057979494333267
1776021796019241700,11.09924169921875,-0.08031933754682541,-0.25617292523384094,0.10728118568658829
1776021796029302800,11.109302734375,-0.20790685713291168,-0.22574365139007568,0.15751798450946808
1776021796039364900,11.11936474609375,-0.19640812277793884,-0.09717022627592087,0.2003631889820099
1776021796049426000,11.129426025390625,-0.08505896478891373,0.08931336551904678,0.19933468103408813
1776021796059487000,11.139487060546875,0.0722891092300415,0.24684733152389526,0.1489732414484024
1776021796069547800,11.1495478515625,0.2185552418231964,0.29507479071617126,0.08863505721092224
1776021796079609900,11.15960986328125,0.2684522271156311,0.23597045242786407,0.04241456836462021
1776021796089671000,11.1696708984375,0.19719962775707245,0.11561581492424011,0.01979314535856247
1776021796099732000,11.17973193359375,0.06918039917945862,0.01281433179974556,0.04032744839787483
1776021796109793000,11.18979296875,-0.017109477892518044,-0.038787342607975006,0.05204535648226738
1776021796119854800,11.199854736328126,-0.07674670964479446,-0.023921843618154526,0.06055362522602081
1776021796129916000,11.209916015625,-0.12157516926527023,-0.0043864925391972065,0.08209700137376785
1776021796139977000,11.21997705078125,-0.1270114779472351,-0.020809940993785858,0.11492418497800827
1776021796150038000,11.2300380859375,-0.12092961370944977,-0.04500262811779976,0.1361493170261383
1776021796160100000,11.24010009765625,-0.10243023186922073,-0.047921452671289444,0.124470554292202
1776021796170161000,11.250160888671875,-0.04475868120789528,0.015324894338846207,0.10232903808355331
1776021796180222000,11.260221923828125,-0.042629219591617584,0.071906678378582,0.0819406732916832
1776021796190282800,11.27028271484375,-0.08167435973882675,0.0837196633219719,0.08726033568382263
1776021796200345000,11.280344970703124,-0.08426694571971893,0.10374770313501358,0.12223563343286514
1776021796210406000,11.290406005859374,-0.0759807825088501,0.14562350511550903,0.1462773233652115
1776021796220467000,11.300467041015626,-0.07030212879180908,0.19895704090595245,0.14969708025455475
1776021796230528000,11.310528076171876,-0.05217105895280838,0.25992292165756226,0.15071120858192444
1776021796240589800,11.32058984375,-0.028327777981758118,0.28081461787223816,0.12421009689569473
1776021796250651000,11.33065087890625,0.0003701793903019279,0.2696594297885895,0.09139516204595566
1776021796260712000,11.3407119140625,0.010616958141326904,0.2437833696603775,0.07734885066747665
1776021796270773000,11.35077294921875,-0.0044288369826972485,0.2066652923822403,0.08268103003501892
1776021796280834800,11.360834716796875,-0.025054220110177994,0.177957221865654,0.10750675201416016
1776021796290896000,11.370895751953125,-0.0636783093214035,0.12791135907173157,0.10948041826486588
1776021796300957000,11.38095703125,-0.12128701061010361,0.07730304449796677,0.08678469806909561
1776021796311018000,11.39101806640625,-0.113719642162323,0.0456543043255806,0.0804213359951973
1776021796321080000,11.401080078125,-0.07593071460723877,0.04012558236718178,0.08534898608922958
1776021796331141000,11.41114111328125,-0.038062695413827896,0.09357842057943344,0.13886627554893494
1776021796341202000,11.421201904296876,0.06977695226669312,0.19419556856155396,0.2548682391643524
1776021796351263000,11.431262939453125,0.19811467826366425,0.26732251048088074,0.2837110757827759
1776021796361325000,11.441324951171875,0.32973209023475647,0.4030872583389282,0.26413604617118835
1776021796371386000,11.45138623046875,0.44658762216567993,0.5456843376159668,0.2840215861797333
1776021796381447200,11.461447265625,0.5491925477981567,0.6180280447006226,0.3505929112434387
1776021796391508200,11.47150830078125,0.6242747902870178,0.6202219724655151,0.41536790132522583
1776021796401570000,11.481570068359375,0.6321537494659424,0.6115965247154236,0.5001876950263977
1776021796411631000,11.491631103515624,0.5543569326400757,0.5383015275001526,0.5358511805534363
1776021796421692200,11.501692138671874,0.4595353603363037,0.4249744713306427,0.5042991042137146
1776021796431753200,11.511753173828126,0.40360313653945923,0.4184984564781189,0.5180261135101318
1776021796441815000,11.52181494140625,0.39651405811309814,0.4588181674480438,0.4859432578086853
1776021796451876000,11.5318759765625,0.42189210653305054,0.4948848485946655,0.42673853039741516
1776021796461937000,11.54193701171875,0.47571006417274475,0.5227212309837341,0.4111076593399048
1776021796471998000,11.551998046875,0.5560249090194702,0.5603663921356201,0.34211471676826477
1776021796482060000,11.56206005859375,0.6537508964538574,0.6770423650741577,0.207301527261734
1776021796492121000,11.57212109375,0.711011528968811,0.8688461780548096,0.03242132440209389
1776021796502182000,11.582181884765625,0.7253065705299377,1.0795989036560059,-0.09232034534215927
1776021796512243000,11.592242919921874,0.7082615494728088,1.2419267892837524,-0.17034004628658295
1776021796522305000,11.602304931640624,0.6602285504341125,1.2541131973266602,-0.2889234125614166
1776021796532366000,11.612365966796874,0.5884645581245422,1.1676099300384521,-0.35575729608535767
1776021796542427100,11.62242724609375,0.5648314356803894,1.2188584804534912,-0.3689897656440735
1776021796552488200,11.63248828125,0.6240636110305786,1.0852535963058472,-0.3799284100532532
1776021796562550000,11.642550048828125,0.6425600647926331,0.9800925254821777,-0.4236298203468323
1776021796572611000,11.652611083984375,0.6313180327415466,0.9558367133140564,-0.4192129671573639
1776021796582672100,11.662672119140625,0.6069554686546326,0.9604024887084961,-0.3669244647026062
1776021796592733200,11.672733154296875,0.5592110753059387,0.962742030620575,-0.31827598810195923
1776021796602795000,11.682794921875,0.5107485055923462,0.9163486957550049,-0.29505455493927
1776021796612856000,11.69285595703125,0.47337156534194946,0.8240241408348083,-0.2992194592952728
1776021796622916900,11.702916748046874,0.46904632449150085,0.729388952255249,-0.298904150724411
1776021796632978000,11.71297802734375,0.48807621002197266,0.7037613391876221,-0.26706311106681824
1776021796643040000,11.7230400390625,0.47857749462127686,0.6716231107711792,-0.29630064964294434
1776021796653101000,11.73310107421875,0.4172433018684387,0.7080775499343872,-0.3514863848686218
1776021796663162000,11.743162109375,0.360397070646286,0.7657541632652283,-0.3646663725376129
1776021796673223000,11.753222900390625,0.28097814321517944,0.6988795399665833,-0.39946430921554565
1776021796683285000,11.763284912109375,0.1812075972557068,0.45499494671821594,-0.48402100801467896
1776021796693346000,11.773345947265625,0.031081486493349075,0.15441779792308807,-0.6306165456771851
1776021796703407000,11.783406982421875,-0.10348618030548096,-0.08777113258838654,-0.7871337532997131
1776021796713468200,11.79346826171875,-0.16793866455554962,-0.2338407188653946,-0.8863165378570557
1776021796723530000,11.803530029296875,-0.18121719360351562,-0.3322509229183197,-0.9214518666267395
1776021796733591000,11.813591064453124,-0.13416153192520142,-0.4243305027484894,-0.910886824131012
1776021796743652000,11.823652099609374,-0.059352271258831024,-0.4751955568790436,-0.847212016582489
1776021796753713200,11.833713134765626,0.021694909781217575,-0.4194830358028412,-0.6993306279182434
1776021796763775200,11.843775146484376,0.13154816627502441,-0.2625461220741272,-0.4940049350261688
1776021796773836000,11.8538359375,0.19940871000289917,-0.11224424839019775,-0.303275465965271
1776021796783897000,11.86389697265625,0.144184872508049,-0.04357277601957321,-0.16761988401412964
1776021796793958000,11.8739580078125,-0.05675143003463745,-0.03953941911458969,-0.08467067778110504
1776021796804020200,11.884020263671875,-0.30344510078430176,-0.06082340329885483,-0.08702518045902252
1776021796814081000,11.8940810546875,-0.3899565637111664,-0.15781280398368835,-0.14664669334888458
1776021796824142000,11.90414208984375,-0.3000391721725464,-0.2456824630498886,-0.2001940757036209
1776021796834203000,11.914202880859374,-0.14036962389945984,-0.2792681157588959,-0.23554354906082153
1776021796844264000,11.924263916015626,-0.033549170941114426,-0.32091277837753296,-0.26387158036231995
1776021796854326000,11.934325927734376,-0.06076135113835335,-0.41884279251098633,-0.29041025042533875
1776021796864387000,11.944386962890626,-0.1620219200849533,-0.57547527551651,-0.29169124364852905
1776021796874448100,11.9544482421875,-0.3057069182395935,-0.7450880408287048,-0.2574174106121063
1776021796884510000,11.964510009765625,-0.457941472530365,-0.8789927959442139,-0.1966446191072464
1776021796894571000,11.974571044921875,-0.5783451199531555,-0.9324494004249573,-0.1341242492198944
1776021796904632000,11.984632080078125,-0.6333795785903931,-0.9373914003372192,-0.10539433360099792
1776021796914693000,11.994693115234375,-0.6320917010307312,-0.9286360144615173,-0.12162736803293228
1776021796924754200,12.004754150390625,-0.6256313920021057,-0.9167577624320984,-0.17219120264053345
1776021796934816000,12.01481591796875,-0.6519237160682678,-0.8831756114959717,-0.2419212907552719
1776021796944877000,12.024876953125,-0.7340015172958374,-0.8242001533508301,-0.30596017837524414
1776021796954937900,12.034937744140626,-0.8387314081192017,-0.7600525617599487,-0.3421086072921753
1776021796964999000,12.0449990234375,-0.9429049491882324,-0.6983689665794373,-0.3496221899986267
1776021796975061000,12.05506103515625,-1.025411605834961,-0.6476379036903381,-0.3330884873867035
1776021796985122000,12.0651220703125,-1.078921914100647,-0.6114881634712219,-0.295579195022583
1776021796995183000,12.07518310546875,-1.1148730516433716,-0.5908033847808838,-0.26070377230644226
1776021797005245000,12.085244873046875,-1.1584436893463135,-0.5401087999343872,-0.2228573113679886
1776021797015306000,12.095305908203125,-1.2249579429626465,-0.44604939222335815,-0.1704111546278
1776021797025367000,12.105366943359375,-1.2957059144973755,-0.28733110427856445,-0.06751859188079834
1776021797035428000,12.115427978515624,-1.3285900354385376,-0.09043882042169571,0.10188881307840347
1776021797045489200,12.1254892578125,-1.2776895761489868,0.036847230046987534,0.25216805934906006
1776021797055551000,12.135551025390624,-1.1292316913604736,0.02725851908326149,0.30327174067497253
1776021797065612000,12.145612060546876,-0.9334302544593811,-0.05265655368566513,0.2753479480743408
1776021797075673000,12.155673095703126,-0.7619908452033997,-0.10495118051767349,0.1970536857843399
1776021797085734100,12.165734130859375,-0.6764599680900574,-0.1170848086476326,0.09586980193853378
1776021797095796200,12.175796142578125,-0.6744554042816162,-0.07540766894817352,0.002124936319887638
1776021797105857000,12.18585693359375,-0.6918724775314331,0.008020375855267048,-0.03688078746199608
1776021797115918000,12.19591796875,-0.691575288772583,0.07558450847864151,-0.002491120947524905
1776021797125980200,12.205980224609375,-0.6496938467025757,0.1440972536802292,0.093844473361969
1776021797136041200,12.216041259765625,-0.5603581070899963,0.19250527024269104,0.23012268543243408
1776021797146102000,12.22610205078125,-0.44012412428855896,0.17401494085788727,0.38371676206588745
1776021797156163000,12.2361630859375,-0.31087690591812134,0.12298610806465149,0.5506101250648499
1776021797166225000,12.246224853515624,-0.19580411911010742,0.08472154289484024,0.6780751347541809
1776021797176286000,12.256285888671876,-0.11505760997533798,0.12233017385005951,0.7487072348594666
1776021797186347000,12.266346923828126,-0.0722302570939064,0.19668669998645782,0.7653157711029053
1776021797196408000,12.276407958984375,-0.08598654717206955,0.30038246512413025,0.7263004779815674
1776021797206470000,12.286469970703125,-0.17225991189479828,0.514064371585846,0.5890377163887024
1776021797216531000,12.296531005859375,-0.29874834418296814,0.7940832376480103,0.36798280477523804
1776021797226592000,12.306592041015625,-0.4392378330230713,1.076155662536621,0.118390291929245
1776021797236653000,12.316653076171875,-0.5732174515724182,1.3277397155761719,-0.11704806238412857
1776021797246715100,12.326715087890625,-0.6424940228462219,1.5375193357467651,-0.28311052918434143
1776021797256776200,12.336776123046874,-0.643531322479248,1.6717450618743896,-0.3412609100341797
1776021797266837200,12.346837158203124,-0.5794127583503723,1.7298834323883057,-0.27941831946372986
1776021797276898000,12.35689794921875,-0.4906746447086334,1.7062214612960815,-0.1579744517803192
1776021797286960000,12.366960205078126,-0.4237414300441742,1.552992582321167,-0.033435720950365067
1776021797297021200,12.377021240234376,-0.4202097952365875,1.2478570938110352,0.051720719784498215
1776021797307082200,12.387082275390625,-0.4805953800678253,0.8186360001564026,0.0869215801358223
1776021797317143300,12.397143310546875,-0.5527436137199402,0.353596955537796,0.06885150074958801
1776021797327205000,12.407205078125,-0.60767662525177,-0.1526625156402588,0.055387891829013824
1776021797337266200,12.41726611328125,-0.7006779313087463,-1.0580233335494995,0.535348117351532
1776021797347327200,12.4273271484375,-0.7903534770011902,-1.633697509765625,1.0308337211608887
1776021797357388300,12.43738818359375,-0.8231319785118103,-1.052449345588684,0.7413201928138733
1776021797367450000,12.4474501953125,-0.7187621593475342,0.11731623858213425,0.10308670252561569
1776021797377511200,12.45751123046875,-0.5042762160301208,1.1290737390518188,-0.4006315767765045
1776021797387572200,12.467572265625,-0.256315678358078,1.4205108880996704,-0.5500050783157349
