time,seconds_elapsed,z,y,x
1776815464459808500,0.10580859375,-29.442779541015625,-6.834897994995117,-22.69646453857422
1776815464469845800,0.115845703125,-29.428321838378906,-6.911935806274414,-22.52587890625
1776815464479881700,0.1258818359375,-29.318466186523438,-6.974555969238281,-22.579483032226562
1776815464489918700,0.135918701171875,-30.13091278076172,-6.795989990234375,-22.481826782226562
1776815464499955700,0.145955810546875,-30.599822998046875,-6.6024627685546875,-22.398216247558594
1776815464509991700,0.15599169921875,-30.453147888183594,-6.693996429443359,-22.21491241455078
1776815464520028700,0.166028564453125,-30.393692016601562,-6.615592956542969,-22.068496704101562
1776815464530065000,0.17606494140625,-30.664230346679688,-6.652431488037109,-21.94622039794922
1776815464540102000,0.186101806640625,-30.451736450195312,-6.434816360473633,-21.75652313232422
1776815464550137900,0.196137939453125,-30.53179168701172,-6.544895172119141,-21.47100067138672
1776815464560174600,0.206174560546875,-31.119903564453125,-6.539556503295898,-21.148521423339844
1776815464570211600,0.216211669921875,-31.587142944335938,-6.746599197387695,-20.748153686523438
1776815464580247600,0.22624755859375,-31.90631866455078,-6.836614608764648,-20.286300659179688
1776815464590284500,0.236284423828125,-32.15434265136719,-7.005199432373047,-19.640480041503906
1776815464600320800,0.24632080078125,-32.49163818359375,-6.893917083740234,-19.282127380371094
1776815464610357800,0.256357666015625,-32.77867889404297,-6.8964996337890625,-18.920875549316406
1776815464620393700,0.266393798828125,-32.899085998535156,-6.78550910949707,-18.635726928710938
1776815464630430700,0.2764306640625,-32.88892364501953,-6.520076751708984,-18.496681213378906
1776815464640466700,0.286466796875,-32.908416748046875,-6.353176116943359,-18.423416137695312
1776815464650503700,0.296503662109375,-33.21625518798828,-6.429527282714844,-18.322219848632812
1776815464660541000,0.306541015625,-33.13700866699219,-6.216117858886719,-18.15027618408203
1776815464670577000,0.316576904296875,-33.29894256591797,-6.041425704956055,-18.047134399414062
1776815464680613600,0.326613525390625,-33.23614501953125,-5.8333282470703125,-17.854843139648438
1776815464690649900,0.33664990234375,-33.451011657714844,-5.646450042724609,-17.752456665039062
1776815464700686600,0.3466865234375,-33.7164306640625,-5.471897125244141,-17.78905487060547
1776815464710722600,0.35672265625,-33.75480651855469,-5.307426452636719,-17.675079345703125
1776815464720759600,0.366759521484375,-33.958282470703125,-5.192914962768555,-17.634315490722656
1776815464730796800,0.376796875,-33.852272033691406,-5.0981903076171875,-17.463821411132812
1776815464740832800,0.386832763671875,-33.84278869628906,-5.247993469238281,-17.443939208984375
1776815464750869800,0.396869873046875,-33.8453369140625,-5.522975921630859,-17.313369750976562
1776815464760905700,0.40690576171875,-34.092918395996094,-5.710376739501953,-17.050582885742188
1776815464770942700,0.416942626953125,-34.10984802246094,-5.896778106689453,-16.613632202148438
1776815464780978700,0.426978759765625,-34.352691650390625,-5.791776657104492,-16.170303344726562
1776815464791015700,0.437015625,-34.451812744140625,-5.646129608154297,-15.8975830078125
1776815464801053000,0.447052978515625,-34.79042053222656,-5.619434356689453,-15.540306091308594
1776815464811089000,0.4570888671875,-34.91327667236328,-5.416582107543945,-15.312202453613281
1776815464821125600,0.467125732421875,-35.010589599609375,-5.299039840698242,-14.927330017089844
1776815464831161900,0.477161865234375,-35.46770477294922,-5.380117416381836,-14.214775085449219
1776815464841198600,0.487198486328125,-35.760986328125,-5.212282180786133,-13.635215759277344
1776815464851235600,0.497235595703125,-36.15825653076172,-4.860383987426758,-12.9976806640625
1776815464861271600,0.507271484375,-36.253501892089844,-4.647468566894531,-12.383140563964844
1776815464871308800,0.517308837890625,-36.53087615966797,-4.423862457275391,-11.706840515136719
1776815464881344800,0.5273447265625,-36.38677215576172,-4.194877624511719,-11.286949157714844
1776815464891381800,0.5373818359375,-36.531166076660156,-4.057552337646484,-10.799491882324219
1776815464901417700,0.547417724609375,-36.80377960205078,-4.008228302001953,-10.114250183105469
1776815464911454700,0.557454833984375,-36.90734100341797,-3.7175025939941406,-9.24566650390625
1776815464921491700,0.56749169921875,-36.90734100341797,-3.7175025939941406,-9.24566650390625
1776815464931527700,0.577527587890625,-37.13629150390625,-3.704774856567383,-7.951164245605469
1776815464941564700,0.587564697265625,-37.62853240966797,-3.605091094970703,-6.877044677734375
1776815464951601000,0.597600830078125,-37.64759063720703,-3.0350799560546875,-5.864505767822266
1776815464961637600,0.6076376953125,-37.820884704589844,-2.8374595642089844,-5.002735137939453
1776815464971673600,0.617673583984375,-37.96510314941406,-2.7582473754882812,-4.244140625
1776815464981710600,0.627710693359375,-37.741310119628906,-2.3893814086914062,-3.470813751220703
1776815464991747600,0.63774755859375,-37.906578063964844,-2.4309463500976562,-2.8640289306640625
1776815465001783600,0.647783447265625,-37.76972198486328,-2.080181121826172,-2.0720367431640625
1776815465011820800,0.65782080078125,-38.03065490722656,-1.5711631774902344,-1.668487548828125
1776815465021856800,0.667856689453125,-38.036643981933594,-0.7890052795410156,-1.3709983825683594
1776815465031893800,0.677893798828125,-37.881103515625,0.10672760009765625,-1.2651214599609375
1776815465041930800,0.6879306640625,-37.80486297607422,0.8335494995117188,-1.0533332824707031
1776815465051970300,0.69797021484375,-37.78497314453125,1.917388916015625,-0.5699005126953125
1776815465062007300,0.70800732421875,-37.71241760253906,2.945323944091797,-0.14677047729492188
1776815465072043300,0.718043212890625,-37.159210205078125,3.8778762817382812,0.6541709899902344
1776815465082080000,0.728080078125,-37.18321228027344,4.9197998046875,1.3111152648925781
1776815465092116200,0.7381162109375,-36.741241455078125,5.969760894775391,1.9053306579589844
1776815465102153000,0.748153076171875,-36.46885681152344,6.81201171875,2.4944534301757812
1776815465112190200,0.758190185546875,-36.40538787841797,7.753688812255859,2.886730194091797
1776815465122226200,0.76822607421875,-36.022605895996094,8.603031158447266,3.6136550903320312
1776815465132263200,0.77826318359375,-35.53361511230469,9.617755889892578,3.8549652099609375
1776815465142299100,0.788299072265625,-35.17986297607422,10.653743743896484,4.116878509521484
1776815465152336100,0.798336181640625,-34.64257049560547,11.825519561767578,4.142646789550781
1776815465162373000,0.808373046875,-34.027130126953125,13.183605194091797,4.0138702392578125
1776815465172409000,0.8184091796875,-33.149391174316406,14.726646423339844,4.0494384765625
1776815465182446300,0.8284462890625,-32.50897979736328,16.2237548828125,3.7559242248535156
1776815465192482300,0.838482421875,-31.370941162109375,17.864883422851562,3.483692169189453
1776815465202519300,0.848519287109375,-30.587547302246094,19.703418731689453,2.7702484130859375
1776815465212555300,0.85855517578125,-29.713729858398438,21.147075653076172,1.8271217346191406
1776815465222592000,0.868592041015625,-29.090965270996094,22.106002807617188,0.881591796875
1776815465232629000,0.87862890625,-28.400657653808594,23.06360626220703,0.1020660400390625
1776815465242665000,0.8886650390625,-27.852981567382812,23.96224594116211,-0.6197929382324219
1776815465252702200,0.8987021484375,-27.145423889160156,24.60150909423828,-1.0214881896972656
1776815465262738200,0.90873828125,-26.365127563476562,25.17943572998047,-1.1123886108398438
1776815465272775200,0.918775146484375,-25.65857696533203,25.935993194580078,-1.3686408996582031
1776815465282812200,0.928812255859375,-24.889068603515625,26.908077239990234,-1.5680007934570312
1776815465292848000,0.93884814453125,-23.810035705566406,27.805908203125,-1.6881294250488281
1776815465302885000,0.948885009765625,-22.804664611816406,28.669086456298828,-1.7637672424316406
1776815465312921000,0.958921142578125,-21.857955932617188,29.493915557861328,-1.8027610778808594
1776815465322958300,0.968958251953125,-21.46912384033203,29.982128143310547,-1.6641464233398438
1776815465332994300,0.978994384765625,-21.634597778320312,29.872234344482422,-1.0870399475097656
1776815465343031000,0.989031005859375,-22.094863891601562,29.362621307373047,-0.42156982421875
1776815465353068000,0.999068115234375,-22.72637939453125,28.912891387939453,0.4540061950683594
1776815465363104000,1.00910400390625,-22.990760803222656,28.418685913085938,1.4269905090332031
1776815465373141000,1.01914111328125,-23.506980895996094,28.159351348876953,2.2723617553710938
1776815465383177000,1.029177001953125,-23.53876495361328,28.007591247558594,2.847461700439453
1776815465393214200,1.039214111328125,-23.53144073486328,27.965347290039062,3.4917030334472656
1776815465403251200,1.049251220703125,-23.364524841308594,28.004108428955078,4.050048828125
1776815465413287200,1.059287109375,-22.84418487548828,28.304729461669922,4.511287689208984
1776815465423324200,1.06932421875,-22.05169677734375,28.741992950439453,5.061187744140625
1776815465433360100,1.079360107421875,-21.314544677734375,29.130748748779297,5.610660552978516
1776815465443397000,1.089397216796875,-20.368186950683594,29.760669708251953,5.878257751464844
1776815465453433300,1.099433349609375,-19.007156372070312,30.47011947631836,6.345767974853516
1776815465463470300,1.10947021484375,-17.525062561035156,31.319866180419922,6.9059906005859375
1776815465473507000,1.119507080078125,-15.829254150390625,31.65689468383789,7.842010498046875
1776815465483543000,1.12954296875,-14.198410034179688,32.3035774230957,8.586662292480469
1776815465493580000,1.139580078125,-12.702629089355469,32.916927337646484,9.289653778076172
1776815465503616000,1.149615966796875,-10.922927856445312,33.222354888916016,10.305057525634766
1776815465513653200,1.1596533203125,-9.80859375,33.47587203979492,10.728042602539062
1776815465523690200,1.169690185546875,-8.904525756835938,33.6762809753418,11.006240844726562
1776815465533726200,1.179726318359375,-8.042793273925781,33.85933303833008,11.316120147705078
1776815465543763200,1.18976318359375,-7.473472595214844,33.85947799682617,11.637577056884766
1776815465553799200,1.199799072265625,-7.025382995605469,33.8427619934082,11.92422103881836
1776815465563836200,1.209836181640625,-6.6896820068359375,34.115047454833984,11.820789337158203
1776815465573873200,1.219873046875,-6.369300842285156,34.27565383911133,11.633384704589844
1776815465583909400,1.229909423828125,-5.725128173828125,34.30381393432617,11.63720703125
1776815465593946000,1.239946044921875,-4.856636047363281,34.56564712524414,11.40463638305664
1776815465603982300,1.249982421875,-4.42877197265625,34.738529205322266,11.480865478515625
1776815465614019000,1.26001904296875,-3.8525009155273438,34.81900405883789,11.647491455078125
1776815465624056000,1.27005615234375,-3.4752883911132812,34.7380256652832,11.839836120605469
1776815465634092000,1.280092041015625,-3.087879180908203,34.86420822143555,12.089057922363281
1776815465644129300,1.29012939453125,-2.458202362060547,34.84517288208008,12.243400573730469
1776815465654165200,1.300165283203125,-2.1276321411132812,34.7033576965332,12.259784698486328
1776815465664202200,1.3102021484375,-1.5784263610839844,34.685787200927734,12.375312805175781
1776815465674239200,1.3202392578125,-1.0636253356933594,34.73520278930664,12.357376098632812
1776815465684275200,1.330275146484375,-0.6639022827148438,34.86153793334961,12.415496826171875
1776815465694312200,1.340312255859375,-0.3122100830078125,34.8375129699707,12.664310455322266
1776815465704348200,1.35034814453125,-0.7173080444335938,34.8213005065918,12.558155059814453
1776815465714385200,1.36038525390625,-0.5304145812988281,34.65260696411133,12.659961700439453
1776815465724422100,1.370422119140625,-0.4510917663574219,34.66007614135742,12.704643249511719
1776815465734458000,1.3804580078125,-0.2515869140625,34.64395523071289,13.003620147705078
1776815465744495000,1.3904951171875,-0.3305168151855469,34.53208541870117,13.21639633178711
1776815465754531000,1.400531005859375,-0.4396629333496094,34.283695220947266,13.407108306884766
1776815465764568000,1.410568115234375,-0.44809722900390625,34.149784088134766,13.70977783203125
1776815465774604000,1.42060400390625,-0.33257293701171875,33.94632339477539,13.885444641113281
1776815465784641300,1.430641357421875,-0.016643524169921875,34.018680572509766,13.763252258300781
1776815465794678300,1.44067822265625,0.3425712585449219,34.14815902709961,13.61910629272461
1776815465804714200,1.45071435546875,0.6522331237792969,34.252132415771484,13.420673370361328
1776815465814751200,1.460751220703125,1.2425117492675781,34.30952072143555,13.131446838378906
1776815465824787200,1.470787109375,1.5975227355957031,34.329532623291016,12.883609771728516
1776815465834824200,1.48082421875,2.0247764587402344,34.44816207885742,12.570465087890625
1776815465844861200,1.490861083984375,2.5233612060546875,34.656124114990234,12.375205993652344
1776815465854897200,1.500897216796875,2.3741226196289062,34.55195236206055,12.339946746826172
1776815465864934100,1.51093408203125,2.187469482421875,34.44121170043945,12.600955963134766
1776815465874970000,1.52097021484375,1.8145408630371094,34.2254753112793,12.978290557861328
1776815465885007000,1.531007080078125,1.245269775390625,34.10886764526367,13.328018188476562
1776815465895044000,1.541044189453125,0.493316650390625,33.864925384521484,13.588172912597656
1776815465905080000,1.551080078125,-0.4360771179199219,33.641780853271484,13.856739044189453
1776815465915117300,1.561117431640625,-1.152252197265625,33.3624153137207,14.41109848022461
1776815465925153300,1.5711533203125,-1.9899940490722656,33.27287673950195,14.670032501220703
1776815465935190300,1.581190185546875,-2.5576400756835938,33.2074089050293,14.739372253417969
1776815465945227300,1.591227294921875,-3.017303466796875,33.27261734008789,14.563308715820312
1776815465955263200,1.60126318359375,-2.996654510498047,33.36043167114258,14.272140502929688
1776815465965300000,1.611300048828125,-3.201587677001953,33.44058609008789,14.112686157226562
1776815465975336200,1.621336181640625,-3.1502952575683594,33.51425552368164,14.010082244873047
1776815465985373200,1.631373291015625,-3.0196266174316406,33.50681686401367,13.840106964111328
1776815465995410200,1.64141015625,-2.396434783935547,33.6694450378418,13.895683288574219
1776815466005446100,1.651446044921875,-2.5582962036132812,33.70591354370117,13.574951171875
1776815466015483100,1.661483154296875,-2.4943923950195312,33.6680793762207,13.665885925292969
1776815466025519000,1.67151904296875,-2.0522499084472656,33.72690963745117,13.722824096679688
1776815466035556000,1.68155615234375,-1.9265861511230469,33.87038803100586,13.515022277832031
1776815466045595400,1.691595458984375,-2.0411453247070312,33.973445892333984,13.432476043701172
1776815466055631400,1.70163134765625,-1.5776863098144531,34.009403228759766,13.437713623046875
1776815466065668400,1.71166845703125,-1.323760986328125,34.2579460144043,13.339672088623047
1776815466075704300,1.721704345703125,-0.6037139892578125,34.13154220581055,13.277667999267578
1776815466085741600,1.731741455078125,-0.4901275634765625,34.2089729309082,13.095088958740234
1776815466095778600,1.741778564453125,0.014972686767578125,34.16743087768555,13.01773452758789
1776815466105814500,1.751814453125,0.14802932739257812,34.17031478881836,13.016460418701172
1776815466115851500,1.7618515625,0.6810493469238281,34.320194244384766,13.129524230957031
1776815466125887500,1.771887451171875,1.2310867309570312,34.24240493774414,13.185371398925781
1776815466135924200,1.78192431640625,1.8317832946777344,34.299129486083984,13.216339111328125
1776815466145961500,1.79196142578125,2.0673904418945312,34.244014739990234,13.342697143554688
1776815466155997400,1.80199755859375,2.8677825927734375,34.178462982177734,13.427146911621094
1776815466166034400,1.812034423828125,3.5840721130371094,33.992855072021484,13.6656494140625
1776815466176070400,1.8220703125,4.121791839599609,33.99184036254883,13.761104583740234
1776815466186107400,1.832107421875,4.463993072509766,33.73859786987305,13.948310852050781
1776815466196144400,1.842144287109375,4.714855194091797,33.642147064208984,14.038040161132812
1776815466206180400,1.852180419921875,5.057331085205078,33.70949935913086,14.079090118408203
1776815466216217600,1.862217529296875,5.2028656005859375,33.870731353759766,14.336250305175781
1776815466226253600,1.872253662109375,5.226963043212891,33.79050064086914,14.34756088256836
1776815466236290600,1.88229052734375,5.444782257080078,33.795841217041016,14.294998168945312
1776815466246327300,1.892327392578125,5.4290771484375,33.79757308959961,14.393074035644531
1776815466256363300,1.90236328125,5.5345001220703125,33.7060661315918,14.596450805664062
1776815466266400300,1.912400146484375,5.5348968505859375,33.70991134643555,14.893383026123047
1776815466276437500,1.9224375,5.697582244873047,33.69130325317383,14.77267074584961
1776815466286473500,1.932473388671875,5.62335205078125,33.48122787475586,14.826614379882812
1776815466296510500,1.942510498046875,5.4896240234375,33.46323013305664,14.951194763183594
1776815466306546400,1.95254638671875,5.327548980712891,33.43989944458008,15.045661926269531
1776815466316583400,1.96258349609375,5.43096923828125,33.28110885620117,15.19921875
1776815466326619400,1.972619384765625,5.013427734375,33.243778228759766,15.450366973876953
1776815466336656400,1.982656494140625,4.472599029541016,33.15182876586914,15.553363800048828
1776815466346693600,1.992693603515625,4.0993194580078125,33.1406135559082,15.719047546386719
1776815466356729600,2.0027294921875,3.8764877319335938,33.08845138549805,15.807479858398438
1776815466366766300,2.012766357421875,3.544696807861328,32.97933578491211,15.949481964111328
1776815466376803300,2.02280322265625,3.369640350341797,32.91328048706055,15.987430572509766
1776815466386839300,2.03283935546875,2.955463409423828,32.81715774536133,16.054401397705078
1776815466396876300,2.042876220703125,2.7949142456054688,32.90560531616211,15.967292785644531
1776815466406912300,2.052912353515625,2.610271453857422,32.91971206665039,16.186931610107422
1776815466416949500,2.062949462890625,2.311737060546875,32.82529067993164,16.25646209716797
1776815466426986500,2.072986572265625,2.0354576110839844,32.6889762878418,16.356792449951172
1776815466437022500,2.0830224609375,2.0347328186035156,32.54957962036133,16.585556030273438
1776815466447059500,2.0930595703125,1.95263671875,32.341861724853516,16.670162200927734
1776815466457095400,2.103095458984375,2.225902557373047,32.37112045288086,16.784713745117188
1776815466467132400,2.11313232421875,2.0755653381347656,32.298892974853516,16.889358520507812
1776815466477169400,2.12316943359375,2.042797088623047,32.53902816772461,16.877464294433594
1776815466487205600,2.13320556640625,1.7711715698242188,32.452144622802734,16.77132797241211
1776815466497242400,2.143242431640625,1.6126708984375,32.44993209838867,17.039825439453125
1776815466507278300,2.1532783203125,1.2590408325195312,32.2304801940918,17.24039077758789
1776815466517315300,2.1633154296875,0.7415237426757812,32.18588638305664,17.273807525634766
1776815466527352300,2.173352294921875,0.24251937866210938,32.02285385131836,17.276737213134766
1776815466537388300,2.18338818359375,-0.7009735107421875,32.0573616027832,17.350990295410156
1776815466547425500,2.193425537109375,-1.44866943359375,32.123783111572266,17.324615478515625
1776815466557461500,2.20346142578125,-2.7788314819335938,32.227848052978516,17.141342163085938
1776815466567498500,2.21349853515625,-3.4773788452148438,32.25718307495117,16.958362579345703
1776815466577535500,2.223535400390625,-4.157718658447266,32.341556549072266,17.03167724609375
1776815466587571500,2.233571533203125,-4.666961669921875,32.28837203979492,16.880878448486328
1776815466597608400,2.2436083984375,-5.7016143798828125,32.35519027709961,16.61599349975586
1776815466607644400,2.25364453125,-6.164642333984375,32.29099655151367,16.22525405883789
1776815466617681400,2.263681396484375,-6.851402282714844,32.39912033081055,15.88836669921875
1776815466627718400,2.273718505859375,-7.6154022216796875,32.3788948059082,15.61446762084961
1776815466637754400,2.28375439453125,-7.6154022216796875,32.3788948059082,15.61446762084961
1776815466647791400,2.293791259765625,-8.441200256347656,32.38444900512695,15.360843658447266
1776815466657828400,2.303828369140625,-8.93280029296875,32.47121810913086,15.115554809570312
1776815466667864300,2.3138642578125,-9.550559997558594,32.719242095947266,14.554054260253906
1776815466677901600,2.323901611328125,-9.946174621582031,32.85642623901367,13.98681640625
1776815466687937500,2.3339375,-10.28076171875,33.15138626098633,13.480026245117188
1776815466697974500,2.343974609375,-10.668144226074219,33.23178482055664,12.951576232910156
1776815466708011300,2.35401123046875,-10.8602294921875,33.3094596862793,12.465225219726562
1776815466718047500,2.364047607421875,-11.156219482421875,33.49674606323242,12.074264526367188
1776815466728084200,2.374084228515625,-11.500762939453125,33.49943161010742,11.636493682861328
1776815466738120200,2.3841201171875,-11.870506286621094,33.60200881958008,11.381095886230469
1776815466748157400,2.394157470703125,-12.072288513183594,33.82143783569336,11.02804946899414
1776815466758194400,2.4041943359375,-11.82537841796875,33.82411575317383,10.688804626464844
1776815466768230400,2.41423046875,-11.566268920898438,34.138614654541016,10.30874252319336
1776815466778267400,2.424267333984375,-11.702690124511719,34.50534439086914,9.946765899658203
1776815466788303400,2.434303466796875,-11.613800048828125,34.541141510009766,9.649833679199219
1776815466798340400,2.44434033203125,-11.300437927246094,34.9337043762207,9.369094848632812
1776815466808377600,2.454377685546875,-11.357460021972656,34.97584915161133,8.675281524658203
1776815466818413600,2.46441357421875,-11.75579833984375,35.07748031616211,8.069358825683594
1776815466828450600,2.474450439453125,-11.783638000488281,35.32819747924805,7.529499053955078
1776815466838487300,2.4844873046875,-11.671707153320312,35.45589065551758,7.022125244140625
1776815466848523300,2.494523193359375,-11.791610717773438,35.63259506225586,6.630790710449219
1776815466858560300,2.504560302734375,-11.675666809082031,35.71188735961914,6.0975341796875
1776815466868596200,2.51459619140625,-12.040023803710938,35.89455032348633,5.4636688232421875
1776815466878633500,2.524633544921875,-12.416671752929688,35.90266799926758,4.786861419677734
1776815466888670500,2.53467041015625,-12.46435546875,35.885196685791016,4.124256134033203
1776815466898706400,2.54470654296875,-12.67059326171875,35.92045211791992,3.537403106689453
1776815466908743400,2.554743408203125,-13.168685913085938,36.004398345947266,2.7703399658203125
1776815466918779400,2.564779296875,-13.55548095703125,35.878047943115234,2.238605499267578
1776815466928816400,2.57481640625,-14.137977600097656,35.785282135009766,1.6927871704101562
1776815466938853400,2.584853271484375,-14.325294494628906,35.65841293334961,1.3429946899414062
1776815466948889600,2.5948896484375,-14.507522583007812,35.62321853637695,0.9007644653320312
1776815466958926300,2.60492626953125,-14.536293029785156,35.46348190307617,0.5397186279296875
1776815466968962300,2.61496240234375,-14.774116516113281,35.3307991027832,0.22916412353515625
1776815466978999300,2.624999267578125,-14.714584350585938,35.41179275512695,-0.3232078552246094
1776815466989036300,2.635036376953125,-14.841064453125,35.37709426879883,-0.4770011901855469
1776815466999072300,2.645072265625,-15.422958374023438,35.3740119934082,-1.117156982421875
1776815467009109500,2.655109619140625,-15.24151611328125,35.22781753540039,-1.6473503112792969
1776815467019146500,2.665146484375,-15.339363098144531,35.34677505493164,-2.2445411682128906
1776815467029182500,2.675182373046875,-15.346351623535156,35.36374282836914,-2.7981719970703125
1776815467039219500,2.685219482421875,-15.333602905273438,35.51198959350586,-3.1018600463867188
1776815467049248800,2.695248779296875,-15.182571411132812,35.52939987182617,-3.6238937377929688
1776815467059285800,2.70528564453125,-15.111740112304688,35.554935455322266,-4.1138153076171875
1776815467069322500,2.715322509765625,-15.109901428222656,35.42548751831055,-4.519481658935547
1776815467079358500,2.7253583984375,-14.795753479003906,35.39548873901367,-4.883068084716797
1776815467089395700,2.735395751953125,-14.89019775390625,35.471920013427734,-5.079475402832031
1776815467099431700,2.745431640625,-14.821075439453125,35.5653190612793,-5.2853851318359375
1776815467109468700,2.75546875,-14.911575317382812,35.5526237487793,-5.401874542236328
1776815467119505700,2.765505615234375,-14.867401123046875,35.690731048583984,-5.531055450439453
1776815467129541600,2.775541748046875,-14.679237365722656,35.73434829711914,-5.682453155517578
1776815467139578600,2.78557861328125,-14.6849365234375,35.734989166259766,-5.802825927734375
1776815467149615900,2.795615966796875,-14.538429260253906,35.61265182495117,-5.981437683105469
1776815467159651800,2.80565185546875,-14.402305603027344,35.65610122680664,-6.258312225341797
1776815467169688600,2.8156884765625,-14.045524597167969,35.54771041870117,-6.5290374755859375
1776815467179724800,2.825724853515625,-13.921333312988281,35.5570182800293,-6.610431671142578
1776815467189761500,2.835761474609375,-14.128288269042969,35.556156158447266,-7.28314208984375
1776815467199798500,2.845798583984375,-14.270950317382812,35.15164566040039,-7.96185302734375
1776815467209834500,2.85583447265625,-14.445152282714844,34.94392776489258,-8.383819580078125
1776815467219871700,2.865871826171875,-14.570732116699219,34.835567474365234,-8.701698303222656
1776815467229908700,2.87590869140625,-14.786354064941406,34.736568450927734,-8.864608764648438
1776815467239944700,2.88594482421875,-14.957275390625,34.29701614379883,-9.086296081542969
1776815467249981700,2.895981689453125,-14.976676940917969,34.1446647644043,-9.276115417480469
1776815467260017700,2.906017578125,-15.136192321777344,34.25681686401367,-9.46099853515625
1776815467270054700,2.9160546875,-15.085594177246094,34.26565170288086,-9.558906555175781
1776815467280091600,2.926091552734375,-14.734161376953125,34.32902908325195,-9.609642028808594
1776815467290128000,2.9361279296875,-14.694587707519531,34.14606857299805,-9.637153625488281
1776815467300164600,2.94616455078125,-14.572593688964844,34.44552993774414,-9.649040222167969
1776815467310200600,2.95620068359375,-14.363861083984375,34.5496940612793,-9.708999633789062
1776815467320237600,2.966237548828125,-13.672142028808594,34.82552719116211,-9.710639953613281
1776815467330274600,2.976274658203125,-13.81817626953125,34.70326614379883,-9.843223571777344
1776815467340310500,2.986310546875,-13.687255859375,34.82267379760742,-9.901802062988281
1776815467350347800,2.99634765625,-13.259750366210938,34.9033317565918,-9.946632385253906
1776815467360384800,3.006384765625,-12.81298828125,34.89828872680664,-9.986595153808594
1776815467370420700,3.016420654296875,-12.28326416015625,34.92861557006836,-9.781257629394531
1776815467380457700,3.026457763671875,-12.176109313964844,35.19919204711914,-9.942848205566406
1776815467390493700,3.03649365234375,-11.912513732910156,35.32724380493164,-10.175094604492188
1776815467400530700,3.04653076171875,-11.865058898925781,35.4890251159668,-10.431648254394531
1776815467410567700,3.056567626953125,-12.046340942382812,35.29354476928711,-10.540351867675781
1776815467420603600,3.066603759765625,-12.174186706542969,35.00991439819336,-10.439956665039062
1776815467430640600,3.076640625,-12.509162902832031,34.88625717163086,-10.554634094238281
1776815467440677600,3.086677734375,-12.517166137695312,34.94358444213867,-10.561180114746094
1776815467450713600,3.096713623046875,-12.457328796386719,34.7218132019043,-10.398574829101562
1776815467460750600,3.10675048828125,-12.5008544921875,35.05136489868164,-10.424896240234375
1776815467470786600,3.11678662109375,-12.295013427734375,35.16256332397461,-10.30792236328125
1776815467480823800,3.12682373046875,-12.162445068359375,35.074100494384766,-10.0909423828125
1776815467490860800,3.13686083984375,-12.202323913574219,35.174739837646484,-10.019721984863281
1776815467500896800,3.146896728515625,-11.801223754882812,35.27822494506836,-10.0242919921875
1776815467510933800,3.156933837890625,-11.365547180175781,35.30678939819336,-10.006080627441406
1776815467520969700,3.1669697265625,-11.336380004882812,35.3677864074707,-10.056106567382812
1776815467531006500,3.17700634765625,-11.180671691894531,35.2685661315918,-10.105056762695312
1776815467541043700,3.187043701171875,-11.276931762695312,35.491756439208984,-10.223335266113281
1776815467551079700,3.19707958984375,-10.926322937011719,35.353519439697266,-10.23858642578125
1776815467561116700,3.20711669921875,-10.481246948242188,35.37972640991211,-10.225936889648438
1776815467571153700,3.217153564453125,-10.582725524902344,35.4409294128418,-10.459556579589844
1776815467581189600,3.227189697265625,-10.43328857421875,35.440425872802734,-10.52685546875
1776815467591226600,3.2372265625,-10.257461547851562,35.53373336791992,-10.6104736328125
1776815467601262600,3.2472626953125,-10.288536071777344,35.65098190307617,-10.694496154785156
1776815467611299800,3.2572998046875,-9.996284484863281,35.591732025146484,-10.664772033691406
1776815467621336600,3.267336669921875,-9.905670166015625,35.58113479614258,-10.882820129394531
1776815467631372800,3.277372802734375,-10.195549011230469,35.47866439819336,-10.976181030273438
1776815467641409500,3.287409423828125,-10.461616516113281,35.27700424194336,-11.2486572265625
1776815467651446500,3.297446533203125,-10.899017333984375,35.18423843383789,-11.305313110351562
1776815467661482500,3.307482421875,-10.949859619140625,35.0062141418457,-11.507408142089844
1776815467671519700,3.317519775390625,-11.1163330078125,34.700496673583984,-11.792816162109375
1776815467681555700,3.3275556640625,-11.757553100585938,34.629146575927734,-11.934608459472656
1776815467691592700,3.3375927734375,-12.139839172363281,34.37675857543945,-12.135169982910156
1776815467701629700,3.347629638671875,-12.227676391601562,34.37418746948242,-12.201896667480469
1776815467711665700,3.357665771484375,-12.276588439941406,34.36714553833008,-12.397270202636719
1776815467721702700,3.36770263671875,-12.426956176757812,34.32111740112305,-12.499343872070312
1776815467731739600,3.37773974609375,-12.575393676757812,34.33414840698242,-12.597328186035156
1776815467741776000,3.38777587890625,-12.5509033203125,34.26375961303711,-12.801422119140625
1776815467751812600,3.3978125,-12.088539123535156,34.17954635620117,-12.736259460449219
1776815467761848600,3.4078486328125,-12.420799255371094,34.12459182739258,-13.040687561035156
1776815467771885600,3.417885498046875,-12.404182434082031,34.08195114135742,-13.249359130859375
1776815467781922600,3.427922607421875,-12.356361389160156,34.08565139770508,-13.424064636230469
1776815467791958500,3.43795849609375,-12.488632202148438,33.7469367980957,-13.595054626464844
1776815467801995800,3.447995849609375,-12.55450439453125,33.57962417602539,-13.72784423828125
1776815467812032800,3.45803271484375,-12.906661987304688,33.541568756103516,-14.033256530761719
1776815467822068700,3.46806884765625,-13.203765869140625,33.40127182006836,-14.07012939453125
1776815467832105700,3.478105712890625,-13.422225952148438,33.28535842895508,-14.190376281738281
1776815467842141700,3.4881416015625,-13.529403686523438,33.29115676879883,-14.348907470703125
1776815467852178700,3.4981787109375,-13.028083801269531,33.163761138916016,-14.52301025390625
1776815467862215700,3.508215576171875,-13.447822570800781,33.016475677490234,-14.806175231933594
1776815467872251600,3.518251708984375,-13.533241271972656,32.8049201965332,-15.008903503417969
1776815467882288600,3.52828857421875,-13.48834228515625,32.812862396240234,-14.934547424316406
1776815467892325600,3.53832568359375,-13.455734252929688,32.76273727416992,-14.856834411621094
1776815467902361600,3.548361572265625,-13.542816162109375,32.74155044555664,-14.888656616210938
1776815467912398600,3.558398681640625,-13.657844543457031,32.70353317260742,-14.7178955078125
1776815467922434600,3.5684345703125,-13.841644287109375,32.646968841552734,-14.539695739746094
1776815467932471800,3.578471923828125,-13.702194213867188,32.79560470581055,-14.298080444335938
1776815467942508800,3.5885087890625,-13.134307861328125,32.8161506652832,-14.103683471679688
1776815467952544800,3.598544677734375,-13.12872314453125,32.859066009521484,-14.057907104492188
1776815467962581800,3.608581787109375,-13.016578674316406,32.86032485961914,-14.088905334472656
1776815467972617700,3.61861767578125,-12.765907287597656,32.92459487915039,-13.974502563476562
1776815467982654500,3.628654541015625,-12.441749572753906,33.163997650146484,-13.977943420410156
1776815467992691700,3.638691650390625,-12.570014953613281,33.19987106323242,-14.01190185546875
1776815468002727700,3.648727783203125,-12.519050598144531,33.054317474365234,-14.05023193359375
1776815468012764700,3.6587646484375,-12.247734069824219,33.0168571472168,-14.242805480957031
1776815468022801700,3.6688017578125,-12.403213500976562,32.81284713745117,-14.522361755371094
1776815468032837600,3.678837646484375,-12.368515014648438,32.477657318115234,-14.885643005371094
1776815468042874600,3.68887451171875,-12.415817260742188,32.35060501098633,-15.349723815917969
1776815468052911000,3.6989111328125,-12.540702819824219,32.11728286743164,-15.818992614746094
1776815468062948400,3.7089482421875,-12.471771240234375,31.97219467163086,-16.25835418701172
1776815468072985000,3.718985107421875,-12.268119812011719,31.940670013427734,-16.75415802001953
1776815468083021000,3.72902099609375,-12.057548522949219,31.591083526611328,-17.014854431152344
1776815468093058000,3.73905810546875,-12.082656860351562,31.25265884399414,-17.564537048339844
1776815468103095000,3.749094970703125,-12.118598937988281,31.03964614868164,-18.023300170898438
1776815468113131000,3.759131103515625,-12.202507019042969,30.919010162353516,-18.36627197265625
1776815468123168300,3.769168212890625,-12.248046875,30.791149139404297,-18.774276733398438
1776815468133204200,3.779204345703125,-12.207344055175781,30.50815200805664,-18.903366088867188
1776815468143241200,3.7892412109375,-12.012481689453125,30.32577133178711,-19.442581176757812
1776815468153278200,3.7992783203125,-12.244537353515625,29.990070343017578,-19.67823028564453
1776815468163314200,3.809314208984375,-12.109176635742188,29.813404083251953,-19.971466064453125
1776815468173351200,3.81935107421875,-12.045814514160156,29.686847686767578,-20.035888671875
1776815468183388200,3.82938818359375,-11.64678955078125,29.64419174194336,-20.271255493164062
1776815468193424100,3.839424072265625,-11.534721374511719,29.509639739990234,-20.664039611816406
1776815468203461000,3.849461181640625,-11.441642761230469,29.555782318115234,-20.80767059326172
1776815468213497000,3.8594970703125,-11.125724792480469,29.55801773071289,-20.93639373779297
1776815468223534000,3.8695341796875,-11.038902282714844,29.490619659423828,-20.96820068359375
1776815468233571000,3.879571044921875,-10.695930480957031,29.514659881591797,-21.004478454589844
1776815468243607000,3.88960693359375,-10.812065124511719,29.593196868896484,-20.88842010498047
1776815468253644300,3.899644287109375,-10.755058288574219,29.691699981689453,-20.895034790039062
1776815468263681300,3.909681396484375,-10.570854187011719,29.51272964477539,-20.7579345703125
1776815468273717200,3.91971728515625,-10.590370178222656,29.613285064697266,-20.6868896484375
1776815468283754000,3.92975390625,-10.195793151855469,29.600933074951172,-20.716880798339844
1776815468293790200,3.939790283203125,-10.419845581054688,29.689983367919922,-20.918411254882812
1776815468303827000,3.949826904296875,-10.401611328125,29.653499603271484,-21.108428955078125
1776815468313864200,3.9598642578125,-10.3746337890625,29.511234283447266,-21.014610290527344
1776815468323900200,3.969900146484375,-10.124168395996094,29.586917877197266,-21.014251708984375
1776815468333937200,3.979937255859375,-10.04302978515625,29.55862045288086,-21.191307067871094
1776815468343972000,3.98997216796875,-10.04302978515625,29.55862045288086,-21.191307067871094
1776815468354008300,4.00000830078125,-10.144027709960938,29.444873809814453,-21.187843322753906
1776815468364045000,4.010045166015625,-10.386894226074219,29.489742279052734,-21.335708618164062
1776815468374082000,4.02008203125,-10.210548400878906,29.424747467041016,-21.294387817382812
1776815468384118000,4.030117919921875,-9.980560302734375,29.362346649169922,-21.368263244628906
1776815468394155300,4.0401552734375,-10.199638366699219,29.380664825439453,-21.37586212158203
1776815468404191200,4.050191162109375,-9.948875427246094,29.202159881591797,-21.47364044189453
1776815468414228200,4.060228271484375,-9.998771667480469,29.26748275756836,-21.541900634765625
1776815468424265200,4.07026513671875,-9.979438781738281,29.310718536376953,-21.663780212402344
1776815468434301200,4.08030126953125,-9.994827270507812,29.185405731201172,-21.720672607421875
1776815468444338200,4.090338134765625,-10.056388854980469,29.172176361083984,-21.84051513671875
1776815468454375200,4.100375244140625,-9.68426513671875,29.22262954711914,-21.961380004882812
1776815468464411100,4.1104111328125,-9.691802978515625,29.201641082763672,-21.968673706054688
1776815468474448100,4.1204482421875,-9.601783752441406,29.075603485107422,-22.065284729003906
1776815468484484000,4.130484130859375,-9.614952087402344,29.046314239501953,-22.259056091308594
1776815468494521000,4.14052099609375,-9.572761535644531,29.034473419189453,-22.243064880371094
1776815468504558000,4.15055810546875,-9.509819030761719,28.990825653076172,-22.331626892089844
1776815468514594000,4.160593994140625,-9.427597045898438,28.98550033569336,-22.376815795898438
1776815468524631300,4.17063134765625,-9.359512329101562,29.000370025634766,-22.18658447265625
1776815468534668300,4.180668212890625,-9.422950744628906,28.842243194580078,-22.388031005859375
1776815468544704300,4.190704345703125,-9.738632202148438,28.84005355834961,-22.37871551513672
1776815468554741200,4.2007412109375,-9.685760498046875,28.933452606201172,-22.461036682128906
1776815468564777200,4.210777099609375,-9.425224304199219,28.87375259399414,-22.41278076171875
1776815468574814200,4.220814208984375,-9.387771606445312,28.947254180908203,-22.393264770507812
1776815468584851200,4.230851318359375,-9.649368286132812,28.773738861083984,-22.314781188964844
1776815468594887200,4.24088720703125,-9.858596801757812,28.903255462646484,-22.33519744873047
1776815468604924200,4.250924072265625,-9.813575744628906,28.96597671508789,-22.198867797851562
1776815468614961200,4.260961181640625,-9.860877990722656,29.166980743408203,-21.988502502441406
1776815468624997000,4.2709970703125,-10.088768005371094,28.994434356689453,-21.950111389160156
1776815468635034000,4.2810341796875,-10.160125732421875,29.022289276123047,-21.860580444335938
1776815468645070000,4.291070068359375,-10.260238647460938,29.117801666259766,-21.913291931152344
1776815468655107300,4.301107421875,-10.288330078125,29.129268646240234,-21.77204132080078
1776815468665144300,4.311144287109375,-10.306816101074219,29.20736312866211,-21.589950561523438
1776815468675180300,4.32118017578125,-10.419570922851562,29.241756439208984,-21.610496520996094
1776815468685217000,4.331217041015625,-10.500679016113281,29.37331771850586,-21.5706787109375
1776815468695254000,4.34125390625,-10.295372009277344,29.46036148071289,-21.51874542236328
1776815468705290000,4.3512900390625,-10.191276550292969,29.35361099243164,-21.457138061523438
1776815468715327200,4.3613271484375,-10.324432373046875,29.195301055908203,-21.40441131591797
1776815468725363200,4.37136328125,-10.570503234863281,29.216297149658203,-21.471054077148438
1776815468735400200,4.381400146484375,-10.555885314941406,29.323627471923828,-21.463623046875
1776815468745437200,4.391437255859375,-10.482772827148438,29.196033477783203,-21.338172912597656
1776815468755473200,4.40147314453125,-10.557380676269531,29.314586639404297,-21.310707092285156
1776815468765510100,4.41151025390625,-10.549476623535156,29.212871551513672,-21.257041931152344
1776815468775546000,4.421546142578125,-10.736839294433594,29.268672943115234,-21.236671447753906
1776815468785583400,4.431583251953125,-10.762939453125,29.224506378173828,-21.263076782226562
1776815468795620000,4.4416201171875,-10.937843322753906,29.061283111572266,-21.32849884033203
1776815468805656300,4.45165625,-10.732841491699219,29.273319244384766,-21.242698669433594
1776815468815693000,4.461693115234375,-10.858863830566406,29.173847198486328,-21.34405517578125
1776815468825730000,4.47172998046875,-10.938247680664062,29.154598236083984,-21.317665100097656
1776815468835766000,4.48176611328125,-10.800254821777344,29.11063003540039,-21.33539581298828
1776815468845803300,4.49180322265625,-10.876091003417969,29.229053497314453,-21.297996520996094
1776815468855840300,4.50184033203125,-10.917449951171875,29.149677276611328,-21.098922729492188
1776815468865876200,4.511876220703125,-10.9586181640625,29.200313568115234,-21.25513458251953
1776815468875913200,4.521913330078125,-10.722915649414062,29.254596710205078,-21.288711547851562
1776815468885949200,4.53194921875,-10.736671447753906,29.142879486083984,-21.32916259765625
1776815468895986200,4.541986083984375,-10.754859924316406,29.269092559814453,-21.408164978027344
1776815468906023200,4.552023193359375,-10.588218688964844,29.189098358154297,-21.132041931152344
1776815468916059100,4.56205908203125,-10.709732055664062,29.073200225830078,-21.207504272460938
1776815468926096100,4.57209619140625,-10.803840637207031,29.19674301147461,-21.19842529296875
1776815468936133000,4.582133056640625,-10.792976379394531,29.143199920654297,-21.2406005859375
1776815468946169000,4.592169189453125,-10.662986755371094,29.304584503173828,-21.33404541015625
1776815468956206000,4.6022060546875,-10.550750732421875,29.437381744384766,-21.20490264892578
1776815468966242000,4.612241943359375,-10.703742980957031,29.276592254638672,-21.232215881347656
1776815468976279300,4.622279296875,-10.856155395507812,29.138362884521484,-21.267303466796875
1776815468986316300,4.63231640625,-10.874687194824219,29.14535140991211,-21.207664489746094
1776815468996352300,4.642352294921875,-10.708908081054688,29.094493865966797,-21.065994262695312
1776815469006389200,4.65238916015625,-10.871040344238281,29.155284881591797,-21.2611083984375
1776815469016426000,4.662426025390625,-10.790328979492188,29.173152923583984,-21.14342498779297
1776815469026462000,4.6724619140625,-11.102272033691406,29.087352752685547,-21.125633239746094
1776815469036499200,4.682499267578125,-10.903724670410156,29.201557159423828,-21.132736206054688
1776815469046536200,4.6925361328125,-10.658653259277344,29.269397735595703,-21.014190673828125
1776815469056577000,4.702576904296875,-10.992095947265625,29.043224334716797,-21.102455139160156
1776815469066614000,4.712614013671875,-11.086776733398438,29.18271255493164,-21.12586212158203
1776815469076650000,4.72264990234375,-11.264045715332031,29.173778533935547,-21.067886352539062
1776815469086687000,4.73268701171875,-11.185546875,29.053585052490234,-20.992515563964844
1776815469096723700,4.7427236328125,-11.052375793457031,29.23604965209961,-20.930084228515625
1776815469106760000,4.752760009765625,-11.003311157226562,29.135601043701172,-20.966781616210938
1776815469116797000,4.762796875,-11.101661682128906,29.09206771850586,-21.01189422607422
1776815469126834000,4.772833984375,-11.107795715332031,29.15591812133789,-20.882553100585938
1776815469136870000,4.782869873046875,-11.404205322265625,29.144710540771484,-20.960113525390625
1776815469146907000,4.792906982421875,-11.675788879394531,29.196331024169922,-21.108535766601562
1776815469156942800,4.80294287109375,-11.723129272460938,29.22152328491211,-21.014968872070312
1776815469166980000,4.81297998046875,-11.670921325683594,29.249271392822266,-20.997703552246094
1776815469177017000,4.82301708984375,-11.671104431152344,29.100597381591797,-21.009986877441406
1776815469187053000,4.833052978515625,-11.610786437988281,29.172130584716797,-20.917190551757812
1776815469197089800,4.84308984375,-11.747299194335938,28.992183685302734,-20.90886688232422
1776815469207126800,4.853126708984375,-11.655052185058594,29.010852813720703,-20.965316772460938
1776815469217162800,4.863162841796875,-11.604568481445312,28.997051239013672,-20.947128295898438
1776815469227199700,4.87319970703125,-11.862838745117188,28.83938980102539,-20.81859588623047
1776815469237237000,4.883237060546875,-11.996566772460938,28.854129791259766,-20.829391479492188
1776815469247273000,4.89327294921875,-11.951248168945312,28.839496612548828,-20.932899475097656
1776815469257310000,4.90331005859375,-12.364547729492188,28.861576080322266,-20.929603576660156
1776815469267346000,4.913345947265625,-12.2552490234375,28.932415008544922,-20.84051513671875
1776815469277383000,4.9233828125,-12.206375122070312,28.894939422607422,-20.832244873046875
1776815469287420000,4.933419921875,-12.27093505859375,28.84933090209961,-20.7347412109375
1776815469297456000,4.9434560546875,-12.424690246582031,28.955120086669922,-20.925277709960938
1776815469307492900,4.953492919921875,-12.300468444824219,28.973163604736328,-20.97998046875
1776815469317529900,4.96352978515625,-12.479728698730469,28.879566192626953,-21.06397247314453
1776815469327565800,4.97356591796875,-12.636405944824219,28.826366424560547,-21.054824829101562
1776815469337602800,4.983602783203125,-12.760833740234375,28.609149932861328,-20.82855987548828
1776815469347638800,4.993638671875,-12.760536193847656,28.70895004272461,-20.928680419921875
1776815469357676000,5.003676025390625,-12.517318725585938,28.849010467529297,-20.875404357910156
1776815469367713000,5.013713134765625,-12.802070617675781,28.75760269165039,-20.903236389160156
1776815469377749000,5.0237490234375,-12.644256591796875,28.71590805053711,-20.85595703125
1776815469387786000,5.033785888671875,-12.761940002441406,28.612796783447266,-20.95684814453125
1776815469397823000,5.043822998046875,-12.967857360839844,28.569900512695312,-21.003570556640625
1776815469407859000,5.05385888671875,-13.0462646484375,28.650531768798828,-21.08209228515625
1776815469417895700,5.063895751953125,-12.878578186035156,28.51909637451172,-21.083602905273438
1776815469427933000,5.073932861328125,-12.86767578125,28.44861602783203,-21.026397705078125
1776815469437969000,5.083968994140625,-13.238388061523438,28.481857299804688,-20.96906280517578
1776815469448006000,5.094005859375,-13.112861633300781,28.381088256835938,-21.063323974609375
1776815469458041900,5.104041748046875,-13.247566223144531,28.11153793334961,-21.08924102783203
1776815469468078800,5.114078857421875,-13.247566223144531,28.11153793334961,-21.08924102783203
1776815469478115800,5.12411572265625,-13.112579345703125,28.076705932617188,-20.98755645751953
1776815469488152000,5.134152099609375,-13.224716186523438,28.07567596435547,-20.939544677734375
1776815469498189000,5.14418896484375,-13.354171752929688,28.092334747314453,-20.938919067382812
1776815469508225800,5.154225830078125,-13.382392883300781,28.266036987304688,-21.095123291015625
1776815469518262000,5.164261962890625,-13.449104309082031,28.15073013305664,-21.03131103515625
1776815469528298800,5.174298828125,-13.729545593261719,27.865917205810547,-21.021697998046875
1776815469538335700,5.184335693359375,-13.740867614746094,27.92053985595703,-21.065139770507812
1776815469548371700,5.194371826171875,-14.012962341308594,27.760940551757812,-21.0260009765625
1776815469558409000,5.204408935546875,-14.4146728515625,27.6732177734375,-21.079917907714844
1776815469568446000,5.214446044921875,-14.749351501464844,27.397762298583984,-21.154701232910156
1776815469578482000,5.22448193359375,-15.141952514648438,27.109317779541016,-21.071205139160156
1776815469588519000,5.234518798828125,-15.486083984375,26.90685272216797,-21.161163330078125
1776815469598555000,5.244554931640625,-16.093345642089844,26.658199310302734,-21.185760498046875
1776815469608592000,5.254591796875,-16.318191528320312,26.470653533935547,-21.12474822998047
1776815469618628900,5.26462890625,-16.959609985351562,26.335514068603516,-21.117935180664062
1776815469628665000,5.2746650390625,-17.29912567138672,26.03216552734375,-20.82501220703125
1776815469638701800,5.284701904296875,-17.874740600585938,25.782424926757812,-20.907005310058594
1776815469648738800,5.29473876953125,-18.326820373535156,25.44249725341797,-20.77161407470703
1776815469658774800,5.30477490234375,-18.744300842285156,25.25598907470703,-20.66246795654297
1776815469668811800,5.314811767578125,-19.15178680419922,25.087024688720703,-20.529098510742188
1776815469678849000,5.32484912109375,-19.5296630859375,24.809131622314453,-20.378036499023438
1776815469688885000,5.334885009765625,-19.53063201904297,24.610431671142578,-20.416534423828125
1776815469698922000,5.344921875,-19.982421875,24.516254425048828,-20.410545349121094
1776815469708959000,5.354958984375,-20.256134033203125,24.441692352294922,-20.265098571777344
1776815469718995000,5.364994873046875,-20.129623413085938,24.353012084960938,-20.349609375
1776815469729031700,5.37503173828125,-20.118255615234375,24.19594955444336,-20.31952667236328
1776815469739068000,5.38506787109375,-19.94066619873047,24.30609130859375,-20.33019256591797
1776815469749105000,5.39510498046875,-19.859451293945312,24.28314208984375,-20.427345275878906
1776815469759142000,5.405141845703125,-19.775634765625,24.48263931274414,-20.665359497070312
1776815469769177900,5.415177734375,-19.59801483154297,24.531330108642578,-20.630813598632812
1776815469779214800,5.42521484375,-19.264556884765625,24.759361267089844,-20.814239501953125
1776815469789251800,5.435251953125,-19.176292419433594,24.95470428466797,-20.9840087890625
1776815469799287800,5.445287841796875,-18.713584899902344,25.148509979248047,-21.19951629638672
1776815469809325000,5.455324951171875,-18.277809143066406,25.078845977783203,-21.067550659179688
1776815469819362000,5.465362060546875,-17.69336700439453,25.283287048339844,-21.110000610351562
1776815469829398000,5.47539794921875,-17.530868530273438,25.472923278808594,-21.290000915527344
1776815469839434800,5.485434814453125,-17.26300811767578,25.506175994873047,-21.278549194335938
1776815469849471700,5.4954716796875,-16.88214111328125,25.910919189453125,-21.393600463867188
1776815469859507700,5.5055078125,-16.399826049804688,26.001224517822266,-21.30089569091797
1776815469869545000,5.515544921875,-16.150436401367188,26.18585205078125,-21.2344970703125
1776815469879582000,5.52558203125,-15.775367736816406,26.388797760009766,-21.20995330810547
1776815469889618000,5.535617919921875,-15.580352783203125,26.767074584960938,-21.13946533203125
1776815469899655000,5.545655029296875,-15.490859985351562,26.879745483398438,-21.08661651611328
1776815469909692000,5.55569189453125,-15.382423400878906,27.120616912841797,-20.93151092529297
1776815469919727900,5.565727783203125,-15.129890441894531,27.04058074951172,-20.85059356689453
1776815469929764900,5.575764892578125,-15.011192321777344,27.200328826904297,-20.9893798828125
1776815469939801000,5.585801025390625,-14.867645263671875,27.210437774658203,-20.88494873046875
1776815469949837800,5.595837890625,-14.773567199707031,27.20553207397461,-20.82318878173828
1776815469959874800,5.605874755859375,-14.449020385742188,27.16805648803711,-20.735183715820312
1776815469969910800,5.615910888671875,-14.527595520019531,27.269718170166016,-20.855377197265625
1776815469979947800,5.62594775390625,-14.475273132324219,27.10723876953125,-20.832130432128906
1776815469989985000,5.635985107421875,-14.497848510742188,27.127593994140625,-20.81824493408203
1776815470000021000,5.64602099609375,-14.559150695800781,27.33379364013672,-20.858566284179688
1776815470010058000,5.65605810546875,-14.469718933105469,27.384292602539062,-20.56267547607422
1776815470020095000,5.666094970703125,-14.530685424804688,27.587142944335938,-20.641921997070312
1776815470030131000,5.676130859375,-14.360877990722656,27.52669906616211,-20.636695861816406
1776815470040168000,5.68616796875,-14.200248718261719,27.76331329345703,-20.67291259765625
1776815470050205000,5.696204833984375,-14.1138916015625,27.724609375,-20.619888305664062
1776815470060235500,5.706235595703125,-13.878593444824219,27.851112365722656,-20.460731506347656
1776815470070272500,5.7162724609375,-14.033058166503906,28.04909896850586,-20.58464813232422
1776815470080309500,5.7263095703125,-13.768363952636719,27.887554168701172,-20.630233764648438
1776815470090345700,5.736345703125,-13.233970642089844,27.89899444580078,-20.707794189453125
1776815470100382500,5.746382568359375,-12.987640380859375,28.077747344970703,-20.675750732421875
1776815470110419500,5.75641943359375,-12.875503540039062,28.14572525024414,-20.7591552734375
1776815470120455400,5.766455322265625,-12.68316650390625,28.200050354003906,-20.986007690429688
1776815470130492400,5.776492431640625,-12.521957397460938,28.124000549316406,-20.984634399414062
1776815470140528400,5.7865283203125,-12.4578857421875,28.016765594482422,-21.149917602539062
1776815470150565600,5.796565673828125,-12.186309814453125,28.14763641357422,-21.137916564941406
1776815470160602600,5.8066025390625,-12.001602172851562,28.18994903564453,-21.410743713378906
1776815470170638600,5.816638671875,-11.910003662109375,28.2747802734375,-21.53424835205078
1776815470180675600,5.826675537109375,-11.700004577636719,28.13055419921875,-21.55670166015625
1776815470190712600,5.836712646484375,-11.4986572265625,28.227855682373047,-21.722137451171875
1776815470200748500,5.84674853515625,-11.331504821777344,28.426986694335938,-21.692596435546875
1776815470210785500,5.85678564453125,-11.555023193359375,28.239185333251953,-21.657455444335938
1776815470220822500,5.866822509765625,-11.743721008300781,28.473918914794922,-21.743301391601562
1776815470230858500,5.8768583984375,-11.715187072753906,28.302974700927734,-21.494163513183594
1776815470240895500,5.8868955078125,-12.207412719726562,28.25363540649414,-21.46654510498047
1776815470250932500,5.896932373046875,-12.121070861816406,28.273845672607422,-21.27930450439453
1776815470260968400,5.906968505859375,-12.373817443847656,28.196941375732422,-21.257843017578125
1776815470271005700,5.917005615234375,-12.589309692382812,28.03091049194336,-21.16710662841797
1776815470281042700,5.927042724609375,-12.976119995117188,27.98731231689453,-21.025230407714844
1776815470291078700,5.93707861328125,-13.346519470214844,27.94792938232422,-21.053787231445312
1776815470301115400,5.947115478515625,-13.703842163085938,27.74990463256836,-20.84532928466797
1776815470311152400,5.95715234375,-13.73175048828125,27.635746002197266,-20.753570556640625
1776815470321188400,5.967188232421875,-14.274169921875,27.390762329101562,-20.73858642578125
1776815470331225600,5.9772255859375,-14.472793579101562,27.318931579589844,-20.67884063720703
1776815470341262600,5.9872626953125,-14.497467041015625,27.36391830444336,-20.629470825195312
1776815470351298600,5.997298583984375,-14.663665771484375,27.07754898071289,-20.53008270263672
1776815470361335600,6.00733544921875,-14.967147827148438,27.094802856445312,-20.67066192626953
1776815470371372500,6.01737255859375,-15.094039916992188,26.818099975585938,-20.54328155517578
1776815470381408500,6.027408447265625,-15.4033203125,26.817222595214844,-20.65876007080078
1776815470391445800,6.03744580078125,-15.180290222167969,26.63945770263672,-20.420310974121094
1776815470401482500,6.047482421875,-15.801315307617188,26.505718231201172,-20.44896697998047
1776815470411518500,6.0575185546875,-16.14361572265625,26.15948486328125,-20.514602661132812
1776815470421555500,6.067555419921875,-16.336868286132812,26.071533203125,-20.611007690429688
1776815470431592400,6.077592529296875,-16.63958740234375,25.804370880126953,-20.699119567871094
1776815470441628400,6.08762841796875,-16.98595428466797,25.639850616455078,-20.709991455078125
1776815470451665700,6.097665771484375,-17.276153564453125,25.414833068847656,-20.700721740722656
1776815470461701600,6.10770166015625,-17.575050354003906,25.24911880493164,-20.636817932128906
1776815470471738600,6.117738525390625,-17.832603454589844,24.98990249633789,-20.693588256835938
1776815470481775600,6.127775634765625,-18.016799926757812,24.82645034790039,-20.603965759277344
1776815470491811600,6.1378115234375,-18.444305419921875,24.5321044921875,-20.55956268310547
1776815470501848600,6.1478486328125,-18.617919921875,24.246505737304688,-20.53118133544922
1776815470511885600,6.157885498046875,-19.084320068359375,24.108295440673828,-20.4761962890625
1776815470521921500,6.167921630859375,-19.571578979492188,23.745235443115234,-20.359619140625
1776815470531958500,6.17795849609375,-19.888626098632812,23.467086791992188,-20.04822540283203
1776815470541995500,6.18799560546875,-20.48272705078125,23.328899383544922,-19.87933349609375
1776815470552031500,6.198031494140625,-21.059478759765625,23.053817749023438,-19.821258544921875
1776815470562068500,6.208068359375,-21.52630615234375,22.786415100097656,-19.49011993408203
1776815470572105700,6.218105712890625,-22.05927276611328,22.53438949584961,-19.08490753173828
1776815470582141700,6.2281416015625,-22.506591796875,22.297687530517578,-18.484329223632812
1776815470592178700,6.2381787109375,-23.24505615234375,22.034759521484375,-18.050437927246094
1776815470602215400,6.24821533203125,-23.704788208007812,21.820430755615234,-17.757484436035156
1776815470612251600,6.258251708984375,-24.026138305664062,21.726028442382812,-17.340843200683594
1776815470622288400,6.268288330078125,-24.379905700683594,21.388687133789062,-16.884689331054688
1776815470632325600,6.27832568359375,-25.06139373779297,21.020172119140625,-16.438949584960938
1776815470642361600,6.288361572265625,-25.42218017578125,20.628700256347656,-16.145187377929688
1776815470652398600,6.298398681640625,-25.957069396972656,20.297752380371094,-15.84613037109375
1776815470662435600,6.308435546875,-26.484275817871094,19.80840301513672,-15.685279846191406
1776815470672471600,6.318471435546875,-26.97222900390625,19.303455352783203,-15.508552551269531
1776815470682508500,6.328508544921875,-27.29046630859375,18.800365447998047,-15.391510009765625
1776815470692545500,6.338545654296875,-27.923858642578125,18.328086853027344,-15.209579467773438
1776815470702581800,6.348581787109375,-28.415191650390625,17.802791595458984,-14.912223815917969
1776815470712618500,6.358618408203125,-28.845481872558594,17.2183837890625,-14.800888061523438
1776815470722655500,6.368655517578125,-29.072120666503906,16.539669036865234,-14.620048522949219
1776815470732691500,6.37869140625,-29.182754516601562,15.943351745605469,-14.513664245605469
1776815470742728400,6.388728515625,-29.987411499023438,15.223018646240234,-14.440963745117188
1776815470752765400,6.398765380859375,-30.435592651367188,14.52630615234375,-14.458610534667969
1776815470762801700,6.4088017578125,-30.828887939453125,13.752872467041016,-14.257972717285156
1776815470772838700,6.418838623046875,-31.085289001464844,13.250141143798828,-14.0811767578125
1776815470782875600,6.428875732421875,-31.301437377929688,12.657821655273438,-14.034996032714844
1776815470792911600,6.43891162109375,-31.508522033691406,11.868919372558594,-13.919883728027344
1776815470802948400,6.4489482421875,-31.676345825195312,11.356788635253906,-13.885353088378906
1776815470812985300,6.4589853515625,-31.938201904296875,10.644401550292969,-13.963661193847656
1776815470823021600,6.469021484375,-32.19495391845703,9.896133422851562,-13.935279846191406
1776815470833058600,6.47905859375,-32.59053039550781,9.31719970703125,-13.824165344238281
1776815470843095600,6.489095458984375,-32.744911193847656,8.538482666015625,-13.808143615722656
1776815470853131500,6.499131591796875,-33.12919616699219,7.851787567138672,-13.825431823730469
1776815470863168500,6.50916845703125,-33.07142639160156,6.996299743652344,-13.582756042480469
1776815470873205500,6.51920556640625,-33.31611633300781,6.266284942626953,-13.501815795898438
1776815470883241700,6.52924169921875,-33.47297668457031,5.8085174560546875,-13.559150695800781
1776815470893278700,6.53927880859375,-33.44287872314453,4.992183685302734,-13.509895324707031
1776815470903315500,6.5493154296875,-33.52178955078125,4.349853515625,-13.610511779785156
1776815470913351400,6.559351318359375,-33.401466369628906,3.705860137939453,-13.435165405273438
1776815470923388400,6.569388427734375,-33.45225524902344,3.069091796875,-13.584281921386719
1776815470933425400,6.57942529296875,-33.42626953125,2.240020751953125,-13.546073913574219
1776815470943461400,6.58946142578125,-33.525917053222656,1.4644813537597656,-13.541839599609375
1776815470953498600,6.59949853515625,-33.485862731933594,0.9721412658691406,-13.615165710449219
1776815470963535600,6.60953564453125,-33.103858947753906,0.35088348388671875,-13.571853637695312
1776815470973571600,6.619571533203125,-33.4273681640625,-0.171478271484375,-13.595832824707031
1776815470983608600,6.629608642578125,-33.58055877685547,-0.826812744140625,-13.641876220703125
1776815470993645300,6.639645263671875,-33.474937438964844,-1.3255462646484375,-13.7008056640625
1776815471003681500,6.649681640625,-33.50934600830078,-1.8865890502929688,-13.666664123535156
1776815471013718500,6.659718505859375,-33.33332824707031,-2.337200164794922,-13.650093078613281
1776815471023755500,6.669755615234375,-33.21013641357422,-2.836109161376953,-13.615203857421875
1776815471033791500,6.67979150390625,-33.26140594482422,-3.3301773071289062,-13.599945068359375
1776815471043828500,6.689828369140625,-33.12517547607422,-3.8537826538085938,-13.616859436035156
1776815471053864400,6.699864501953125,-33.05467987060547,-4.453012466430664,-13.467826843261719
1776815471063901200,6.709901123046875,-33.00665283203125,-4.782934188842773,-13.571670532226562
1776815471073938400,6.7199384765625,-32.779541015625,-5.111209869384766,-13.604164123535156
1776815471083974400,6.729974365234375,-32.77874755859375,-5.473621368408203,-13.669410705566406
1776815471094011400,6.740011474609375,-32.742393493652344,-5.809604644775391,-13.7039794921875
1776815471104048000,6.750048095703125,-32.527000427246094,-5.9821319580078125,-13.60626220703125
1776815471114084400,6.76008447265625,-32.55596160888672,-6.213651657104492,-13.793685913085938
1776815471124121000,6.77012109375,-32.73180389404297,-6.476633071899414,-13.736434936523438
1776815471134158300,6.780158447265625,-32.62223815917969,-6.471902847290039,-13.934715270996094
1776815471144194300,6.7901943359375,-32.545318603515625,-6.710468292236328,-13.776458740234375
1776815471154231300,6.800231201171875,-32.42326354980469,-6.978509902954102,-13.734512329101562
1776815471164268300,6.810268310546875,-32.39002990722656,-7.073802947998047,-13.774024963378906
1776815471174304300,6.82030419921875,-32.44526672363281,-7.21330451965332,-13.705398559570312
1776815471184341200,6.83034130859375,-32.46788787841797,-7.370779037475586,-13.661476135253906
1776815471194378500,6.84037841796875,-32.46788787841797,-7.370779037475586,-13.661476135253906
1776815471204414500,6.85041455078125,-32.39625549316406,-7.452156066894531,-13.682945251464844
1776815471214451200,6.860451171875,-32.350181579589844,-7.3394012451171875,-13.687103271484375
1776815471224488200,6.87048828125,-32.35003662109375,-7.383428573608398,-13.777015686035156
1776815471234524200,6.880524169921875,-32.23944854736328,-7.304689407348633,-13.696464538574219
1776815471244561200,6.89056103515625,-32.33545684814453,-7.385534286499023,-13.689292907714844
1776815471254598400,6.900598388671875,-32.37909698486328,-7.294275283813477,-13.56719970703125
1776815471264634400,6.91063427734375,-32.577247619628906,-7.096549987792969,-13.537117004394531
1776815471274671400,6.92067138671875,-32.60374450683594,-7.152305603027344,-13.459503173828125
1776815471284708400,6.930708251953125,-32.63317108154297,-6.81559944152832,-13.44580078125
1776815471294744300,6.940744384765625,-32.49626159667969,-6.704257965087891,-13.320159912109375
1776815471304781300,6.95078125,-32.41374969482422,-6.330602645874023,-13.261634826660156
1776815471314818300,6.960818359375,-32.59130096435547,-6.144723892211914,-13.388687133789062
1776815471324854300,6.970854248046875,-32.656829833984375,-5.924346923828125,-13.370330810546875
1776815471334891300,6.980891357421875,-32.87763214111328,-5.603265762329102,-13.274787902832031
1776815471344928300,6.99092822265625,-32.93079376220703,-5.128623962402344,-13.283042907714844
1776815471354965200,7.00096533203125,-32.844215393066406,-4.897212982177734,-13.169540405273438
1776815471365001200,7.011001220703125,-32.97625732421875,-4.383697509765625,-13.339324951171875
1776815471375038500,7.02103857421875,-33.08412170410156,-4.01768684387207,-13.188369750976562
1776815471385074400,7.031074462890625,-32.86796569824219,-3.473285675048828,-13.310073852539062
1776815471395111400,7.041111328125,-32.880401611328125,-3.0262222290039062,-13.287429809570312
1776815471405148200,7.051148193359375,-32.84309387207031,-2.6498260498046875,-13.222244262695312
1776815471415185200,7.06118505859375,-32.91704559326172,-1.8931770324707031,-13.260246276855469
1776815471425221000,7.07122119140625,-32.97010803222656,-1.5703239440917969,-13.326103210449219
1776815471435258400,7.08125830078125,-32.9598388671875,-1.1851158142089844,-13.242073059082031
1776815471445295400,7.09129541015625,-32.99476623535156,-0.4124565124511719,-13.204627990722656
1776815471455331300,7.101331298828125,-32.983428955078125,0.3136253356933594,-13.276695251464844
1776815471465368300,7.111368408203125,-32.92198944091797,0.7611465454101562,-13.214080810546875
1776815471475405300,7.1214052734375,-32.82002258300781,1.3059120178222656,-13.110610961914062
1776815471485441300,7.131441162109375,-32.71257019042969,1.9720878601074219,-13.044136047363281
1776815471495478300,7.141478271484375,-32.51039123535156,2.634929656982422,-12.967155456542969
1776815471505515300,7.151515380859375,-32.74775695800781,3.3299522399902344,-13.034584045410156
1776815471515551200,7.16155126953125,-32.767578125,4.139404296875,-13.090919494628906
1776815471525588200,7.171588134765625,-32.872833251953125,4.840850830078125,-13.060539245605469
1776815471535625200,7.181625244140625,-32.77153015136719,5.567939758300781,-13.0347900390625
1776815471545661200,7.1916611328125,-32.79969024658203,6.114646911621094,-12.864494323730469
1776815471555698400,7.201698486328125,-32.630516052246094,6.71710205078125,-12.959854125976562
1776815471565735400,7.2117353515625,-32.554954528808594,7.537349700927734,-13.120452880859375
1776815471575771400,7.221771484375,-32.31676483154297,8.135631561279297,-12.878318786621094
1776815471585808400,7.231808349609375,-32.17979431152344,8.760025024414062,-12.853797912597656
1776815471595845000,7.24184521484375,-31.8109130859375,9.386459350585938,-12.914505004882812
1776815471605881000,7.251881103515625,-31.599075317382812,9.978191375732422,-13.0341796875
1776815471615918300,7.26191845703125,-31.3314208984375,10.618358612060547,-13.331459045410156
1776815471625955300,7.271955322265625,-31.150169372558594,11.044902801513672,-13.494453430175781
1776815471635991300,7.2819912109375,-30.691497802734375,11.567363739013672,-13.535736083984375
1776815471646028300,7.2920283203125,-30.510963439941406,12.062339782714844,-13.784950256347656
1776815471656065300,7.302065185546875,-30.50122833251953,12.60512924194336,-14.02618408203125
1776815471666101200,7.312101318359375,-30.118362426757812,13.037818908691406,-14.144432067871094
1776815471676138500,7.322138427734375,-29.726524353027344,13.668243408203125,-14.299713134765625
1776815471686175200,7.33217529296875,-29.383651733398438,14.136035919189453,-14.315765380859375
1776815471696211500,7.34221142578125,-29.280929565429688,14.642902374267578,-14.587776184082031
1776815471706248200,7.352248291015625,-29.251144409179688,15.317581176757812,-14.809852600097656
1776815471716285200,7.36228515625,-28.81000518798828,15.624275207519531,-14.988571166992188
1776815471726321200,7.372321044921875,-28.488540649414062,16.000354766845703,-15.140373229980469
1776815471736358400,7.3823583984375,-28.30065155029297,16.420711517333984,-15.465080261230469
1776815471746395400,7.3923955078125,-28.17676544189453,16.811416625976562,-15.734123229980469
1776815471756431400,7.402431396484375,-27.72735595703125,17.093746185302734,-15.880897521972656
1776815471766468400,7.41246826171875,-27.529586791992188,17.327499389648438,-16.118263244628906
1776815471776505300,7.42250537109375,-27.087928771972656,17.77968978881836,-16.383567810058594
1776815471786542000,7.4325419921875,-26.866783142089844,18.274250030517578,-16.70606231689453
1776815471796578000,7.442578125,-26.46190643310547,18.424144744873047,-16.855728149414062
1776815471806615300,7.452615234375,-26.340782165527344,18.88333511352539,-16.96417236328125
1776815471816652300,7.46265234375,-25.7030029296875,19.290748596191406,-17.25445556640625
1776815471826688300,7.472688232421875,-25.036422729492188,19.781936645507812,-17.454811096191406
1776815471836725200,7.482725341796875,-24.787673950195312,20.092689514160156,-17.81975555419922
1776815471846762200,7.49276220703125,-24.142730712890625,20.46251678466797,-18.03265380859375
1776815471856798200,7.502798095703125,-23.81092071533203,21.02780532836914,-18.31640625
1776815471866835500,7.51283544921875,-23.562950134277344,21.374370574951172,-18.357208251953125
1776815471876872200,7.5228720703125,-23.09253692626953,21.930072784423828,-18.51880645751953
1776815471886908400,7.532908447265625,-22.82989501953125,22.175983428955078,-18.740631103515625
1776815471896945200,7.542945068359375,-22.471572875976562,22.62332534790039,-19.025131225585938
1776815471906982100,7.552982177734375,-22.053016662597656,22.890609741210938,-18.995346069335938
1776815471917018000,7.56301806640625,-21.524192810058594,23.416954040527344,-19.2791748046875
1776815471927055400,7.573055419921875,-21.046768188476562,23.716949462890625,-19.445640563964844
1776815471937092400,7.58309228515625,-20.631561279296875,24.006710052490234,-19.67345428466797
1776815471947128300,7.59312841796875,-20.100379943847656,24.46475601196289,-19.7620849609375
1776815471957165300,7.603165283203125,-19.54077911376953,24.608840942382812,-19.93010711669922
1776815471967202300,7.613202392578125,-19.066055297851562,24.899925231933594,-20.049514770507812
1776815471977238300,7.62323828125,-18.56433868408203,25.197738647460938,-20.279693603515625
1776815471987275300,7.633275146484375,-17.751556396484375,25.670867919921875,-20.366844177246094
1776815471997312300,7.643312255859375,-17.163650512695312,25.83464813232422,-20.563026428222656
1776815472007349200,7.653349365234375,-16.799758911132812,25.96955108642578,-20.961341857910156
1776815472017385200,7.66338525390625,-16.28868865966797,26.23094940185547,-21.15106201171875
1776815472027422200,7.673422119140625,-15.686813354492188,26.29792022705078,-21.396263122558594
1776815472037458200,7.683458251953125,-15.641487121582031,26.444046020507812,-21.715476989746094
1776815472047495400,7.693495361328125,-15.250083923339844,26.446029663085938,-21.831993103027344
1776815472057533200,7.703533203125,-14.936355590820312,26.612178802490234,-21.92754364013672
1776815472067570200,7.713570068359375,-14.556694030761719,26.756553649902344,-21.858016967773438
1776815472077606100,7.723606201171875,-14.264297485351562,26.793704986572266,-22.024940490722656
1776815472087643100,7.73364306640625,-14.219741821289062,26.923851013183594,-22.164207458496094
1776815472097680100,7.74368017578125,-13.904273986816406,26.939529418945312,-22.193099975585938
1776815472107716000,7.753716064453125,-13.815299987792969,26.990570068359375,-22.04547882080078
1776815472117753300,7.76375341796875,-13.566993713378906,27.18714141845703,-22.050857543945312
1776815472127790300,7.773790283203125,-13.208427429199219,27.30898666381836,-22.257827758789062
1776815472137826300,7.783826416015625,-13.132049560546875,27.072086334228516,-22.198944091796875
1776815472147863000,7.793863037109375,-12.99609375,27.26364517211914,-22.274871826171875
1776815472157900000,7.803900146484375,-12.928375244140625,27.290546417236328,-22.221267700195312
1776815472167936000,7.81393603515625,-12.93414306640625,27.275169372558594,-22.292945861816406
1776815472177973200,7.82397314453125,-12.859657287597656,27.236366271972656,-22.304046630859375
1776815472188010200,7.83401025390625,-12.571746826171875,27.183971405029297,-22.290191650390625
1776815472198046200,7.844046142578125,-12.632125854492188,27.254425048828125,-22.260574340820312
1776815472208083200,7.854083251953125,-12.161773681640625,27.30810546875,-22.13532257080078
1776815472218120200,7.8641201171875,-12.004127502441406,27.457717895507812,-22.326263427734375
1776815472228157200,7.8741572265625,-12.265914916992188,27.61658477783203,-22.348846435546875
1776815472238193200,7.884193115234375,-12.220817565917969,27.553077697753906,-22.37451171875
1776815472248230100,7.894230224609375,-12.315132141113281,27.558570861816406,-22.391937255859375
1776815472258267100,7.90426708984375,-12.007057189941406,27.583908081054688,-22.319190979003906
1776815472268303000,7.91430322265625,-12.056488037109375,27.533004760742188,-22.432655334472656
1776815472278340000,7.924340087890625,-11.94989013671875,27.63971710205078,-22.42652130126953
1776815472288377300,7.93437744140625,-11.891105651855469,27.63170623779297,-22.48388671875
1776815472298413300,7.944413330078125,-11.857002258300781,27.723743438720703,-22.468955993652344
1776815472308450300,7.9544501953125,-11.850662231445312,27.860393524169922,-22.366737365722656
1776815472318487000,7.964487060546875,-11.870689392089844,27.877281188964844,-22.35430145263672
1776815472328523300,7.974523193359375,-11.847251892089844,27.844436645507812,-22.29437255859375
1776815472338560000,7.98456005859375,-11.823677062988281,27.900638580322266,-22.33837127685547
1776815472348597200,7.99459716796875,-11.605247497558594,28.072296142578125,-22.333656311035156
1776815472358634200,8.00463427734375,-11.7161865234375,27.964324951171875,-22.309844970703125
1776815472368670200,8.014670166015625,-11.886810302734375,27.914470672607422,-22.33350372314453
1776815472378707200,8.024707275390625,-12.050827026367188,27.77960205078125,-22.213096618652344
1776815472388744200,8.034744140625,-12.176254272460938,27.836929321289062,-22.157073974609375
1776815472398780200,8.0447802734375,-12.236244201660156,28.064971923828125,-22.007965087890625
1776815472408817400,8.0548173828125,-12.127838134765625,28.209671020507812,-21.960739135742188
1776815472418854100,8.064854248046874,-12.135711669921875,28.13135528564453,-21.99169158935547
1776815472428890000,8.07489013671875,-12.224090576171875,28.07033920288086,-21.906112670898438
1776815472438927000,8.084927001953124,-12.165458679199219,28.174598693847656,-21.91742706298828
1776815472448964000,8.094964111328125,-11.900070190429688,28.34073257446289,-21.704689025878906
1776815472459000000,8.105,-11.961227416992188,28.289268493652344,-21.897621154785156
1776815472469037300,8.115037353515625,-12.057632446289062,28.184097290039062,-21.966224670410156
1776815472479074300,8.12507421875,-12.108604431152344,28.06574249267578,-21.940582275390625
1776815472489111300,8.135111328125,-12.083763122558594,28.077251434326172,-21.850189208984375
1776815472499147300,8.145147216796875,-12.314537048339844,28.10281753540039,-21.99333953857422
1776815472509184000,8.15518408203125,-12.210891723632812,28.26245880126953,-22.063613891601562
1776815472519221200,8.16522119140625,-12.510116577148438,28.154216766357422,-21.997825622558594
1776815472529257200,8.17525732421875,-12.401039123535156,27.95928955078125,-21.812850952148438
1776815472539294200,8.185294189453124,-12.408889770507812,27.896793365478516,-21.620651245117188
1776815472549331200,8.195331298828124,-12.478813171386719,27.939098358154297,-21.89514923095703
1776815472559367200,8.2053671875,-12.46844482421875,28.203243255615234,-21.866897583007812
1776815472569404200,8.215404052734375,-12.692733764648438,28.15218734741211,-21.771835327148438
1776815472579441400,8.22544140625,-12.935737609863281,28.07427978515625,-21.62712860107422
1776815472589477400,8.235477294921875,-12.825660705566406,28.02826690673828,-21.265518188476562
1776815472599514400,8.245514404296875,-12.919578552246094,28.036392211914062,-21.362884521484375
1776815472609551000,8.255551025390625,-13.358413696289062,28.032119750976562,-21.351242065429688
1776815472619588000,8.265588134765625,-13.552581787109375,27.953258514404297,-21.316024780273438
1776815472629624000,8.2756240234375,-13.711524963378906,27.82711410522461,-21.19274139404297
1776815472639661300,8.285661376953126,-13.596351623535156,27.865406036376953,-21.144943237304688
1776815472649698300,8.2956982421875,-13.914833068847656,27.736961364746094,-21.174354553222656
1776815472659734300,8.305734375,-14.188079833984375,27.645923614501953,-21.12950897216797
1776815472669771300,8.315771240234374,-14.246559143066406,27.485397338867188,-21.094024658203125
1776815472679808300,8.325808349609375,-14.327217102050781,27.331783294677734,-21.001998901367188
1776815472689844200,8.33584423828125,-14.200736999511719,27.538543701171875,-21.04265594482422
1776815472699881200,8.345881103515625,-14.380325317382812,27.656368255615234,-21.06536865234375
1776815472709918200,8.355918212890625,-14.401626586914062,27.617015838623047,-21.11711883544922
1776815472719955200,8.365955078125,-14.370094299316406,27.56842803955078,-21.14349365234375
1776815472729991200,8.3759912109375,-14.335578918457031,27.379104614257812,-20.95490264892578
1776815472740028200,8.386028076171876,-14.349922180175781,27.267147064208984,-21.097991943359375
1776815472750065200,8.396065185546876,-14.325469970703125,27.28913116455078,-20.934783935546875
1776815472760101400,8.406101318359376,-14.302871704101562,27.39710235595703,-21.069992065429688
1776815472770138400,8.416138427734374,-14.187332153320312,27.37535858154297,-21.158767700195312
1776815472780175000,8.426175048828124,-13.932571411132812,27.49215316772461,-21.06073760986328
1776815472790211300,8.43621142578125,-14.121414184570312,27.32915496826172,-21.100082397460938
1776815472800248000,8.446248046875,-14.105743408203125,27.28814697265625,-21.215232849121094
1776815472810285000,8.45628515625,-13.867584228515625,27.27395248413086,-21.320945739746094
1776815472820322300,8.466322265625,-14.159370422363281,27.411602020263672,-21.246116638183594
1776815472830358300,8.476358154296875,-14.052909851074219,27.67096710205078,-21.19158172607422
1776815472840395300,8.486395263671875,-14.095726013183594,27.478748321533203,-21.1986083984375
1776815472850432300,8.496432373046876,-13.951271057128906,27.475479125976562,-21.285362243652344
1776815472860468200,8.50646826171875,-14.11846923828125,27.475814819335938,-21.376983642578125
1776815472870505200,8.516505126953126,-13.945808410644531,27.378376007080078,-21.229469299316406
1776815472880542200,8.526542236328124,-13.836387634277344,27.574649810791016,-21.28826141357422
1776815472890579200,8.5365791015625,-13.961318969726562,27.566455841064453,-21.280860900878906
1776815472900615200,8.546615234375,-14.167442321777344,27.559844970703125,-21.330474853515625
1776815472910652200,8.556652099609375,-14.167442321777344,27.559844970703125,-21.330474853515625
1776815472920689200,8.566689208984375,-14.208969116210938,27.425926208496094,-21.285743713378906
1776815472930725000,8.57672509765625,-14.0301513671875,27.326900482177734,-21.252830505371094
1776815472940762400,8.586762451171875,-14.020301818847656,27.42562484741211,-21.2757568359375
1776815472950799000,8.596799072265625,-13.971969604492188,27.335010528564453,-21.35205078125
1776815472960835300,8.60683544921875,-14.245758056640625,27.479816436767578,-21.30963897705078
1776815472970872000,8.6168720703125,-14.31329345703125,27.580127716064453,-21.311660766601562
1776815472980909000,8.626908935546876,-14.25677490234375,27.509136199951172,-21.095237731933594
1776815472990946300,8.6369462890625,-14.259071350097656,27.435836791992188,-21.17870330810547
1776815473000982300,8.646982177734374,-14.346092224121094,27.30389404296875,-21.180679321289062
1776815473011019300,8.657019287109375,-14.436378479003906,27.419578552246094,-21.256431579589844
1776815473021056300,8.66705615234375,-14.354225158691406,27.513622283935547,-21.230560302734375
1776815473031092200,8.67709228515625,-14.395683288574219,27.3428955078125,-21.02044677734375
1776815473041129200,8.687129150390625,-14.288551330566406,27.303028106689453,-21.043014526367188
1776815473051166200,8.697166259765625,-14.29638671875,27.543045043945312,-21.128456115722656
1776815473061202700,8.70720263671875,-14.276275634765625,27.501419067382812,-21.185150146484375
1776815473071238700,8.71723876953125,-14.392135620117188,27.508586883544922,-21.1668701171875
1776815473081275600,8.727275634765626,-14.170211791992188,27.545066833496094,-21.16065216064453
1776815473091312600,8.737312744140626,-14.429588317871094,27.440593719482422,-21.129562377929688
1776815473101348600,8.7473486328125,-14.515243530273438,27.585437774658203,-21.1534423828125
1776815473111385600,8.757385498046874,-14.583396911621094,27.513343811035156,-21.24573516845703
1776815473121422800,8.7674228515625,-14.363800048828125,27.62762451171875,-21.252784729003906
1776815473131459800,8.7774599609375,-14.318016052246094,27.41297149658203,-21.25806427001953
1776815473141495800,8.787495849609375,-14.428253173828125,27.636566162109375,-21.288978576660156
1776815473151532500,8.797532470703125,-14.123672485351562,27.557106018066406,-21.30841827392578
1776815473161569500,8.807569580078125,-14.257125854492188,27.532493591308594,-21.256423950195312
1776815473171605500,8.81760546875,-14.165634155273438,27.335811614990234,-20.978126525878906
1776815473181642800,8.827642822265625,-14.347740173339844,27.454696655273438,-21.154342651367188
1776815473191679700,8.8376796875,-14.360000610351562,27.46059799194336,-21.289642333984375
1776815473201716700,8.847716796875,-14.319068908691406,27.547054290771484,-21.37279510498047
1776815473211752700,8.857752685546876,-14.026542663574219,27.5966796875,-21.289199829101562
1776815473221789700,8.867789794921874,-14.018028259277344,27.421672821044922,-21.316017150878906
1776815473231826700,8.87782666015625,-14.037513732910156,27.210086822509766,-21.36884307861328
1776815473241862700,8.887862548828124,-14.065177917480469,27.427288055419922,-21.599266052246094
1776815473251899600,8.897899658203125,-14.013885498046875,27.355186462402344,-21.519676208496094
1776815473261936600,8.9079365234375,-14.011444091796875,27.35700225830078,-21.547164916992188
1776815473271973600,8.9179736328125,-13.92401123046875,27.373424530029297,-21.53833770751953
1776815473282009600,8.928009521484375,-13.885475158691406,27.313308715820312,-21.561622619628906
1776815473292046800,8.938046875,-14.004997253417969,27.340496063232422,-21.674659729003906
1776815473302083800,8.948083740234376,-13.919723510742188,27.211936950683594,-21.553565979003906
1776815473312120600,8.95812060546875,-13.835739135742188,27.376083374023438,-21.415367126464844
1776815473322156500,8.968156494140626,-13.905609130859375,27.258014678955078,-21.522674560546875
1776815473332193500,8.978193603515624,-13.77740478515625,27.309925079345703,-21.530296325683594
1776815473342230800,8.988230712890624,-13.895065307617188,27.216960906982422,-21.518455505371094
1776815473352266800,8.998266845703125,-13.889274597167969,27.211196899414062,-21.59033966064453
1776815473362303700,9.0083037109375,-13.662528991699219,27.267162322998047,-21.427474975585938
1776815473372340700,9.0183408203125,-13.80859375,27.314067840576172,-21.440963745117188
1776815473382377700,9.028377685546875,-14.0841064453125,27.128253936767578,-21.406455993652344
1776815473392413700,9.03841357421875,-14.155601501464844,27.10846710205078,-21.460731506347656
1776815473402450700,9.04845068359375,-14.279281616210938,26.844837188720703,-21.497596740722656
1776815473412487700,9.05848779296875,-14.409446716308594,26.89422607421875,-21.425857543945312
1776815473422523600,9.068523681640626,-14.781593322753906,26.95330047607422,-21.464317321777344
1776815473432560600,9.078560546875,-14.870109558105469,26.87325668334961,-21.466781616210938
1776815473442597600,9.08859765625,-14.924217224121094,26.79500961303711,-21.377098083496094
1776815473452635000,9.098634765625,-15.214973449707031,26.572608947753906,-21.30670928955078
1776815473462670800,9.1086708984375,-15.523910522460938,26.289329528808594,-21.28021240234375
1776815473472707800,9.118707763671875,-15.784873962402344,26.265655517578125,-21.178375244140625
1776815473482744600,9.12874462890625,-16.162490844726562,26.01706314086914,-21.244369506835938
1776815473492781600,9.138781494140625,-16.68779754638672,25.82300567626953,-21.082252502441406
1776815473502817500,9.148817626953125,-17.10443115234375,25.8551025390625,-20.930618286132812
1776815473512854800,9.158854736328125,-17.650123596191406,25.469371795654297,-20.80426025390625
1776815473522891800,9.168891845703126,-17.955703735351562,24.98116683959961,-20.70030975341797
1776815473532927700,9.178927734375,-18.134140014648438,24.756439208984375,-20.69384002685547
1776815473542964700,9.18896484375,-18.9072265625,24.15991973876953,-20.67298126220703
1776815473553001700,9.199001708984374,-19.59142303466797,23.96115493774414,-20.449050903320312
1776815473563038500,9.20903857421875,-20.105491638183594,23.522064208984375,-20.419113159179688
1776815473573075000,9.219074951171875,-20.695541381835938,23.18370819091797,-20.19024658203125
1776815473583111700,9.229111572265625,-21.163169860839844,22.831932067871094,-20.03606414794922
1776815473593148700,9.239148681640625,-21.659446716308594,22.6964111328125,-19.97583770751953
1776815473603185700,9.249185546875,-22.103302001953125,22.314983367919922,-19.588722229003906
1776815473613221600,9.2592216796875,-22.78691864013672,21.91424560546875,-19.2833251953125
1776815473623258600,9.269258544921875,-22.93688201904297,21.670684814453125,-19.067459106445312
1776815473633296000,9.2792958984375,-23.742568969726562,21.408489227294922,-18.72168731689453
1776815473643332600,9.28933251953125,-24.125335693359375,21.13434600830078,-18.349624633789062
1776815473653368800,9.299368896484374,-24.72301483154297,20.825916290283203,-17.98065948486328
1776815473663405600,9.309405517578124,-25.091995239257812,20.547847747802734,-17.555450439453125
1776815473673442600,9.319442626953125,-25.403915405273438,19.955730438232422,-17.06878662109375
1776815473683478500,9.329478515625,-25.938697814941406,19.673301696777344,-16.74510955810547
1776815473693515800,9.339515869140625,-26.366943359375,19.35723114013672,-16.155120849609375
1776815473703552800,9.349552734375,-26.9580078125,18.931991577148438,-15.80535888671875
1776815473713589800,9.35958984375,-27.55609130859375,18.509540557861328,-15.528327941894531
1776815473723625700,9.369625732421875,-27.86388397216797,18.191268920898438,-15.254226684570312
1776815473733662700,9.379662841796875,-28.540992736816406,17.60720443725586,-14.920303344726562
1776815473743699700,9.38969970703125,-28.76453399658203,17.19721221923828,-14.745979309082031
1776815473753736700,9.39973681640625,-29.064102172851562,16.804161071777344,-14.613929748535156
1776815473763772700,9.409772705078124,-29.34984588623047,16.277793884277344,-14.376136779785156
1776815473773809700,9.4198095703125,-29.605628967285156,15.73813247680664,-14.212417602539062
1776815473783846700,9.4298466796875,-29.88617706298828,15.023914337158203,-14.209030151367188
1776815473793884000,9.4398837890625,-30.137123107910156,14.456539154052734,-14.144775390625
1776815473803920000,9.449919921875,-30.618194580078125,13.824283599853516,-13.986061096191406
1776815473813956900,9.459956787109375,-30.827438354492188,13.253753662109375,-13.963958740234375
1776815473823993600,9.46999365234375,-31.274398803710938,12.603595733642578,-13.906295776367188
1776815473834029600,9.480029541015625,-31.474166870117188,12.01333999633789,-13.715042114257812
1776815473844066600,9.490066650390625,-31.598480224609375,11.195716857910156,-13.617034912109375
1776815473854103800,9.500103759765626,-31.775917053222656,10.460289001464844,-13.670188903808594
1776815473864140800,9.510140869140624,-31.963478088378906,9.914897918701172,-13.738029479980469
1776815473874176800,9.5201767578125,-32.140380859375,9.151302337646484,-13.651718139648438
1776815473884213800,9.5302138671875,-32.32981872558594,8.41177749633789,-13.402076721191406
1776815473894250800,9.540250732421875,-32.587318420410156,7.803291320800781,-13.381889343261719
1776815473904287700,9.550287841796875,-32.599403381347656,7.105094909667969,-13.405349731445312
1776815473914323700,9.56032373046875,-32.69617462158203,6.415412902832031,-13.456550598144531
1776815473924360700,9.570360595703125,-32.85578918457031,5.611125946044922,-13.457183837890625
1776815473934397700,9.580397705078125,-32.647605895996094,4.795295715332031,-13.2822265625
1776815473944434700,9.5904345703125,-32.986663818359375,4.12335205078125,-13.440986633300781
1776815473954470700,9.600470703125,-32.962623596191406,3.5681495666503906,-13.438713073730469
1776815473964508000,9.6105078125,-32.94811248779297,2.779693603515625,-13.448867797851562
1776815473974544600,9.620544677734374,-33.12372589111328,2.2664337158203125,-13.387527465820312
1776815473984581600,9.63058154296875,-33.164642333984375,1.5184135437011719,-13.44891357421875
1776815473994617600,9.64061767578125,-33.333824157714844,0.8873710632324219,-13.355072021484375
1776815474004654600,9.650654541015625,-33.32908630371094,0.41535186767578125,-13.368766784667969
1776815474014691600,9.660691650390625,-33.403167724609375,-0.37779998779296875,-13.227821350097656
1776815474024727800,9.670727783203125,-33.39458465576172,-0.90789794921875,-13.036407470703125
1776815474034764800,9.680764892578125,-33.312477111816406,-1.5004768371582031,-12.974617004394531
1776815474044801800,9.6908017578125,-33.24663543701172,-1.9559593200683594,-13.109329223632812
1776815474054838800,9.7008388671875,-33.354888916015625,-2.6668472290039062,-13.017135620117188
1776815474064874800,9.710874755859376,-32.97801971435547,-3.150115966796875,-13.123069763183594
1776815474074911500,9.720911376953126,-32.99268341064453,-3.435823440551758,-13.090812683105469
1776815474084948700,9.73094873046875,-33.318763732910156,-3.877420425415039,-13.086273193359375
1776815474094985700,9.74098583984375,-33.16197967529297,-4.370197296142578,-13.272682189941406
1776815474105021700,9.751021728515624,-33.173057556152344,-4.825656890869141,-13.268623352050781
1776815474115058700,9.76105859375,-33.1094970703125,-5.2541961669921875,-13.210647583007812
1776815474125095700,9.771095703125,-32.98048400878906,-5.484439849853516,-13.074310302734375
1776815474135132700,9.781132568359375,-32.821434020996094,-5.8633880615234375,-13.200820922851562
1776815474145169000,9.7911689453125,-32.809242248535156,-6.033571243286133,-13.462539672851562
1776815474155205600,9.80120556640625,-32.551124572753906,-6.104471206665039,-13.380043029785156
1776815474165242600,9.81124267578125,-32.656890869140625,-6.251821517944336,-13.459426879882812
1776815474175279600,9.821279541015626,-32.58575439453125,-6.54670524597168,-13.37860107421875
1776815474185315600,9.831315673828126,-32.787269592285156,-6.606725692749023,-13.443275451660156
1776815474195352800,9.841352783203124,-32.70774841308594,-6.892810821533203,-13.311988830566406
1776815474205389800,9.851389892578124,-32.67987823486328,-6.910177230834961,-13.286827087402344
1776815474215426600,9.861426513671875,-32.85820007324219,-7.001596450805664,-13.117942810058594
1776815474225462800,9.871462890625,-32.880950927734375,-6.953191757202148,-13.192031860351562
1776815474235499500,9.88149951171875,-32.73417663574219,-6.857892990112305,-13.301742553710938
1776815474245536800,9.891536865234375,-32.856056213378906,-6.642448425292969,-13.283988952636719
1776815474255573800,9.90157373046875,-32.827598571777344,-6.565095901489258,-13.162704467773438
1776815474265609700,9.911609619140625,-32.63428497314453,-6.417829513549805,-12.847129821777344
1776815474275646700,9.921646728515626,-32.69841766357422,-6.402091979980469,-12.958724975585938
1776815474285683700,9.93168359375,-32.98394012451172,-6.127355575561523,-12.882484436035156
1776815474295720700,9.941720703125,-33.16156768798828,-5.703596115112305,-12.877754211425781
1776815474305757000,9.9517568359375,-33.13743591308594,-5.503313064575195,-12.843452453613281
1776815474315793700,9.961793701171874,-33.12293243408203,-5.096355438232422,-12.729354858398438
1776815474325830700,9.97183056640625,-33.468772888183594,-4.861383438110352,-12.67779541015625
1776815474335867600,9.98186767578125,-33.34992218017578,-4.532917022705078,-12.571525573730469
1776815474345903600,9.991903564453125,-33.31596374511719,-4.054271697998047,-12.598159790039062
1776815474355940900,10.00194091796875,-33.57426452636719,-3.8265037536621094,-12.580307006835938
1776815474365977900,10.011977783203125,-33.638893127441406,-3.2480926513671875,-12.492507934570312
1776815474376013800,10.022013916015625,-33.613121032714844,-2.546459197998047,-12.389442443847656
1776815474386050800,10.03205078125,-33.766563415527344,-2.1732559204101562,-12.554786682128906
1776815474396087600,10.042087646484376,-33.891685485839844,-1.4831314086914062,-12.545631408691406
1776815474406124500,10.05212451171875,-33.948150634765625,-0.8625984191894531,-12.496856689453125
1776815474416161800,10.062161865234375,-33.77790832519531,-0.2778167724609375,-12.451896667480469
1776815474426197800,10.07219775390625,-33.73828887939453,0.3445892333984375,-12.349983215332031
1776815474436234800,10.08223486328125,-33.77394104003906,1.0560798645019531,-12.427604675292969
1776815474446271700,10.092271728515625,-33.81388854980469,1.7931556701660156,-12.453659057617188
1776815474456307700,10.1023076171875,-33.554351806640625,2.557781219482422,-12.342041015625
1776815474466344700,10.1123447265625,-33.706504821777344,3.180309295654297,-12.390151977539062
1776815474476381700,10.122381591796875,-33.59564208984375,3.919811248779297,-12.443916320800781
1776815474486418700,10.132418701171876,-33.72686767578125,4.512844085693359,-12.439659118652344
1776815474496455700,10.14245556640625,-33.604026794433594,5.245689392089844,-12.41302490234375
1776815474506491600,10.15249169921875,-33.23674774169922,5.8408966064453125,-12.2933349609375
1776815474516528600,10.162528564453124,-33.195716857910156,6.53076171875,-12.384063720703125
1776815474526566000,10.17256591796875,-33.00450134277344,7.244403839111328,-12.377593994140625
1776815474536602600,10.1826025390625,-32.79981994628906,7.818328857421875,-12.395240783691406
1776815474546638800,10.192638916015625,-32.990562438964844,8.434337615966797,-12.3377685546875
1776815474556675600,10.202675537109375,-32.607643127441406,9.14725112915039,-12.383338928222656
1776815474566712600,10.212712646484375,-32.58699035644531,9.947738647460938,-12.517013549804688
1776815474576749800,10.222749755859375,-32.393348693847656,10.438529968261719,-12.430435180664062
1776815474586785800,10.232785888671875,-32.082672119140625,11.167217254638672,-12.458229064941406
1776815474596822800,10.24282275390625,-31.84618377685547,12.010128021240234,-12.570960998535156
1776815474606859800,10.25285986328125,-31.352821350097656,12.601490020751953,-12.447639465332031
1776815474616896500,10.262896484375,-31.33936309814453,13.134098052978516,-12.634803771972656
1776815474626932700,10.2729326171875,-30.994949340820312,13.708667755126953,-12.877349853515625
1776815474636969700,10.2829697265625,-30.994949340820312,13.708667755126953,-12.877349853515625
1776815474647006700,10.2930068359375,-30.558990478515625,14.22640609741211,-12.912712097167969
1776815474657043700,10.303043701171875,-30.31963348388672,14.848506927490234,-12.897575378417969
1776815474667079700,10.31307958984375,-30.17491912841797,15.458786010742188,-13.215965270996094
1776815474677116700,10.32311669921875,-29.784149169921875,16.004287719726562,-13.464469909667969
1776815474687154000,10.33315380859375,-29.559860229492188,16.379108428955078,-13.790779113769531
1776815474697190700,10.343190673828126,-29.086318969726562,16.946624755859375,-13.933853149414062
1776815474707228700,10.353228759765624,-28.369766235351562,17.80904769897461,-14.20648193359375
1776815474717264600,10.3632646484375,-28.1790771484375,18.140380859375,-14.629165649414062
1776815474727301600,10.373301513671874,-27.7633056640625,18.64746856689453,-15.039146423339844
1776815474737339000,10.3833388671875,-27.031784057617188,19.039138793945312,-15.332328796386719
1776815474747375600,10.393375732421875,-26.889556884765625,19.424907684326172,-15.658073425292969
1776815474757411800,10.403411865234375,-26.43773651123047,19.75737762451172,-15.935234069824219
1776815474767448600,10.413448486328125,-25.91895294189453,20.174110412597656,-16.430625915527344
1776815474777485600,10.423485595703125,-25.392845153808594,20.73761749267578,-16.864845275878906
1776815474787522800,10.433522705078126,-25.042877197265625,21.177783966064453,-17.038375854492188
1776815474797558800,10.443558837890626,-24.509506225585938,21.504539489746094,-17.464157104492188
1776815474807595800,10.453595703125,-24.15795135498047,21.930919647216797,-17.747665405273438
1776815474817632800,10.4636328125,-23.63458251953125,22.507598876953125,-18.138694763183594
1776815474827669500,10.47366943359375,-22.968666076660156,22.857563018798828,-18.453475952148438
1776815474837705700,10.483705810546875,-22.363601684570312,23.252792358398438,-18.672889709472656
1776815474847742700,10.49374267578125,-21.93628692626953,23.547771453857422,-18.952255249023438
1776815474857779700,10.50377978515625,-21.40953826904297,23.82474136352539,-19.303321838378906
1776815474867816700,10.513816650390625,-21.115234375,24.12364959716797,-19.55426788330078
1776815474877853700,10.523853759765625,-20.777565002441406,24.426048278808594,-19.84246826171875
1776815474887889700,10.5338896484375,-20.197586059570312,24.649765014648438,-19.87828826904297
1776815474897927000,10.543927001953126,-20.10065460205078,24.832321166992188,-20.06078338623047
1776815474907963600,10.553963623046876,-19.38304901123047,25.293975830078125,-20.2821044921875
1776815474918000600,10.564000732421874,-18.795852661132812,25.585735321044922,-20.427947998046875
1776815474928036600,10.57403662109375,-18.4827880859375,25.914875030517578,-20.52075958251953
1776815474938073600,10.584073486328125,-17.923629760742188,25.861698150634766,-20.620628356933594
1776815474948110800,10.59411083984375,-17.438247680664062,26.116241455078125,-20.806198120117188
1776815474958147800,10.60414794921875,-17.0438232421875,26.48837661743164,-21.086135864257812
1776815474968183800,10.614183837890625,-16.251953125,26.60638427734375,-20.97112274169922
1776815474978220800,10.624220703125,-15.871681213378906,26.879150390625,-20.87982177734375
1776815474988257500,10.634257568359375,-15.742073059082031,27.112369537353516,-21.00830078125
1776815474998294500,10.64429443359375,-15.439720153808594,27.195270538330078,-21.074424743652344
1776815475008330500,10.65433056640625,-15.119239807128906,27.398826599121094,-21.124244689941406
1776815475018367700,10.66436767578125,-14.925369262695312,27.428466796875,-20.99181365966797
1776815475028404700,10.67440478515625,-14.6201171875,27.50777816772461,-20.813217163085938
1776815475038441700,10.684441650390625,-14.643081665039062,27.61246109008789,-21.037086486816406
1776815475048477700,10.694477783203125,-14.450027465820312,27.70018768310547,-21.091575622558594
1776815475058515000,10.704514892578125,-14.265106201171875,27.66781234741211,-21.04045867919922
1776815475068551700,10.7145517578125,-14.307838439941406,27.61148452758789,-21.067138671875
1776815475078588700,10.724588623046875,-14.307838439941406,27.61148452758789,-21.067138671875
1776815475088624600,10.734624755859375,-14.127525329589844,27.65999984741211,-21.25279998779297
1776815475098662000,10.744661865234375,-13.879196166992188,27.57979965209961,-21.39013671875
1776815475108699000,10.754698974609376,-13.767616271972656,27.57842254638672,-21.48230743408203
1776815475118736000,10.76473583984375,-13.843528747558594,27.565872192382812,-21.630691528320312
1776815475128771800,10.774771728515624,-13.514335632324219,27.58429718017578,-21.77118682861328
1776815475138808800,10.784808837890624,-13.180229187011719,27.551563262939453,-21.903366088867188
1776815475148845600,10.794845458984375,-13.157073974609375,27.609893798828125,-22.107925415039062
1776815475158882800,10.8048828125,-12.918083190917969,27.667953491210938,-22.159225463867188
1776815475168919800,10.814919921875,-12.728721618652344,27.747562408447266,-22.156044006347656
1776815475178955800,10.824955810546875,-12.457786560058594,27.70288848876953,-22.140792846679688
1776815475188992800,10.83499267578125,-12.296493530273438,27.792598724365234,-22.299209594726562
1776815475199029800,10.84502978515625,-11.980445861816406,27.9600830078125,-22.36406707763672
1776815475209066800,10.855066650390626,-11.828941345214844,27.930313110351562,-22.33196258544922
1776815475219103000,10.86510302734375,-11.824501037597656,28.1075439453125,-22.353599548339844
1776815475229139700,10.8751396484375,-11.791740417480469,27.92660903930664,-22.129562377929688
1776815475239176700,10.8851767578125,-11.679229736328125,27.940650939941406,-22.210289001464844
1776815475249213700,10.895213623046875,-11.843345642089844,28.0396728515625,-22.199417114257812
1776815475259249700,10.905249755859375,-12.108779907226562,27.955440521240234,-22.059890747070312
1776815475269287000,10.915286865234375,-12.108810424804688,28.126754760742188,-22.142822265625
1776815475279324000,10.925323974609375,-11.938125610351562,28.077781677246094,-21.873985290527344
1776815475289360600,10.935360595703125,-12.056503295898438,27.915050506591797,-21.864784240722656
1776815475299396900,10.94539697265625,-11.805854797363281,28.055625915527344,-21.947189331054688
1776815475309433600,10.95543359375,-12.094734191894531,27.997543334960938,-21.93085479736328
1776815475319470800,10.965470947265626,-11.932479858398438,28.073528289794922,-21.773948669433594
1776815475329507800,10.9755078125,-12.062225341796875,28.030628204345703,-21.724807739257812
1776815475339543800,10.985543701171874,-12.458961486816406,28.093475341796875,-21.79668426513672
1776815475349580800,10.995580810546874,-12.422630310058594,28.256633758544922,-21.837081909179688
1776815475359617800,11.00561767578125,-12.406570434570312,28.254329681396484,-21.711708068847656
1776815475369654800,11.01565478515625,-12.359382629394531,28.039108276367188,-21.51177978515625
1776815475379691000,11.02569091796875,-12.490570068359375,27.919269561767578,-21.66167449951172
1776815475389727700,11.035727783203125,-12.612594604492188,28.05896759033203,-21.74121856689453
1776815475399764700,11.0457646484375,-12.677383422851562,28.012371063232422,-21.724830627441406
1776815475409801700,11.0558017578125,-12.683097839355469,28.089340209960938,-21.78778076171875
1776815475419837700,11.065837646484376,-12.109825134277344,28.04189682006836,-21.60877227783203
1776815475429875000,11.075875,-12.373916625976562,28.077110290527344,-21.69971466064453
1776815475439912000,11.085911865234374,-12.502433776855469,28.009620666503906,-21.754684448242188
1776815475449948700,11.09594873046875,-12.391754150390625,27.99877166748047,-21.81341552734375
1776815475459985000,11.10598486328125,-12.320716857910156,27.93665313720703,-21.808433532714844
1776815475470021600,11.116021728515625,-11.982025146484375,28.004192352294922,-21.80742645263672
1776815475480058600,11.12605859375,-11.915092468261719,28.109073638916016,-21.9522705078125
1776815475490095900,11.136095947265625,-12.003936767578125,28.21007537841797,-21.847763061523438
1776815475500132900,11.1461328125,-12.064140319824219,28.197174072265625,-21.850570678710938
1776815475510168800,11.1561689453125,-11.895790100097656,27.994102478027344,-21.75824737548828
1776815475520205800,11.166205810546876,-12.017166137695312,28.028217315673828,-21.806846618652344
1776815475530242600,11.17624267578125,-12.099525451660156,28.109905242919922,-21.792381286621094
1776815475540279800,11.18627978515625,-12.266929626464844,28.073379516601562,-21.812347412109375
1776815475550315800,11.196315673828124,-12.010292053222656,28.185298919677734,-21.853919982910156
1776815475560352800,11.206352783203124,-11.864974975585938,28.00381088256836,-21.5875244140625
1776815475570389800,11.2163896484375,-11.92572021484375,27.90804672241211,-21.704727172851562
1776815475580426800,11.2264267578125,-12.086433410644531,27.97524642944336,-21.721824645996094
1776815475590462700,11.236462646484375,-12.228561401367188,27.96332550048828,-21.7606201171875
1776815475600500000,11.2465,-12.176216125488281,28.053722381591797,-21.748992919921875
1776815475610536700,11.25653662109375,-12.155693054199219,28.08733367919922,-21.712112426757812
1776815475620573700,11.26657373046875,-12.097518920898438,27.99319839477539,-21.72986602783203
1776815475630609700,11.276609619140626,-12.245849609375,27.95093536376953,-21.720443725585938
1776815475640646700,11.286646728515626,-12.175094604492188,28.04998016357422,-21.71044921875
1776815475650684000,11.296683837890624,-12.303031921386719,28.22028350830078,-21.788009643554688
1776815475660721000,11.306720947265624,-12.199188232421875,28.177398681640625,-21.637908935546875
1776815475670756900,11.3167568359375,-12.254547119140625,28.06342315673828,-21.58417510986328
1776815475680793900,11.3267939453125,-12.239402770996094,27.937606811523438,-21.671539306640625
1776815475690830600,11.33683056640625,-11.945182800292969,28.16006088256836,-21.729904174804688
1776815475700867800,11.346867919921875,-12.148429870605469,28.37908935546875,-21.799240112304688
1776815475710903800,11.35690380859375,-12.186470031738281,28.22748565673828,-21.826881408691406
1776815475720940800,11.36694091796875,-12.016319274902344,28.246036529541016,-21.817283630371094
1776815475730977800,11.376977783203126,-12.013877868652344,28.301910400390625,-21.72362518310547
1776815475741014800,11.387014892578126,-11.76458740234375,28.17957305908203,-21.76136016845703
1776815475751050800,11.39705078125,-11.78826904296875,28.243019104003906,-21.56201171875
1776815475761088000,11.407087890625,-11.978584289550781,27.986331939697266,-21.705726623535156
1776815475771124700,11.417124755859374,-12.026275634765625,28.113094329833984,-21.73943328857422
1776815475781161700,11.42716162109375,-12.011260986328125,28.166046142578125,-21.78729248046875
1776815475791197700,11.43719775390625,-12.101020812988281,28.169361114501953,-21.879737854003906
1776815475801234700,11.447234619140625,-11.714302062988281,28.175621032714844,-21.61884307861328
1776815475811271700,11.457271728515625,-11.9775390625,28.21319580078125,-21.737838745117188
1776815475821309000,11.467308837890625,-12.211105346679688,28.18608856201172,-21.867385864257812
1776815475831345000,11.477344970703125,-12.148300170898438,28.148181915283203,-21.811126708984375
1776815475841382000,11.4873818359375,-12.244255065917969,28.121292114257812,-21.79625701904297
1776815475851418600,11.497418701171876,-12.112335205078125,28.104793548583984,-21.787643432617188
1776815475861455600,11.50745556640625,-12.113639831542969,28.143436431884766,-21.79004669189453
1776815475871491600,11.51749169921875,-11.801803588867188,27.991436004638672,-21.792152404785156
1776815475881528800,11.52752880859375,-12.032691955566406,28.078907012939453,-21.902130126953125
1776815475891565800,11.53756591796875,-11.7491455078125,28.129703521728516,-21.720909118652344
1776815475901602800,11.547602783203125,-12.054283142089844,28.2369384765625,-21.820953369140625
1776815475911638800,11.557638671875,-11.951606750488281,28.201644897460938,-21.808013916015625
1776815475921675800,11.56767578125,-11.973075866699219,28.342819213867188,-21.87751007080078
1776815475931712800,11.577712646484375,-11.868759155273438,28.340076446533203,-21.9195556640625
1776815475941749800,11.587749755859376,-11.8843994140625,28.230331420898438,-21.642349243164062
1776815475951785700,11.59778564453125,-11.704421997070312,28.116355895996094,-21.792823791503906
1776815475961822700,11.60782275390625,-11.623886108398438,28.204788208007812,-21.92768096923828
1776815475971859700,11.617859619140624,-11.741729736328125,28.223167419433594,-21.798370361328125
1776815475981897000,11.62789697265625,-11.931922912597656,28.371124267578125,-21.85223388671875
1776815475991933000,11.637932861328125,-11.675148010253906,28.280029296875,-21.78314208984375
1776815476001970000,11.647969970703125,-11.770706176757812,27.991188049316406,-21.78813934326172
1776815476012006700,11.658006591796875,-11.790313720703125,28.08670425415039,-21.830551147460938
1776815476022043600,11.668043701171875,-11.806442260742188,27.9696044921875,-21.93212890625
1776815476032079600,11.67807958984375,-12.145988464355469,28.091938018798828,-21.81633758544922
1776815476042116900,11.688116943359375,-12.08648681640625,27.997180938720703,-21.830154418945312
1776815476052153900,11.69815380859375,-12.054649353027344,28.011058807373047,-21.95629119873047
1776815476062195000,11.70819482421875,-11.74737548828125,28.09259033203125,-21.851356506347656
1776815476072231000,11.71823095703125,-11.540557861328125,28.122455596923828,-21.834457397460938
1776815476082268000,11.728267822265625,-11.455223083496094,28.185413360595703,-21.847755432128906
1776815476092305000,11.738304931640625,-11.719894409179688,28.161678314208984,-21.932418823242188
1776815476102342000,11.748341796875,-11.810516357421875,28.070453643798828,-21.811233520507812
1776815476112377900,11.7583779296875,-11.7169189453125,28.166553497314453,-21.842735290527344
1776815476122414800,11.768414794921876,-11.723983764648438,28.081382751464844,-21.91503143310547
1776815476132452000,11.7784521484375,-11.638984680175781,28.172412872314453,-21.588829040527344
1776815476142488800,11.78848876953125,-11.862709045410156,28.216529846191406,-21.753036499023438
1776815476152525000,11.798525146484375,-11.933998107910156,28.144432067871094,-21.713424682617188
1776815476162561800,11.808561767578125,-11.835205078125,28.122833251953125,-21.790069580078125
1776815476172598800,11.818598876953125,-11.79571533203125,27.973468780517578,-21.756057739257812
1776815476182636000,11.828635986328125,-12.029670715332031,27.889999389648438,-21.683547973632812
1776815476192672000,11.838672119140625,-11.962287902832031,27.99402618408203,-21.802261352539062
1776815476202709000,11.848708984375,-11.909400939941406,27.886856079101562,-21.766517639160156
1776815476212746000,11.85874609375,-12.175827026367188,27.89641571044922,-21.78990936279297
1776815476222783000,11.868782958984376,-12.260498046875,28.059349060058594,-21.72795867919922
1776815476232819000,11.87881884765625,-12.344032287597656,28.008647918701172,-21.686248779296875
1776815476242856000,11.88885595703125,-12.33538818359375,28.047027587890625,-21.714332580566406
1776815476252893000,11.898892822265625,-12.310920715332031,27.92626190185547,-21.562957763671875
1776815476262930000,11.908929931640625,-12.063552856445312,28.001190185546875,-21.60169219970703
1776815476272966000,11.9189658203125,-12.175468444824219,27.884418487548828,-21.414321899414062
1776815476283003000,11.9290029296875,-12.35943603515625,27.915077209472656,-21.470916748046875
1776815476293039900,11.939039794921875,-12.440887451171875,27.898422241210938,-21.624794006347656
1776815476303076900,11.949076904296875,-12.537757873535156,27.984634399414062,-21.55445098876953
1776815476313113000,11.959113037109375,-12.549583435058594,27.961109161376953,-21.522010803222656
1776815476323149800,11.96914990234375,-12.65289306640625,27.951770782470703,-21.302513122558594
1776815476333186800,11.979186767578126,-12.909896850585938,27.86825942993164,-21.36894989013672
1776815476343222800,11.989222900390626,-12.817626953125,27.940757751464844,-21.37860107421875
1776815476353258800,11.9992587890625,-12.874954223632812,27.80722427368164,-21.51367950439453
1776815476363295700,12.009295654296874,-12.945877075195312,27.97366714477539,-21.552093505859375
1776815476373333000,12.0193330078125,-13.015983581542969,27.990299224853516,-21.398147583007812
1776815476383369000,12.029368896484375,-13.015983581542969,27.990299224853516,-21.398147583007812
1776815476393406000,12.039406005859375,-13.027824401855469,27.92202377319336,-21.499900817871094
1776815476403443000,12.04944287109375,-13.161476135253906,28.006404876708984,-21.456642150878906
1776815476413479000,12.05947900390625,-13.404769897460938,27.7867431640625,-21.310501098632812
1776815476423516000,12.069515869140625,-13.657783508300781,27.913223266601562,-21.3114013671875
1776815476433553000,12.079552978515625,-13.728958129882812,27.71280288696289,-21.291519165039062
1776815476443590000,12.08958984375,-13.946861267089844,27.764202117919922,-21.246353149414062
1776815476453625900,12.0996259765625,-14.335220336914062,27.54669189453125,-21.24494171142578
1776815476463662800,12.109662841796874,-14.557052612304688,27.53868865966797,-21.368118286132812
1776815476473699800,12.119699951171874,-14.755142211914062,27.382144927978516,-21.235382080078125
1776815476483737000,12.129737060546875,-15.167076110839844,27.090923309326172,-21.207664489746094
1776815476493773000,12.13977294921875,-15.970985412597656,26.927501678466797,-21.106651306152344
1776815476503810000,12.14981005859375,-16.23663330078125,26.767810821533203,-21.043731689453125
1776815476513846800,12.1598466796875,-16.618247985839844,26.50658416748047,-21.05980682373047
1776815476523883800,12.1698837890625,-17.25110626220703,26.194095611572266,-20.79212188720703
1776815476533919700,12.179919677734375,-18.224571228027344,25.812477111816406,-20.755630493164062
1776815476543957000,12.18995703125,-18.958106994628906,25.221946716308594,-20.635940551757812
1776815476553994000,12.199993896484376,-19.71136474609375,24.922435760498047,-20.572242736816406
1776815476564031000,12.210031005859374,-20.292457580566406,24.42327880859375,-20.210670471191406
1776815476574067000,12.22006689453125,-20.78485870361328,23.950057983398438,-19.951576232910156
1776815476584104000,12.23010400390625,-21.343170166015625,23.544734954833984,-19.883163452148438
1776815476594141000,12.240140869140625,-21.846160888671875,23.02749252319336,-19.62688446044922
1776815476604178000,12.250177978515625,-22.417922973632812,22.91287612915039,-19.24517059326172
1776815476614214000,12.2602138671875,-22.977928161621094,22.41382598876953,-18.783660888671875
1776815476624251000,12.2702509765625,-23.701759338378906,22.248409271240234,-18.321693420410156
1776815476634287900,12.280287841796875,-24.20384979248047,21.820186614990234,-17.792282104492188
1776815476644325000,12.2903251953125,-24.71405029296875,21.475971221923828,-17.336509704589844
1776815476654361000,12.300361083984376,-25.284034729003906,20.939979553222656,-16.822181701660156
1776815476664398000,12.310398193359376,-25.87793731689453,20.53308868408203,-16.248634338378906
1776815476674434800,12.320434814453124,-26.655174255371094,20.080493927001953,-16.03961181640625
1776815476684471800,12.330471923828124,-26.972084045410156,19.532005310058594,-15.71331787109375
1776815476694507800,12.3405078125,-27.58435821533203,19.054824829101562,-15.467147827148438
1776815476704545000,12.350544921875,-28.185470581054688,18.57748794555664,-15.391677856445312
1776815476714582000,12.36058203125,-28.46417236328125,18.016857147216797,-15.097061157226562
1776815476724618000,12.370617919921875,-28.97899627685547,17.26590347290039,-14.911720275878906
1776815476734655000,12.380655029296875,-29.482017517089844,16.815689086914062,-14.753288269042969
1776815476744692000,12.39069189453125,-29.95050048828125,16.16122817993164,-14.666046142578125
1776815476754728700,12.400728759765625,-30.180267333984375,15.586822509765625,-14.456504821777344
1776815476764765000,12.410764892578126,-30.170196533203125,14.984931945800781,-14.247093200683594
1776815476774802000,12.420802001953126,-30.539085388183594,14.18282699584961,-14.163291931152344
1776815476784839000,12.4308388671875,-30.843055725097656,13.414604187011719,-14.184432983398438
1776815476794876000,12.4408759765625,-31.17957305908203,12.691226959228516,-14.155448913574219
1776815476804911900,12.450911865234374,-31.671676635742188,11.891361236572266,-14.108718872070312
1776815476814948900,12.460948974609375,-32.06536865234375,11.202415466308594,-14.156402587890625
1776815476824985900,12.47098583984375,-32.3392333984375,10.50240707397461,-14.12969970703125
1776815476835022800,12.48102294921875,-32.50773620605469,9.64990234375,-14.074264526367188
1776815476845058800,12.491058837890625,-32.493324279785156,8.8826904296875,-14.112342834472656
1776815476855095800,12.501095703125,-32.74052429199219,8.003021240234375,-13.992202758789062
1776815476865132800,12.5111328125,-32.987823486328125,7.259540557861328,-14.051612854003906
1776815476875170000,12.521170166015626,-33.374122619628906,6.4686279296875,-14.00579833984375
1776815476885206000,12.5312060546875,-33.706886291503906,5.707508087158203,-13.959152221679688
1776815476895243000,12.541242919921874,-33.607452392578125,4.843784332275391,-13.90045166015625
1776815476905280000,12.551280029296874,-33.391090393066406,4.0509185791015625,-13.626998901367188
1776815476915316700,12.561316650390625,-33.73194122314453,3.307056427001953,-13.737876892089844
1776815476925352700,12.571352783203125,-33.910682678222656,2.5311317443847656,-13.839279174804688
1776815476935390000,12.581389892578125,-33.73811340332031,1.5909652709960938,-13.83001708984375
1776815476945427000,12.591427001953125,-33.76057434082031,1.0311965942382812,-14.011207580566406
1776815476955464000,12.6014638671875,-33.55601501464844,0.24168777465820312,-13.77386474609375
1776815476965500000,12.6115,-33.73809814453125,-0.399871826171875,-13.89691162109375
1776815476975537000,12.621536865234376,-33.721458435058594,-1.2178535461425781,-13.953971862792969
1776815476985574000,12.631573974609376,-33.71821594238281,-1.7477149963378906,-14.136138916015625
1776815476995611000,12.64161083984375,-33.6556396484375,-2.5115928649902344,-14.120086669921875
1776815477005646800,12.651646728515624,-33.566917419433594,-3.0092239379882812,-14.170677185058594
1776815477015683800,12.661683837890624,-33.55084991455078,-3.5200023651123047,-14.333839416503906
1776815477025720800,12.671720947265625,-33.286781311035156,-4.092899322509766,-14.436790466308594
1776815477035758000,12.681758056640625,-33.42646026611328,-4.581794738769531,-14.561973571777344
1776815477045794000,12.6917939453125,-33.051788330078125,-5.058319091796875,-14.438240051269531
1776815477055831000,12.7018310546875,-32.997650146484375,-5.699331283569336,-14.678466796875
1776815477065864000,12.711864013671875,-33.040313720703125,-5.997554779052734,-14.799942016601562
1776815477075900000,12.72189990234375,-32.94819641113281,-6.455387115478516,-14.837814331054688
1776815477085937000,12.73193701171875,-32.891937255859375,-6.731845855712891,-14.867568969726562
1776815477095974000,12.741973876953125,-32.627525329589844,-6.953899383544922,-14.801475524902344
1776815477106011000,12.752010986328125,-32.77320098876953,-7.231651306152344,-14.806167602539062
1776815477116046800,12.762046875,-32.83294677734375,-7.250654220581055,-14.897422790527344
1776815477126083800,12.772083740234375,-32.85920715332031,-7.211742401123047,-14.862350463867188
1776815477136120800,12.782120849609376,-32.837806701660156,-7.324357986450195,-14.745063781738281
1776815477146158000,12.792157958984374,-32.57972717285156,-7.393796920776367,-14.711769104003906
1776815477156194000,12.802194091796874,-32.89696502685547,-7.233270645141602,-14.644676208496094
