time,seconds_elapsed,z,y,x
1776815464440208600,0.086208740234375,-88.50387573242188,28.5595703125,-80.02085876464844
1776815464450301700,0.0963017578125,-88.45191955566406,28.583938598632812,-79.871826171875
1776815464460396800,0.106396728515625,-88.65687561035156,28.633316040039062,-80.00592041015625
1776815464470486500,0.116486572265625,-88.51734924316406,28.484588623046875,-79.72775268554688
1776815464480585700,0.126585693359375,-88.36953735351562,28.427703857421875,-79.87054443359375
1776815464490678800,0.1366787109375,-89.54891967773438,28.702224731445312,-79.71270751953125
1776815464500772600,0.146772705078125,-89.88114929199219,28.901702880859375,-79.63468933105469
1776815464510862600,0.156862548828125,-89.48957824707031,28.696762084960938,-79.41172790527344
1776815464520958700,0.166958740234375,-89.46481323242188,28.8427734375,-79.27998352050781
1776815464531057700,0.1770576171875,-89.86663818359375,28.760086059570312,-79.16731262207031
1776815464541151700,0.18715185546875,-89.46197509765625,29.078933715820312,-78.95079040527344
1776815464551246600,0.19724658203125,-89.65841674804688,28.838485717773438,-78.62715148925781
1776815464561341000,0.2073408203125,-90.44865417480469,28.889739990234375,-78.28996276855469
1776815464571434800,0.217434814453125,-90.86781311035156,28.59820556640625,-77.85861206054688
1776815464581528600,0.227528564453125,-91.12808227539062,28.55474853515625,-77.37229919433594
1776815464591623700,0.237623779296875,-91.34779357910156,28.354904174804688,-76.65328979492188
1776815464601717800,0.2477177734375,-91.72061157226562,28.577529907226562,-76.4093017578125
1776815464611812600,0.2578125,-91.98765563964844,28.529647827148438,-76.04689025878906
1776815464621901800,0.26790185546875,-92.04176330566406,28.685821533203125,-75.79202270507812
1776815464631997700,0.277997802734375,-91.97966003417969,29.0126953125,-75.71110534667969
1776815464642097700,0.28809765625,-92.01095581054688,29.140396118164062,-75.66400146484375
1776815464652188700,0.298188720703125,-92.43350219726562,28.967269897460938,-75.55169677734375
1776815464662284500,0.308284423828125,-92.20025634765625,29.29595947265625,-75.35160827636719
1776815464672380700,0.318380615234375,-92.45814514160156,29.455245971679688,-75.27583312988281
1776815464682475800,0.328475830078125,-92.30593872070312,29.6766357421875,-75.04808044433594
1776815464692572700,0.33857275390625,-92.63127136230469,29.855072021484375,-74.98146057128906
1776815464702673700,0.348673583984375,-92.91680908203125,30.02471923828125,-75.07334899902344
1776815464712764000,0.358763916015625,-92.86485290527344,30.1851806640625,-74.89947509765625
1776815464722863600,0.368863525390625,-93.13401794433594,30.279815673828125,-74.88783264160156
1776815464732959700,0.378959716796875,-92.90487670898438,30.366668701171875,-74.66572570800781
1776815464743048700,0.389048583984375,-92.93379211425781,30.119583129882812,-74.70576477050781
1776815464753149700,0.399149658203125,-92.94113159179688,29.7947998046875,-74.53115844726562
1776815464763240700,0.40924072265625,-93.28619384765625,29.642242431640625,-74.21577453613281
1776815464773336600,0.419336669921875,-93.21136474609375,29.45623779296875,-73.70953369140625
1776815464783436800,0.429436767578125,-93.54408264160156,29.677169799804688,-73.263671875
1776815464793530600,0.439530517578125,-93.58602905273438,29.8389892578125,-73.05882263183594
1776815464803625500,0.44962548828125,-94.01991271972656,29.818359375,-72.66790771484375
1776815464813720600,0.459720458984375,-94.05693054199219,30.091293334960938,-72.49119567871094
1776815464823810800,0.469810791015625,-94.14408874511719,30.174896240234375,-72.0439453125
1776815464833907700,0.47990771484375,-94.74433898925781,30.014801025390625,-71.20103454589844
1776815464844003600,0.490003662109375,-94.97244262695312,30.281661987304688,-70.67437744140625
1776815464854103800,0.500103759765625,-95.41108703613281,30.706787109375,-70.01377868652344
1776815464864194600,0.510194580078125,-95.38616943359375,30.864410400390625,-69.40838623046875
1776815464874295800,0.5202958984375,-95.73600769042969,31.092269897460938,-68.70751953125
1776815464884390700,0.530390625,-95.42422485351562,31.323394775390625,-68.38963317871094
1776815464894486800,0.54048681640625,-95.68339538574219,31.42425537109375,-67.87530517578125
1776815464904582000,0.550581787109375,-96.00701904296875,31.438568115234375,-67.11137390136719
1776815464914670600,0.560670654296875,-96.04331970214844,31.825332641601562,-66.16984558105469
1776815464924770600,0.5707705078125,-96.32215881347656,31.727462768554688,-64.70590209960938
1776815464934866700,0.58086669921875,-96.91914367675781,31.861740112304688,-63.719451904296875
1776815464944960500,0.59096044921875,-96.74995422363281,32.618865966796875,-62.731414794921875
1776815464955049700,0.6010498046875,-96.98460388183594,32.6683349609375,-61.92962646484375
1776815464965143800,0.611143798828125,-97.11726379394531,32.700439453125,-61.21208190917969
1776815464975239000,0.621239013671875,-96.74705505371094,33.184539794921875,-60.432891845703125
1776815464985337900,0.631337890625,-97.06710815429688,32.97969055175781,-59.892364501953125
1776815464995430700,0.6414306640625,-96.81005859375,33.486541748046875,-59.02668762207031
1776815465005525500,0.651525390625,-97.229248046875,34.05851745605469,-58.777679443359375
1776815465015619800,0.661619873046875,-97.13380432128906,34.9493408203125,-58.52238464355469
1776815465025713700,0.671713623046875,-96.91400146484375,35.8902587890625,-58.49273681640625
1776815465035807500,0.681807373046875,-96.86930847167969,36.54988098144531,-58.23881530761719
1776815465045903600,0.691903564453125,-96.87184143066406,37.7757568359375,-57.647308349609375
1776815465056002000,0.702001953125,-96.77833557128906,38.78144836425781,-57.2481689453125
1776815465066096000,0.71209619140625,-96.03390502929688,39.676055908203125,-56.29692077636719
1776815465076189200,0.722189208984375,-96.28753662109375,40.76148986816406,-55.697265625
1776815465086282200,0.7322822265625,-95.66018676757812,41.81465148925781,-55.12800598144531
1776815465096377000,0.742377197265625,-95.45527648925781,42.57426452636719,-54.54090881347656
1776815465106471200,0.75247119140625,-95.47491455078125,43.55549621582031,-54.22694396972656
1776815465116564200,0.762564208984375,-94.96510314941406,44.36810302734375,-53.36688232421875
1776815465126653200,0.772653076171875,-94.43385314941406,45.44862365722656,-53.31877136230469
1776815465136753200,0.782753173828125,-94.1339111328125,46.493072509765625,-53.04866027832031
1776815465146848300,0.79284814453125,-93.52359008789062,47.7188720703125,-53.11683654785156
1776815465156943000,0.802943115234375,-92.87705993652344,49.15107727050781,-53.307098388671875
1776815465167034000,0.8130341796875,-91.89497375488281,50.7677001953125,-53.206146240234375
1776815465177135000,0.823135009765625,-91.34898376464844,52.24653625488281,-53.630584716796875
1776815465187229200,0.833229248046875,-90.01296997070312,53.94496154785156,-53.89434814453125
1776815465197323000,0.843322998046875,-89.37066650390625,55.862030029296875,-54.7833251953125
1776815465207417300,0.853417236328125,-88.46087646484375,57.148590087890625,-55.81782531738281
1776815465217512200,0.86351220703125,-87.93798828125,57.9146728515625,-56.764312744140625
1776815465227608300,0.8736083984375,-87.22080993652344,58.87174987792969,-57.47779846191406
1776815465237703200,0.883703125,-86.72987365722656,59.74693298339844,-58.17671203613281
1776815465247794200,0.893794189453125,-85.95870971679688,60.28300476074219,-58.45103454589844
1776815465257894400,0.903894287109375,-85.14947509765625,60.83653259277344,-58.41828918457031
1776815465267989200,0.9139892578125,-84.47225952148438,61.664154052734375,-58.740325927734375
1776815465278078000,0.924077880859375,-83.67770385742188,62.72198486328125,-58.91705322265625
1776815465288178200,0.93417822265625,-82.47554016113281,63.59027099609375,-59.00566101074219
1776815465298268200,0.94426806640625,-81.49946594238281,64.43966674804688,-59.0635986328125
1776815465308368100,0.9543681640625,-80.57609558105469,65.24923706054688,-59.0880126953125
1776815465318463000,0.964462890625,-80.40921020507812,65.60353088378906,-58.87873840332031
1776815465328558000,0.97455810546875,-80.79521179199219,65.25569152832031,-58.12718200683594
1776815465338648000,0.98464794921875,-81.37275695800781,64.58705139160156,-57.42655944824219
1776815465348743200,0.9947431640625,-82.07240295410156,64.16114807128906,-56.46739196777344
1776815465358844200,1.00484423828125,-82.19071960449219,63.64924621582031,-55.455657958984375
1776815465368941000,1.014941162109375,-82.80712890625,63.48335266113281,-54.66105651855469
1776815465379032000,1.025031982421875,-82.64619445800781,63.3743896484375,-54.1934814453125
1776815465389132300,1.03513232421875,-82.62330627441406,63.37571716308594,-53.521728515625
1776815465399228200,1.045228271484375,-82.39289855957031,63.44670104980469,-52.99755859375
1776815465409323300,1.0553232421875,-81.73194885253906,63.85150146484375,-52.574951171875
1776815465419417000,1.0654169921875,-80.83119201660156,64.34312438964844,-51.989776611328125
1776815465429513200,1.07551318359375,-80.11605834960938,64.71258544921875,-51.44047546386719
1776815465439603200,1.085603271484375,-79.08647155761719,65.43844604492188,-51.28501892089844
1776815465449704200,1.0957041015625,-77.56047058105469,66.17953491210938,-50.73797607421875
1776815465459798000,1.105798095703125,-76.03021240234375,67.08509826660156,-50.140869140625
1776815465469893000,1.11589306640625,-74.24937438964844,67.21815490722656,-49.05534362792969
1776815465479988200,1.12598828125,-72.64437866210938,67.98802185058594,-48.38682556152344
1776815465490083300,1.136083251953125,-71.20233154296875,68.58811950683594,-47.700408935546875
1776815465500178200,1.14617822265625,-69.30967712402344,68.77104187011719,-46.56071472167969
1776815465510273300,1.156273193359375,-68.46005249023438,69.00390625,-46.3734130859375
1776815465520369200,1.166369140625,-67.63963317871094,69.18318176269531,-46.15281677246094
1776815465530463200,1.176463134765625,-66.79473876953125,69.35932922363281,-45.83033752441406
1776815465540557000,1.18655712890625,-66.34175109863281,69.28671264648438,-45.5042724609375
1776815465550652200,1.196652099609375,-65.94189453125,69.26329040527344,-45.231475830078125
1776815465560747300,1.206747314453125,-65.65090942382812,69.65054321289062,-45.49009704589844
1776815465570841000,1.216841064453125,-65.33662414550781,69.7667236328125,-45.710906982421875
1776815465580935200,1.22693505859375,-64.56362915039062,69.7421875,-45.631011962890625
1776815465591028200,1.2370283203125,-63.60589599609375,70.09698486328125,-45.95762634277344
1776815465601117200,1.2471171875,-63.35333251953125,70.23448181152344,-45.758544921875
1776815465611212300,1.25721240234375,-62.718017578125,70.2781982421875,-45.55595397949219
1776815465621311200,1.267311279296875,-62.41999816894531,70.13298034667969,-45.35337829589844
1776815465631400200,1.277400146484375,-62.028533935546875,70.34158325195312,-45.08152770996094
1776815465641499100,1.2874990234375,-61.30247497558594,70.2647705078125,-44.964935302734375
1776815465651589000,1.297589111328125,-61.09089660644531,70.07411193847656,-45.00343322753906
1776815465661690000,1.307690185546875,-60.4547119140625,70.10597229003906,-44.84846496582031
1776815465671780000,1.317780029296875,-59.95359802246094,70.18203735351562,-44.91949462890625
1776815465681881000,1.327881103515625,-59.59965515136719,70.33897399902344,-44.83111572265625
1776815465691975200,1.33797509765625,-59.26707458496094,70.255126953125,-44.506439208984375
1776815465702066200,1.348066162109375,-59.97325134277344,70.24201965332031,-44.753814697265625
1776815465712162300,1.358162353515625,-59.55084228515625,70.01266479492188,-44.56927490234375
1776815465722263000,1.368262939453125,-59.514312744140625,70.09022521972656,-44.54731750488281
1776815465732359200,1.378359130859375,-59.266998291015625,70.06471252441406,-44.14717102050781
1776815465742450200,1.3884501953125,-59.456695556640625,69.91474914550781,-43.96868896484375
1776815465752551200,1.39855126953125,-59.57786560058594,69.61204528808594,-43.78675842285156
1776815465762642200,1.40864208984375,-59.546234130859375,69.523681640625,-43.439544677734375
1776815465772739000,1.418739013671875,-59.38139343261719,69.29255676269531,-43.31440734863281
1776815465782841000,1.428841064453125,-58.98573303222656,69.47463989257812,-43.55509948730469
1776815465792933000,1.43893310546875,-58.60929870605469,69.62684631347656,-43.707977294921875
1776815465803029000,1.449029052734375,-58.31935119628906,69.72067260742188,-43.928009033203125
1776815465813124000,1.4591240234375,-57.617431640625,69.759521484375,-44.25335693359375
1776815465823220200,1.46922021484375,-57.35601806640625,69.76466369628906,-44.48472595214844
1776815465833319200,1.479319091796875,-56.9000244140625,69.92253112792969,-44.8238525390625
1776815465843410200,1.48941015625,-56.37306213378906,70.16603088378906,-44.97221374511719
1776815465853510100,1.49951025390625,-56.780029296875,69.93768310546875,-44.943817138671875
1776815465863601200,1.50960107421875,-56.9815673828125,69.82432556152344,-44.56494140625
1776815465873698300,1.5196982421875,-57.42860412597656,69.56681823730469,-44.141326904296875
1776815465883796200,1.529796142578125,-58.07598876953125,69.48965454101562,-43.802581787109375
1776815465893892000,1.53989208984375,-58.90061950683594,69.19505310058594,-43.57806396484375
1776815465903989000,1.549989013671875,-59.900604248046875,68.98017883300781,-43.30615234375
1776815465914086100,1.560086181640625,-60.531951904296875,68.67845153808594,-42.638092041015625
1776815465924181200,1.57018115234375,-61.418060302734375,68.6644287109375,-42.49668884277344
1776815465934277000,1.580277099609375,-61.87825012207031,68.60853576660156,-42.502777099609375
1776815465944375300,1.590375244140625,-62.294952392578125,68.72573852539062,-42.77647399902344
1776815465954472200,1.60047216796875,-62.083221435546875,68.82254028320312,-43.113433837890625
1776815465964570000,1.610570068359375,-62.377899169921875,68.89964294433594,-43.220489501953125
1776815465974667000,1.6206669921875,-62.22467041015625,68.97073364257812,-43.30047607421875
1776815465984765000,1.630764892578125,-62.06242370605469,68.9310302734375,-43.49725341796875
1776815465994862000,1.640862060546875,-61.2432861328125,69.16131591796875,-43.35194396972656
1776815466004959200,1.650959228515625,-61.71746826171875,69.14759826660156,-43.8223876953125
1776815466015055000,1.66105517578125,-61.563751220703125,69.0802001953125,-43.56767272949219
1776815466025152300,1.67115234375,-60.97113037109375,69.177490234375,-43.524261474609375
1776815466035248400,1.681248291015625,-60.97137451171875,69.35464477539062,-43.83738708496094
1776815466045344000,1.691343994140625,-61.18150329589844,69.44161987304688,-43.87010192871094
1776815466055441400,1.70144140625,-60.48808288574219,69.45088195800781,-43.82994079589844
1776815466065536500,1.71153662109375,-60.31752014160156,69.78399658203125,-43.96907043457031
1776815466075636500,1.721636474609375,-59.41203308105469,69.5084228515625,-44.01673889160156
1776815466085732400,1.731732421875,-59.53971862792969,69.66694641113281,-44.247283935546875
1776815466095822300,1.741822265625,-58.87886047363281,69.57807922363281,-44.28277587890625
1776815466105922600,1.751922607421875,-58.89381408691406,69.5986328125,-44.2537841796875
1776815466116018200,1.76201806640625,-58.20167541503906,69.80699157714844,-44.09523010253906
1776815466126113500,1.772113525390625,-57.644866943359375,69.63862609863281,-44.06214904785156
1776815466136208400,1.78220849609375,-57.024017333984375,69.74887084960938,-44.04107666015625
1776815466146305300,1.79230517578125,-56.93365478515625,69.64926147460938,-43.87677001953125
1776815466156396300,1.802396240234375,-55.9085693359375,69.57955932617188,-43.808990478515625
1776815466166492400,1.812492431640625,-55.225738525390625,69.34619140625,-43.50920104980469
1776815466176588300,1.82258837890625,-54.759063720703125,69.41860961914062,-43.47065734863281
1776815466186684400,1.832684326171875,-54.49464416503906,69.06501770019531,-43.2469482421875
1776815466196780500,1.842780517578125,-54.280120849609375,69.03094482421875,-43.19599914550781
1776815466206881500,1.852881591796875,-53.90119934082031,69.16346740722656,-43.17431640625
1776815466216978400,1.862978515625,-53.834014892578125,69.36204528808594,-42.8311767578125
1776815466227073500,1.873073486328125,-53.85823059082031,69.18576049804688,-42.91767883300781
1776815466237167400,1.88316748046875,-53.56333923339844,69.22514343261719,-42.99565124511719
1776815466247262500,1.893262451171875,-53.67195129394531,69.22543334960938,-42.837646484375
1776815466257356300,1.903356201171875,-53.518341064453125,69.09683227539062,-42.592376708984375
1776815466267451600,1.91345166015625,-53.559722900390625,69.13861083984375,-42.25822448730469
1776815466277546500,1.92354638671875,-53.33247375488281,69.11106872558594,-42.54508972167969
1776815466287641600,1.9336416015625,-53.50096130371094,68.8248291015625,-42.421661376953125
1776815466297736400,1.943736328125,-53.658355712890625,68.88323974609375,-42.26898193359375
1776815466307832600,1.95383251953125,-53.83171081542969,68.8577880859375,-42.186492919921875
1776815466317929500,1.963929443359375,-53.62266540527344,68.64511108398438,-42.009429931640625
1776815466328021500,1.974021484375,-54.247467041015625,68.65609741210938,-41.719451904296875
1776815466338123300,1.984123291015625,-54.83734130859375,68.54241943359375,-41.67539978027344
1776815466348220400,1.994220458984375,-55.14396667480469,68.56332397460938,-41.484771728515625
1776815466358312400,2.0043125,-55.30694580078125,68.494873046875,-41.42707824707031
1776815466368410400,2.014410400390625,-55.68208312988281,68.36309814453125,-41.263763427734375
1776815466378507300,2.02450732421875,-55.79478454589844,68.31417846679688,-41.2672119140625
1776815466388609500,2.034609619140625,-56.30409240722656,68.20608520507812,-41.188690185546875
1776815466398705400,2.044705322265625,-56.363739013671875,68.36796569824219,-41.33709716796875
1776815466408801300,2.05480126953125,-56.55796813964844,68.35249328613281,-40.99542236328125
1776815466418893300,2.064893310546875,-56.90180969238281,68.21490478515625,-40.98561096191406
1776815466428994300,2.074994384765625,-57.16923522949219,68.06192016601562,-40.87303161621094
1776815466439089400,2.08508935546875,-57.060333251953125,67.92129516601562,-40.593170166015625
1776815466449180400,2.095180419921875,-57.1748046875,67.6864013671875,-40.56591796875
1776815466459281400,2.105281494140625,-56.760162353515625,67.8099365234375,-40.439453125
1776815466469378600,2.115378662109375,-57.07902526855469,67.69732666015625,-40.3387451171875
1776815466479474400,2.125474365234375,-57.06501770019531,68.06173706054688,-40.397003173828125
1776815466489564400,2.135564453125,-57.431671142578125,67.84475708007812,-40.54063415527344
1776815466499666400,2.14566650390625,-57.545166015625,67.876220703125,-40.12309265136719
1776815466509757400,2.15575732421875,-57.97642517089844,67.57034301757812,-39.949554443359375
1776815466519858400,2.1658583984375,-58.55914306640625,67.59532165527344,-39.982635498046875
1776815466529954600,2.17595458984375,-59.05078125,67.38516235351562,-39.99183654785156
1776815466540049400,2.18604931640625,-60.171112060546875,67.49826049804688,-39.88920593261719
1776815466550143500,2.1961435546875,-60.840911865234375,67.57737731933594,-39.95561218261719
1776815466560233500,2.2062333984375,-62.402801513671875,67.69642639160156,-40.20130920410156
1776815466570334500,2.21633447265625,-62.850067138671875,67.69602966308594,-40.38417053222656
1776815466580430600,2.2264306640625,-63.523162841796875,67.80229187011719,-40.208892822265625
1776815466590526500,2.2365263671875,-63.96434020996094,67.69438171386719,-40.4488525390625
1776815466600618200,2.2466181640625,-65.20802307128906,67.80894470214844,-40.759124755859375
1776815466610718500,2.256718505859375,-65.44363403320312,67.692626953125,-41.19993591308594
1776815466620815600,2.266815673828125,-66.21940612792969,67.86930847167969,-41.51539611816406
1776815466630911200,2.2769111328125,-67.01412963867188,67.79801940917969,-41.76423645019531
1776815466641000400,2.28700048828125,-67.86451721191406,67.81382751464844,-42.009796142578125
1776815466651099400,2.297099365234375,-68.22315979003906,67.93290710449219,-42.25177001953125
1776815466661193500,2.307193359375,-68.89111328125,68.24508666992188,-42.93907165527344
1776815466671283500,2.317283447265625,-69.19834899902344,68.33818054199219,-43.50859069824219
1776815466681382400,2.32738232421875,-69.50865173339844,68.69590759277344,-43.9913330078125
1776815466691476200,2.337476318359375,-69.91703796386719,68.69094848632812,-44.52839660644531
1776815466701570600,2.347570556640625,-70.03143310546875,68.76753234863281,-44.99800109863281
1776815466711664400,2.357664306640625,-70.36875915527344,68.99842834472656,-45.35101318359375
1776815466721758500,2.367758544921875,-70.73262023925781,68.92767333984375,-45.807403564453125
1776815466731852300,2.377852294921875,-71.11238098144531,69.06999206542969,-45.99024963378906
1776815466741948400,2.387948486328125,-71.24734497070312,69.33590698242188,-46.38214111328125
1776815466752042200,2.398042236328125,-70.82192993164062,69.25234985351562,-46.71589660644531
1776815466762137300,2.408137451171875,-70.55796813964844,69.69090270996094,-47.11219787597656
1776815466772228400,2.418228271484375,-70.85174560546875,70.07841491699219,-47.46697998046875
1776815466782328300,2.428328369140625,-70.6732177734375,69.98255920410156,-47.738037109375
1776815466792423400,2.43842333984375,-70.27055358886719,70.51705932617188,-48.0123291015625
1776815466802518300,2.448518310546875,-70.47492980957031,70.41978454589844,-48.8704833984375
1776815466812608500,2.4586083984375,-71.00904846191406,70.54508972167969,-49.441436767578125
1776815466822704400,2.468704345703125,-70.88949584960938,70.85511779785156,-49.95501708984375
1776815466832805400,2.478805419921875,-70.72195434570312,70.93386840820312,-50.449462890625
1776815466842900500,2.488900390625,-70.93409729003906,71.13006591796875,-50.79463195800781
1776815466852995300,2.498995361328125,-70.72431945800781,71.17060852050781,-51.38435363769531
1776815466863091500,2.509091552734375,-71.27975463867188,71.39439392089844,-52.05824279785156
1776815466873186300,2.519186279296875,-71.66130065917969,71.33306884765625,-52.75213623046875
1776815466883282400,2.529282470703125,-71.57810974121094,71.305419921875,-53.409088134765625
1776815466893378600,2.539378662109375,-71.84742736816406,71.36164855957031,-53.96580505371094
1776815466903469300,2.54946923828125,-72.46162414550781,71.4649658203125,-54.8045654296875
1776815466913570300,2.5595703125,-72.80413818359375,71.25495910644531,-55.24267578125
1776815466923664400,2.569664306640625,-73.46449279785156,71.17555236816406,-55.794097900390625
1776815466933758500,2.579758544921875,-73.49459838867188,71.03511047363281,-56.06590270996094
1776815466943851500,2.5898515625,-73.6748046875,71.03639221191406,-56.54490661621094
1776815466953945300,2.5999453125,-73.64251708984375,70.82710266113281,-56.8736572265625
1776815466964039400,2.610039306640625,-73.96351623535156,70.70518493652344,-57.16412353515625
1776815466974133500,2.620133544921875,-73.78567504882812,70.87118530273438,-57.81269836425781
1776815466984227300,2.630227294921875,-73.98616027832031,70.79046630859375,-57.80792236328125
1776815466994322200,2.640322265625,-74.74923706054688,70.79995727539062,-58.641571044921875
1776815467004415500,2.65041552734375,-74.26411437988281,70.59683227539062,-59.128021240234375
1776815467014509300,2.66050927734375,-74.47306823730469,70.82127380371094,-59.751861572265625
1776815467024604400,2.6706044921875,-74.44390869140625,70.79766845703125,-60.28816223144531
1776815467034698500,2.680698486328125,-74.42330932617188,70.99813842773438,-60.49241638183594
1776815467044792300,2.690792236328125,-74.21726989746094,70.9635009765625,-61.101318359375
1776815467054878700,2.700878662109375,-74.1783447265625,70.99226379394531,-61.578460693359375
1776815467064971800,2.7109716796875,-74.20394897460938,70.80116271972656,-61.95060729980469
1776815467075063800,2.721063720703125,-73.76554870605469,70.81072998046875,-62.297454833984375
1776815467085157600,2.73115771484375,-74.02255249023438,70.92950439453125,-62.42735290527344
1776815467095250700,2.741250732421875,-73.88835144042969,71.02964782714844,-62.63703918457031
1776815467105344800,2.7513447265625,-74.0423583984375,70.97474670410156,-62.71795654296875
1776815467115439600,2.761439697265625,-73.94461059570312,71.1728515625,-62.85218811035156
1776815467125533700,2.77153369140625,-73.69915771484375,71.17887878417969,-63.012420654296875
1776815467135627800,2.781627685546875,-73.781982421875,71.16241455078125,-63.120452880859375
1776815467145716700,2.791716796875,-73.57492065429688,70.99114990234375,-63.322235107421875
1776815467155816400,2.80181640625,-73.44293212890625,71.10055541992188,-63.63819885253906
1776815467165911600,2.81191162109375,-72.99836730957031,70.9317626953125,-63.90647888183594
1776815467176006700,2.822006591796875,-72.96670532226562,70.98789978027344,-63.91255187988281
1776815467186097700,2.83209765625,-73.30540466308594,70.98298645019531,-64.82051086425781
1776815467196197600,2.84219775390625,-73.4224853515625,70.41789245605469,-65.50160217285156
1776815467206290700,2.852290771484375,-73.60923767089844,70.28846740722656,-65.82142639160156
1776815467216381400,2.86238134765625,-73.71546936035156,70.21963500976562,-66.097900390625
1776815467226475800,2.872475830078125,-73.9669189453125,70.12435913085938,-66.19915771484375
1776815467236573700,2.88257373046875,-74.12005615234375,69.54931640625,-66.44422912597656
1776815467246667500,2.89266748046875,-74.07917785644531,69.51123046875,-66.62136840820312
1776815467256757800,2.9027578125,-74.29443359375,69.72860717773438,-66.80429077148438
1776815467266856700,2.912856689453125,-74.16024780273438,69.69633483886719,-66.86759948730469
1776815467276951600,2.92295166015625,-73.68913269042969,69.78141784667969,-66.89956665039062
1776815467287046700,2.933046630859375,-73.77362060546875,69.50045776367188,-66.91783142089844
1776815467297135600,2.943135498046875,-73.61883544921875,69.99183654785156,-66.92350769042969
1776815467307235800,2.95323583984375,-73.37559509277344,70.018310546875,-67.00259399414062
1776815467317325600,2.96332568359375,-72.49172973632812,70.36244201660156,-66.98103332519531
1776815467327419600,2.973419677734375,-72.97105407714844,70.08180236816406,-67.16571044921875
1776815467337517800,2.983517822265625,-72.72994995117188,70.29734802246094,-67.19483947753906
1776815467347610600,2.993610595703125,-72.1844482421875,70.36259460449219,-67.23420715332031
1776815467357703700,3.00370361328125,-71.73002624511719,70.32345581054688,-67.27223205566406
1776815467367797500,3.013797607421875,-71.16729736328125,70.36785888671875,-66.96929931640625
1776815467377889500,3.0238896484375,-71.22825622558594,70.7340087890625,-67.27687072753906
1776815467387982600,3.033982666015625,-70.90242004394531,70.80535888671875,-67.5372314453125
1776815467398076700,3.04407666015625,-70.94096374511719,70.98056030273438,-67.80345153808594
1776815467408170800,3.054170654296875,-71.21324157714844,70.6429443359375,-67.85333251953125
1776815467418264600,3.0642646484375,-71.31982421875,70.32424926757812,-67.66975402832031
1776815467428359700,3.074359619140625,-71.73721313476562,70.26423645019531,-67.8699951171875
1776815467438453800,3.084453857421875,-71.61512756347656,70.39356994628906,-67.83352661132812
1776815467448543500,3.09454345703125,-71.52830505371094,70.06076049804688,-67.60362243652344
1776815467458643700,3.104643798828125,-71.61294555664062,70.60964965820312,-67.70510864257812
1776815467468737500,3.114737548828125,-71.30790710449219,70.63397216796875,-67.5311279296875
1776815467478831900,3.124831787109375,-71.20448303222656,70.46607971191406,-67.27435302734375
1776815467488926700,3.1349267578125,-71.31297302246094,70.64195251464844,-67.26112365722656
1776815467499015700,3.145015625,-70.73643493652344,70.74656677246094,-67.29585266113281
1776815467509115600,3.15511572265625,-70.28700256347656,70.74533081054688,-67.26856994628906
1776815467519210500,3.16521044921875,-70.4195556640625,70.81922912597656,-67.34574890136719
1776815467529304800,3.175304931640625,-70.2135009765625,70.65626525878906,-67.39427185058594
1776815467539398700,3.185398681640625,-70.41000366210938,71.00772094726562,-67.54013061523438
1776815467549493500,3.195493408203125,-69.88162231445312,70.72569274902344,-67.51438903808594
1776815467559586800,3.2055869140625,-69.39895629882812,70.81732177734375,-67.49064636230469
1776815467569680600,3.2156806640625,-69.71788024902344,70.8924560546875,-67.82223510742188
1776815467579775500,3.225775390625,-69.46861267089844,70.86740112304688,-67.8233642578125
1776815467589868500,3.23586865234375,-69.28228759765625,70.99803161621094,-67.91348266601562
1776815467599962600,3.245962646484375,-69.39567565917969,71.12480163574219,-67.99766540527344
1776815467610056700,3.256056640625,-68.97479248046875,70.99533081054688,-67.92268371582031
1776815467620151800,3.26615185546875,-68.96440124511719,71.00408935546875,-68.23930358886719
1776815467630245600,3.27624560546875,-69.40565490722656,70.86506652832031,-68.28306579589844
1776815467640338700,3.286338623046875,-69.66224670410156,70.62394714355469,-68.62680053710938
1776815467650432500,3.2964326171875,-70.16781616210938,70.57450866699219,-68.59759521484375
1776815467660526800,3.30652685546875,-70.06486511230469,70.36256408691406,-68.8575439453125
1776815467670620700,3.31662060546875,-70.27734375,70.00604248046875,-69.17610168457031
1776815467680714500,3.326714599609375,-71.10743713378906,70.02793884277344,-69.26075744628906
1776815467690808800,3.336808837890625,-71.38670349121094,69.70352172851562,-69.48469543457031
1776815467700902700,3.346902587890625,-71.35740661621094,69.80033874511719,-69.49818420410156
1776815467710997500,3.35699755859375,-71.39082336425781,69.79151916503906,-69.74473571777344
1776815467721091800,3.367091796875,-71.58155822753906,69.72998046875,-69.8096923828125
1776815467731184600,3.3771845703125,-71.72923278808594,69.76651000976562,-69.90605163574219
1776815467741277700,3.387277587890625,-71.63594055175781,69.66293334960938,-70.15235900878906
1776815467751371500,3.39737158203125,-70.99937438964844,69.57321166992188,-69.98007202148438
1776815467761465600,3.407465576171875,-71.64776611328125,69.5299072265625,-70.43153381347656
1776815467771559700,3.4175595703125,-71.49235534667969,69.49215698242188,-70.60211181640625
1776815467781652700,3.42765283203125,-71.43211364746094,69.51429748535156,-70.7633056640625
1776815467791746600,3.43774658203125,-71.63603210449219,69.03935241699219,-70.93281555175781
1776815467801841700,3.447841552734375,-71.67549133300781,68.94023132324219,-71.0504150390625
1776815467811934700,3.457934814453125,-72.14154052734375,68.95359802246094,-71.42449951171875
1776815467822028500,3.468028564453125,-72.416748046875,68.77262878417969,-71.35453796386719
1776815467832122600,3.47812255859375,-72.60391235351562,68.66641235351562,-71.50794982910156
1776815467842216700,3.488216796875,-72.66682434082031,68.72064208984375,-71.68171691894531
1776815467852310800,3.498310791015625,-71.92341613769531,68.54025268554688,-71.86201477050781
1776815467862403600,3.508403564453125,-72.7095947265625,68.38505554199219,-72.18856811523438
1776815467872498700,3.518498779296875,-72.66200256347656,68.14793395996094,-72.35929870605469
1776815467882592800,3.5285927734375,-72.56526184082031,68.24319458007812,-72.17469787597656
1776815467892686600,3.5386865234375,-72.53753662109375,68.16996765136719,-72.09565734863281
1776815467902775800,3.54877587890625,-72.6722412109375,68.16029357910156,-72.17105102539062
1776815467912870700,3.55887060546875,-72.79838562011719,68.11558532714844,-71.91969299316406
1776815467922969600,3.568969482421875,-73.00955200195312,68.0516357421875,-71.73854064941406
1776815467933059600,3.5790595703125,-72.74150085449219,68.28190612792969,-71.47169494628906
1776815467943157800,3.58915771484375,-72.00315856933594,68.25149536132812,-71.29608154296875
1776815467953250600,3.59925048828125,-72.22128295898438,68.30331420898438,-71.30943298339844
1776815467963344600,3.6093447265625,-72.06674194335938,68.28799438476562,-71.3709716796875
1776815467973437400,3.6194375,-71.76095581054688,68.37733459472656,-71.19873046875
1776815467983530800,3.62953076171875,-71.40756225585938,68.68641662597656,-71.24905395507812
1776815467993623800,3.639623779296875,-71.7158203125,68.64131164550781,-71.29515075683594
1776815468003716600,3.649716552734375,-71.59355163574219,68.423583984375,-71.33522033691406
1776815468013806600,3.659806640625,-71.23457336425781,68.42912292480469,-71.58915710449219
1776815468023905800,3.66990576171875,-71.55984497070312,68.15885925292969,-71.9033203125
1776815468034000600,3.680000732421875,-71.44949340820312,67.771484375,-72.29991149902344
1776815468044094500,3.690094482421875,-71.5294189453125,67.72723388671875,-72.80409240722656
1776815468054189300,3.700189208984375,-71.68516540527344,67.45162963867188,-73.27542114257812
1776815468064283100,3.710283203125,-71.53912353515625,67.34164428710938,-73.702880859375
1776815468074376200,3.720376220703125,-71.28187561035156,67.35530090332031,-74.22114562988281
1776815468084470300,3.73047021484375,-71.06855773925781,66.87918090820312,-74.3883056640625
1776815468094564000,3.740564208984375,-71.18742370605469,66.54519653320312,-75.05296325683594
1776815468104653000,3.750653076171875,-71.22767639160156,66.382080078125,-75.47555541992188
1776815468114752000,3.760751953125,-71.33067321777344,66.29818725585938,-75.7724609375
1776815468124846300,3.770846435546875,-71.36094665527344,66.16744995117188,-76.20632934570312
1776815468134941200,3.780941162109375,-71.28593444824219,65.82273864746094,-76.22445678710938
1776815468145036300,3.791036376953125,-71.02973937988281,65.68038940429688,-76.92683410644531
1776815468155131100,3.801131103515625,-71.431640625,65.28369140625,-77.04171752929688
1776815468165225200,3.81122509765625,-71.15010070800781,65.1702880859375,-77.35786437988281
1776815468175320000,3.821320068359375,-71.11538696289062,65.06367492675781,-77.33125305175781
1776815468185414100,3.8314140625,-70.58282470703125,65.05439758300781,-77.63462829589844
1776815468195507000,3.8415068359375,-70.58491516113281,64.88328552246094,-78.09004211425781
1776815468205601300,3.851601318359375,-70.4993896484375,65.00131225585938,-78.13455200195312
1776815468215695000,3.861695068359375,-70.09481811523438,64.986083984375,-78.25733947753906
1776815468225784000,3.8717841796875,-70.09913635253906,64.89097595214844,-78.25059509277344
1776815468235885000,3.881885009765625,-69.65426635742188,64.95140075683594,-78.28865051269531
1776815468245976300,3.891976318359375,-69.95304870605469,65.05162048339844,-78.11198425292969
1776815468256072000,3.902072021484375,-69.82716369628906,65.15806579589844,-78.16740417480469
1776815468266171100,3.912171142578125,-69.59234619140625,64.86869812011719,-77.97312927246094
1776815468276267000,3.92226708984375,-69.69291687011719,65.08045959472656,-77.92835998535156
1776815468286358000,3.93235791015625,-69.13359069824219,65.023193359375,-77.99855041503906
1776815468296459300,3.942459228515625,-69.603759765625,65.152587890625,-78.26832580566406
1776815468306553000,3.952552978515625,-69.4891357421875,65.066162109375,-78.45376586914062
1776815468316648200,3.962648193359375,-69.45867919921875,64.88180541992188,-78.24702453613281
1776815468326742300,3.9727421875,-69.11930847167969,65.04420471191406,-78.28384399414062
1776815468336838100,3.982838134765625,-69.10552978515625,64.97453308105469,-78.53147888183594
1776815468346934000,3.99293408203125,-69.27899169921875,64.82679748535156,-78.45620727539062
1776815468357029000,4.003029052734375,-69.57829284667969,64.93476867675781,-78.66427612304688
1776815468367123200,4.013123291015625,-69.23516845703125,64.82606506347656,-78.54768371582031
1776815468377218300,4.02321826171875,-68.98384094238281,64.76469421386719,-78.66738891601562
1776815468387314200,4.033314208984375,-69.38157653808594,64.81512451171875,-78.64862060546875
1776815468397409300,4.0434091796875,-68.94389343261719,64.55831909179688,-78.78227233886719
1776815468407500300,4.053500244140625,-69.1134033203125,64.72064208984375,-78.83879089355469
1776815468417599200,4.06359912109375,-69.0665283203125,64.75509643554688,-78.98200988769531
1776815468427694000,4.073694091796875,-69.09573364257812,64.56272888183594,-79.01304626464844
1776815468437790200,4.083790283203125,-69.1756591796875,64.59408569335938,-79.15792846679688
1776815468447885300,4.09388525390625,-68.63099670410156,64.66987609863281,-79.27920532226562
1776815468457980200,4.103980224609375,-68.78958129882812,64.62046813964844,-79.24131774902344
1776815468468077000,4.1140771484375,-68.66075134277344,64.45263671875,-79.37345886230469
1776815468478172200,4.124172119140625,-68.7149658203125,64.46183776855469,-79.60588073730469
1776815468488267300,4.134267333984375,-68.6507568359375,64.45693969726562,-79.50643920898438
1776815468498363100,4.144363037109375,-68.57955932617188,64.400634765625,-79.6365966796875
1776815468508458200,4.154458251953125,-68.48966979980469,64.41055297851562,-79.66453552246094
1776815468518550300,4.16455029296875,-68.42720031738281,64.43345642089844,-79.38064575195312
1776815468528651300,4.1746513671875,-68.54296875,64.20651245117188,-79.7379150390625
1776815468538742000,4.184741943359375,-68.95899963378906,64.266357421875,-79.64474487304688
1776815468548843300,4.19484326171875,-68.75950622558594,64.39778137207031,-79.76351928710938
1776815468558935000,4.20493505859375,-68.41635131835938,64.27717590332031,-79.66331481933594
1776815468569036300,4.215036376953125,-68.4676513671875,64.40367126464844,-79.65524291992188
1776815468579132200,4.225132080078125,-68.84822082519531,64.13188171386719,-79.55329895019531
1776815468589227300,4.235227294921875,-69.03662109375,64.3819580078125,-79.61305236816406
1776815468599323400,4.245323486328125,-68.89044189453125,64.41810607910156,-79.41436767578125
1776815468609419000,4.2554189453125,-68.97447204589844,64.67411804199219,-79.17454528808594
1776815468619516200,4.26551611328125,-69.27421569824219,64.35296630859375,-79.20457458496094
1776815468629608200,4.275608154296875,-69.28329467773438,64.46054077148438,-79.09469604492188
1776815468639709200,4.285709228515625,-69.39485168457031,64.58297729492188,-79.20399475097656
1776815468649805000,4.29580517578125,-69.394287109375,64.56100463867188,-78.98558044433594
1776815468659896000,4.30589599609375,-69.40895080566406,64.66560363769531,-78.78724670410156
1776815468669992200,4.3159921875,-69.5592041015625,64.6826171875,-78.88841247558594
1776815468680088000,4.326088134765625,-69.62773132324219,64.85282897949219,-78.82456970214844
1776815468690188300,4.336188232421875,-69.3084716796875,64.92216491699219,-78.767822265625
1776815468700283100,4.346283203125,-69.24464416503906,64.73831176757812,-78.70236206054688
1776815468710378200,4.356378173828125,-69.47218322753906,64.55949401855469,-78.65316772460938
1776815468720473000,4.36647314453125,-69.76318359375,64.65182495117188,-78.76730346679688
1776815468730568200,4.376568115234375,-69.64485168457031,64.79350280761719,-78.73040771484375
1776815468740663000,4.3866630859375,-69.5484619140625,64.57244873046875,-78.55799865722656
1776815468750757000,4.396757080078125,-69.68183898925781,64.78892517089844,-78.56951904296875
1776815468760852200,4.406852294921875,-69.64111328125,64.59957885742188,-78.50543212890625
1776815468770947300,4.416947265625,-69.90615844726562,64.71804809570312,-78.49830627441406
1776815468781041200,4.427041259765625,-69.86810302734375,64.63410949707031,-78.54331970214844
1776815468791135000,4.437135009765625,-70.10220336914062,64.42352294921875,-78.624267578125
1776815468801230000,4.44722998046875,-69.74606323242188,64.78485107421875,-78.47830200195312
1776815468811325200,4.4573251953125,-70.0037841796875,64.56144714355469,-78.65411376953125
1776815468821421000,4.467421142578125,-70.06460571289062,64.57411193847656,-78.576904296875
1776815468831517200,4.47751708984375,-69.84013366699219,64.52030944824219,-78.6121826171875
1776815468841607200,4.487607177734375,-70.00103759765625,64.70333862304688,-78.5528564453125
1776815468851708200,4.497708251953125,-70.0286865234375,64.54527282714844,-78.28945922851562
1776815468861803000,4.507802978515625,-70.06977844238281,64.64762878417969,-78.58702087402344
1776815468871898000,4.517898193359375,-69.72392272949219,64.703369140625,-78.57180786132812
1776815468881994200,4.527994140625,-69.83692932128906,64.52560424804688,-78.614990234375
1776815468892089000,4.538089111328125,-69.85687255859375,64.74647521972656,-78.70933532714844
1776815468902184200,4.54818408203125,-69.61669921875,64.58444213867188,-78.29193115234375
1776815468912279000,4.558279052734375,-69.85285949707031,64.45426940917969,-78.50726318359375
1776815468922373000,4.568373046875,-69.93606567382812,64.67306518554688,-78.46455383300781
1776815468932466200,4.578466064453125,-69.88343811035156,64.549072265625,-78.52711486816406
1776815468942561000,4.58856103515625,-69.7060546875,64.79595947265625,-78.64096069335938
1776815468952655000,4.598655029296875,-69.60087585449219,64.91738891601562,-78.42326354980469
1776815468962749200,4.608749267578125,-69.85939025878906,64.63980102539062,-78.5128173828125
1776815468972843300,4.61884326171875,-70.01156616210938,64.51054382324219,-78.55099487304688
1776815468982938000,4.628938232421875,-69.97683715820312,64.57530212402344,-78.45367431640625
1776815468993033200,4.639033203125,-69.73773193359375,64.50143432617188,-78.27937316894531
1776815469003128000,4.649128173828125,-70.03031921386719,64.60664367675781,-78.60847473144531
1776815469013222100,4.65922216796875,-69.85299682617188,64.60743713378906,-78.36634826660156
1776815469023317000,4.66931689453125,-70.32115173339844,64.48039245605469,-78.38829040527344
1776815469033412000,4.679412109375,-69.91950988769531,64.67416381835938,-78.40530395507812
1776815469043507200,4.689507080078125,-69.65592956542969,64.72355651855469,-78.23677062988281
1776815469053606000,4.69960595703125,-70.21952819824219,64.38041687011719,-78.40730285644531
1776815469063700000,4.709699951171875,-70.21922302246094,64.66537475585938,-78.4049072265625
1776815469073794800,4.719794921875,-70.42935180664062,64.59739685058594,-78.31455993652344
1776815469083889000,4.729888916015625,-70.24909973144531,64.43293762207031,-78.23226928710938
1776815469093984000,4.73998388671875,-70.09417724609375,64.73580932617188,-78.17498779296875
1776815469104077800,4.750077880859375,-70.07856750488281,64.52281188964844,-78.25111389160156
1776815469114172000,4.760171875,-70.23556518554688,64.50192260742188,-78.29957580566406
1776815469124265000,4.770264892578125,-70.20501708984375,64.60848999023438,-78.100830078125
1776815469134355000,4.78035498046875,-70.61691284179688,64.56742858886719,-78.26071166992188
1776815469144455000,4.790454833984375,-70.87861633300781,64.64404296875,-78.43731689453125
1776815469154551000,4.800551025390625,-70.83674621582031,64.65872192382812,-78.24748229980469
1776815469164644900,4.810644775390625,-70.74493408203125,64.68748474121094,-78.26057434082031
1776815469174739700,4.82073974609375,-70.76596069335938,64.4686279296875,-78.28460693359375
1776815469184835800,4.8308359375,-70.68156433105469,64.62776184082031,-78.15000915527344
1776815469194932000,4.840931884765625,-70.89639282226562,64.34776306152344,-78.17529296875
1776815469205027800,4.85102783203125,-70.713134765625,64.44544982910156,-78.25750732421875
1776815469215124000,4.8611240234375,-70.67926025390625,64.41873168945312,-78.20962524414062
1776815469225219800,4.8712197265625,-71.06036376953125,64.20384216308594,-78.03720092773438
1776815469235310800,4.881310791015625,-71.14454650878906,64.28717041015625,-78.10342407226562
1776815469245407000,4.891406982421875,-71.02799987792969,64.26084899902344,-78.24382019042969
1776815469255502800,4.9015029296875,-71.62374877929688,64.29753112792969,-78.19802856445312
1776815469265604000,4.91160400390625,-71.30654907226562,64.38777160644531,-78.07481384277344
1776815469275699000,4.921698974609375,-71.28170776367188,64.30720520019531,-78.09869384765625
1776815469285789000,4.931788818359375,-71.39140319824219,64.25836181640625,-77.96568298339844
1776815469295890700,4.941890625,-71.58064270019531,64.42437744140625,-78.27081298828125
1776815469305985000,4.951985107421875,-71.3458251953125,64.40751647949219,-78.271484375
1776815469316078800,4.962078857421875,-71.64582824707031,64.26950073242188,-78.36712646484375
1776815469326167800,4.972167724609375,-71.79351806640625,64.23237609863281,-78.3209228515625
1776815469336268800,4.982268798828125,-71.90512084960938,63.94990539550781,-78.00828552246094
1776815469346357800,4.992357666015625,-71.85519409179688,64.17582702636719,-78.23825073242188
1776815469356459000,5.002458984375,-71.51533508300781,64.3319091796875,-78.12394714355469
1776815469366555000,5.012554931640625,-72.0101318359375,64.14840698242188,-78.18405151367188
1776815469376650000,5.02264990234375,-71.67625427246094,64.12649536132812,-78.10688781738281
1776815469386744000,5.032744140625,-71.90353393554688,63.99894714355469,-78.2667236328125
1776815469396833800,5.042833740234375,-72.14456176757812,63.980010986328125,-78.29190063476562
1776815469406932700,5.0529326171875,-72.1722412109375,64.10978698730469,-78.38307189941406
1776815469417027800,5.06302783203125,-71.90664672851562,63.89398193359375,-78.35394287109375
1776815469427124000,5.0731240234375,-71.95811462402344,63.847747802734375,-78.27337646484375
1776815469437218800,5.08321875,-72.48065185546875,63.92225646972656,-78.21598815917969
1776815469447313000,5.09331298828125,-72.15769958496094,63.76817321777344,-78.37055969238281
1776815469457408000,5.103407958984375,-72.39593505859375,63.43147277832031,-78.36929321289062
1776815469467504000,5.113504150390625,-72.15365600585938,63.490020751953125,-78.21684265136719
1776815469477599000,5.123598876953125,-72.36410522460938,63.50244140625,-78.190185546875
1776815469487690000,5.13368994140625,-72.50045776367188,63.52613830566406,-78.20840454101562
1776815469497790000,5.1437900390625,-72.4884033203125,63.76231384277344,-78.427001953125
1776815469507884000,5.153884033203125,-72.57041931152344,63.53202819824219,-78.27566528320312
1776815469517980000,5.16397998046875,-72.93589782714844,63.179779052734375,-78.28761291503906
1776815469528075000,5.174074951171875,-72.84014892578125,63.36944580078125,-78.35215759277344
1776815469538172000,5.184171875,-73.21598815917969,63.12461853027344,-78.28016662597656
1776815469548262000,5.194261962890625,-73.66926574707031,63.06549072265625,-78.37110900878906
1776815469558363000,5.20436279296875,-73.97727966308594,62.71534729003906,-78.45419311523438
1776815469568458800,5.214458740234375,-74.39292907714844,62.42173767089844,-78.30772399902344
1776815469578549000,5.224549072265625,-74.7177734375,62.25347900390625,-78.46669006347656
1776815469588644900,5.234644775390625,-75.42971801757812,61.9864501953125,-78.46528625488281
1776815469598747100,5.2447470703125,-75.50242614746094,61.823211669921875,-78.37020874023438
1776815469608841000,5.254841064453125,-76.3095703125,61.70892333984375,-78.38496398925781
1776815469618933000,5.26493310546875,-76.52897644042969,61.338653564453125,-77.97821044921875
1776815469629030000,5.27502978515625,-77.19851684570312,61.11024475097656,-78.20936584472656
1776815469639132000,5.2851318359375,-77.60145568847656,60.73443603515625,-77.98748779296875
1776815469649223700,5.2952236328125,-78.00517272949219,60.60896301269531,-77.88877868652344
1776815469659319000,5.305319091796875,-78.40867614746094,60.44697570800781,-77.74577331542969
1776815469669414000,5.315413818359375,-78.7747802734375,60.12574768066406,-77.58767700195312
1776815469679516000,5.325515869140625,-78.62579345703125,59.95855712890625,-77.70158386230469
1776815469689611000,5.335611083984375,-79.25694274902344,59.90596008300781,-77.67790222167969
1776815469699705900,5.345705810546875,-79.45980834960938,59.839202880859375,-77.47697448730469
1776815469709802000,5.355802001953125,-79.174072265625,59.744903564453125,-77.65296936035156
1776815469719894000,5.36589404296875,-79.20851135253906,59.560638427734375,-77.57730102539062
1776815469729993700,5.37599365234375,-78.96479797363281,59.77708435058594,-77.60417175292969
1776815469740089900,5.38608984375,-78.92192077636719,59.70118713378906,-77.73573303222656
1776815469750186000,5.39618603515625,-78.83706665039062,59.98918151855469,-78.02978515625
1776815469760281900,5.40628173828125,-78.62213134765625,59.977874755859375,-77.88681030273438
1776815469770377000,5.416376953125,-78.22666931152344,60.277252197265625,-78.15695190429688
1776815469780471800,5.426471923828125,-78.2359619140625,60.4595947265625,-78.3212890625
1776815469790566000,5.43656591796875,-77.62428283691406,60.65278625488281,-78.55499267578125
1776815469800660700,5.44666064453125,-77.19921875,60.478302001953125,-78.2847900390625
1776815469810751000,5.4567509765625,-76.55563354492188,60.79179382324219,-78.39662170410156
1776815469820846800,5.466846923828125,-76.56100463867188,60.97554016113281,-78.63134765625
1776815469830943700,5.47694384765625,-76.251220703125,60.94657897949219,-78.54373168945312
1776815469841041000,5.487041015625,-75.82539367675781,61.499114990234375,-78.7091064453125
1776815469851138800,5.497138916015625,-75.30271911621094,61.464324951171875,-78.53375244140625
1776815469861240800,5.50724072265625,-75.14599609375,61.68647766113281,-78.47781372070312
1776815469871334000,5.517333984375,-74.72093200683594,61.89671325683594,-78.46992492675781
1776815469881437000,5.52743701171875,-74.59754943847656,62.34474182128906,-78.38116455078125
1776815469891533800,5.537533935546875,-74.55003356933594,62.35174560546875,-78.3353271484375
1776815469901631000,5.547630859375,-74.43406677246094,62.64361572265625,-78.13954162597656
1776815469911727900,5.557727783203125,-74.12420654296875,62.4359130859375,-78.088134765625
1776815469921820000,5.56781982421875,-74.05874633789062,62.69105529785156,-78.3143310546875
1776815469931923000,5.5779228515625,-73.90531921386719,62.641632080078125,-78.11314392089844
1776815469942015000,5.588014892578125,-73.83091735839844,62.63075256347656,-78.068359375
1776815469952113000,5.59811279296875,-73.41468811035156,62.580322265625,-77.96990966796875
1776815469962210800,5.6082109375,-73.65364074707031,62.737335205078125,-78.17292785644531
1776815469972313900,5.61831396484375,-73.54924011230469,62.46977233886719,-78.09262084960938
1776815469982411000,5.628410888671875,-73.60160827636719,62.5628662109375,-78.08245849609375
1776815469992508000,5.6385078125,-73.67831420898438,62.84300231933594,-78.14434814453125
1776815470002600000,5.648599853515625,-73.52891540527344,62.83155822753906,-77.71469116210938
1776815470012702000,5.658701904296875,-73.64971923828125,63.09501647949219,-77.94319152832031
1776815470022797800,5.6687978515625,-73.38810729980469,62.92982482910156,-77.90435791015625
1776815470032893000,5.678892822265625,-73.23112487792969,63.28462219238281,-77.95706176757812
1776815470042985000,5.68898486328125,-73.17431640625,63.136383056640625,-77.8685302734375
1776815470053085700,5.699085693359375,-72.8797607421875,63.32861328125,-77.66714477539062
1776815470063177500,5.709177490234375,-73.18928527832031,63.55503845214844,-77.9036865234375
1776815470073274600,5.719274658203125,-72.75784301757812,63.250457763671875,-77.91810607910156
1776815470083365400,5.729365478515625,-72.11614990234375,63.330718994140625,-78.00839233398438
1776815470093461500,5.73946142578125,-71.98442077636719,63.57603454589844,-77.9327392578125
1776815470103559400,5.749559326171875,-71.92567443847656,63.599945068359375,-78.06207275390625
1776815470113655600,5.759655517578125,-71.70143127441406,63.648834228515625,-78.34599304199219
1776815470123754500,5.76975439453125,-71.55259704589844,63.52091979980469,-78.25382995605469
1776815470133844700,5.7798447265625,-71.52717590332031,63.401275634765625,-78.48541259765625
1776815470143943400,5.789943359375,-71.17304992675781,63.62687683105469,-78.40287780761719
1776815470154038500,5.80003857421875,-71.02290344238281,63.63395690917969,-78.78901672363281
1776815470164134400,5.810134521484375,-70.96833801269531,63.73570251464844,-78.85311889648438
1776815470174228500,5.820228515625,-70.71124267578125,63.50035095214844,-78.83537292480469
1776815470184319500,5.830319580078125,-70.51333618164062,63.69374084472656,-79.05769348144531
1776815470194419700,5.840419677734375,-70.35978698730469,63.933380126953125,-78.95057678222656
1776815470204515600,5.850515625,-70.73872375488281,63.591644287109375,-78.9132080078125
1776815470214611500,5.860611572265625,-70.91357421875,63.994476318359375,-79.04719543457031
1776815470224705500,5.87070556640625,-70.79861450195312,63.662139892578125,-78.66477966308594
1776815470234800600,5.880800537109375,-71.49801635742188,63.66117858886719,-78.72529602050781
1776815470244896800,5.890896728515625,-71.18150329589844,63.70906066894531,-78.47454833984375
1776815470254991600,5.90099169921875,-71.56915283203125,63.59352111816406,-78.51904296875
1776815470265086700,5.911086669921875,-71.76982116699219,63.39202880859375,-78.40074157714844
1776815470275180500,5.9211806640625,-72.22479248046875,63.39714050292969,-78.238525390625
1776815470285275400,5.931275390625,-72.58865356445312,63.35943603515625,-78.33488464355469
1776815470295371500,5.94137158203125,-72.94078063964844,63.098297119140625,-78.03213500976562
1776815470305466600,5.951466552734375,-72.83763122558594,63.01750183105469,-77.98680114746094
1776815470315557400,5.961557373046875,-73.58474731445312,62.72047424316406,-78.00236511230469
1776815470325652500,5.971652587890625,-73.64659118652344,62.717529296875,-77.9248046875
1776815470335754800,5.981754638671875,-73.60206604003906,62.808990478515625,-77.87956237792969
1776815470345850400,5.991850341796875,-73.82456970214844,62.39079284667969,-77.76028442382812
1776815470355945500,6.001945556640625,-74.18266296386719,62.528839111328125,-77.99632263183594
1776815470366040600,6.01204052734375,-74.23930358886719,62.13519287109375,-77.76234436035156
1776815470376136400,6.022136474609375,-74.62113952636719,62.244049072265625,-77.97444152832031
1776815470386231300,6.032231201171875,-74.18634033203125,61.99591064453125,-77.59518432617188
1776815470396326700,6.04232666015625,-75.14315795898438,61.87968444824219,-77.7301025390625
1776815470406421500,6.05242138671875,-75.37457275390625,61.44891357421875,-77.81045532226562
1776815470416516600,6.0625166015625,-75.50852966308594,61.463714599609375,-77.91909790039062
1776815470426611500,6.072611572265625,-75.85479736328125,61.12525939941406,-78.00390625
1776815470436706600,6.08270654296875,-76.21853637695312,61.00157165527344,-77.98405456542969
1776815470446801400,6.092801513671875,-76.48638916015625,60.75248718261719,-77.96676635742188
1776815470456897500,6.1028974609375,-76.78874206542969,60.61036682128906,-77.88113403320312
1776815470466993700,6.11299365234375,-77.02984619140625,60.31394958496094,-77.98591613769531
1776815470477088500,6.123088623046875,-77.18486022949219,60.1885986328125,-77.83804321289062
1776815470487183600,6.13318359375,-77.70916748046875,59.84217834472656,-77.81163024902344
1776815470497278500,6.143278564453125,-77.78176879882812,59.56005859375,-77.78962707519531
1776815470507372500,6.15337255859375,-78.36465454101562,59.48048400878906,-77.72406005859375
1776815470517467400,6.16346728515625,-78.86021423339844,59.02796936035156,-77.58297729492188
1776815470527563500,6.1735634765625,-79.10954284667969,58.783599853515625,-77.19407653808594
1776815470537654500,6.183654541015625,-79.81385803222656,58.70109558105469,-77.08187866210938
1776815470547755500,6.193755615234375,-80.38371276855469,58.371551513671875,-77.06788635253906
1776815470557846500,6.203846435546875,-80.80680847167969,58.107208251953125,-76.62811279296875
1776815470567947500,6.213947509765625,-81.3660888671875,57.861297607421875,-76.19343566894531
1776815470578043400,6.22404345703125,-81.77932739257812,57.63069152832031,-75.51513671875
1776815470588139500,6.234139404296875,-82.63362121582031,57.357330322265625,-75.14755249023438
1776815470598234600,6.244234619140625,-82.98246765136719,57.16233825683594,-74.91067504882812
1776815470608330500,6.25433056640625,-83.24876403808594,57.11564636230469,-74.44482421875
1776815470618426600,6.264426513671875,-83.61543273925781,56.68165588378906,-73.97294616699219
1776815470628522800,6.274522705078125,-84.42729187011719,56.30073547363281,-73.53135681152344
1776815470638618400,6.284618408203125,-84.66049194335938,55.90013122558594,-73.29804992675781
1776815470648708600,6.29470849609375,-85.2646484375,55.59326171875,-72.99688720703125
1776815470658810600,6.304810546875,-85.78880310058594,55.0408935546875,-72.89102172851562
1776815470668906500,6.314906494140625,-86.26113891601562,54.52973937988281,-72.70797729492188
1776815470678997500,6.32499755859375,-86.51185607910156,54.02738952636719,-72.61468505859375
1776815470689098500,6.335098388671875,-87.2706298828125,53.56736755371094,-72.40693664550781
1776815470699193600,6.345193603515625,-87.7054443359375,53.02098083496094,-72.06365966796875
1776815470709284600,6.35528466796875,-88.1114501953125,52.413055419921875,-72.02633666992188
1776815470719386600,6.36538671875,-88.25706481933594,51.69682312011719,-71.81784057617188
1776815470729477600,6.3754775390625,-88.32154846191406,51.13328552246094,-71.74107360839844
1776815470739577600,6.38557763671875,-89.40231323242188,50.363616943359375,-71.68177795410156
1776815470749673700,6.395673828125,-89.70867919921875,49.676300048828125,-71.73536682128906
1776815470759768600,6.4057685546875,-90.08013916015625,48.872344970703125,-71.44789123535156
1776815470769863700,6.41586376953125,-90.28207397460938,48.47731018066406,-71.28057861328125
1776815470779960600,6.425960693359375,-90.48220825195312,47.84934997558594,-71.28636169433594
1776815470790051600,6.436051513671875,-90.68568420410156,46.98223876953125,-71.14382934570312
1776815470800152600,6.446152587890625,-90.837890625,46.58021545410156,-71.141357421875
1776815470810247400,6.456247314453125,-91.13716125488281,45.78816223144531,-71.26455688476562
1776815470820344600,6.466344482421875,-91.39187622070312,45.02561950683594,-71.1937255859375
1776815470830435600,6.476435546875,-91.84268188476562,44.51405334472656,-71.04969787597656
1776815470840537600,6.48653759765625,-91.90110778808594,43.655853271484375,-71.07150268554688
1776815470850629600,6.496629638671875,-92.37686157226562,43.005767822265625,-71.10205078125
1776815470860725800,6.506725830078125,-92.14321899414062,42.0831298828125,-70.75595092773438
1776815470870820600,6.516820556640625,-92.50823974609375,41.40303039550781,-70.73934936523438
1776815470880921600,6.526921630859375,-92.63015747070312,41.05357360839844,-70.85169982910156
1776815470891011600,6.537011474609375,-92.52568054199219,40.09458923339844,-70.76004028320312
1776815470901112600,6.547112548828125,-92.64796447753906,39.521484375,-70.92027282714844
1776815470911204600,6.55720458984375,-92.44837951660156,38.8768310546875,-70.63514709472656
1776815470921300700,6.56730078125,-92.56724548339844,38.24293518066406,-70.91334533691406
1776815470931397400,6.5773974609375,-92.51071166992188,37.33735656738281,-70.80061340332031
1776815470941499400,6.58749951171875,-92.66033935546875,36.58311462402344,-70.80989074707031
1776815470951595500,6.597595458984375,-92.56471252441406,36.20344543457031,-70.91407775878906
1776815470961691600,6.607691650390625,-92.04666137695312,35.53089904785156,-70.82435607910156
1776815470971787500,6.61778759765625,-92.65084838867188,35.047882080078125,-70.87510681152344
1776815470981883600,6.627883544921875,-92.73628234863281,34.33964538574219,-70.929931640625
1776815470991978800,6.637978759765625,-92.52769470214844,33.90321350097656,-70.99398803710938
1776815471002075400,6.648075439453125,-92.61781311035156,33.3173828125,-70.92282104492188
1776815471012172500,6.658172607421875,-92.35807800292969,32.91070556640625,-70.91323852539062
1776815471022268400,6.668268310546875,-92.25590515136719,32.392578125,-70.87106323242188
1776815471032364500,6.678364501953125,-92.3765869140625,31.900436401367188,-70.86361694335938
1776815471042455600,6.68845556640625,-92.16575622558594,31.365081787109375,-70.89332580566406
1776815471052557600,6.6985576171875,-92.12141418457031,30.735763549804688,-70.67826843261719
1776815471062653200,6.708653076171875,-92.08232116699219,30.512985229492188,-70.88272094726562
1776815471072745200,6.7187451171875,-91.78396606445312,30.18536376953125,-70.88682556152344
1776815471082846500,6.728846435546875,-91.87321472167969,29.809371948242188,-70.96510314941406
1776815471092942300,6.7389423828125,-91.82270812988281,29.483901977539062,-70.98747253417969
1776815471103037400,6.749037353515625,-91.53608703613281,29.37640380859375,-70.83712768554688
1776815471113134300,6.75913427734375,-91.66226196289062,29.121414184570312,-71.13798522949219
1776815471123229200,6.769229248046875,-91.89654541015625,28.845916748046875,-70.9833984375
1776815471133326300,6.779326416015625,-91.67343139648438,28.9571533203125,-71.28334045410156
1776815471143422500,6.78942236328125,-91.6094970703125,28.621795654296875,-70.98323059082031
1776815471153519400,6.799519287109375,-91.469482421875,28.342025756835938,-70.98756408691406
1776815471163614200,6.8096142578125,-91.47158813476562,28.315460205078125,-71.05947875976562
1776815471173710300,6.81971044921875,-91.56202697753906,28.158370971679688,-70.94783020019531
1776815471183805200,6.82980517578125,-91.57167053222656,27.993743896484375,-70.91374206542969
1776815471193900300,6.839900390625,-91.46253967285156,27.942642211914062,-70.96122741699219
1776815471203989200,6.8499892578125,-91.4266357421875,28.13262939453125,-70.95849609375
1776815471214090200,6.86009033203125,-91.44476318359375,28.026229858398438,-71.08251953125
1776815471224186000,6.87018603515625,-91.29023742675781,28.15380859375,-70.93415832519531
1776815471234282200,6.8802822265625,-91.46842956542969,28.009475708007812,-70.9561767578125
1776815471244379400,6.89037939453125,-91.49124145507812,28.169204711914062,-70.78836059570312
1776815471254471400,6.900471435546875,-91.7508544921875,28.409286499023438,-70.79489135742188
1776815471264573400,6.910573486328125,-91.70906066894531,28.252685546875,-70.6983642578125
1776815471274667300,6.920667236328125,-91.73965454101562,28.745529174804688,-70.7100830078125
1776815471284763400,6.930763427734375,-91.53657531738281,28.7672119140625,-70.5399169921875
1776815471294859300,6.940859375,-91.4757080078125,29.245223999023438,-70.50808715820312
1776815471304951300,6.950951416015625,-91.7567138671875,29.356399536132812,-70.70896911621094
1776815471315047200,6.961047119140625,-91.77767944335938,29.590499877929688,-70.63276672363281
1776815471325149200,6.971149169921875,-92.06025695800781,29.951644897460938,-70.50651550292969
1776815471335245300,6.981245361328125,-92.04672241210938,30.487380981445312,-70.55606079101562
1776815471345340200,6.991340087890625,-91.90455627441406,30.622024536132812,-70.39411926269531
1776815471355436300,7.001436279296875,-92.12356567382812,31.247772216796875,-70.67660522460938
1776815471365531100,7.01153125,-92.22181701660156,31.555099487304688,-70.39805603027344
1776815471375622400,7.021622314453125,-91.87675476074219,32.17047119140625,-70.62823486328125
1776815471385722400,7.031722412109375,-91.98013305664062,32.57881164550781,-70.54815673828125
1776815471395816400,7.04181640625,-91.92303466796875,32.927093505859375,-70.46604919433594
1776815471405910300,7.05191015625,-92.04124450683594,33.83502197265625,-70.54510498046875
1776815471416005400,7.06200537109375,-92.08599853515625,33.98529052734375,-70.62203979492188
1776815471426099200,7.07209912109375,-92.050537109375,34.39530944824219,-70.47837829589844
1776815471436193300,7.082193359375,-92.10343933105469,35.322113037109375,-70.45947265625
1776815471446286000,7.0922861328125,-92.07369995117188,36.0296630859375,-70.57510375976562
1776815471456379100,7.102379150390625,-91.99232482910156,36.366363525390625,-70.45890808105469
1776815471466474200,7.11247412109375,-91.87423706054688,36.94981384277344,-70.33918762207031
1776815471476568300,7.122568359375,-91.76460266113281,37.66429138183594,-70.28742980957031
1776815471486661000,7.1326611328125,-91.52473449707031,38.3258056640625,-70.20626831054688
1776815471496756200,7.142756103515625,-91.93696594238281,39.03363037109375,-70.33114624023438
1776815471506851000,7.15285107421875,-91.8702392578125,39.88861083984375,-70.38307189941406
1776815471516946400,7.162946533203125,-92.00949096679688,40.547088623046875,-70.31819152832031
1776815471527041300,7.173041259765625,-91.82600402832031,41.28437805175781,-70.29428100585938
1776815471537135400,7.18313525390625,-91.90567016601562,41.75932312011719,-70.06648254394531
1776815471547231200,7.193231201171875,-91.65798950195312,42.38395690917969,-70.26753234863281
1776815471557325300,7.2033251953125,-91.61967468261719,43.29084777832031,-70.45408630371094
1776815471567420200,7.213420166015625,-91.31678771972656,43.80082702636719,-70.05172729492188
1776815471577515300,7.223515380859375,-91.22007751464844,44.43560791015625,-70.11378479003906
1776815471587609300,7.233609375,-90.75894165039062,45.06285095214844,-70.20838928222656
1776815471597704200,7.2437041015625,-90.60957336425781,45.640777587890625,-70.35153198242188
1776815471607799300,7.25379931640625,-90.31971740722656,46.30021667480469,-70.71946716308594
1776815471617890300,7.263890380859375,-90.17283630371094,46.64176940917969,-70.82904052734375
1776815471627985200,7.273985107421875,-89.60380554199219,47.202392578125,-70.8218994140625
1776815471638084000,7.284083984375,-89.53392028808594,47.686431884765625,-71.15383911132812
1776815471648178400,7.294178466796875,-89.59213256835938,48.24824523925781,-71.39189147949219
1776815471658273300,7.304273193359375,-89.06082153320312,48.63713073730469,-71.46121215820312
1776815471668369400,7.314369384765625,-88.66542053222656,49.346221923828125,-71.6312255859375
1776815471678460400,7.32446044921875,-88.34202575683594,49.74931335449219,-71.59188842773438
1776815471688561200,7.33456103515625,-88.3348388671875,50.271728515625,-71.96572875976562
1776815471698652200,7.344652099609375,-88.33407592773438,51.01316833496094,-72.16793823242188
1776815471708752400,7.35475244140625,-87.72927856445312,51.1734619140625,-72.32940673828125
1776815471718847200,7.36484716796875,-87.45542907714844,51.5771484375,-72.47050476074219
1776815471728943400,7.374943359375,-87.3206787109375,52.01512145996094,-72.86399841308594
1776815471739039200,7.385039306640625,-87.22225952148438,52.39402770996094,-73.11090087890625
1776815471749134300,7.39513427734375,-86.64334106445312,52.63323974609375,-73.20903015136719
1776815471759231200,7.405231201171875,-86.54568481445312,52.84767150878906,-73.48243713378906
1776815471769327400,7.415327392578125,-86.00700378417969,53.38676452636719,-73.75885009765625
1776815471779424300,7.42542431640625,-85.87358093261719,53.89817810058594,-74.10409545898438
1776815471789516300,7.435516357421875,-85.39561462402344,53.91094970703125,-74.18501281738281
1776815471799617300,7.4456171875,-85.38737487792969,54.493194580078125,-74.27705383300781
1776815471809714400,7.45571435546875,-84.54405212402344,54.8800048828125,-74.63967895507812
1776815471819804200,7.46580419921875,-83.86601257324219,55.40452575683594,-74.80426025390625
1776815471829900300,7.475900390625,-83.78349304199219,55.64349365234375,-75.23468017578125
1776815471839996400,7.485996337890625,-82.98092651367188,56.03681945800781,-75.3870849609375
1776815471850091300,7.49609130859375,-82.77369689941406,56.67987060546875,-75.69903564453125
1776815471860187400,7.5061875,-82.55908203125,56.939422607421875,-75.64317321777344
1776815471870282200,7.5162822265625,-82.00016784667969,57.57832336425781,-75.85282897949219
1776815471880382200,7.52638232421875,-81.8201904296875,57.70098876953125,-76.09861755371094
1776815471890472200,7.53647216796875,-81.42379760742188,58.22846984863281,-76.40805053710938
1776815471900572400,7.546572509765625,-80.98127746582031,58.42411804199219,-76.25323486328125
1776815471910663400,7.556663330078125,-80.40858459472656,59.05352783203125,-76.66183471679688
1776815471920758300,7.56675830078125,-79.95161437988281,59.26347351074219,-76.78160095214844
1776815471930854400,7.5768544921875,-79.5611572265625,59.549163818359375,-77.03382873535156
1776815471940950300,7.5869501953125,-78.98384094238281,60.07415771484375,-77.06707763671875
1776815471951050200,7.59705029296875,-78.41293334960938,60.09333801269531,-77.26669311523438
1776815471961145300,7.607145263671875,-77.97196960449219,60.442901611328125,-77.36676025390625
1776815471971236400,7.617236328125,-77.45951843261719,60.74339294433594,-77.64100646972656
1776815471981331500,7.62733154296875,-76.52297973632812,61.28627014160156,-77.67124938964844
1776815471991431200,7.63743115234375,-76.0245361328125,61.32698059082031,-77.91081237792969
1776815472001521400,7.647521484375,-75.74977111816406,61.45039367675781,-78.38954162597656
1776815472011616300,7.6576162109375,-75.18014526367188,61.762115478515625,-78.49627685546875
1776815472021713200,7.667713134765625,-74.54214477539062,61.751739501953125,-78.7635498046875
1776815472031813400,7.6778134765625,-74.71823120117188,61.929351806640625,-79.11221313476562
1776815472041904000,7.687904052734375,-74.18914794921875,61.873992919921875,-79.14808654785156
1776815472052000300,7.698000244140625,-73.90632629394531,62.10545349121094,-79.23529052734375
1776815472062102300,7.708102294921875,-73.50042724609375,62.24116516113281,-79.10009765625
1776815472072194000,7.718194091796875,-73.24275207519531,62.23565673828125,-79.361083984375
1776815472082297000,7.728297119140625,-73.29679870605469,62.402801513671875,-79.48934936523438
1776815472092389000,7.73838916015625,-72.87355041503906,62.37294006347656,-79.47433471679688
1776815472102487000,7.748487060546875,-72.87467956542969,62.43804931640625,-79.25648498535156
1776815472112583200,7.758583251953125,-72.56298828125,62.69252014160156,-79.32273864746094
1776815472122680000,7.76868017578125,-72.16055297851562,62.784637451171875,-79.60990905761719
1776815472132776200,7.778776123046875,-72.19644165039062,62.40501403808594,-79.44525146484375
1776815472142878200,7.788878173828125,-72.03678894042969,62.76702880859375,-79.57481384277344
1776815472152974000,7.79897412109375,-71.9962158203125,62.728424072265625,-79.46968078613281
1776815472163069200,7.809069091796875,-72.03121948242188,62.69622802734375,-79.59120178222656
1776815472173164000,7.8191640625,-71.9248046875,62.648101806640625,-79.57820129394531
1776815472183260200,7.82926025390625,-71.55198669433594,62.590301513671875,-79.55441284179688
1776815472193354200,7.839354248046875,-71.75093078613281,62.709625244140625,-79.51852416992188
1776815472203449300,7.849449462890625,-71.06942749023438,62.75663757324219,-79.355224609375
1776815472213540400,7.859540283203125,-71.03619384765625,62.94441223144531,-79.67196655273438
1776815472223641000,7.86964111328125,-71.46484375,63.106964111328125,-79.6275634765625
1776815472233732000,7.879732177734375,-71.29765319824219,62.954986572265625,-79.65446472167969
1776815472243828200,7.889828125,-71.44743347167969,62.98793029785156,-79.66860961914062
1776815472253929200,7.89992919921875,-70.97927856445312,63.02116394042969,-79.55998229980469
1776815472264025000,7.910025146484375,-71.17092895507812,62.93992614746094,-79.74752807617188
1776815472274121200,7.920121337890625,-71.00225830078125,63.109344482421875,-79.69381713867188
1776815472284212200,7.930212158203125,-70.96249389648438,63.055694580078125,-79.77644348144531
1776815472294313200,7.940313232421875,-70.93821716308594,63.187530517578125,-79.73275756835938
1776815472304404200,7.950404296875,-70.94291687011719,63.34193420410156,-79.59580993652344
1776815472314507300,7.96050732421875,-70.97343444824219,63.31117248535156,-79.61909484863281
1776815472324604200,7.970604248046875,-70.93270874023438,63.258544921875,-79.54026794433594
1776815472334696200,7.9806962890625,-70.90907287597656,63.35017395019531,-79.6256103515625
1776815472344792000,7.9907919921875,-70.61312866210938,63.56776428222656,-79.60151672363281
1776815472354893300,8.000893310546875,-70.8551025390625,63.348541259765625,-79.57011413574219
1776815472364990200,8.010990234375,-71.04946899414062,63.321807861328125,-79.61265563964844
1776815472375082200,8.021082275390626,-71.21086120605469,63.15312194824219,-79.4349365234375
1776815472385183000,8.031182861328125,-71.32093811035156,63.28691101074219,-79.40452575683594
1776815472395274200,8.041274169921875,-71.35488891601562,63.58287048339844,-79.2183837890625
1776815472405376300,8.051376220703125,-71.17948913574219,63.69441223144531,-79.21168518066406
1776815472415467300,8.06146728515625,-71.23362731933594,63.527374267578125,-79.27374267578125
1776815472425567200,8.071567138671876,-71.35403442382812,63.473236083984375,-79.14179992675781
1776815472435663000,8.0816630859375,-71.23690795898438,63.64324951171875,-79.19166564941406
1776815472445758200,8.09175830078125,-70.88926696777344,63.83399963378906,-78.88978576660156
1776815472455852300,8.101852294921875,-71.08033752441406,63.69596862792969,-79.24411010742188
1776815472465947100,8.111947021484376,-71.19076538085938,63.569427490234375,-79.26325988769531
1776815472476041200,8.122041259765625,-71.22366333007812,63.445831298828125,-79.20011901855469
1776815472486135300,8.13213525390625,-71.16865539550781,63.509002685546875,-79.08396911621094
1776815472496229000,8.14222900390625,-71.50112915039062,63.5401611328125,-79.32002258300781
1776815472506324200,8.15232421875,-71.26443481445312,63.753143310546875,-79.36131286621094
1776815472516418300,8.162418212890625,-71.72393798828125,63.538330078125,-79.24139404296875
1776815472526513200,8.17251318359375,-71.45242309570312,63.30891418457031,-79.00900268554688
1776815472536607200,8.182607177734376,-71.50679016113281,63.299102783203125,-78.81391906738281
1776815472546697200,8.192697265625,-71.60140991210938,63.38310241699219,-79.27409362792969
1776815472556797200,8.202797119140625,-71.55909729003906,63.735504150390625,-79.12539672851562
1776815472566891300,8.212891357421874,-71.87673950195312,63.559051513671875,-79.00375366210938
1776815472576986400,8.222986328125,-72.127197265625,63.470458984375,-78.83929443359375
1776815472587080200,8.233080078125,-71.87664794921875,63.4371337890625,-78.39138793945312
1776815472597175000,8.243175048828125,-72.05172729492188,63.466796875,-78.67135620117188
1776815472607268000,8.25326806640625,-72.62777709960938,63.45759582519531,-78.61634826660156
1776815472617363200,8.26336328125,-72.724609375,63.34906005859375,-78.57174682617188
1776815472627459300,8.273459228515625,-72.86953735351562,63.2041015625,-78.41343688964844
1776815472637554200,8.28355419921875,-72.64530944824219,63.30781555175781,-78.39566040039062
1776815472647648000,8.29364794921875,-73.13632202148438,63.113037109375,-78.45579528808594
1776815472657743000,8.3037431640625,-73.39157104492188,63.03688049316406,-78.38140869140625
1776815472667837200,8.313837158203125,-73.36460876464844,62.84870910644531,-78.34963989257812
1776815472677931300,8.32393115234375,-73.45408630371094,62.697845458984375,-78.23512268066406
1776815472688026000,8.334026123046876,-73.24519348144531,63.0479736328125,-78.32856750488281
1776815472698121200,8.344121337890625,-73.54655456542969,63.13041687011719,-78.34414672851562
1776815472708216000,8.354216064453125,-73.5048828125,63.028533935546875,-78.40744018554688
1776815472718311400,8.3643115234375,-73.45233154296875,62.97627258300781,-78.42372131347656
1776815472728402200,8.374402099609375,-73.4166259765625,62.73095703125,-78.14961242675781
1776815472738502100,8.384502197265626,-73.45040893554688,62.6497802734375,-78.42465209960938
1776815472748598000,8.394597900390625,-73.4105224609375,62.72505187988281,-78.13958740234375
1776815472758694100,8.404694091796875,-73.38865661621094,62.86723327636719,-78.39352416992188
1776815472768789200,8.414789306640625,-73.23614501953125,62.79388427734375,-78.46382141113281
1776815472778879200,8.424879150390625,-72.92599487304688,62.965789794921875,-78.29147338867188
1776815472788979200,8.434979248046876,-73.29132080078125,62.69148254394531,-78.38546752929688
1776815472799069200,8.445069091796874,-73.19429016113281,62.699005126953125,-78.53077697753906
1776815472809168100,8.455168212890625,-72.86761474609375,62.69548034667969,-78.63273620605469
1776815472819262200,8.46526220703125,-73.3702392578125,62.89353942871094,-78.486083984375
1776815472829357000,8.475357177734375,-73.10533142089844,63.201324462890625,-78.43962097167969
1776815472839451400,8.485451416015625,-73.20753479003906,62.82945251464844,-78.47114562988281
1776815472849545200,8.495545166015624,-72.98858642578125,62.90135192871094,-78.58961486816406
1776815472859639000,8.50563916015625,-73.27976989746094,62.90312194824219,-78.68316650390625
1776815472869733000,8.515733154296875,-72.97189331054688,62.76678466796875,-78.44052124023438
1776815472879827200,8.5258271484375,-72.88763427734375,63.07991027832031,-78.58139038085938
1776815472889921300,8.53592138671875,-73.10580444335938,62.99037170410156,-78.54765319824219
1776815472900015000,8.54601513671875,-73.34422302246094,62.98439025878906,-78.61994934082031
1776815472910109200,8.556109130859374,-73.32026672363281,62.79981994628906,-78.53768920898438
1776815472920203300,8.566203369140625,-73.05378723144531,62.71467590332031,-78.50947570800781
1776815472930297000,8.576297119140625,-73.11116027832031,62.89207458496094,-78.55461120605469
1776815472940392200,8.58639208984375,-73.04751586914062,62.72613525390625,-78.65214538574219
1776815472950487000,8.596487060546876,-73.449462890625,62.964599609375,-78.5625
1776815472960577300,8.606577392578124,-73.4349365234375,63.047210693359375,-78.58219909667969
1776815472970673200,8.616673095703124,-73.32907104492188,62.90806579589844,-78.27886962890625
1776815472980773000,8.626773193359375,-73.35476684570312,62.83384704589844,-78.48164367675781
1776815472990869200,8.636869140625,-73.47549438476562,62.67857360839844,-78.45120239257812
1776815473000963300,8.64696337890625,-73.56707763671875,62.89277648925781,-78.55630493164062
1776815473011057200,8.65705712890625,-73.41632080078125,62.97821044921875,-78.49000549316406
1776815473021152300,8.66715234375,-73.5069580078125,62.7021484375,-78.20658874511719
1776815473031248100,8.677248046875,-73.34071350097656,62.71434020996094,-78.32173156738281
1776815473041344300,8.68734423828125,-73.394287109375,63.065704345703125,-78.43218994140625
1776815473051435300,8.697435302734375,-73.36305236816406,62.91203308105469,-78.47744750976562
1776815473061534700,8.70753466796875,-73.53300476074219,62.93861389160156,-78.42933654785156
1776815473071629800,8.7176298828125,-73.17669677734375,62.98675537109375,-78.42791748046875
1776815473081724700,8.727724609375,-73.6275634765625,62.826202392578125,-78.38693237304688
1776815473091816700,8.737816650390625,-73.64410400390625,63.07023620605469,-78.43267822265625
1776815473101918700,8.747918701171875,-73.70529174804688,62.911834716796875,-78.55218505859375
1776815473112010800,8.7580107421875,-73.3712158203125,63.10026550292969,-78.52532958984375
1776815473122109700,8.768109619140626,-73.39457702636719,62.75474548339844,-78.5299072265625
1776815473132204800,8.778204833984375,-73.56689453125,63.15269470214844,-78.57101440429688
1776815473142295600,8.788295654296874,-73.09727478027344,62.952667236328125,-78.58589172363281
1776815473152391700,8.7983916015625,-73.40499877929688,62.94987487792969,-78.50547790527344
1776815473162487800,8.80848779296875,-73.22401428222656,62.68473815917969,-78.13714599609375
1776815473172587500,8.81858740234375,-73.51496887207031,62.929168701171875,-78.49418640136719
1776815473182683600,8.82868359375,-73.45965576171875,62.89012145996094,-78.61320495605469
1776815473192778500,8.838778564453126,-73.39756774902344,63.00862121582031,-78.67561340332031
1776815473202874600,8.84887451171875,-73.00494384765625,63.04359436035156,-78.52568054199219
1776815473212969700,8.8589697265625,-73.10942077636719,62.77922058105469,-78.59642028808594
1776815473223064600,8.869064697265625,-73.14004516601562,62.55308532714844,-78.65959167480469
1776815473233158700,8.87915869140625,-73.17095947265625,62.94087219238281,-78.96067810058594
1776815473243253800,8.889253662109375,-73.0882568359375,62.75367736816406,-78.75775146484375
1776815473253348600,8.8993486328125,-73.10525512695312,62.78489685058594,-78.82783508300781
1776815473263442700,8.909442626953124,-72.9840087890625,62.80712890625,-78.8045654296875
1776815473273536800,8.919536865234376,-72.96492004394531,62.71656799316406,-78.84062194824219
1776815473283631900,8.9296318359375,-73.14732360839844,62.77848815917969,-78.98936462402344
1776815473293726700,8.939726806640625,-72.98057556152344,62.58796691894531,-78.77513122558594
1776815473303820500,8.949820556640624,-72.89710998535156,62.868560791015625,-78.630126953125
1776815473313915000,8.959914794921875,-73.02818298339844,62.638214111328125,-78.83509826660156
1776815473324008700,8.9700087890625,-72.82118225097656,62.75775146484375,-78.80307006835938
1776815473334103600,8.980103515625,-73.03665161132812,62.607147216796875,-78.78347778320312
1776815473344198700,8.99019873046875,-72.98175048828125,62.636077880859375,-78.888671875
1776815473354294800,9.000294677734376,-72.66709899902344,62.71659851074219,-78.63241577148438
1776815473364389600,9.0103896484375,-72.96148681640625,62.75990295410156,-78.716064453125
1776815473374483700,9.020483642578125,-73.28849792480469,62.48150634765625,-78.66246032714844
1776815473384577800,9.030577880859376,-73.27882385253906,62.52777099609375,-78.75205993652344
1776815473394671600,9.040671630859375,-73.42326354980469,62.16712951660156,-78.78199768066406
1776815473404766700,9.0507666015625,-73.55601501464844,62.34104919433594,-78.66705322265625
1776815473414861600,9.060861572265624,-74.02442932128906,62.40397644042969,-78.74935913085938
1776815473424957700,9.070957763671874,-74.00010681152344,62.268585205078125,-78.73750305175781
1776815473435051800,9.0810517578125,-74.04052734375,62.19105529785156,-78.61116027832031
1776815473445147000,9.09114697265625,-74.42543029785156,61.91130065917969,-78.54844665527344
1776815473455240700,9.10124072265625,-74.74159240722656,61.60380554199219,-78.53941345214844
1776815473465333800,9.111333740234375,-74.98347473144531,61.68341064453125,-78.4075927734375
1776815473475427600,9.121427490234375,-75.40750122070312,61.3453369140625,-78.54035949707031
1776815473485522700,9.131522705078124,-75.99156188964844,61.1729736328125,-78.28749084472656
1776815473495617500,9.141617431640626,-76.36495971679688,61.2950439453125,-78.14002990722656
1776815473505713700,9.151713623046875,-76.96200561523438,60.74308776855469,-78.02372741699219
1776815473515809800,9.161809814453125,-77.17205810546875,60.214111328125,-77.92869567871094
1776815473525901800,9.17190185546875,-77.29991149902344,60.094207763671875,-77.96099853515625
1776815473536002600,9.18200244140625,-78.3095703125,59.34977722167969,-77.93441772460938
1776815473546094600,9.192094482421876,-78.95840454101562,59.30924987792969,-77.62969970703125
1776815473556189700,9.202189697265625,-79.40478515625,58.77455139160156,-77.67694091796875
1776815473566289700,9.21228955078125,-80.02507019042969,58.47627258300781,-77.36892700195312
1776815473576384800,9.222384765625,-80.44398498535156,58.11915588378906,-77.24446105957031
1776815473586475500,9.2324755859375,-80.95166015625,58.069671630859375,-77.22161865234375
1776815473596570600,9.242570556640626,-81.37466430664062,57.59040832519531,-76.70445251464844
1776815473606666800,9.252666748046876,-82.15367126464844,57.18199157714844,-76.43156433105469
1776815473616767700,9.262767822265625,-82.09132385253906,57.00096130371094,-76.25131225585938
1776815473626861800,9.27286181640625,-83.15788269042969,56.731353759765625,-75.85386657714844
1776815473636956700,9.282956787109375,-83.37239074707031,56.45245361328125,-75.47134399414062
1776815473647047700,9.293047607421874,-84.05557250976562,56.13038635253906,-75.10360717773438
1776815473657143600,9.3031435546875,-84.33357238769531,55.86439514160156,-74.65602111816406
1776815473667244800,9.313244873046875,-84.62278747558594,55.1473388671875,-74.14491271972656
1776815473677340000,9.32333984375,-85.24623107910156,54.98811340332031,-73.88607788085938
1776815473687435500,9.333435546875,-85.63209533691406,54.658660888671875,-73.19013977050781
1776815473697526800,9.34352685546875,-86.28793334960938,54.18998718261719,-72.93594360351562
1776815473707627800,9.353627685546876,-86.88880920410156,53.768646240234375,-72.68785095214844
1776815473717723600,9.3637236328125,-87.08111572265625,53.4918212890625,-72.4149169921875
1776815473727817700,9.373817626953125,-87.9051513671875,52.80201721191406,-72.05718994140625
1776815473737913600,9.38391357421875,-87.9482421875,52.461273193359375,-71.94636535644531
1776815473748007700,9.394007568359376,-88.27806091308594,52.07496643066406,-71.83113098144531
1776815473758103600,9.404103515625,-88.55830383300781,51.49555969238281,-71.55126953125
1776815473768193800,9.41419384765625,-88.80216979980469,50.95060729980469,-71.41702270507812
1776815473778295800,9.4242958984375,-89.09257507324219,50.16694641113281,-71.4774169921875
1776815473788385500,9.434385498046876,-89.33174133300781,49.657989501953125,-71.38894653320312
1776815473798487600,9.444487548828125,-89.90435791015625,48.99992370605469,-71.19265747070312
1776815473808578800,9.454578857421875,-90.00546264648438,48.453948974609375,-71.22489929199219
1776815473818679800,9.4646796875,-90.5469970703125,47.77210998535156,-71.15309143066406
1776815473828770600,9.4747705078125,-90.64842224121094,47.2056884765625,-70.90869140625
1776815473838865700,9.48486572265625,-90.74272155761719,46.297607421875,-70.8477783203125
1776815473848961500,9.49496142578125,-90.9412841796875,45.594879150390625,-70.96107482910156
1776815473859057700,9.5050576171875,-91.13287353515625,45.125091552734375,-71.03475952148438
1776815473869154800,9.51515478515625,-91.3055419921875,44.274688720703125,-70.88711547851562
1776815473879254800,9.5252548828125,-91.49996948242188,43.54473876953125,-70.57249450683594
1776815473889350700,9.5353505859375,-91.7845458984375,42.98838806152344,-70.64360046386719
1776815473899445800,9.54544580078125,-91.69898986816406,42.25450134277344,-70.68441772460938
1776815473909539600,9.55553955078125,-91.82945251464844,41.568206787109375,-70.74665832519531
1776815473919633700,9.565633544921875,-92.01406860351562,40.71832275390625,-70.7271728515625
1776815473929726700,9.575726806640626,-91.65956115722656,39.89790344238281,-70.48236083984375
1776815473939820800,9.58582080078125,-92.21633911132812,39.283203125,-70.77388000488281
1776815473949914600,9.59591455078125,-92.04783630371094,38.774444580078125,-70.70755004882812
1776815473960008700,9.6060087890625,-92.03712463378906,37.8931884765625,-70.72264099121094
1776815473970103800,9.616103759765625,-92.28837585449219,37.489410400390625,-70.63285827636719
1776815473980198700,9.62619873046875,-92.27569580078125,36.64799499511719,-70.74307250976562
1776815473990288600,9.63628857421875,-92.49591064453125,36.06349182128906,-70.58747863769531
1776815474000388600,9.646388671875,-92.42198181152344,35.65473937988281,-70.64395141601562
1776815474010482700,9.656482666015625,-92.52742004394531,34.73382568359375,-70.44148254394531
1776815474020576800,9.66657666015625,-92.48594665527344,34.308380126953125,-70.22999572753906
1776815474030669600,9.676669677734376,-92.37458801269531,33.690948486328125,-70.21977233886719
1776815474040765700,9.686765625,-92.31521606445312,33.290008544921875,-70.43266296386719
1776815474050856700,9.696856689453124,-92.49273681640625,32.477508544921875,-70.25019836425781
1776815474060957700,9.706957763671875,-91.92286682128906,32.08479309082031,-70.43495178222656
1776815474071052800,9.717052734375,-92.09329223632812,31.877685546875,-70.34771728515625
1776815474081148700,9.727148681640625,-92.54327392578125,31.374069213867188,-70.35420227050781
1776815474091244800,9.737244873046874,-92.19438171386719,30.860931396484375,-70.6165771484375
1776815474101334800,9.747334716796875,-92.27224731445312,30.420318603515625,-70.5367431640625
1776815474111432700,9.7574326171875,-92.17898559570312,30.002487182617188,-70.45732116699219
1776815474121529900,9.76752978515625,-92.02394104003906,29.85113525390625,-70.28981018066406
1776815474131630600,9.777630615234376,-91.85293579101562,29.41302490234375,-70.52088928222656
1776815474141726700,9.787726806640626,-91.899169921875,29.325897216796875,-70.83639526367188
1776815474151821600,9.797821533203125,-91.543212890625,29.29449462890625,-70.61695861816406
1776815474161912600,9.80791259765625,-91.79374694824219,29.116729736328125,-70.7607421875
1776815474172007700,9.818007568359375,-91.65223693847656,28.763153076171875,-70.61618041992188
1776815474182108700,9.828108642578124,-91.96221923828125,28.79656982421875,-70.73873901367188
1776815474192199700,9.83819970703125,-91.77088928222656,28.420547485351562,-70.52949523925781
1776815474202300700,9.84830078125,-91.76356506347656,28.510086059570312,-70.54655456542969
1776815474212395800,9.858395751953125,-92.02392578125,28.389205932617188,-70.32049560546875
1776815474222487800,9.86848779296875,-91.98478698730469,28.493240356445312,-70.49124145507812
1776815474232588800,9.8785888671875,-91.77056884765625,28.607192993164062,-70.61512756347656
1776815474242684700,9.8886845703125,-91.99932861328125,28.870437622070312,-70.54666137695312
1776815474252780800,9.89878076171875,-91.91105651855469,28.892852783203125,-70.38418579101562
1776815474262871800,9.908871826171875,-91.65216064453125,29.06793212890625,-69.99131774902344
1776815474272972500,9.91897265625,-91.81871032714844,29.031341552734375,-70.27285766601562
1776815474283067600,9.929067626953126,-92.19230651855469,29.40911865234375,-70.12188720703125
1776815474293162500,9.93916259765625,-92.32701110839844,29.892166137695312,-70.14561462402344
1776815474303256800,9.9492568359375,-92.22261047363281,30.0035400390625,-70.09954833984375
1776815474313350700,9.9593505859375,-92.21194458007812,30.492721557617188,-69.95370483398438
1776815474323445800,9.96944580078125,-92.70114135742188,30.659271240234375,-69.92701721191406
1776815474333541600,9.979541748046875,-92.39741516113281,31.024932861328125,-69.79898071289062
1776815474343637800,9.9896376953125,-92.39723205566406,31.563323974609375,-69.87849426269531
1776815474353732600,9.999732666015625,-92.77180480957031,31.6912841796875,-69.84294128417969
1776815474363822600,10.009822509765625,-92.75938415527344,32.40919494628906,-69.72731018066406
1776815474373919700,10.019919677734375,-92.69764709472656,33.15985107421875,-69.61817932128906
1776815474384019700,10.030019775390626,-92.92239379882812,33.40238952636719,-69.89030456542969
1776815474394114800,10.04011474609375,-93.03623962402344,34.218597412109375,-69.81172180175781
1776815474404209700,10.050209716796875,-93.06539916992188,34.81144714355469,-69.7471923828125
1776815474414304800,10.0603046875,-92.80496215820312,35.38200378417969,-69.70375061035156
1776815474424399600,10.070399658203126,-92.81730651855469,36.019378662109375,-69.57917785644531
1776815474434493700,10.08049365234375,-92.88290405273438,36.76631164550781,-69.72822570800781
1776815474444587800,10.090587890625,-92.924560546875,37.51356506347656,-69.7337646484375
1776815474454682600,10.1006826171875,-92.54588317871094,38.289154052734375,-69.56736755371094
1776815474464773600,10.110773681640625,-92.86181640625,38.85514831542969,-69.67903137207031
1776815474474870800,10.120870849609375,-92.64631652832031,39.64118957519531,-69.73504638671875
1776815474484971800,10.1309716796875,-92.87385559082031,40.17594909667969,-69.70770263671875
1776815474495062500,10.1410625,-92.64993286132812,40.96441650390625,-69.67216491699219
1776815474505158700,10.15115869140625,-92.18540954589844,41.50486755371094,-69.51545715332031
1776815474515253800,10.161253662109376,-92.274169921875,42.232391357421875,-69.68989562988281
1776815474525354500,10.1713544921875,-92.02320861816406,42.95549011230469,-69.64476013183594
1776815474535450600,10.18145068359375,-91.81317138671875,43.47383117675781,-69.6719970703125
1776815474545539600,10.19153955078125,-92.16122436523438,44.10658264160156,-69.58464050292969
1776815474555640600,10.201640625,-91.55007934570312,44.85804748535156,-69.67120361328125
1776815474565731800,10.21173193359375,-91.67355346679688,45.69337463378906,-69.83993530273438
1776815474575827700,10.22182763671875,-91.41108703613281,46.06095886230469,-69.66572570800781
1776815474585928700,10.2319287109375,-91.05384826660156,46.88429260253906,-69.73902893066406
1776815474596024800,10.24202490234375,-90.84687805175781,47.77264404296875,-69.88554382324219
1776815474606120700,10.25212060546875,-90.25132751464844,48.26393127441406,-69.66831970214844
1776815474616211700,10.262211669921875,-90.42878723144531,48.773162841796875,-69.97900390625
1776815474626306800,10.272306884765625,-89.95271301269531,49.36442565917969,-70.24357604980469
1776815474636406800,10.28240673828125,-89.48033142089844,49.85955810546875,-70.19651794433594
1776815474646500600,10.29250048828125,-89.31918334960938,50.52317810058594,-70.16128540039062
1776815474656592600,10.302592529296875,-89.21212768554688,51.128753662109375,-70.61236572265625
1776815474666685700,10.312685791015625,-88.72346496582031,51.64848327636719,-70.83306884765625
1776815474676779800,10.32277978515625,-88.56541442871094,51.95539855957031,-71.19033813476562
1776815474686871800,10.332871826171875,-87.99270629882812,52.599578857421875,-71.26051330566406
1776815474696964900,10.34296484375,-87.73033142089844,53.00373840332031,-71.411865234375
1776815474707059700,10.353059814453125,-87.30776977539062,53.40003967285156,-71.52540588378906
1776815474717153800,10.36315380859375,-87.197998046875,53.699371337890625,-72.06706237792969
1776815474727248600,10.37324853515625,-86.69267272949219,54.27638244628906,-72.47198486328125
1776815474737343700,10.38334375,-85.83554077148438,54.62213134765625,-72.71870422363281
1776815474747433700,10.393433837890624,-85.92774963378906,55.00555419921875,-73.05740356445312
1776815474757533700,10.40353369140625,-85.35276794433594,55.31681823730469,-73.31523132324219
1776815474767629600,10.413629638671875,-84.80734252929688,55.76707458496094,-73.89744567871094
1776815474777724700,10.423724609375,-84.2783203125,56.38897705078125,-74.30732727050781
1776815474787820800,10.43382080078125,-83.99842834472656,56.78007507324219,-74.37715148925781
1776815474797916700,10.443916748046876,-83.39208984375,57.06170654296875,-74.90328979492188
1776815474808011800,10.45401171875,-83.11286926269531,57.52772521972656,-75.13018798828125
1776815474818106600,10.464106689453125,-82.52114868164062,58.16419982910156,-75.56399536132812
1776815474828201700,10.47420166015625,-81.79852294921875,58.42396545410156,-75.84844970703125
1776815474838295800,10.4842958984375,-81.21766662597656,58.83720397949219,-76.02992248535156
1776815474848391000,10.494390869140625,-80.86106872558594,59.09230041503906,-76.3331298828125
1776815474858484700,10.504484619140625,-80.29475402832031,59.36210632324219,-76.71272277832031
1776815474868579600,10.51457958984375,-80.09292602539062,59.66973876953125,-76.92384338378906
1776815474878673700,10.524673583984375,-79.73800659179688,59.97352600097656,-77.22686767578125
1776815474888764700,10.5347646484375,-79.06163024902344,60.16593933105469,-77.16227722167969
1776815474898860800,10.54486083984375,-79.15687561035156,60.332122802734375,-77.40312194824219
1776815474908957700,10.554957763671876,-78.19233703613281,60.904815673828125,-77.639892578125
1776815474919053800,10.5650537109375,-77.65702819824219,61.12898254394531,-77.75570678710938
1776815474929155600,10.575155517578125,-77.45301818847656,61.472991943359375,-77.82742309570312
1776815474939246600,10.58524658203125,-76.79595947265625,61.26771545410156,-77.93009948730469
1776815474949346800,10.595346923828124,-76.33992004394531,61.644683837890625,-78.14976501464844
1776815474959441700,10.605441650390626,-75.981689453125,62.0635986328125,-78.46723937988281
1776815474969537800,10.615537841796876,-75.03169250488281,62.08050537109375,-78.19509887695312
1776815474979632600,10.625632568359375,-74.81517028808594,62.41484069824219,-78.11323547363281
1776815474989726700,10.635726806640625,-74.78529357910156,62.63232421875,-78.32914733886719
1776815474999821600,10.645821533203126,-74.41421508789062,62.655426025390625,-78.37046813964844
1776815475009915600,10.65591552734375,-74.08651733398438,62.906982421875,-78.41380310058594
1776815475020010800,10.6660107421875,-73.94302368164062,62.867431640625,-78.2088623046875
1776815475030105600,10.676105712890624,-73.59346008300781,62.96650695800781,-78.01190185546875
1776815475040199700,10.68619970703125,-73.74699401855469,63.08128356933594,-78.39588928222656
1776815475050288600,10.69628857421875,-73.46800231933594,63.162261962890625,-78.38299560546875
1776815475060388900,10.706388916015625,-73.28631591796875,63.08210754394531,-78.28985595703125
1776815475070483700,10.716483642578124,-73.41961669921875,63.01625061035156,-78.34748840332031
1776815475080578800,10.726578857421876,-73.15057373046875,63.106475830078125,-78.59640502929688
1776815475090673700,10.736673583984375,-72.87518310546875,62.975067138671875,-78.71450805664062
1776815475100768800,10.746768798828125,-72.81800842285156,63.00505065917969,-78.78871154785156
1776815475110865000,10.756864990234375,-72.968505859375,62.98805236816406,-78.95945739746094
1776815475120955600,10.76695556640625,-72.4781494140625,63.018798828125,-79.09681701660156
1776815475131051800,10.7770517578125,-72.14208984375,62.96571350097656,-79.22569274902344
1776815475141149000,10.78714892578125,-72.24264526367188,63.060272216796875,-79.45904541015625
1776815475151243800,10.797243896484375,-71.91778564453125,63.11822509765625,-79.44937133789062
1776815475161343000,10.807343017578125,-71.7481689453125,63.20640563964844,-79.42451477050781
1776815475171437800,10.817437744140625,-71.44477844238281,63.11228942871094,-79.40446472167969
1776815475181528800,10.82752880859375,-71.32710266113281,63.255462646484375,-79.63197326660156
1776815475191630800,10.837630859375,-70.94949340820312,63.453887939453125,-79.65960693359375
1776815475201720800,10.847720947265625,-70.86344909667969,63.34564208984375,-79.58892822265625
1776815475211821800,10.85782177734375,-70.91751098632812,63.605224609375,-79.63194274902344
1776815475221911600,10.86791162109375,-70.87348937988281,63.28179931640625,-79.31016540527344
1776815475232013800,10.878013916015625,-70.729248046875,63.3734130859375,-79.51214599609375
1776815475242102800,10.888102783203125,-71.00341796875,63.50624084472656,-79.46482849121094
1776815475252203800,10.898203857421874,-71.30915832519531,63.34910583496094,-79.27412414550781
1776815475262293800,10.908293701171875,-71.20359802246094,63.62208557128906,-79.445556640625
1776815475272387800,10.918387939453124,-70.96499633789062,63.4854736328125,-79.03677368164062
1776815475282487800,10.92848779296875,-71.19837951660156,63.27748107910156,-79.130859375
1776815475292582700,10.938582763671874,-70.80091857910156,63.538726806640625,-79.24971008300781
1776815475302677800,10.948677734375,-71.304443359375,63.401611328125,-79.194091796875
1776815475312771800,10.958771728515625,-70.96270751953125,63.53092956542969,-78.98126220703125
1776815475322865000,10.968864990234374,-71.2086181640625,63.44073486328125,-78.97499084472656
1776815475332958700,10.978958740234376,-71.71157836914062,63.545654296875,-79.09501647949219
1776815475343053800,10.9890537109375,-71.50296020507812,63.74871826171875,-79.12289428710938
1776815475353147600,10.999147705078125,-71.49496459960938,63.68058776855469,-78.93156433105469
1776815475363236900,11.00923681640625,-71.43539428710938,63.38066101074219,-78.70198059082031
1776815475373331000,11.0193310546875,-71.63754272460938,63.29876708984375,-78.99104309082031
1776815475383430000,11.029429931640625,-71.75592041015625,63.541717529296875,-79.0426025390625
1776815475393525000,11.03952490234375,-71.79794311523438,63.42100524902344,-78.98805236816406
1776815475403618800,11.049618896484375,-71.7801513671875,63.54713439941406,-79.08256530761719
1776815475413712600,11.059712646484375,-70.97653198242188,63.4501953125,-78.80729675292969
1776815475423806700,11.069806640625,-71.57376098632812,63.51829528808594,-79.00563049316406
1776815475433896000,11.07989599609375,-71.64834594726562,63.409942626953125,-79.04629516601562
1776815475443995000,11.089994873046875,-71.4425048828125,63.421630859375,-79.10652160644531
1776815475454088700,11.100088623046876,-71.38723754882812,63.339111328125,-79.07618713378906
1776815475464178700,11.1101787109375,-70.94206237792969,63.45823669433594,-79.07676696777344
1776815475474272800,11.120272705078126,-70.98324584960938,63.577972412109375,-79.27963256835938
1776815475484366800,11.130366943359375,-71.13406372070312,63.67742919921875,-79.075927734375
1776815475494466800,11.140466796875,-71.18287658691406,63.61921691894531,-79.12142944335938
1776815475504556800,11.150556884765624,-70.92359924316406,63.340484619140625,-78.99125671386719
1776815475514656800,11.16065673828125,-71.16023254394531,63.468963623046875,-79.09591674804688
1776815475524750600,11.17075048828125,-71.22706604003906,63.569580078125,-79.05636596679688
1776815475534841900,11.180841796875,-71.42831420898438,63.48602294921875,-79.09002685546875
1776815475544937700,11.190937744140625,-71.00297546386719,63.65699768066406,-79.14019775390625
1776815475555036700,11.20103662109375,-70.90194702148438,63.35877990722656,-78.75128173828125
1776815475565131800,11.2111318359375,-71.04466247558594,63.297119140625,-79.02108764648438
1776815475575227000,11.221226806640624,-71.24514770507812,63.42915344238281,-78.99836730957031
1776815475585316900,11.23131689453125,-71.3798828125,63.38575744628906,-79.04579162597656
1776815475595417900,11.24141796875,-71.25016784667969,63.51686096191406,-79.01409912109375
1776815475605513000,11.251512939453125,-71.2423095703125,63.52787780761719,-78.96717834472656
1776815475615606800,11.261606689453124,-71.16915893554688,63.38291931152344,-79.00666809082031
1776815475625702000,11.271701904296876,-71.39964294433594,63.361297607421875,-78.98643493652344
1776815475635797800,11.2817978515625,-71.24172973632812,63.51655578613281,-78.97621154785156
1776815475645892900,11.291892822265625,-71.44871520996094,63.7152099609375,-79.08860778808594
1776815475655983600,11.301983642578126,-71.25265502929688,63.58750915527344,-78.84793090820312
1776815475666084900,11.3120849609375,-71.37135314941406,63.44525146484375,-78.83253479003906
1776815475676180700,11.3221806640625,-71.32815551757812,63.314727783203125,-78.97602844238281
1776815475686270700,11.332270751953125,-70.92291259765625,63.67573547363281,-79.02285766601562
1776815475696371700,11.342371826171876,-71.32406616210938,63.893402099609375,-79.0965576171875
1776815475706461700,11.352461669921874,-71.29638671875,63.59434509277344,-79.10762023925781
1776815475716562700,11.362562744140625,-71.04341125488281,63.68058776855469,-79.08320617675781
1776815475726657800,11.37265771484375,-71.10768127441406,63.751312255859375,-78.95610046386719
1776815475736751900,11.382751953125,-70.76019287109375,63.558074951171875,-79.04611206054688
1776815475746846700,11.3928466796875,-70.89247131347656,63.6954345703125,-78.75244140625
1776815475756936700,11.402936767578124,-71.14907836914062,63.31138610839844,-79.03263854980469
1776815475767036700,11.41303662109375,-71.14002990722656,63.5906982421875,-79.0225830078125
1776815475777132800,11.4231328125,-71.10006713867188,63.614288330078125,-79.07606506347656
1776815475787226600,11.4332265625,-71.23150634765625,63.59785461425781,-79.18624877929688
1776815475797321700,11.44332177734375,-70.65522766113281,63.60528564453125,-78.7847900390625
1776815475807412700,11.453412841796874,-71.17704772949219,63.65531921386719,-79.05491638183594
1776815475817506800,11.4635068359375,-71.3988037109375,63.60247802734375,-79.18865966796875
1776815475827603000,11.47360302734375,-71.21809387207031,63.560272216796875,-79.05848693847656
1776815475837705000,11.483705078125,-71.37721252441406,63.53776550292969,-79.06007385253906
1776815475847799800,11.4937998046875,-71.15463256835938,63.52540588378906,-79.053955078125
1776815475857896000,11.50389599609375,-71.20893859863281,63.58598327636719,-79.06074523925781
1776815475867991800,11.51399169921875,-70.77252197265625,63.35813903808594,-79.06272888183594
1776815475878082800,11.524082763671874,-71.21932983398438,63.54087829589844,-79.21562194824219
1776815475888178000,11.534177978515626,-70.73112487792969,63.57708740234375,-78.91854858398438
1776815475898276900,11.54427685546875,-71.27046203613281,63.70677185058594,-79.1304931640625
1776815475908370700,11.55437060546875,-71.00553894042969,63.614776611328125,-79.07260131835938
1776815475918465000,11.564465087890625,-71.07640075683594,63.82615661621094,-79.17489624023438
1776815475928558800,11.574558837890624,-70.92204284667969,63.76615905761719,-79.20602416992188
1776815475938648600,11.584648681640624,-70.98539733886719,63.61384582519531,-78.80180358886719
1776815475948748800,11.594748779296875,-70.72760009765625,63.49818420410156,-79.12242126464844
1776815475958838800,11.6048388671875,-70.68663024902344,63.667144775390625,-79.25106811523438
1776815475968939800,11.614939697265624,-70.88339233398438,63.65765380859375,-79.01666259765625
1776815475979035000,11.625034912109374,-71.10237121582031,63.85716247558594,-79.14340209960938
1776815475989130800,11.635130859375,-70.66777038574219,63.67095947265625,-79.025390625
1776815475999223800,11.645223876953125,-70.90350341796875,63.30345153808594,-79.05986022949219
1776815476009311700,11.655311767578125,-70.89289855957031,63.5518798828125,-79.11715698242188
1776815476019411700,11.66541162109375,-70.90763854980469,63.350189208984375,-79.24227905273438
1776815476029504800,11.6755048828125,-71.3758544921875,63.567779541015625,-79.04000854492188
1776815476039598600,11.6855986328125,-71.1575927734375,63.38665771484375,-79.10539245605469
1776815476049693700,11.695693603515625,-71.13676452636719,63.443756103515625,-79.27621459960938
1776815476059788800,11.705788818359375,-70.71990966796875,63.55220031738281,-79.079345703125
1776815476069884000,11.7158837890625,-70.55305480957031,63.56150817871094,-79.09747314453125
1776815476079979000,11.72597900390625,-70.51605224609375,63.63763427734375,-79.12278747558594
1776815476090078700,11.73607861328125,-70.91996765136719,63.57940673828125,-79.23583984375
1776815476100173800,11.746173828125,-70.94134521484375,63.461334228515625,-79.03276062011719
1776815476110263800,11.756263916015625,-70.77445983886719,63.6319580078125,-79.125
1776815476120363000,11.766363037109375,-70.82157897949219,63.47467041015625,-79.21353149414062
1776815476130453000,11.776452880859376,-70.699951171875,63.63580322265625,-78.72879028320312
1776815476140548900,11.786548828125,-71.04649353027344,63.6612548828125,-79.08810424804688
1776815476150650000,11.796650146484374,-71.05714416503906,63.54292297363281,-78.9674072265625
1776815476160746000,11.80674609375,-70.89068603515625,63.541412353515625,-79.09030151367188
1776815476170836000,11.8168359375,-70.87478637695312,63.341217041015625,-79.01226806640625
1776815476180936000,11.82693603515625,-71.217529296875,63.283966064453125,-78.9244384765625
1776815476191027000,11.83702685546875,-71.03025817871094,63.46258544921875,-79.11923217773438
1776815476201123800,11.847123779296876,-70.98313903808594,63.271392822265625,-79.02203369140625
1776815476211221000,11.857220947265626,-71.37660217285156,63.327392578125,-79.06895446777344
1776815476221316900,11.86731689453125,-71.38896179199219,63.55134582519531,-78.97305297851562
1776815476231413800,11.877413818359376,-71.4720458984375,63.4156494140625,-78.93939208984375
1776815476241512000,11.887511962890626,-71.42672729492188,63.489471435546875,-78.9952392578125
1776815476251608800,11.89760888671875,-71.39596557617188,63.305389404296875,-78.77247619628906
1776815476261706000,11.9077060546875,-71.05992126464844,63.45817565917969,-78.8868408203125
1776815476271804000,11.917803955078124,-71.31477355957031,63.26513671875,-78.60951232910156
1776815476281900800,11.92790087890625,-71.52740478515625,63.35444641113281,-78.76316833496094
1776815476291997000,11.937996826171876,-71.56806945800781,63.3189697265625,-78.95574951171875
1776815476302093000,11.948093017578126,-71.67108154296875,63.44610595703125,-78.79620361328125
1776815476312189000,11.95818896484375,-71.64906311035156,63.37892150878906,-78.77883911132812
1776815476322285800,11.968285888671875,-71.78877258300781,63.37522888183594,-78.48492431640625
1776815476332382000,11.9783818359375,-72.10691833496094,63.26220703125,-78.66511535644531
1776815476342485000,11.988485107421875,-71.87570190429688,63.39677429199219,-78.65217590332031
1776815476352576000,11.998575927734375,-71.99253845214844,63.1812744140625,-78.837158203125
1776815476362676000,12.008676025390624,-72.06887817382812,63.46705627441406,-78.83711242675781
1776815476372768000,12.01876806640625,-72.13865661621094,63.42408752441406,-78.60664367675781
1776815476382864000,12.02886376953125,-72.1273193359375,63.32203674316406,-78.81011962890625
1776815476392959700,12.038959716796874,-72.30943298339844,63.46714782714844,-78.70916748046875
1776815476403059000,12.049058837890625,-72.59634399414062,63.12652587890625,-78.5220947265625
1776815476413153800,12.05915380859375,-72.85322570800781,63.390716552734375,-78.58149719238281
1776815476423250000,12.06925,-72.85205078125,63.06024169921875,-78.5533447265625
1776815476433344800,12.0793447265625,-73.12832641601562,63.211822509765625,-78.49812316894531
1776815476443439900,12.08943994140625,-73.58450317382812,62.8873291015625,-78.51411437988281
1776815476453529900,12.09952978515625,-73.74008178710938,62.962677001953125,-78.68685913085938
1776815476463625000,12.109625,-73.92872619628906,62.747039794921875,-78.45231628417969
1776815476473725700,12.1197255859375,-74.42573547363281,62.40223693847656,-78.46636962890625
1776815476483817000,12.12981689453125,-75.38558959960938,62.28965759277344,-78.33619689941406
1776815476493918000,12.13991796875,-75.43710327148438,62.13145446777344,-78.28843688964844
1776815476504014000,12.15001416015625,-75.86485290527344,61.829833984375,-78.3359375
1776815476514109000,12.16010888671875,-76.59765625,61.4969482421875,-77.95536804199219
1776815476524204000,12.1702041015625,-77.70663452148438,61.08782958984375,-78.01084899902344
1776815476534299000,12.180298828125,-78.34471130371094,60.4141845703125,-77.85806274414062
1776815476544389000,12.19038916015625,-79.10581970214844,60.23045349121094,-77.81663513183594
1776815476554488000,12.200488037109375,-79.61842346191406,59.65187072753906,-77.33656311035156
1776815476564582000,12.210581787109374,-80.07553100585938,59.18896484375,-77.11824035644531
1776815476574678000,12.220677978515624,-80.66006469726562,58.81065368652344,-77.12568664550781
1776815476584767700,12.230767822265625,-81.14105224609375,58.24888610839844,-76.79466247558594
1776815476594869000,12.240868896484375,-81.74017333984375,58.29444885253906,-76.36305236816406
1776815476604959000,12.250958984375,-82.29550170898438,57.6424560546875,-75.86979675292969
1776815476615058000,12.261057861328124,-83.08450317382812,57.609771728515625,-75.40763854980469
1776815476625152000,12.271152099609376,-83.49838256835938,57.076995849609375,-74.85139465332031
1776815476635247900,12.281247802734375,-84.01181030273438,56.766204833984375,-74.4249267578125
1776815476645336800,12.2913369140625,-84.60557556152344,56.15391540527344,-73.88729858398438
1776815476655437000,12.30143701171875,-85.20899963378906,55.79838562011719,-73.29019165039062
1776815476665526800,12.31152685546875,-86.05917358398438,55.327606201171875,-73.2261962890625
1776815476675625700,12.321625732421875,-86.19294738769531,54.740966796875,-72.85324096679688
1776815476685720000,12.331719970703125,-86.9227294921875,54.29216003417969,-72.63894653320312
1776815476695812900,12.341812744140626,-87.51939392089844,53.81475830078125,-72.63139343261719
1776815476705907000,12.351906982421875,-87.66983032226562,53.22099304199219,-72.24958801269531
1776815476716002000,12.362001953125,-88.27859497070312,52.394317626953125,-72.10772705078125
1776815476726097000,12.372096923828124,-88.77691650390625,52.063751220703125,-71.95999145507812
1776815476736192000,12.38219189453125,-89.23165893554688,51.328033447265625,-71.90107727050781
1776815476746284000,12.392283935546875,-89.366455078125,50.78547668457031,-71.64288330078125
1776815476756380000,12.4023798828125,-89.26097106933594,50.17265319824219,-71.43351745605469
1776815476766481000,12.41248095703125,-89.78062438964844,49.2908935546875,-71.39968872070312
1776815476776571000,12.42257080078125,-90.05876159667969,48.53614807128906,-71.46258544921875
1776815476786666000,12.432666015625,-90.40823364257812,47.83061218261719,-71.41365051269531
1776815476796765700,12.442765625,-90.96223449707031,47.00032043457031,-71.35986328125
1776815476806861800,12.45286181640625,-91.3167724609375,46.355499267578125,-71.44511413574219
1776815476816952800,12.462952880859374,-91.54296875,45.651092529296875,-71.38880920410156
1776815476827049000,12.473049072265624,-91.6695556640625,44.7379150390625,-71.32194519042969
1776815476837143800,12.483143798828126,-91.58236694335938,44.004638671875,-71.39723205566406
1776815476847244000,12.493244140625,-91.93365478515625,43.080230712890625,-71.21414184570312
1776815476857334000,12.503333984375,-92.18098449707031,42.39093017578125,-71.34498596191406
1776815476867436000,12.51343603515625,-92.62258911132812,41.581146240234375,-71.25730895996094
1776815476877531000,12.52353076171875,-92.93405151367188,40.831878662109375,-71.2103271484375
1776815476887625000,12.533625,-92.66267395019531,39.927337646484375,-71.14683532714844
1776815476897719800,12.5437197265625,-92.39979553222656,39.16265869140625,-70.78794860839844
1776815476907812900,12.553812744140625,-92.96232604980469,38.43829345703125,-71.05172729492188
1776815476917907000,12.563906982421875,-93.07656860351562,37.64961242675781,-71.14935302734375
1776815476928001000,12.5740009765625,-92.76423645019531,36.64410400390625,-71.0960693359375
1776815476938098000,12.584097900390624,-92.86428833007812,36.23567199707031,-71.35302734375
1776815476948192800,12.59419287109375,-92.56941223144531,35.354766845703125,-70.94917297363281
1776815476958287000,12.604287109375,-92.90531921386719,34.772064208984375,-71.21560668945312
1776815476968376800,12.614376953125,-92.80961608886719,33.88389587402344,-71.24641418457031
1776815476978473000,12.624472900390625,-92.81170654296875,33.468658447265625,-71.47834777832031
1776815476988574000,12.634573974609374,-92.72552490234375,32.61167907714844,-71.38343811035156
1776815476998665000,12.6446650390625,-92.62640380859375,32.219970703125,-71.46054077148438
1776815477008767000,12.65476708984375,-92.63923645019531,31.703964233398438,-71.66848754882812
1776815477018862800,12.66486279296875,-92.27650451660156,31.106353759765625,-71.74748229980469
1776815477028958700,12.674958740234375,-92.57681274414062,30.65087890625,-71.88151550292969
1776815477039056000,12.685055908203125,-91.99751281738281,30.179275512695312,-71.65875244140625
1776815477049148700,12.695148681640624,-92.07089233398438,29.472824096679688,-72.04377746582031
1776815477059247000,12.7052470703125,-92.15206909179688,29.31097412109375,-72.11801147460938
1776815477069340000,12.71533984375,-92.00633239746094,28.789642333984375,-72.12261962890625
1776815477079438000,12.72543798828125,-91.96434020996094,28.585342407226562,-72.14913940429688
1776815477089540000,12.7355400390625,-91.61711120605469,28.384933471679688,-72.044921875
1776815477099633000,12.7456328125,-91.92593383789062,28.08502197265625,-72.07777404785156
1776815477109731000,12.75573095703125,-91.95149230957031,28.168960571289062,-72.20346069335938
1776815477119828000,12.765827880859375,-91.96443176269531,28.230911254882812,-72.11813354492188
1776815477129928700,12.7759287109375,-91.924072265625,28.058013916015625,-71.9681396484375
1776815477140020000,12.78602001953125,-91.57183837890625,28.005752563476562,-71.96826171875
1776815477150115800,12.79611572265625,-92.11795043945312,28.257766723632812,-71.88772583007812
1776815477160213000,12.806212890625,-92.09443664550781,28.340255737304688,-71.85728454589844
1776815477170310100,12.81631005859375,-92.28544616699219,28.193267822265625,-71.50328063964844
1776815477180408000,12.826407958984374,-92.270751953125,28.499282836914062,-71.35757446289062
1776815477190505000,12.8365048828125,-92.50115966796875,29.01312255859375,-71.4537353515625
1776815477200601900,12.846601806640624,-92.20864868164062,29.348724365234375,-71.24847412109375
1776815477210699800,12.85669970703125,-92.27891540527344,29.607818603515625,-71.29263305664062
1776815477220801800,12.8668017578125,-92.50997924804688,30.200485229492188,-71.23478698730469
1776815477230899000,12.87689892578125,-92.26600646972656,30.450408935546875,-70.69737243652344
1776815477240990000,12.886989990234374,-92.55308532714844,31.081756591796875,-70.92588806152344
1776815477251086800,12.8970869140625,-92.47857666015625,31.5733642578125,-70.97064208984375
1776815477261187800,12.907187744140625,-92.39642333984375,32.01597595214844,-70.99697875976562
1776815477271284000,12.917283935546875,-91.95635986328125,32.7078857421875,-71.22889709472656
1776815477281379000,12.927379150390625,-92.17764282226562,33.32936096191406,-70.93937683105469
1776815477291476000,12.93747607421875,-92.39625549316406,33.92535400390625,-70.94660949707031
1776815477301571800,12.94757177734375,-92.59895324707031,34.10858154296875,-71.15707397460938
1776815477311668000,12.95766796875,-92.5216064453125,34.86065673828125,-70.84156799316406
1776815477321766000,12.967765869140624,-92.58683776855469,35.40992736816406,-70.86160278320312
1776815477331862000,12.977862060546874,-92.4822998046875,35.9884033203125,-70.55885314941406
1776815477341959000,12.987958984375,-92.84849548339844,36.69511413574219,-70.84640502929688
1776815477352054800,12.9980546875,-92.39530944824219,37.31004333496094,-70.59617614746094
1776815477362145800,13.008145751953125,-92.67654418945312,38.39335632324219,-70.80039978027344
1776815477372242000,13.018241943359374,-92.431884765625,39.03680419921875,-70.4407958984375
1776815477382343000,13.028343017578125,-92.48399353027344,39.64013671875,-70.31782531738281
1776815477392438000,13.03843798828125,-92.14137268066406,40.34776306152344,-70.2152099609375
1776815477402529000,13.048529052734375,-92.61128234863281,41.02947998046875,-70.33990478515625
1776815477412629000,13.05862890625,-92.35951232910156,41.675048828125,-70.17942810058594
1776815477422724900,13.068724853515626,-92.17446899414062,42.50592041015625,-69.93629455566406
1776815477432820700,13.07882080078125,-92.05538940429688,43.09147644042969,-70.01519775390625
1776815477442915000,13.0889150390625,-91.93757629394531,43.77003479003906,-70.11712646484375
1776815477453010000,13.099010009765625,-91.99964904785156,44.45310974121094,-70.1514892578125
1776815477463105000,13.10910498046875,-91.45767211914062,44.94927978515625,-69.96505737304688
1776815477473198800,13.11919873046875,-91.24688720703125,45.67308044433594,-69.78594970703125
1776815477483292000,13.1292919921875,-91.30043029785156,45.8590087890625,-69.82148742675781
