time,seconds_elapsed,z,y,x
1776021045225512200,0.07851220703125,-9.662336221611499,-1.6503766588725148,0.2930782891081646
1776021045235573200,0.0885732421875,-9.661353055793047,-1.654168890762329,0.30392093269983306
1776021045245633000,0.098633056640625,-9.660869656190275,-1.6526206384070217,0.32683895828220993
1776021045255694000,0.108694091796875,-9.660257661771773,-1.6491674292132257,0.36062059717904776
1776021045265755100,0.118755126953125,-9.659158176097273,-1.6470485373631119,0.3978459833215922
1776021045275816200,0.128816162109375,-9.658003160843252,-1.644794767086953,0.4336016257051378
1776021045285876200,0.138876220703125,-9.65707377103865,-1.6431712575383484,0.4596681236473843
1776021045295937300,0.148937255859375,-9.655963763970137,-1.645383965151757,0.4748286487044766
1776021045305998300,0.158998291015625,-9.654635730236768,-1.6523450363360344,0.47764608074538406
1776021045316058000,0.16905810546875,-9.652872227695584,-1.6645315870836377,0.4709351118646562
1776021045326119200,0.179119140625,-9.651103464457393,-1.678315928416699,0.45808056219499554
1776021045336180200,0.18918017578125,-9.649797058033943,-1.6893606156527996,0.44481922182273115
1776021045346241300,0.1992412109375,-9.648874682492018,-1.6969963712282479,0.43565939848516133
1776021045356301300,0.20930126953125,-9.648046414974331,-1.702082003929466,0.4341724113304168
1776021045366362400,0.2193623046875,-9.647155603614449,-1.7055689692623912,0.44023518196810035
1776021045376423200,0.229423095703125,-9.64607248455286,-1.7078141178406774,0.4550206631677225
1776021045386484200,0.239484130859375,-9.645093410387634,-1.7079003348194062,0.4750140152087435
1776021045396544300,0.249544189453125,-9.64443348517418,-1.708111347221583,0.48748362068142737
1776021045406605300,0.259605224609375,-9.643128247794508,-1.717541146606952,0.4801226269267499
1776021045416666400,0.269666259765625,-9.64103565942943,-1.7343142944924532,0.4614825891908258
1776021045426727200,0.27972705078125,-9.639610595062374,-1.7459576782740651,0.44713137122262264
1776021045436787200,0.289787109375,-9.637777534416317,-1.7566040138423442,0.44494255594145504
1776021045446848300,0.29984814453125,-9.6354774407804,-1.766519697048515,0.4553759063461795
1776021045456909000,0.309908935546875,-9.63266179883778,-1.7770223863624035,0.47371352706942704
1776021045466970000,0.31997021484375,-9.629352235898375,-1.7900271216250956,0.49169046125411986
1776021045477030400,0.330030517578125,-9.62652782612741,-1.8018861939840018,0.503542227089405
1776021045487091200,0.34009130859375,-9.624753217670321,-1.8095760178342462,0.5098436653211712
1776021045497152300,0.35015234375,-9.62376596019864,-1.8127663383081554,0.5170961572000756
1776021045507213000,0.360213134765625,-9.623311202168464,-1.8121289171874522,0.5276839309815317
1776021045517273000,0.370273193359375,-9.622900283280014,-1.8124656017959118,0.5339856249416247
1776021045527334100,0.380334228515625,-9.621818917784093,-1.8168267196148633,0.5386355331066995
1776021045537395200,0.390395263671875,-9.61992506686151,-1.8251193316638468,0.5443924161329865
1776021045547456300,0.400456298828125,-9.617475920143724,-1.836434944795817,0.5495893637215719
1776021045557516300,0.410516357421875,-9.614733343437313,-1.8505835893966256,0.5501149584982544
1776021045567577000,0.4205771484375,-9.610908232191205,-1.8700972681619226,0.5509660223696381
1776021045577638100,0.43063818359375,-9.605539983156323,-1.8957716615140436,0.5568090858420357
1776021045587699200,0.44069921875,-9.599103812628984,-1.9253778413571416,0.5661356805812567
1776021045597759200,0.45075927734375,-9.59206266194582,-1.9559747858032583,0.5804133583892136
1776021045607820300,0.4608203125,-9.584362170571088,-1.984337395326048,0.6105665411232039
1776021045617881300,0.47088134765625,-9.575791910624504,-2.009034321948141,0.6620971506677568
1776021045627942400,0.4809423828125,-9.56716495205462,-2.031106453024596,0.717181616768986
1776021045638002200,0.491002197265625,-9.557859948092698,-2.0526294257856903,0.7774350830059498
1776021045648063200,0.501063232421875,-9.545705984440445,-2.0751843719430267,0.8622620686810463
1776021045658124300,0.511124267578125,-9.530563360366225,-2.095257876548171,0.9739818835873156
1776021045668185300,0.521185302734375,-9.513948910173774,-2.1060174632325768,1.1044704771757126
1776021045678245400,0.531245361328125,-9.49713396897316,-2.10338609181568,1.245228170517832
1776021045688306400,0.541306396484375,-9.480077035710215,-2.087984086152911,1.3924262721709906
1776021045698367200,0.5513671875,-9.46264834652543,-2.0608599323838948,1.5432197679676114
1776021045708427300,0.56142724609375,-9.446991927710174,-2.0217291144788265,1.6844411332987248
1776021045718488300,0.57148828125,-9.434443411782384,-1.9711811227634548,1.8100021342918275
1776021045728549000,0.581549072265625,-9.424930318027734,-1.9174857729330659,1.914242260967195
1776021045738610200,0.591610107421875,-9.419277991354464,-1.8722224436223507,1.9855396107226608
1776021045748670500,0.60167041015625,-9.41705096295476,-1.8401003354355692,2.025724613855779
1776021045758731000,0.61173095703125,-9.415982456940412,-1.825642040363699,2.043694570310414
1776021045768792000,0.6217919921875,-9.416652903547883,-1.8286410760492084,2.0379175943441687
1776021045778853000,0.63185302734375,-9.420081708952784,-1.8464922284297645,2.0057196444422005
1776021045788913200,0.6419130859375,-9.425757416501641,-1.8758885649144648,1.951030169007927
1776021045798974200,0.65197412109375,-9.43304932707548,-1.9124239594988524,1.878989015147835
1776021045809035300,0.66203515625,-9.44174175209701,-1.9501495867811143,1.7946617956884203
1776021045819096300,0.672096435546875,-9.450584983766078,-1.9849244014337657,1.707894051209092
1776021045829157000,0.6821572265625,-9.458072709172963,-2.015275408294797,1.6290836954750119
1776021045839217200,0.692217041015625,-9.463135253259539,-2.040423293554783,1.5672031394928694
1776021045849278200,0.7022783203125,-9.465172896566987,-2.0605846225738524,1.5280314050555228
1776021045859339300,0.71233935546875,-9.46382557361126,-2.0804108744196594,1.5093990391694008
1776021045869399300,0.7223994140625,-9.459483160492777,-2.105469912352413,1.5018525693126021
1776021045879460400,0.73246044921875,-9.45285877391696,-2.139216991392523,1.4958607815518974
1776021045889521200,0.742521240234375,-9.445484445756673,-2.1807392344787715,1.4824265688307583
1776021045899582200,0.752582275390625,-9.43969183382988,-2.224352312364429,1.4542564131401479
1776021045909643300,0.762643310546875,-9.43670726506114,-2.2634765543982387,1.4126641735576093
1776021045919703300,0.772703369140625,-9.43624081659317,-2.2933048525594173,1.3669307425171136
1776021045929764400,0.782764404296875,-9.43814460438788,-2.310170354903489,1.3247357147358356
1776021045939825400,0.792825439453125,-9.441113391065597,-2.315823558359593,1.2933381214313209
1776021045949886200,0.80288623046875,-9.442578202921151,-2.317379263368994,1.2797890501588582
1776021045959946200,0.8129462890625,-9.440922836929559,-2.3213952210120854,1.2847111628614365
1776021045970007300,0.82300732421875,-9.436105792036653,-2.3305900425978003,1.3033201478719711
1776021045980068000,0.833068115234375,-9.42913595302403,-2.3467058956183493,1.3246698098927736
1776021045990129200,0.843129150390625,-9.421853394800424,-2.368625904873013,1.3374151635669171
1776021046000189200,0.853189208984375,-9.415362863737345,-2.393283376267552,1.339224551076442
1776021046010250200,0.863250244140625,-9.409692416885495,-2.418896687082201,1.3330464469633996
1776021046020311000,0.87331103515625,-9.405992393323778,-2.4417203671783207,1.317457394295931
1776021046030372000,0.8833720703125,-9.40446211501658,-2.459327627800405,1.2954489761054515
1776021046040432000,0.89343212890625,-9.403988067764043,-2.471929335220158,1.274737319727242
1776021046050493200,0.9034931640625,-9.403450307625532,-2.4806287745043636,1.261739160335809
1776021046060554200,0.91355419921875,-9.402243269923328,-2.4867364437296984,1.2587072452940047
1776021046070615300,0.923615234375,-9.400178154087065,-2.4907813352063295,1.2661145989410578
1776021046080675000,0.933675048828125,-9.396868006625771,-2.4945418567836284,1.283168755725026
1776021046090736000,0.943736083984375,-9.392683998939395,-2.499725104640424,1.3035526414535938
1776021046100797200,0.953797119140625,-9.389193818736075,-2.505907592667639,1.3167596212901174
1776021046110858200,0.963858154296875,-9.386956268942356,-2.5134488018274306,1.3183352000437676
1776021046120918300,0.973918212890625,-9.38524946502447,-2.52421101886034,1.3098992340013385
1776021046130979300,0.983979248046875,-9.383778223428129,-2.5374577461853622,1.2947566099271177
1776021046141040400,0.994040283203125,-9.382212873807548,-2.551953012266755,1.2774996240474283
1776021046151101200,1.00410107421875,-9.380181075718998,-2.5672251079395414,1.2617211862877011
1776021046161161200,1.0141611328125,-9.377240930613874,-2.584199331355095,1.2488618508450686
1776021046171222300,1.02422216796875,-9.373229356884956,-2.6059230873852965,1.233744215081632
1776021046181283300,1.034283447265625,-9.367829543668032,-2.6375226330026984,1.2073214145150035
1776021046191344400,1.044344482421875,-9.361539503613114,-2.6812475006997585,1.1588260444805025
1776021046201404400,1.054404296875,-9.356614322170614,-2.732313671070337,1.076389022681862
1776021046211465200,1.06446533203125,-9.354137118402123,-2.7826731544762846,0.9629306204799563
1776021046221526300,1.0745263671875,-9.35375133395493,-2.8260069770291447,0.8315090568903833
1776021046231587000,1.084587158203125,-9.3556346634835,-2.8567849771305918,0.6937304524242878
1776021046241647000,1.094647216796875,-9.357770506468414,-2.8772382748335597,0.5692205313866958
1776021046251708000,1.1047080078125,-9.358092578029632,-2.892654747413099,0.47858106004055584
1776021046261769000,1.11476904296875,-9.356780326387286,-2.904213667781651,0.431962407130748
1776021046271830000,1.124830078125,-9.354956618091464,-2.911668075440824,0.4211420301698148
1776021046281891000,1.13489111328125,-9.3544048294276,-2.9119816714346407,0.43110798225849867
1776021046291951000,1.144951171875,-9.356376421761512,-2.9008666954413056,0.462136997978948
1776021046302012200,1.15501220703125,-9.360371044355631,-2.879366519033909,0.5129168256888166
1776021046312073000,1.165072998046875,-9.366837025499343,-2.8469793301701545,0.5722343627825379
1776021046322134000,1.175134033203125,-9.374234734535216,-2.8110028846427797,0.6263933115366846
1776021046332194000,1.185194091796875,-9.37838600899577,-2.7892013872012495,0.6607669980425387
1776021046342255000,1.195255126953125,-9.37607364040017,-2.7917043099328875,0.6826535434190183
1776021046352316200,1.205316162109375,-9.367648926404119,-2.81281139536947,0.7110761395007371
1776021046362377200,1.215377197265625,-9.357614439123868,-2.8347110924884675,0.7548807944357395
1776021046372437000,1.22543701171875,-9.347790379723905,-2.845143054653704,0.8332854919783771
1776021046382498000,1.235498046875,-9.33765418563485,-2.8410931947410103,0.9522516978163271
1776021046392559000,1.24555908203125,-9.32661432070434,-2.8231767220392823,1.1019651432912796
1776021046402620200,1.2556201171875,-9.311443055057525,-2.796610494413972,1.28311468745023
1776021046412680200,1.26568017578125,-9.291094094511866,-2.7681170981183647,1.4776599389508365
1776021046422741200,1.2757412109375,-9.267394069972633,-2.7454627832397818,1.657776705995947
1776021046432802300,1.28580224609375,-9.238880507671832,-2.7379528460010882,1.8212880829378961
1776021046442863000,1.295863037109375,-9.199320650699734,-2.7476693533733485,1.99829797000885
1776021046452923100,1.305923095703125,-9.150909378752111,-2.768590560849011,2.183150825665146
1776021046462984200,1.315984130859375,-9.092692752104997,-2.8027631718248127,2.3744141328856347
1776021046473045000,1.326044921875,-9.02356953151822,-2.8545567796871065,2.5684783228710293
1776021046483106000,1.33610595703125,-8.939076892364024,-2.919062569606304,2.782510657390952
1776021046493167000,1.3461669921875,-8.836423742619157,-2.9861697741955515,3.0283310458377004
1776021046503227000,1.356226806640625,-8.718002530378103,-3.0442145514070984,3.301450360098481
1776021046513288000,1.366287841796875,-8.598100139668583,-3.095874011495709,3.557896187455952
1776021046523349000,1.376348876953125,-8.518782272803783,-3.1852731273919344,3.668073887486756
1776021046533410000,1.38641015625,-8.475686642920971,-3.2917323914214967,3.673911215338111
1776021046543470000,1.396469970703125,-8.438298869290948,-3.3683190797567364,3.690518651267886
1776021046553531100,1.40653125,-8.414096155926584,-3.387483214432001,3.7280467101514336
1776021046563592200,1.41659228515625,-8.395340602052212,-3.3590570381537077,3.7954409149885175
1776021046573653200,1.4266533203125,-8.365168166628479,-3.3113203044667836,3.902500190737843
1776021046583713000,1.436713134765625,-8.317486377999186,-3.2643007791385052,4.041552103075385
1776021046593774000,1.446774169921875,-8.252271855288743,-3.225405231294036,4.203231734545529
1776021046603835100,1.456835205078125,-8.161950363850593,-3.202836256611347,4.3925838013172145
1776021046613896200,1.466896240234375,-8.037965087741613,-3.207854669295251,4.612067386980354
1776021046623956200,1.476956298828125,-7.897828302776813,-3.2343849488243457,4.830469899408519
1776021046634017000,1.48701708984375,-7.754144054463505,-3.2763346235424278,5.030832605016231
1776021046644078000,1.497078125,-7.632638904732465,-3.311552944178879,5.191033688366413
1776021046654139100,1.50713916015625,-7.55495243846178,-3.3109421188041566,5.303841736900806
1776021046664200200,1.5172001953125,-7.543229267442226,-3.2453055712893604,5.360789951047301
1776021046674260200,1.52726025390625,-7.597211032998562,-3.0953534947529433,5.373225069728494
1776021046684321300,1.5373212890625,-7.695794741347432,-2.8602257652342318,5.3632303299367425
1776021046694382000,1.547382080078125,-7.815069355547427,-2.547967449761927,5.348171292492747
1776021046704443100,1.557443115234375,-7.939788206627965,-2.173126567517966,5.329884525173902
1776021046714503200,1.567503173828125,-8.020902893781662,-1.7746899978920816,5.355929067012667
1776021046724564000,1.57756396484375,-8.028841870087385,-1.394752230900526,5.455523998230696
1776021046734625000,1.587625,-8.004163355904817,-1.0412021200969814,5.569528563073277
1776021046744686000,1.59768603515625,-7.9724694100022315,-0.6898923355661333,5.668700300443172
1776021046754747100,1.6077470703125,-7.937460640463232,-0.30248657078146934,5.751138929677009
1776021046764807200,1.61780712890625,-7.887718412172794,0.15157692865873687,5.825058736890554
1776021046774868000,1.627867919921875,-7.806214433440566,0.6701991355154663,5.897816514587402
1776021046784929000,1.637928955078125,-7.68016930219233,1.2224517636295407,5.974194236347079
1776021046794990000,1.647989990234375,-7.514105464288592,1.7672082638345659,6.048601534816623
1776021046805050000,1.658050048828125,-7.306952660149335,2.286481436280161,6.1278738089740274
1776021046815111200,1.668111083984375,-7.054583580711483,2.7853856283053755,6.2164990178883075
1776021046825172200,1.678172119140625,-6.766766171273589,3.2739202558770772,6.297834069794416
1776021046835233300,1.6882333984375,-6.447191687569021,3.7549183504641053,6.364330449008941
1776021046845293000,1.69829296875,-6.095900461608171,4.225622430051863,6.415178008192777
1776021046855354000,1.70835400390625,-5.728959246572852,4.67922515271306,6.438498093503713
1776021046865415200,1.718415283203125,-5.369679944467544,5.111211379110813,6.419691101703047
1776021046875476200,1.728476318359375,-4.991926243516803,5.538008804693818,6.370361545866728
1776021046885537000,1.738537109375,-4.557862626323104,5.968665828314423,6.3064487534046165
1776021046895597300,1.748597412109375,-4.135082619687915,6.364969331434368,6.2095601585358375
1776021046905658000,1.758658203125,-3.7811227590397,6.686823450508713,6.095891109257936
1776021046915719000,1.768718994140625,-3.473623620793223,6.942958604481816,5.991632862403988
1776021046925780000,1.778780029296875,-3.195896812736988,7.155037759107351,5.8959372767120595
1776021046935840300,1.78884033203125,-2.919426434482634,7.330053549751639,5.823887355023622
1776021046945901000,1.798901123046875,-2.6348303251788017,7.477800809720158,5.771528806754946
1776021046955962000,1.808962158203125,-2.3443309831805528,7.604034741538762,5.731767289730906
1776021046966023200,1.819023193359375,-2.0745164095535875,7.699332267823815,5.708507994696498
1776021046976084000,1.829083984375,-1.8250699395641683,7.769924391919374,5.698049144524336
1776021046986144000,1.83914404296875,-1.5830547886192798,7.827884997978806,5.691091580471396
1776021046996205000,1.849205078125,-1.323307289367914,7.876919954782724,5.689762377694249
1776021047006266000,1.85926611328125,-1.0281950467467307,7.917040952768922,5.69505639244914
1776021047016327200,1.8693271484375,-0.6502998184334486,7.950299663770198,5.704404066509008
1776021047026387200,1.87938720703125,-0.27672700163023545,7.974718650233745,5.700671894243359
1776021047036448000,1.889447998046875,0.05051122163524851,7.98494836782515,5.6928398854434485
1776021047046509000,1.899509033203125,0.3518123637581244,7.975801769295335,5.695016060438752
1776021047056570000,1.909570068359375,0.613675649587065,7.947745887634158,5.7120151260346175
1776021047066631200,1.919631103515625,0.8559392954003066,7.897495125299692,5.750418798708916
1776021047076691200,1.929691162109375,1.0789121114186941,7.824703445333242,5.81208527354896
1776021047086752300,1.939752197265625,1.2552321165293454,7.733135753226279,5.898592175135016
1776021047096813300,1.949813232421875,1.371378807967156,7.629154569748043,6.0071378900498145
1776021047106874000,1.9598740234375,1.4452670509986578,7.525643341869116,6.119335697731375
1776021047116934100,1.96993408203125,1.5022943217307327,7.436592016497254,6.213742997178435
1776021047126995200,1.9799951171875,1.5541535421751438,7.367142048174142,6.283325651970506
1776021047137056000,1.990055908203125,1.597009956474602,7.31386404697299,6.3346168632686135
1776021047147117000,2.000116943359375,1.62044300064072,7.266200963044166,6.383328579467535
1776021047157178000,2.01017822265625,1.6110634701378643,7.2140493355244395,6.444559585499763
1776021047167238000,2.02023779296875,1.548482656931877,7.152510286456346,6.527952738979458
1776021047177299000,2.030298828125,1.4335212297558784,7.075059967029095,6.6376908785492175
1776021047187360000,2.040360107421875,1.28705451111719,6.980878293031454,6.766178726774454
1776021047197421000,2.050421142578125,1.1311322741299867,6.8744280890911815,6.90167733054459
1776021047207481000,2.060481201171875,0.9991563645932823,6.767424927443265,7.026666230738162
1776021047217542000,2.0705419921875,0.911424524322152,6.680434041732549,7.121200371435284
1776021047227603000,2.08060302734375,0.8835822123464196,6.61264060844481,7.187675123339891
1776021047237664000,2.0906640625,0.9117065561339258,6.555119562846421,7.236683776658773
1776021047247725000,2.10072509765625,0.9557380786273628,6.515482548984885,7.26673521605134
1776021047257784800,2.110784912109375,0.9708739076346159,6.497723020410537,7.2806176109313965
1776021047267846000,2.120845947265625,0.9160029381535947,6.500135342249274,7.285573187512159
1776021047277907000,2.130906982421875,0.7679257886435836,6.519412289649248,7.28545979026556
1776021047287968000,2.140968017578125,0.5370637537453323,6.55264177455604,7.276319036954641
1776021047298028000,2.151028076171875,0.2808753352150321,6.58302346881628,7.26328419881463
1776021047308089000,2.161089111328125,0.07239141946933232,6.590720453059673,7.261373981279134
1776021047318150100,2.171150146484375,-0.07101320818499661,6.580081570145487,7.271029698374867
1776021047328211000,2.1812109375,-0.1865506360175088,6.587466419699788,7.262292265167832
1776021047338271700,2.191271728515625,-0.2930675119858235,6.633970981243253,7.216297406712174
1776021047348332000,2.20133203125,-0.38225988979618997,6.715986416628956,7.13581224963367
1776021047358392800,2.211392822265625,-0.45530594638250765,6.8203112989783286,7.0318158685863015
1776021047368454000,2.221453857421875,-0.5218691072229296,6.9358455576062195,6.913181305855512
1776021047378515000,2.231514892578125,-0.5639456597236916,7.043844160032272,6.7997519105523825
1776021047388576000,2.241575927734375,-0.5606945489732549,7.129417580160498,6.710247580716014
1776021047398635800,2.2516357421875,-0.5278523098183795,7.195691841056942,6.641821694743633
1776021047408696800,2.26169677734375,-0.4895657607177272,7.2449413173943755,6.591020312789082
1776021047418758000,2.2717578125,-0.4430243742952123,7.272796708047389,6.563577594590186
1776021047428819000,2.28181884765625,-0.37930714093782003,7.282900753432512,6.556361087340116
1776021047438879000,2.29187890625,-0.2987885017148219,7.286347094494104,6.556695433861017
1776021047448940000,2.30193994140625,-0.19926046172054485,7.292467623201012,6.553670533081889
1776021047459000800,2.312000732421875,-0.08608304101764223,7.311134914270043,6.5353112850487225
1776021047469062000,2.322061767578125,0.025678222427156287,7.3503949115127325,6.491642239192128
1776021047479123000,2.332123046875,0.1313359311327338,7.411331318512558,6.42069297222197
1776021047489183000,2.342182861328125,0.2475527103983797,7.484778832039237,6.331445832017064
1776021047499244000,2.352244140625,0.3767685989035293,7.5559168995797625,6.239913211223483
1776021047509305000,2.36230517578125,0.49558527673557395,7.617755808377265,6.155857794442772
1776021047519366100,2.3723662109375,0.6029388227237388,7.664140542933344,6.088331487658619
1776021047529427000,2.382427001953125,0.7111869063988328,7.694155741968751,6.038592181977629
1776021047539487000,2.392487060546875,0.8296355911687016,7.706805380183458,6.007268238431215
1776021047549548000,2.402548095703125,0.9717840082168578,7.731939821439981,5.953412145081162
1776021047559608800,2.41260888671875,1.0895526017680763,7.767496287989616,5.8863610545933245
1776021047569670000,2.422669921875,1.2000073651745915,7.824487756755947,5.788589831671119
1776021047579730000,2.43272998046875,1.3339692608967422,7.8953037527352565,5.6617187709927554
1776021047589790700,2.442790771484375,1.4877053860165177,7.9618568305730815,5.528647686630487
1776021047599851800,2.452851806640625,1.6287560709558426,8.00693749679327,5.422777328404784
1776021047609912800,2.462912841796875,1.7524385647259653,8.021151315584778,5.362878447759151
1776021047619974000,2.472973876953125,1.8713437610916792,8.000864314359426,5.353001781389117
1776021047630034000,2.483033935546875,1.9995881559498607,7.949927323326468,5.382440641841292
1776021047640095000,2.493094970703125,2.1275211467713118,7.879540366414189,5.43662289840579
1776021047650156000,2.503156005859375,2.2480907692179084,7.798975714358687,5.503857528766989
1776021047660217000,2.513217041015625,2.3630181479938326,7.710339399528503,5.580072168919444
1776021047670278000,2.52327783203125,2.464384911189973,7.611158309808373,5.671636938416958
1776021047680338000,2.533337890625,2.54946353353858,7.49792122220695,5.783752913033962
1776021047690399000,2.54339892578125,2.6087960124731064,7.3775634889453645,5.910680672335625
1776021047700460000,2.5534599609375,2.6308599602431055,7.256335402590036,6.049346215704083
1776021047710521000,2.56352099609375,2.6219597376897927,7.138297636708617,6.191963711568713
1776021047720582000,2.573581787109375,2.5919395702183246,7.033230996081232,6.323439051172137
1776021047730642000,2.583641845703125,2.5430095350936055,6.945313643175363,6.43941754643619
1776021047740703000,2.593702880859375,2.4602087945491076,6.876999400883912,6.5440545634746545
1776021047750763800,2.603763671875,2.3215485118776558,6.82748864326179,6.6457654639333485
1776021047760824800,2.613824951171875,2.1227242678835987,6.802755184021592,6.736984196472168
1776021047770886000,2.623885986328125,1.8874084684468804,6.806036105388403,6.803375361746549
1776021047780946000,2.63394580078125,1.639931398834288,6.822201642769575,6.851170547622442
1776021047791007000,2.644007080078125,1.4069725377872586,6.83181468976736,6.893265476030111
1776021047801067800,2.65406787109375,1.2349066829897462,6.822260094958543,6.935570247796178
1776021047811128800,2.66412890625,1.0958076435748487,6.8131281094759695,6.967847546544671
1776021047821188900,2.67418896484375,0.9470983336411416,6.813475900000333,6.9892731964111325
1776021047831250000,2.68425,0.807553230959177,6.8045578495293855,7.015429966452717
1776021047841311000,2.69431103515625,0.7062641361091285,6.785262197428941,7.044983393195271
1776021047851372000,2.7043720703125,0.6650556351471691,6.737658150210976,7.094507594820857
1776021047861433000,2.71443310546875,0.6470711387105286,6.670425857937335,7.159406475710869
1776021047871492900,2.724492919921875,0.6282311214230955,6.617593262416124,7.209937808552384
1776021047881554000,2.734553955078125,0.6298405293811112,6.5860699969053265,7.238605100110173
1776021047891615000,2.744614990234375,0.6376165702100843,6.570398380520939,7.252153148469328
1776021047901676000,2.754676025390625,0.5663019405262545,6.573856996542215,7.254937226229906
1776021047911737000,2.764737060546875,0.38367841482460496,6.583472381627559,7.258172554889321
1776021047921797000,2.774797119140625,0.13314666121597402,6.589259732857347,7.261841598790884
1776021047931858000,2.78485791015625,-0.09468879240271635,6.605228870883583,7.247922963553667
1776021047941919000,2.7949189453125,-0.21343811322012915,6.647453563150763,7.206676760929822
1776021047951979800,2.804979736328125,-0.25504861911172044,6.72054802545607,7.137195812946557
1776021047962040800,2.815040771484375,-0.27550303105954077,6.821020908552407,7.0404662080317735
1776021047972100900,2.825100830078125,-0.2976817277830094,6.961206793355942,6.900970643579959
1776021047982162000,2.835161865234375,-0.35610023367777466,7.163385900735855,6.688010614466667
1776021047992223000,2.845222900390625,-0.45824660294428465,7.429910346776246,6.384107747146487
1776021048002284000,2.855283935546875,-0.6448884609092027,7.725974191033839,6.005316519841552
1776021048012344800,2.8653447265625,-0.9030436494678258,7.987981451910733,5.6166737606078385
1776021048022404900,2.87540478515625,-0.9655733900737017,8.22469469705522,5.252852723419666
1776021048032466000,2.8854658203125,-0.8418303982879966,8.451076517799496,4.903163671958446
1776021048042527000,2.89552685546875,-0.6260515123616903,8.667101779702305,4.545303296740353
1776021048052588000,2.905588134765625,-0.39529056321773676,8.870386217975616,4.16298097269982
1776021048062649000,2.915649169921875,-0.17499504011720418,9.063635584446788,3.740360832801461
1776021048072708900,2.925708984375,0.03587311758364085,9.244926217576861,3.271153129251301
1776021048082770000,2.93577001953125,0.2451363151727244,9.406857485720515,2.760673796375096
1776021048092831000,2.9458310546875,0.4567924220805987,9.537999647846817,2.2334501033164558
1776021048102892000,2.95589208984375,0.6713843267120421,9.633549687588214,1.707149954843521
1776021048112952800,2.965952880859375,0.8768278427153825,9.695537649467587,1.182413840816915
1776021048123013000,2.97601318359375,1.0514300841227173,9.727676416528224,0.6612000556975602
1776021048133074000,2.986073974609375,1.1759151264473795,9.734698277989029,0.15242782813333905
1776021048143134700,2.996134765625,1.2268193842545152,9.724301387137174,-0.3213179298384115
1776021048153195800,3.00619580078125,1.2026338412206619,9.70812065218687,-0.6902631416399031
1776021048163256800,3.0162568359375,1.13588421789743,9.7067984636724,-0.8113200361467897
1776021048173316900,3.02631689453125,1.0153322772379965,9.719038352042435,-0.8244969131059944
1776021048183378000,3.0363779296875,0.8837202325776219,9.740247144287824,-0.7190571283172815
1776021048193439000,3.04643896484375,0.7429108821135014,9.762607444655895,-0.5567610819818452
1776021048203500000,3.0565,0.6238100170452148,9.779646257740259,-0.3738431764435023
1776021048213561000,3.06656103515625,0.5374096445735543,9.789984111881255,-0.19438379559488966
1776021048223622000,3.076621826171875,0.4754276740435511,9.795053670230507,-0.03558738456099527
1776021048233682000,3.086681884765625,0.4281516166709363,9.796846983388066,0.09407810402531176
1776021048243743000,3.096742919921875,0.3817309705512598,9.79760277019143,0.1778667778949253
1776021048253804000,3.106803955078125,0.3393813001975417,9.798474876850843,0.21240330854598433
1776021048263865000,3.116864990234375,0.31933640063237395,9.798936649143695,0.22191799146952107
1776021048273926100,3.126926025390625,0.3185360075023025,9.798638542979955,0.23577910609953104
1776021048283986000,3.13698583984375,0.321754092765972,9.797923672708869,0.25991043472811576
1776021048294047000,3.147046875,0.3146831314664334,9.797375391176342,0.28775015288796274
1776021048304108000,3.15710791015625,0.2820914878054522,9.797677588993311,0.31036033636387433
1776021048314168800,3.1671689453125,0.21633794458117334,9.799044785693287,0.3198589632017538
1776021048324230000,3.17722998046875,0.12814804007792843,9.800814133453368,0.3130215549297631
1776021048334290000,3.1872900390625,0.03778672351946588,9.802017664024234,0.2989772474862635
1776021048344351000,3.19735107421875,-0.040589154354063794,9.802236859732865,0.2913762526969425
1776021048354411800,3.207411865234375,-0.10323750723777338,9.801545954859256,0.29904026625249536
1776021048364472800,3.217472900390625,-0.15558721461286767,9.799949041056632,0.327396957491152
1776021048374534000,3.227533935546875,-0.2051851207954809,9.797166132339834,0.37924635066129264
1776021048384594000,3.237593994140625,-0.25874365597106513,9.792637841260433,0.4557210299894213
1776021048394655000,3.247655029296875,-0.32402368166577067,9.785539991953968,0.5555196670860052
1776021048404716000,3.257716064453125,-0.4054553258141502,9.774785373705624,0.6779262957014143
1776021048414777000,3.267777099609375,-0.5021638879409059,9.759282099625468,0.8213578113626688
1776021048424838000,3.277837890625,-0.6133267630841582,9.73844681686759,0.978182111756131
1776021048434898000,3.28789794921875,-0.7420024620316922,9.711890818375348,1.1397456425659358
1776021048444959000,3.297958984375,-0.8910244181111454,9.679275665974616,1.2992670730888842
1776021048455020000,3.30802001953125,-1.0558509693048894,9.64133551915884,1.4492149118416011
1776021048465081000,3.3180810546875,-1.2233903596539049,9.600141338983178,1.5846109320200978
1776021048475142000,3.328141845703125,-1.3857422643624244,9.556956277251244,1.7072523923046885
1776021048485203000,3.338202880859375,-1.5453791379585862,9.511042667338252,1.8227014568671582
1776021048495263000,3.348262939453125,-1.7070945713944732,9.461031558978558,1.9352245509803294
1776021048505323800,3.35832373046875,-1.8717244309723375,9.406234969907999,2.0469009651362895
1776021048515384800,3.368384765625,-2.0368771453805268,9.346877941054105,2.158098948125541
1776021048525446000,3.37844580078125,-2.19793762203902,9.284651494243741,2.265989121741056
1776021048535507000,3.3885068359375,-2.3500644122660157,9.22195158470273,2.3671076092645524
1776021048545567000,3.39856689453125,-2.489353932751715,9.160828130698203,2.46023188316375
1776021048555627800,3.408627685546875,-2.6122759635433552,9.103084966781735,2.545632284812629
1776021048565688800,3.418688720703125,-2.7160522720992564,9.050583795171976,2.623045779360831
1776021048575750000,3.42875,-2.8000965829640627,9.004469109728932,2.692467398372292
1776021048585811000,3.43881103515625,-2.8646412435889244,8.964901653972268,2.75585441339463
1776021048595871000,3.44887109375,-2.9089439111739397,8.931243129998444,2.818039066889882
1776021048605932000,3.45893212890625,-2.9326012656152245,8.90260389549136,2.8833772159799933
1776021048615993000,3.4689931640625,-2.9378014646068213,8.877785096055268,2.953751605671644
1776021048626054100,3.47905419921875,-2.927480561600625,8.855994120007752,3.028469577525556
1776021048636115000,3.489114990234375,-2.905141596281528,8.836593253967166,3.105666214452684
1776021048646175700,3.49917578125,-2.8761735682114957,8.817769895553589,3.1851155987426636
1776021048656236000,3.509236083984375,-2.846403868369758,8.796299237501621,3.2700916374996303
1776021048666296800,3.519296875,-2.819984063477814,8.769112539890408,3.364634838286042
1776021048676358000,3.52935791015625,-2.7993051403254268,8.734301923272014,3.470772615276277
1776021048686419000,3.5394189453125,-2.784353654909134,8.69169203107953,3.587794482113421
1776021048696480000,3.54947998046875,-2.7764143863424655,8.644403625681996,3.7062396597519514
1776021048706539800,3.559539794921875,-2.7820474237933754,8.603509305235743,3.7960789206311105
1776021048716600800,3.569600830078125,-2.7936449226066467,8.570638716769217,3.86135481813997
1776021048726662000,3.579661865234375,-2.8062217878460882,8.549035956770181,3.8999338473811744
1776021048736723000,3.589722900390625,-2.818022408016026,8.5365435549438,3.918746684400737
1776021048746784000,3.599783935546875,-2.830632883264124,8.528121763557195,3.9279827147796746
1776021048756844000,3.609843994140625,-2.8447259982854125,8.519947809451818,3.935533568550646
1776021048766904800,3.61990478515625,-2.860209106360376,8.510352298110723,3.945060398569703
1776021048776966000,3.6299658203125,-2.8782708327516913,8.498437403911351,3.9575884562313552
1776021048787027000,3.64002685546875,-2.9004861716911194,8.484106096220016,3.9720927824020382
1776021048797088000,3.650087890625,-2.9255495935380456,8.469127138274908,3.985654567025602
1776021048807149000,3.660149169921875,-2.949467937003076,8.455894147214293,3.9961066951960325
1776021048817209000,3.670208984375,-2.9658003553837538,8.447062021461129,4.002692795588076
1776021048827270100,3.680270263671875,-2.9690590649187563,8.444283204397559,4.006137383083999
1776021048837331000,3.6903310546875,-2.959016686592996,8.447465341565012,4.006862482488155
1776021048847391700,3.700391845703125,-2.9408988461002705,8.454660806027054,4.005024453406036
1776021048857452800,3.710452880859375,-2.9192800117492674,8.464585403192043,3.9998733542531726
1776021048867512800,3.720512939453125,-2.896580104163289,8.476856271222234,3.990376042589545
1776021048877574000,3.730573974609375,-2.8737980712518096,8.491311497554182,3.9760912043884393
1776021048887635000,3.740635009765625,-2.851028605560958,8.508001351070403,3.9567584351480005
1776021048897696000,3.750696044921875,-2.827847344198823,8.527149703654647,3.932096579839289
1776021048907757000,3.760757080078125,-2.8043396273612973,8.54896464509964,3.90144337516129
1776021048917817900,3.77081787109375,-2.781206881316006,8.57468127015829,3.8613630014464255
1776021048927878000,3.7808779296875,-2.757808177810907,8.606278185427188,3.8074744671314953
1776021048937939000,3.79093896484375,-2.7267726958170533,8.637709681001304,3.758329912473261
1776021048948000000,3.801,-2.697682502672076,8.667159647369385,3.711231476689875
1776021048958061000,3.81106103515625,-2.6770865816280245,8.694091493436694,3.66283394100666
1776021048968122000,3.8211220703125,-2.6682988795384763,8.717492242768406,3.613294249550998
1776021048978183000,3.831182861328125,-2.6705978041306135,8.735440571913122,3.5679657460495826
1776021048988243000,3.841242919921875,-2.6770360204845667,8.746769775179027,3.5352331047490235
1776021048998304000,3.851303955078125,-2.6738933385446666,8.753672978696226,3.520495262083411
1776021049008364800,3.86136474609375,-2.6529744691565633,8.763716818326712,3.5113238213732836
1776021049018425900,3.87142578125,-2.621497088614106,8.782536085087061,3.4878663734182713
1776021049028487000,3.88148681640625,-2.5951117705136535,8.810734590089321,3.436092347039282
1776021049038547000,3.891546875,-2.5868948540493846,8.844284977513551,3.355143371841311
1776021049048607700,3.901607666015625,-2.5901494719311593,8.87893777322173,3.259748814922571
1776021049058668800,3.911668701171875,-2.5844535983771086,8.913871723958849,3.1676331335440278
1776021049068729900,3.921729736328125,-2.5559409128591417,8.949339927703141,3.0898028748884796
1776021049078791000,3.931791015625,-2.503477735172212,8.986747575077414,3.0234681159764527
1776021049088852000,3.94185205078125,-2.4334739323586225,9.027381783282756,2.958882246558368
1776021049098912000,3.951912109375,-2.35126428957507,9.071988986772299,2.8880709267541764
1776021049108973000,3.96197314453125,-2.2578572532117365,9.120604841381311,2.8083851033598184
1776021049119034000,3.9720341796875,-2.1514538110226393,9.172363670191169,2.7220123495474455
1776021049129095000,3.982094970703125,-2.0331625087715683,9.225504893270134,2.6318618307620287
1776021049139156000,3.992156005859375,-1.9079753095269203,9.277456614303588,2.541419927814603
1776021049149216800,4.002216796875,-1.7797766535066066,9.326009925070405,2.4552681232765314
1776021049159277000,4.012277099609375,-1.6481002383731305,9.36982860853076,2.379177109503746
1776021049169338000,4.022338134765625,-1.5096356244042515,9.407263143911957,2.3226688942097127
1776021049179399000,4.03239892578125,-1.3757343728281557,9.435338899317383,2.2917549927689134
1776021049189460000,4.0424599609375,-1.2555053805127738,9.454059381878375,2.283601496929675
1776021049199520800,4.052520751953125,-1.1528184746287762,9.465449375420809,2.2905578919388354
1776021049209580800,4.062580810546875,-1.0853696169950067,9.472599831697345,2.293953525726497
1776021049219642000,4.07264208984375,-1.0546356021657586,9.478413486412167,2.284253238836676
1776021049229703000,4.082702880859375,-1.0410728676941245,9.485889521381258,2.259306721367687
1776021049239764000,4.092763916015625,-1.0256555913969874,9.495376896172761,2.226261506986618
1776021049249825000,4.102824951171875,-1.0060578145448118,9.504333525088429,2.196788890395313
1776021049259886000,4.112885986328125,-0.986138696783781,9.511228545299172,2.1758746971823273
1776021049269946000,4.122946044921875,-0.9686877227019518,9.516275891816615,2.1616009648971257
1776021049280007200,4.133007080078125,-0.9547234947573393,9.519798805245756,2.1522795943222937
1776021049290068200,4.143068115234375,-0.9426812478512525,9.52193464823067,2.148140302560478
1776021049300129300,4.15312939453125,-0.9312169469635934,9.522881573691963,2.1489394901141523
1776021049310190000,4.163190185546875,-0.9207892225820571,9.523147531151771,2.1522548982724548
1776021049320251000,4.1732509765625,-0.9113055741176008,9.523061606433988,2.15666993823573
1776021049330311200,4.183311279296875,-0.9032401218879967,9.522669976767897,2.1617872812494636
1776021049340372000,4.1933720703125,-0.8956435292791575,9.521908929267525,2.168289648880809
1776021049350433000,4.20343310546875,-0.8868860031321645,9.520879001697898,2.1763944832727313
1776021049360494000,4.213494140625,-0.8755681980431079,9.519920970320701,2.185151936354488
1776021049370555100,4.22355517578125,-0.8613703074730932,9.519376195919513,2.193146296109259
1776021049380616000,4.233615966796875,-0.8457089932870119,9.51960825110972,2.1982313442885872
1776021049390676000,4.243676025390625,-0.8311584898870438,9.52063291798234,2.199340328443795
1776021049400737000,4.253737060546875,-0.8207944783914833,9.52171311443448,2.198558968807757
1776021049410798000,4.263798095703125,-0.8143788391955197,9.52285059403181,2.196015421804786
1776021049420859100,4.273859130859375,-0.8091631503738462,9.524392562776804,2.19125156840384
1776021049430920200,4.283920166015625,-0.8015784673985094,9.526313886228204,2.185680782534182
1776021049440981200,4.293981201171875,-0.7882461806818842,9.52831587370038,2.181798095881939
1776021049451041000,4.304041015625,-0.7677663602981716,9.53029389577508,2.1804661166258157
1776021049461102000,4.31410205078125,-0.7420522194575518,9.532291791594028,2.1806386967137454
1776021049471163100,4.3241630859375,-0.7147557047963142,9.534449261888861,2.1803137025430797
1776021049481224000,4.334223876953125,-0.6899575097568332,9.536944585835933,2.177392846660316
1776021049491285000,4.344284912109375,-0.6699289402719587,9.53989700590074,2.1707062085032462
1776021049501346000,4.354345947265625,-0.6554662612859159,9.543426349070668,2.1595754504188895
1776021049511405800,4.36440576171875,-0.6445533837359398,9.547767008623481,2.1436185873523352
1776021049521467000,4.374466796875,-0.6350360521975904,9.553092587560414,2.1226313289031387
1776021049531528000,4.38452783203125,-0.6257458804786205,9.559260462540388,2.0974718993358312
1776021049541589000,4.394589111328125,-0.6151099932391196,9.566182370758057,2.0688566302262243
1776021049551650000,4.404650146484375,-0.6010232714259997,9.573922025099396,2.036951818051934
1776021049561711000,4.414711181640625,-0.5816697516584769,9.582571195501089,2.0015940889447927
1776021049571771100,4.424771240234375,-0.5592103382974862,9.591677462020515,1.9640264287032185
1776021049581832200,4.434832275390625,-0.5362095846014097,9.600597266057132,1.9264904787741601
1776021049591893000,4.44489306640625,-0.5115740693103522,9.609175124788283,1.8900877706587313
1776021049601954000,4.4549541015625,-0.48591626176685093,9.617049219164251,1.8565121026627718
1776021049612015000,4.46501513671875,-0.4646285590663552,9.622941199812292,1.8312559347227215
1776021049622076200,4.475076171875,-0.4477437674999237,9.626292848327756,1.8178056476496158
1776021049632136200,4.48513623046875,-0.4283479064280167,9.627692193731665,1.8150705235973
1776021049642197200,4.495197265625,-0.40150377517677843,9.628160395765304,1.818710925926268
1776021049652258000,4.505258056640625,-0.3723086238199845,9.628042906865478,1.8255336115531622
1776021049662318800,4.51531884765625,-0.34611568648647517,9.626492170292138,1.8388205247581004
1776021049672380000,4.5253798828125,-0.32357597443088887,9.622951136684417,1.8613138038560748
1776021049682441000,4.53544091796875,-0.30740433610249307,9.617972179228067,1.8895825976155698
1776021049692501000,4.5455009765625,-0.3026857648816891,9.61231225377023,1.9189171209104359
1776021049702562000,4.55556201171875,-0.3084345924656838,9.606661096140742,1.9461025033473967
1776021049712623000,4.565623046875,-0.31729061055108904,9.601614334145188,1.9694459695339201
1776021049722684200,4.57568408203125,-0.32401137017346915,9.597827801343797,1.9867375883355736
1776021049732745200,4.5857451171875,-0.32927612230125813,9.59556803971827,1.9967636000484228
1776021049742806000,4.595805908203125,-0.33557350541241465,9.594560323980451,2.0005526170678434
1776021049752866000,4.605865966796875,-0.34365484933089463,9.594512977707385,1.9994030086413024
1776021049762927000,4.615927001953125,-0.3520005798066035,9.595241876503824,1.9944509391918777
1776021049772988200,4.62598828125,-0.35694282198175786,9.596791444033384,1.9860991443015634
1776021049783049200,4.63604931640625,-0.35563919203728434,9.599346389213204,1.9739463496930896
1776021049793110000,4.646110107421875,-0.3466546887340024,9.602730770954489,1.9590324198082087
1776021049803171000,4.656171142578125,-0.33089298291336744,9.606753450599312,1.9419529824525117
1776021049813231000,4.666231201171875,-0.3106678679430857,9.611092356586456,1.9237389881089328
1776021049823292000,4.6762919921875,-0.28850681647416204,9.615400867435335,1.9055796465620398
1776021049833353000,4.68635302734375,-0.2672254156502895,9.619431145864725,1.888260847492516
1776021049843414000,4.6964140625,-0.247302936888393,9.623146366995572,1.871977528950572
1776021049853475000,4.70647509765625,-0.22676349527193232,9.62669499938786,1.8562689415566622
1776021049863536000,4.7165361328125,-0.20579351675109936,9.630282210224866,1.8400338460706174
1776021049873596000,4.726595947265625,-0.1854612333456054,9.634046531194448,1.8224002819634972
1776021049883657000,4.736656982421875,-0.16576392337540163,9.637992053949832,1.8033334701828658
1776021049893718000,4.746718017578125,-0.14723216831954195,9.642007719331978,1.7833631336912512
1776021049903779000,4.756779052734375,-0.13066078095068223,9.645914663642644,1.763419977467507
1776021049913840000,4.766840087890625,-0.11821964352065696,9.649659110867976,1.7437002547360956
1776021049923901200,4.776901123046875,-0.1098496097207535,9.653055183047055,1.725346705791354
1776021049933962000,4.7869619140625,-0.1048880600569304,9.655936291441321,1.7094649537876248
1776021049944022300,4.797022216796875,-0.10388629000270738,9.658242814818024,1.6964422444768248
1776021049954083000,4.8070830078125,-0.10548007113332859,9.659995211443304,1.686344921093434
1776021049964143900,4.817143798828125,-0.10930829678513108,9.661243165677785,1.678927630574256
1776021049974205000,4.827204833984375,-0.11448528843107633,9.662169048351048,1.67324593167603
1776021049984266000,4.837265869140625,-0.1207159721147269,9.662922497066855,1.6684591357909142
1776021049994327000,4.8473271484375,-0.12795347648705355,9.663583591324091,1.6640848662294447
1776021050004387000,4.857386962890625,-0.13483921741279772,9.664208445224165,1.659905680848658
1776021050014448000,4.8674482421875,-0.14185476786382495,9.664797643288969,1.6558907461188732
1776021050024509000,4.877509033203125,-0.15038015662222168,9.665285719066858,1.652277670188248
1776021050034570000,4.887570068359375,-0.16014537110757082,9.66556336696446,1.649734123185277
1776021050044631000,4.897631103515625,-0.17031104701943695,9.665587332361936,1.648571070755273
1776021050054692000,4.907692138671875,-0.17992354602795094,9.665327220121025,1.649077412842214
1776021050064753200,4.917753173828125,-0.18772181695504114,9.664837975299358,1.6510798387058079
1776021050074813200,4.927813232421875,-0.1931655423789285,9.66421838209629,1.6540817970007657
1776021050084874200,4.937874267578125,-0.19720398584846405,9.66347019407749,1.6579608303911983
1776021050094935300,4.947935302734375,-0.2005857737738639,9.662609777855872,1.6625602870106697
1776021050104995800,4.957995849609375,-0.2031777812947519,9.661609660902618,1.6680606379926204
1776021050115057000,4.968056884765625,-0.20488959018131717,9.660531802538037,1.6740778524555264
1776021050125118000,4.978117919921875,-0.2058839897798374,9.659528178453446,1.6797440615236758
1776021050135178000,4.988177978515625,-0.20673205797653643,9.658635029006003,1.684757944162935
1776021050145239000,4.998239013671875,-0.208100515051838,9.657835987582802,1.6891582249484955
1776021050155300000,5.008300048828125,-0.21020820965450257,9.657068510341643,1.6932821730107068
1776021050165361200,5.018361083984375,-0.21341230292543767,9.656320322322845,1.6971444013968109
1776021050175422000,5.028421875,-0.2178653368115425,9.655534140381217,1.7010472540542483
1776021050185483000,5.03848291015625,-0.22273049516249446,9.654729253739118,1.7049824015460908
1776021050195544000,5.0485439453125,-0.22812594273155554,9.653877020823955,1.7091015273027121
1776021050205604000,5.05860400390625,-0.23372851197896524,9.653059859222173,1.7129503116853535
1776021050215665200,5.0686650390625,-0.2395032411891967,9.652291797459124,1.7164719099402426
1776021050225726200,5.078726318359375,-0.24605213310969992,9.651614921110868,1.7193543335087595
1776021050235787300,5.088787353515625,-0.25329792125318196,9.651045012268423,1.7215012824095786
1776021050245848000,5.09884814453125,-0.2611293455312028,9.650557521012425,1.7230635632902382
1776021050255909000,5.1089091796875,-0.26905102364225314,9.650234864929319,1.723648815832287
1776021050265969200,5.11896923828125,-0.27715790386078876,9.650085811847449,1.723192742627859
1776021050276030200,5.1290302734375,-0.28523391401702536,9.650077044019103,1.7219295908242462
1776021050286091000,5.139091064453125,-0.29264232711000365,9.650126143857836,1.7204085187368094
1776021050296152000,5.149152099609375,-0.2985698905280791,9.650260583892464,1.7186415090642868
1776021050306213000,5.159213134765625,-0.3030154900263995,9.650462828466296,1.716727492136508
1776021050316274200,5.169274169921875,-0.3057842240873724,9.650729370447992,1.7147338341012597
1776021050326335200,5.179335205078125,-0.3073303210182115,9.65101403260827,1.7128506507031618
1776021050336395300,5.189395263671875,-0.3083873557904735,9.651317399469017,1.7109592839986085
1776021050346456300,5.199456298828125,-0.30947862162590023,9.651644731727242,1.7089079044267534
1776021050356517000,5.20951708984375,-0.3109539548754692,9.651952190241216,1.706903871127963
1776021050366578200,5.219578125,-0.31224976683966815,9.652250296404958,1.7049806479804217
1776021050376639200,5.22963916015625,-0.3129567825978622,9.652477675420045,1.7035586523532866
1776021050386700000,5.239699951171875,-0.3126835916796699,9.652637834417819,1.7027029123067854
1776021050396761000,5.249760986328125,-0.31114688363168386,9.652759999492764,1.7022912627659736
1776021050406821400,5.2598212890625,-0.308919161112234,9.652911975184082,1.701844249650836
1776021050416882200,5.269882080078125,-0.3071301953362301,9.653094930535554,1.701126895161718
1776021050426943200,5.279943115234375,-0.30577311817146835,9.65327087162435,1.7003692086622118
1776021050437004000,5.290004150390625,-0.304275116432365,9.653328739291428,1.7003133868217468
1776021050447065000,5.300065185546875,-0.30179305382566524,9.653190207603574,1.701544828312844
1776021050457126100,5.310126220703125,-0.2987176649683155,9.652847093254326,1.7040240779079496
1776021050467186200,5.320186279296875,-0.2958443745543249,9.652381229308247,1.7071663214564323
1776021050477247200,5.330247314453125,-0.2947173980847001,9.651762805148959,1.7108577233202755
1776021050487308300,5.340308349609375,-0.29549157906128093,9.651037998005748,1.714804707380384
1776021050497369300,5.350369384765625,-0.2969523723288439,9.65023135779798,1.7190855995699763
1776021050507430100,5.36043017578125,-0.29789038383131844,9.649388477233051,1.7236473545275628
1776021050517491200,5.3704912109375,-0.2979073532324284,9.648581837025285,1.7281531415142117
1776021050527552000,5.380552001953125,-0.2969843201033771,9.647850015619397,1.7323915097363292
1776021050537612300,5.3906123046875,-0.2954578777210787,9.64718950588405,1.736322565574944
1776021050547673300,5.40067333984375,-0.2937126232226379,9.646662267139554,1.739543281187117
1776021050557734100,5.410734130859375,-0.29244183610184116,9.64631623018086,1.741681608390063
1776021050567795200,5.420795166015625,-0.29184593430161476,9.64610697134435,1.742943152758479
1776021050577856300,5.430856201171875,-0.2916805694057606,9.645905895814298,1.744079901703447
1776021050587917000,5.4409169921875,-0.29066121802907435,9.645672087058424,1.7455346305564046
1776021050597978000,5.45097802734375,-0.28827132721785453,9.64538041063547,1.7475481623359024
1776021050608038100,5.4610380859375,-0.28537478379243986,9.645017422541976,1.7500303345404564
1776021050618099200,5.47109912109375,-0.28287677469793704,9.644612933394312,1.7526580526955424
1776021050628160300,5.48116015625,-0.28116505714291706,9.64428092496097,1.754757801453769
1776021050638221300,5.49122119140625,-0.28031907130545003,9.64394424035251,1.7567434223130345
1776021050648282400,5.501282470703125,-0.2791823771594092,9.643672437673807,1.7584145703956484
1776021050658343200,5.51134326171875,-0.27731883004354313,9.643473115709423,1.7598050018407403
1776021050668404200,5.521404296875,-0.2749927434498444,9.643381930294632,1.7606778391525149
1776021050678464300,5.53146435546875,-0.27345841002203525,9.643371408900618,1.7609639626175164
1776021050688525300,5.541525390625,-0.2733596988879144,9.64332815428078,1.7612072698540984
1776021050698586000,5.551586181640625,-0.27400568690756333,9.64323872243166,1.761601822129637
1776021050708647200,5.561647216796875,-0.27541686887973915,9.643134093013405,1.7619564807862043
1776021050718708200,5.571708251953125,-0.2772370335116051,9.643208911815286,1.7612592923022805
1776021050728769300,5.581769287109375,-0.2790429321561009,9.643546765467525,1.759125933535397
1776021050738830000,5.591830078125,-0.2804247236370109,9.644248191735148,1.755059268618375
1776021050748890000,5.60189013671875,-0.2812196186080575,9.64540203794539,1.748575605687499
1776021050758951200,5.611951171875,-0.28100210339985787,9.647122870388626,1.7390923225492239
1776021050769012200,5.62201220703125,-0.2793080858983099,9.64940952002108,1.7266360149495303
1776021050779073300,5.6320732421875,-0.2759575698940083,9.65224562022984,1.7112581208147108
1776021050789134300,5.64213427734375,-0.27084055567383764,9.655554014125466,1.693321774368733
1776021050799195400,5.6521953125,-0.26396586586507037,9.659278587606549,1.6730311198815702
1776021050809256200,5.662256103515625,-0.2557665215901099,9.663239307931065,1.651298596023023
1776021050819316200,5.672316162109375,-0.24680318893902004,9.667233930525184,1.629137763749808
1776021050829377300,5.682377197265625,-0.2369279473410919,9.671218031725287,1.6068062510848045
1776021050839438000,5.69243798828125,-0.22620345023637636,9.675123806992172,1.5846731836013495
1776021050849499100,5.7024990234375,-0.2145580388944596,9.67894950276017,1.5627813775278627
1776021050859560200,5.712560302734375,-0.2023028250911273,9.682506902980803,1.5422491693697868
1776021050869621200,5.722621337890625,-0.19000490465722977,9.685603699952363,1.5242643076069653
1776021050879682300,5.732682373046875,-0.1768868452131748,9.688267950725555,1.5088361445896326
1776021050889742000,5.7427421875,-0.16223311890074982,9.690684948739408,1.4948979278691112
1776021050899803100,5.75280322265625,-0.14617643045522272,9.693000824466347,1.4814726291067897
1776021050909864200,5.7628642578125,-0.13024504888979718,9.69534767985344,1.467537773387134
1776021050919925200,5.77292529296875,-0.11520365670034662,9.697814946749807,1.4524047939240932
1776021050929986300,5.782986328125,-0.10182960406807251,9.700440619078279,1.43577938394621
1776021050940047400,5.79304736328125,-0.09120044796345755,9.702945295375585,1.419473561311513
1776021050950108400,5.8031083984375,-0.0826734609030187,9.704992291033268,1.4059388108253479
1776021050960168200,5.813168212890625,-0.07483702252316288,9.706543027606607,1.395637050911039
1776021050970229200,5.823229248046875,-0.06711064778850413,9.70772668443322,1.3877709937110543
1776021050980290000,5.8332900390625,-0.06013284923171158,9.708576579260825,1.3821430708266793
1776021050990351000,5.84335107421875,-0.054984759453264996,9.709030168247223,1.3791646395377815
1776021051000412200,5.853412109375,-0.052434549814066846,9.709083359739184,1.3788890374667941
1776021051010473200,5.86347314453125,-0.05355086789235938,9.708695821726321,1.3815744771584868
1776021051020534300,5.8735341796875,-0.05886531808050349,9.707799749669432,1.3876365536764264
1776021051030594000,5.883593994140625,-0.06737801632068585,9.706417355400323,1.3968892429292201
1776021051040655000,5.893655029296875,-0.07768780884440056,9.704438748803733,1.4100414238385854
1776021051050716200,5.903716064453125,-0.08859643947752192,9.701877373883127,1.4269197856642306
1776021051060777200,5.913777099609375,-0.09954065288067794,9.698755442470311,1.4472775140382348
1776021051070838300,5.92383837890625,-0.10999848013953305,9.695188105377554,1.4702439636059104
1776021051080899300,5.9338994140625,-0.12028422963395714,9.69124199810028,1.4952479103505611
1776021051090960400,5.94396044921875,-0.13000618949946946,9.687142161566019,1.5207782190568744
1776021051101020200,5.954020263671875,-0.1390086668508593,9.683177349588274,1.545030470651388
1776021051111081200,5.964081298828125,-0.14688039573980494,9.679682493209839,1.5660658060260115
1776021051121142300,5.974142333984375,-0.15345191961722449,9.676815413340925,1.583058003489673
1776021051131203000,5.984203125,-0.15771642692759633,9.674573187372088,1.5962937710292637
1776021051141264100,5.99426416015625,-0.15879061376405879,9.6728722286731,1.6064584605604408
1776021051151325200,6.0043251953125,-0.15829331350009887,9.671711368200182,1.613485582718253
1776021051161386200,6.01438623046875,-0.1600604875694029,9.670705990549921,1.619321449264884
1776021051171447300,6.024447265625,-0.16530045231580734,9.669429394742846,1.6264108230039476
1776021051181507000,6.034507080078125,-0.1711661660114303,9.66787573556006,1.635017031046748
1776021051191568100,6.044568115234375,-0.17845884377025067,9.666034491607546,1.6450881970755755
1776021051201629200,6.054629150390625,-0.18872271935958415,9.663829090517758,1.6568592988900839
1776021051211690200,6.064690185546875,-0.2004546947401017,9.661393387803434,1.6696378241814671
1776021051221751800,6.074751708984375,-0.21289545771079138,9.658927874472736,1.6823196111001073
1776021051231812600,6.0848125,-0.22754257161933927,9.656664021193981,1.6933547998555003
1776021051241873700,6.094873779296875,-0.24647912635011596,9.654723993042111,1.7017505800180137
1776021051251933700,6.10493359375,-0.27186463802456856,9.653263857361674,1.7061609438061713
1776021051261994500,6.114994384765625,-0.30514101254669945,9.652391750702261,1.7054690160192547
1776021051272055600,6.1250556640625,-0.3450411525901407,9.65226198684275,1.698584078811109
1776021051282116600,6.13511669921875,-0.38781752392332997,9.653293083456157,1.6834338559523223
1776021051292177700,6.145177734375,-0.42995556082036346,9.655706574338675,1.6591757591389118
1776021051302238700,6.15523876953125,-0.47023971347901966,9.659118428608775,1.6281003835260868
1776021051312299800,6.1652998046875,-0.5092669248791412,9.662527360269427,1.595805256859958
1776021051322360800,6.17536083984375,-0.5480262425906955,9.664990535512565,1.5678044663868844
1776021051332420600,6.185420654296875,-0.5861806532116607,9.66615957929194,1.5466512037210165
1776021051342481700,6.195481689453125,-0.6178355457454919,9.667001290813088,1.5289632790781558
1776021051352542700,6.205542724609375,-0.6379012323703617,9.668581838002801,1.510629750008136
1776021051362603800,6.215603759765625,-0.6464834750156849,9.670945060002802,1.4917415096648037
1776021051372664600,6.22566455078125,-0.6453976525403559,9.673762455511092,1.4738335125304758
1776021051382725600,6.2357255859375,-0.6384335856813937,9.676374099314213,1.4596461433544754
1776021051392786700,6.24578662109375,-0.630069150505215,9.678015436780452,1.4523863814845681
1776021051402846500,6.255846435546875,-0.6228796043273062,9.678445644891262,1.4526155140653252
1776021051412907500,6.265907470703125,-0.6182861390572041,9.677911391884088,1.4581256557889282
1776021051422968600,6.275968505859375,-0.6165704942457377,9.676875034573674,1.4657184490054844
1776021051433029600,6.286029541015625,-0.6168538412317633,9.67581880351901,1.4725541402444242
1776021051443090700,6.296090576171875,-0.6175524910204112,9.675254739895463,1.4759607338175176
1776021051453151700,6.30615185546875,-0.6171697022479027,9.675399116802215,1.475170314092189
1776021051463212800,6.316212890625,-0.6155598558984696,9.676216278403997,1.470477772361785
1776021051473273900,6.32627392578125,-0.614255495301634,9.6776273142457,1.4617092133641243
1776021051483333600,6.336333740234375,-0.6140767046686262,9.679594814926386,1.4486983406215905
1776021051493394700,6.346394775390625,-0.6146273242887109,9.681977326148747,1.432451262436807
1776021051503455700,6.356455810546875,-0.6144472915466874,9.684557405769825,1.4149838486768305
1776021051513516500,6.3665166015625,-0.6130808985643088,9.68714040800035,1.3977934982925653
1776021051523577600,6.37657763671875,-0.6115318059587851,9.68958429402113,1.3814292234688996
1776021051533638700,6.386638671875,-0.6115331211330369,9.691749363100529,1.3661619501017033
1776021051543699700,6.39669970703125,-0.6137463036704808,9.69361048079729,1.351895524340123
1776021051553760800,6.4067607421875,-0.6187015879902988,9.695034960642456,1.3393649824604392
1776021051563820500,6.416820556640625,-0.6266760740008205,9.695956751662493,1.3289393039055168
1776021051573881600,6.426881591796875,-0.637992490850389,9.696265379220247,1.3212785600192845
1776021051583942700,6.436942626953125,-0.6518679445330053,9.696059042993188,1.3160245850138366
1776021051594003700,6.447003662109375,-0.6672974957898259,9.695403209432959,1.3131202418744563
1776021051604064800,6.457064697265625,-0.6833222364608198,9.694382049691676,1.3124025951243936
1776021051614125800,6.467125732421875,-0.6989759518623352,9.692983288809657,1.3144912379667162
1776021051624187000,6.477186767578125,-0.7142712092150002,9.691219786268473,1.3192642975874245
1776021051634247700,6.48724755859375,-0.7298517132498323,9.689093295633793,1.3263402273230254
1776021051644307700,6.4973076171875,-0.7461966257859021,9.6865424421072,1.3358508368596433
1776021051654368500,6.507368408203125,-0.7631417692374438,9.683517541328072,1.3481431860692799
1776021051664429600,6.5174296875,-0.7813049101766198,9.679946112582087,1.3633074374534189
1776021051674490600,6.52749072265625,-0.8008056563951075,9.675637017211317,1.3824512599930165
1776021051684551700,6.5375517578125,-0.8198726143062114,9.670618312266468,1.406187671019882
1776021051694612700,6.54761279296875,-0.8361223228394985,9.665191026520729,1.4336631224445997
1776021051704673800,6.557673828125,-0.846753241642937,9.659935005688666,1.4625523861899972
1776021051714733600,6.567733642578125,-0.8511532301675527,9.655205639079213,1.4909537202879786
1776021051724794600,6.577794677734375,-0.8524459733918309,9.650867317613958,1.518057123529911
1776021051734855700,6.587855712890625,-0.8554382140103727,9.646338442012667,1.5449235031455755
1776021051744916700,6.597916748046875,-0.8632211229715496,9.641108140143752,1.5729865451999008
1776021051754977800,6.607977783203125,-0.8765069401979446,9.634910454547404,1.6033238157965242
1776021051765038800,6.618038818359375,-0.8942469603542238,9.627835401594638,1.6356975606568156
1776021051775099600,6.628099609375,-0.9148444157682358,9.620516603013872,1.6670618362136185
1776021051785160700,6.63816064453125,-0.9378875107686966,9.61382616546452,1.6926546887621283
1776021051795220700,6.648220703125,-0.9616192456204443,9.608509354355931,1.7094553091764448
1776021051805281500,6.658281494140625,-0.9826640794757753,9.604825112885235,1.7181641008108852
1776021051815342600,6.668342529296875,-0.9970142379980533,9.60237187451422,1.7236043921686708
1776021051825403600,6.678403564453125,-1.0012539944596588,9.600703649041057,1.7304256164908407
1776021051835464700,6.688464599609375,-0.9946299001447856,9.5994089330554,1.7413840867482124
1776021051845525800,6.69852587890625,-0.9823211843222379,9.597830723953246,1.757004557467252
1776021051855586800,6.7085869140625,-0.9732627024672925,9.595085224637389,1.7769319315999745
1776021051865647900,6.71864794921875,-0.9730546126745641,9.590539982423186,1.8014146309494972
1776021051875707600,6.728707763671875,-0.9823613702021539,9.583850129395723,1.831704263012111
1776021051885768700,6.738768798828125,-0.9973443467352539,9.575338321638107,1.867776423998922
1776021051895829800,6.748829833984375,-1.013655430066958,9.565824643361568,1.9073273670122026
1776021051905890800,6.758890869140625,-1.0286691670645027,9.556268294987081,1.9467799642175434
1776021051915951600,6.76895166015625,-1.0419674784462898,9.54763607572019,1.9817489862680433
1776021051926012700,6.7790126953125,-1.0537073083397,9.540691371148824,2.0088062122806907
1776021051936073700,6.78907373046875,-1.0638305698819457,9.535870819124579,2.0262883852183817
1776021051946134800,6.799134765625,-1.0713135460484773,9.533509350690245,2.0334381108425554
1776021051956195600,6.809195556640625,-1.077268289734423,9.533570140966772,2.0299987840436398
1776021051966255600,6.819255615234375,-1.083273667629063,9.535501985812187,2.0177019047893583
1776021051976316700,6.829316650390625,-1.0903396604925393,9.538228780427575,2.0009366479493678
1776021051986377700,6.839377685546875,-1.0973399677086622,9.541199905192851,1.9828581165537238
1776021051996438800,6.849438720703125,-1.1027967718098313,9.544348140090703,1.9645967759370804
1776021052006499800,6.859499755859375,-1.1072365078229456,9.547305820852518,1.9476582083567975
1776021052016561000,6.869560791015625,-1.1125787456337362,9.54961409779489,1.9332466750361024
1776021052026621700,6.87962158203125,-1.1209576477266847,9.550945638659595,1.921793699260056
1776021052036682500,6.8896826171875,-1.132109375533834,9.55142085495591,1.91287097261399
1776021052046742800,6.89974267578125,-1.1440928779900073,9.551450665572284,1.905577308474481
1776021052056803600,6.909803466796875,-1.1562694918654859,9.551475215491651,1.8980840301096438
1776021052066864600,6.91986474609375,-1.167401784319803,9.55207610399425,1.888223730352521
1776021052076925700,6.92992578125,-1.1759202410139142,9.55362450248003,1.8750676039204
1776021052086986800,6.93998681640625,-1.1815073204312472,9.555840424963831,1.8602020432218909
1776021052097047800,6.9500478515625,-1.1848699287321418,9.558034135615825,1.8467415270157157
1776021052107108600,6.960108642578125,-1.1866616344545036,9.55946036902666,1.8381877798125146
1776021052117169700,6.970169677734375,-1.1877979450080542,9.559453939285874,1.8374930755466221
1776021052127229700,6.980229736328125,-1.1893105415280907,9.557598666808008,1.8461444379054008
1776021052137290800,6.990290771484375,-1.192682063787803,9.553720364069939,1.8639571579717098
1776021052147351800,7.000351806640625,-1.2001591216702014,9.547861701169609,1.8890097661636769
1776021052157412900,7.010412841796875,-1.2140342100266366,9.540777880388498,1.9157424363970756
1776021052167474000,7.020473876953125,-1.233465544270724,9.533301845419407,1.9403829566568136
1776021052177534500,7.030534423828125,-1.254778965934366,9.525421905824542,1.9652616695865988
1776021052187595500,7.040595458984375,-1.273217270553112,9.517747717934846,1.990422852719575
1776021052197656600,7.050656494140625,-1.2875412717208266,9.511293427228926,2.011949040351063
1776021052207717600,7.060717529296875,-1.299878336855024,9.506709022048115,2.025629629048705
1776021052217777700,7.070777587890625,-1.3115483163826167,9.504179211309552,2.0299708731234074
1776021052227838700,7.080838623046875,-1.3214758361570536,9.503520455139874,2.026614548432827
1776021052237899800,7.090899658203125,-1.3247516429573296,9.504908694627881,2.017951787897199
1776021052247960800,7.1009609375,-1.3205331484794616,9.508560202872752,2.003461197990924
1776021052258022000,7.11102197265625,-1.315200555279851,9.513724453768134,1.9823421298556028
1776021052268083000,7.1210830078125,-1.3114626839257777,9.5192692284137,1.9580458929888902
1776021052278144000,7.13114404296875,-1.307365331609547,9.524030743727087,1.937529759182781
1776021052288204800,7.141204833984375,-1.3016197736948727,9.52725204386115,1.9255264560475944
1776021052298264800,7.151264892578125,-1.29483639716506,9.528787582865357,1.9224904493525623
1776021052308326000,7.161325927734375,-1.2891639044865966,9.528791674518585,1.9262810738071798
1776021052318386700,7.17138671875,-1.2869070654705166,9.527523262017965,1.9340569685056805
1776021052328447700,7.18144775390625,-1.290889997626841,9.52486485646367,1.9444683262743054
1776021052338508800,7.1915087890625,-1.2991004843503235,9.521017533385754,1.9577847578346728
1776021052348569900,7.20156982421875,-1.3073416584730146,9.516562892064451,1.9738905278526246
1776021052358631000,7.211630859375,-1.3149204231642186,9.512115849527715,1.9902359518453479
1776021052368692000,7.22169189453125,-1.3216282502397894,9.508328147682548,2.0038385068707165
1776021052378753000,7.2317529296875,-1.325611620787531,9.505661558821798,2.01383339279294
1776021052388812800,7.241812744140625,-1.324798550838977,9.50427682646513,2.0209015776135026
1776021052398873900,7.251873779296875,-1.318162035433948,9.504317742997408,2.0250372161135077
1776021052408935000,7.261934814453125,-1.3067352170124649,9.505682017087937,2.0260431782856583
1776021052418996000,7.271995849609375,-1.2906971054032443,9.508186693385243,2.0245676989056167
1776021052429056800,7.282056884765625,-1.2712551766999065,9.511447156485914,2.0215461591273547
1776021052439117800,7.292117919921875,-1.2500354246690868,9.515226090502738,2.016992733606696
1776021052449179000,7.302178955078125,-1.2277078575268388,9.519854919347166,2.0088516588576137
1776021052459240000,7.312239990234375,-1.2039447776887564,9.525963757616282,1.9942231217853723
1776021052469299700,7.3222998046875,-1.1776999640375374,9.533839605557919,1.9721312630951404
1776021052479360800,7.33236083984375,-1.1483548462834208,9.543113045337796,1.9443975991256535
1776021052489421800,7.342421875,-1.115753284016624,9.55349240053296,1.9121356440767645
1776021052499483000,7.35248291015625,-1.0787711685780434,9.56490811303854,1.875944825146347
1776021052509544000,7.3625439453125,-1.0367018130030483,9.577200023856758,1.8365362132132053
1776021052519605000,7.37260498046875,-0.9909066418379545,9.589944354617595,1.794840805517137
1776021052529666000,7.382666015625,-0.9421651150226592,9.602776363661885,1.7519732853017747
1776021052539726800,7.392726806640625,-0.8914991229508071,9.615535891991852,1.7079527956590055
1776021052549787600,7.40278759765625,-0.8407184184581041,9.628193128991127,1.661769867285341
1776021052559848000,7.412847900390625,-0.7923357880830765,9.64067910107672,1.612422629661858
1776021052569908700,7.42290869140625,-0.7512223449934273,9.65272843531072,1.559133814805746
1776021052579969800,7.4329697265625,-0.7182835866615176,9.664342300736903,1.501643894997984
1776021052590030800,7.44303076171875,-0.6898538301866501,9.675697807487845,1.4406069502331316
1776021052600092000,7.453091796875,-0.661799848221615,9.686963882389664,1.3766275222755968
1776021052610153000,7.463153076171875,-0.633663156409189,9.69812357430756,1.3096777002051472
1776021052620213800,7.4732138671875,-0.6066269366519526,9.708915017434954,1.2407210683569312
1776021052630274800,7.48327490234375,-0.581453880418092,9.718877608522773,1.172910537803918
1776021052640336000,7.4933359375,-0.5586170120468363,9.727257898855209,1.1130102689187973
1776021052650396000,7.50339599609375,-0.5375906636962666,9.733339849117398,1.0693342087995261
1776021052660457000,7.51345703125,-0.5170854896755889,9.736824184101819,1.0475080883733927
1776021052670518000,7.52351806640625,-0.49608157235253597,9.737547822201252,1.0509275414280592
1776021052680579000,7.5335791015625,-0.4764706437578424,9.73527578561604,1.080626879447326
1776021052690640000,7.543639892578125,-0.46238848852198566,9.730078801494836,1.1323144696518779
1776021052700700700,7.55370068359375,-0.45593920278474687,9.723057524555921,1.1935816429760306
1776021052710761700,7.56376171875,-0.45868185255639254,9.715793671032786,1.2503384992688893
1776021052720822800,7.57382275390625,-0.4723523947840556,9.708844290286303,1.2983048039279876
1776021052730883800,7.5838837890625,-0.49469267527740446,9.70121803319156,1.346120301939547
1776021052740944000,7.59394384765625,-0.5205630661256611,9.692202952086925,1.4002147340901194
1776021052751005000,7.6040048828125,-0.5468395170241594,9.681945761966706,1.4598855050683022
1776021052761066000,7.61406591796875,-0.5666666091201826,9.671627781569956,1.5195080529905856
1776021052771126800,7.624126708984375,-0.568537882884778,9.663077979889511,1.5722804427571593
1776021052781187800,7.634187744140625,-0.5456831865958869,9.657795655572414,1.6123250145062804
1776021052791249000,7.644248779296875,-0.49936895999275144,9.656407416084408,1.6354855253413318
1776021052801309700,7.654309814453125,-0.43426078373361376,9.658649642053247,1.6408207488894462
1776021052811370800,7.664370849609375,-0.35541542975138873,9.663467271468043,1.6314035167247056
1776021052821431800,7.674431884765625,-0.2684685841117985,9.669264559569955,1.6135758913502096
1776021052831491800,7.684491943359375,-0.1804801935300231,9.674413612896203,1.594840065089613
1776021052841553000,7.694552978515625,-0.09969771573906763,9.677859953957796,1.580969214516878
1776021052851613700,7.70461376953125,-0.032607576449052426,9.679260468405484,1.5751869778536258
1776021052861674800,7.7146748046875,0.01951146854190156,9.678775899758934,1.578385189373046
1776021052871735800,7.72473583984375,0.06034869307263288,9.676520814308523,1.5911219213493168
1776021052881796900,7.734796875,0.09528795473910867,9.672838910925387,1.6116640663795172
1776021052891858000,7.74485791015625,0.12854489390840754,9.668575992783904,1.634778546115756
1776021052901919000,7.7549189453125,0.15967393593722953,9.664691260305046,1.654887998817116
1776021052911980000,7.76497998046875,0.18401691628880798,9.661835870873928,1.6689651856169103
1776021052922039800,7.775039794921875,0.1965965945398435,9.66009633373022,1.677579430835694
1776021052932100900,7.785100830078125,0.19582535443902013,9.659334701707959,1.682057453032583
1776021052942162000,7.795161865234375,0.18251785510377957,9.659131288090348,1.6847176121525465
1776021052952222700,7.80522265625,0.15982636828627436,9.659013214668631,1.68769034435302
1776021052962283800,7.81528369140625,0.13210194706916809,9.658760701212286,1.6915262692540882
1776021052972344800,7.8253447265625,0.10309342259196563,9.65841758686304,1.6954945883631705
1776021052982406000,7.835406005859375,0.07383438938583713,9.65810136052072,1.6988231482639908
1776021052992467000,7.845467041015625,0.04189793539769016,9.657610362133383,1.7027029123067854
1776021053002528000,7.855528076171875,0.003702361078452668,9.656576927432416,1.709058126552403
1776021053012587800,7.865587890625,-0.04208139763923827,9.654443422535062,1.720563270907104
1776021053022648800,7.87564892578125,-0.09339046882102266,9.65070014435351,1.7394409898564218
1776021053032710000,7.8857099609375,-0.14540947380387223,9.645062430727481,1.7669167335420846
1776021053042771000,7.89577099609375,-0.19248050099052488,9.637576458886265,1.8029044311158358
1776021053052832000,7.90583203125,-0.23066872254954648,9.628628597798944,1.8457253357104957
1776021053062892800,7.915892822265625,-0.25861535341627895,9.618599371215701,1.8936855028897523
1776021053072953900,7.925953857421875,-0.2788812022557482,9.607769349643588,1.9450918650001285
1776021053083015000,7.936014892578125,-0.2962154911553487,9.596359482356906,1.998137811011076
1776021053093075700,7.94607568359375,-0.3150747611325234,9.584463292858004,2.051629162701964
1776021053103136800,7.95613671875,-0.33862211586069313,9.57214507855475,2.1046993663713334
1776021053113196800,7.96619677734375,-0.3693060810031369,9.55899450508058,2.1586087973438204
1776021053123257900,7.9762578125,-0.4090657348636538,9.543938974767922,2.2172638154082
1776021053133319000,7.98631884765625,-0.4582241353841498,9.526415593037008,2.2820630353160203
1776021053143380000,7.9963798828125,-0.516028162642382,9.506674535256623,2.351005784769356
1776021053153441000,8.00644091796875,-0.5802502037167548,9.485286294791102,2.4213724295459684
1776021053163501800,8.016501708984375,-0.6482015309799463,9.462785709169507,2.491166242870688
1776021053173563000,8.02656298828125,-0.718017556136474,9.43939138957858,2.559828860208392
1776021053183623700,8.036623779296875,-0.7883762368023395,9.414944930586218,2.628243348003924
1776021053193684700,8.046684814453124,-0.8590821234706789,9.388842521080374,2.6985151541039345
1776021053203744800,8.056744873046876,-0.9319100437942892,9.36040903827846,2.772119319497049
1776021053213805800,8.066805908203126,-1.0099457618940622,9.329109060129523,2.8492317852720617
1776021053223867000,8.076866943359375,-1.0950090405430644,9.295100407543778,2.9278724835276604
1776021053233928000,8.086927978515625,-1.1863225386932492,9.259037745037674,3.005532354052365
1776021053243989000,8.096989013671875,-1.2812405641414224,9.221475783884525,3.08110197429955
1776021053254050000,8.107050048828125,-1.3768968407362698,9.182875711855292,3.154254888793826
1776021053264111000,8.117111083984375,-1.4691060456171632,9.143801592573523,3.2253704522415996
1776021053274172200,8.127172119140624,-1.5543246609583496,9.104554454812407,3.295687851049006
1776021053284233200,8.137233154296876,-1.6306350165702401,9.065096889171004,3.3668145204126834
1776021053294293800,8.147293701171876,-1.7002236627116798,9.024342269456387,3.4410578604921698
1776021053304354000,8.15735400390625,-1.7661146233789622,8.981208645650744,3.51981633990854
1776021053314415000,8.1674150390625,-1.8315433733619748,8.935608339470624,3.6014883686840533
1776021053324476000,8.177475830078125,-1.898648678255081,8.88844794436693,3.682526775731146
1776021053334537000,8.187536865234375,-1.9668758267849682,8.841692038410901,3.7584959166899323
1776021053344598000,8.197597900390624,-2.034449625972658,8.797517965641617,3.8255817862302064
1776021053354659000,8.2076591796875,-2.098454042240977,8.757571739700436,3.882243000128865
1776021053364719900,8.217719970703126,-2.1567758828282355,8.721518429544567,3.931135625852644
1776021053374781000,8.227781005859375,-2.209412225124985,8.68695506568551,3.978153397615254
1776021053384842000,8.237842041015625,-2.256255517103523,8.652010593554378,4.027706533074379
1776021053394902000,8.247902099609375,-2.295914742796868,8.616237853905558,4.0816178637430065
1776021053404963000,8.257963134765625,-2.3282667142167686,8.579518188795447,4.140222320663929
1776021053415024000,8.268024169921874,-2.354612430959195,8.541779702031612,4.202878098802268
1776021053425085200,8.278085205078124,-2.379315495061129,8.503609838113189,4.265893357902765
1776021053435146000,8.28814599609375,-2.4116319567762314,8.464867727264762,4.324399907407164
1776021053445206800,8.298206787109375,-2.444939329224825,8.424018415004014,4.385037623721361
1776021053455267800,8.308267822265625,-2.4788679023116824,8.383679974874854,4.442916981238127
1776021053465329000,8.318328857421875,-2.5162901627331973,8.345999940299988,4.492545812281966
1776021053475390000,8.328389892578125,-2.553048990809917,8.312213990554213,4.534250864589214
1776021053485451000,8.338450927734375,-2.5857868928074836,8.281984271985293,4.570866484802961
1776021053495511000,8.348510986328124,-2.6133926926136017,8.253094862109423,4.607275184267759
1776021053505572000,8.358572021484376,-2.635702724099159,8.22361040894985,4.647115027225017
1776021053515633000,8.3686328125,-2.654929694877565,8.19248520284593,4.690940432687103
1776021053525694000,8.37869384765625,-2.6746657842218875,8.15943867329061,4.737099834054709
1776021053535755000,8.388755126953125,-2.698575359858572,8.12456259022057,4.783258943161368
1776021053545816000,8.398816162109375,-2.728915845325589,8.088585852432251,4.826818683424592
1776021053555876900,8.408876953125,-2.7638769763305784,8.052502147138119,4.867090195797384
1776021053565938000,8.41893798828125,-2.799058764348924,8.017368289914726,4.904839496216177
1776021053575999000,8.4289990234375,-2.830993241009116,7.983116476222873,4.942237206718326
1776021053586060000,8.43906005859375,-2.8588386947900055,7.948595782461762,4.981694187837839
1776021053596119800,8.449119873046875,-2.8831133043467996,7.912991969639062,5.024202373221517
1776021053606180900,8.459180908203125,-2.906389842776954,7.875394352650642,5.069658887016773
1776021053616242000,8.469241943359375,-2.9321979455113407,7.835514177682995,5.116376799049974
1776021053626303000,8.479302978515625,-2.9621809958428145,7.79428843332529,5.161873644855619
1776021053636364000,8.489364013671874,-2.995005407080054,7.753319294077158,5.204454310953617
1776021053646425000,8.499425048828124,-3.0260090326309204,7.713684618303179,5.245259199550747
1776021053656486100,8.509486083984376,-3.0507968524068594,7.675346996602416,5.286973604208231
1776021053666547000,8.519546875,-3.0690359811916945,7.636659830811619,5.332245993608236
1776021053676608000,8.52960791015625,-3.0813594561919566,7.597121601149439,5.381390256005525
1776021053686668800,8.539668701171875,-3.0939585332632062,7.556554028439521,5.431050066709518
1776021053696728800,8.549728759765625,-3.1085666120693087,7.516843949341774,5.477614249485731
1776021053706790000,8.559789794921874,-3.118117992007732,7.473903802281618,5.5306870835036035
1776021053716851000,8.569850830078124,-3.117437608528137,7.4291270874440665,5.591068194708228
1776021053726912000,8.579912109375,-3.1095065232679246,7.3815645412802695,5.658078953185677
1776021053736973000,8.58997314453125,-3.101162181031704,7.331073540449142,5.727873789423704
1776021053747034000,8.6000341796875,-3.0987659335449336,7.278973935377597,5.795220647987723
1776021053757095200,8.61009521484375,-3.1041102171823383,7.227575172051787,5.856368651911616
1776021053767156000,8.620156005859375,-3.117556850993633,7.179747837471962,5.907829374557733
1776021053777217000,8.630217041015625,-3.1392008197858927,7.136971941062807,5.94806260074675
1776021053787277800,8.64027783203125,-3.162046273322403,7.095982343548536,5.984889817884564
1776021053797338000,8.650338134765626,-3.180599582622945,7.051859124183655,6.027059565094113
1776021053807399000,8.66039892578125,-3.193947432234883,7.002484560161829,6.077359427267313
1776021053817460000,8.6704599609375,-3.196782947921753,6.944771791383624,6.141752112200856
1776021053827521000,8.68052099609375,-3.1928409322977065,6.8837114657431835,6.212138484591245
1776021053837581800,8.690581787109375,-3.202909321847558,6.821168208068609,6.275622822508216
1776021053847643000,8.700642822265625,-3.228480400955677,6.756414873129129,6.33231033989191
1776021053857704000,8.710703857421874,-3.256722452838719,6.691914636167883,6.386110903662443
1776021053867765000,8.720764892578124,-3.271689135824144,6.632305093857646,6.440415325301886
1776021053877826000,8.730825927734376,-3.266580706769228,6.579988631165027,6.496428888946771
1776021053887887000,8.74088720703125,-3.2507626676514745,6.535724542024731,6.548834783488512
1776021053897947100,8.750947021484375,-3.2356033847033974,6.498011774224042,6.593716127744317
1776021053908008200,8.76100830078125,-3.2248622104585167,6.461522410738468,6.634710401433706
1776021053918069000,8.771069091796875,-3.227564455154538,6.428371836286783,6.665528149023651
1776021053928129800,8.7811298828125,-3.252687205973267,6.399689931681752,6.680896398547292
1776021053938190800,8.79119091796875,-3.297473857682943,6.369737276488542,6.687562870699167
1776021053948252000,8.801251953125,-3.3479826864317057,6.339928413680195,6.690791769617795
1776021053958313000,8.81131298828125,-3.3808421689823267,6.310866569846868,6.701734603914618
1776021053968374000,8.8213740234375,-3.379403952872753,6.279764744618535,6.7316095176965
1776021053978435000,8.83143505859375,-3.34811391159594,6.244756559601425,6.779639681372046
1776021053988496100,8.84149609375,-3.309415932150185,6.210575473058223,6.829854203349352
1776021053998556000,8.851555908203125,-3.2833068006426096,6.185725109440088,6.864916748902202
1776021054008617000,8.861616943359374,-3.277783653306961,6.166107385778426,6.885175108554959
1776021054018678000,8.871677978515624,-3.288147518672049,6.1493029659718275,6.895254604020715
1776021054028739000,8.881739013671876,-3.3030884826943274,6.136606566005945,6.89942282961607
1776021054038800100,8.891800048828125,-3.311202815566957,6.126773738777637,6.90427085416913
1776021054048861000,8.90186083984375,-3.3077152657121416,6.117533032223582,6.914130569404363
1776021054058922000,8.911921875,-3.302130743578076,6.107064245179295,6.926044879081845
1776021054068983000,8.921983154296875,-3.306608765774965,6.094803898543119,6.934701648268103
1776021054079043800,8.9320439453125,-3.3204163418531416,6.083883860599994,6.93769264677763
1776021054089105000,8.94210498046875,-3.335940074199438,6.077975513339043,6.935423532801866
1776021054099165000,8.9521650390625,-3.3474355739429593,6.078472356945276,6.9294479655236
1776021054109226000,8.96222607421875,-3.3543443304181095,6.085193774154782,6.9202014137506485
1776021054119287000,8.972287109375,-3.3575220836713906,6.095016079989075,6.910008521038294
1776021054129348000,8.98234814453125,-3.3585487963706253,6.104242758017778,6.90135993515849
1776021054139409200,8.9924091796875,-3.35617154584527,6.110005559328198,6.897416165968775
1776021054149470200,9.00247021484375,-3.348761854110658,6.11123363981843,6.899929025572538
1776021054159530800,9.01253076171875,-3.3372605091482397,6.109916127479076,6.906663886785506
1776021054169591800,9.022591796875,-3.3232395825803276,6.1089060736536975,6.914312940233946
1776021054179652900,9.03265283203125,-3.3080689014554023,6.114632050085067,6.916525940108299
1776021054189714000,9.0427138671875,-3.28923677521348,6.133945822364091,6.908402254885435
1776021054199775000,9.05277490234375,-3.2668905033707616,6.1612909254074095,6.8946578071713445
1776021054209835000,9.0628349609375,-3.2422593354612586,6.189076173433661,6.881385653144121
1776021054219896000,9.07289599609375,-3.2166160678997633,6.216367500463128,6.868809080165624
1776021054229956000,9.0829560546875,-3.1957430834800005,6.242165374064445,6.855142373862862
1776021054240017200,9.09301708984375,-3.1819641489744184,6.264436827105284,6.841221985059976
1776021054250078200,9.103078125,-3.1736545857906338,6.2849634823054075,6.82623835093975
1776021054260139300,9.11313916015625,-3.1636642299130555,6.307286957794427,6.810266290304065
1776021054270200300,9.123200439453125,-3.1442534270003435,6.335439285567403,6.793103558579086
1776021054280261400,9.133261474609375,-3.110900900235772,6.371517730164528,6.774691119053959
1776021054290322200,9.143322265625,-3.070131667473912,6.4142556326508515,6.7529252774477
1776021054300383000,9.153383056640624,-3.0348025799393654,6.459871720921993,6.725356302520632
1776021054310444000,9.163444091796874,-3.009400427657366,6.501458699807524,6.696635819470882
1776021054320504000,9.173504150390626,-2.995154167900979,6.534201277980208,6.671105072373152
1776021054330565000,9.183565185546875,-2.9921698913931847,6.560146451097727,6.64693743032217
1776021054340626200,9.193626220703125,-2.9943454818665978,6.585923866432905,6.620414749577641
1776021054350687200,9.203687255859375,-2.9887545299917457,6.620674861818552,6.588201748237013
1776021054360748300,9.213748291015625,-2.9662352396696803,6.673894410830735,6.544537378555536
1776021054370809000,9.22380908203125,-2.935094251474738,6.73256053481102,6.498327416044473
1776021054380870100,9.2338701171875,-2.9013366510406136,6.7878200652182095,6.455861316236853
1776021054390931200,9.24393115234375,-2.8718203414380548,6.840602976378798,6.413204077771305
1776021054400992300,9.2539921875,-2.8556434058800337,6.887487477150559,6.370102602669596
1776021054411053000,9.264052978515625,-2.859427016071975,6.92741616743505,6.324948871213198
1776021054421113300,9.27411328125,-2.876959457892179,6.961634663379192,6.279263224837184
1776021054431174400,9.28417431640625,-2.88934255412519,6.99453740054965,6.236869021221995
1776021054441235200,9.294235107421875,-2.8747072950512167,7.0319596609711645,6.201449332794547
1776021054451296000,9.3042958984375,-2.825534391081333,7.078091297549009,6.171494924035668
1776021054461357000,9.314357177734376,-2.755966349336505,7.132745847800374,6.139947693127393
1776021054471418000,9.324418212890626,-2.68806098010689,7.1917363814294335,6.101118488517403
1776021054481479200,9.334479248046875,-2.634561445109546,7.250269234418869,6.05500321855247
1776021054491540200,9.344540283203125,-2.5966119459435344,7.3046572426885366,6.005829730060697
1776021054501601300,9.354601318359375,-2.5653543456315995,7.353813195523619,5.959092528805137
1776021054511662300,9.364662353515625,-2.52742793508023,7.399695825776457,5.918361874487996
1776021054521723400,9.374723388671875,-2.469095865359902,7.446037305712699,5.884768232443928
1776021054531783200,9.384783203125,-2.3886036940187214,7.4940475956439965,5.856980061808228
1776021054541844200,9.39484423828125,-2.3026827756270767,7.5436501232028,5.827639401033521
1776021054551905300,9.4049052734375,-2.230162898339331,7.592939931550622,5.79172053091228
1776021054561966000,9.414966064453125,-2.1791585411585865,7.640856697979569,5.747951531812548
1776021054572027100,9.425027099609375,-2.147015244053304,7.686000492563843,5.699657164242863
1776021054582088200,9.435088134765625,-2.1223019508183003,7.72729930215776,5.652880215498805
1776021054592149200,9.445149169921875,-2.092151288834959,7.765521773046254,5.611591927298903
1776021054602210300,9.455210205078124,-2.0490337393812834,7.804774171504378,5.572911191248894
1776021054612271000,9.46527099609375,-1.994704037170112,7.846967884111404,5.533228584679961
1776021054622332200,9.475332275390626,-1.936316437870264,7.891184042456746,5.490926735523343
1776021054632393200,9.485393310546876,-1.8795979408264158,7.934914463111758,5.447442983105779
1776021054642453200,9.495453369140625,-1.8257066300325095,7.973761787900328,5.40890896205008
1776021054652514300,9.505514404296875,-1.7787893960349261,8.004033592045307,5.379754763758182
1776021054662575400,9.515575439453125,-1.7452321404784916,8.025850287055968,5.358197596466541
1776021054672636200,9.52563623046875,-1.719292081927508,8.044376708349585,5.338766919809579
1776021054682697200,9.535697265625,-1.6873590665720402,8.066029737231135,5.3162359390497205
1776021054692758000,9.545758056640626,-1.6410631793431936,8.094494784215092,5.28738627666235
1776021054702819000,9.555819091796875,-1.5770169697597622,8.130498994532227,5.251512414726615
1776021054712880000,9.565880126953125,-1.4977135698117314,8.171633553475141,5.210723308220506
1776021054722941200,9.575941162109375,-1.414752231878042,8.213107135114074,5.168533687266707
1776021054733002200,9.586002197265625,-1.3415261060170829,8.25043294942379,5.128453605812788
1776021054743063300,9.596063232421875,-1.2891386239148677,8.280567975446582,5.093202259689569
1776021054753123300,9.606123291015624,-1.26156000437662,8.303992690175772,5.061873639968037
1776021054763184000,9.61618408203125,-1.254305941595137,8.322181842339038,5.03372540384829
1776021054773245200,9.6262451171875,-1.2566519201993942,8.338081422260403,5.006756148380041
1776021054783306200,9.63630615234375,-1.2503890604123473,8.35608352741897,4.978233818250894
1776021054793367000,9.646366943359375,-1.2182792271852492,8.380231880247592,4.945493578165769
1776021054803428000,9.656427978515625,-1.1622924784820525,8.411382805314659,4.905927875974774
1776021054813489200,9.6664892578125,-1.0971795895151792,8.446670391795038,4.8600756408602
1776021054823550200,9.67655029296875,-1.0365876120388506,8.481942780706285,4.8117067467495795
1776021054833611300,9.686611328125,-0.9832412948418408,8.512646546527742,4.768486321443319
1776021054843672300,9.69667236328125,-0.9367850294195115,8.535531163030862,4.736827739115059
1776021054853733400,9.7067333984375,-0.9024064475428313,8.554071028327941,4.709983571331203
1776021054863793200,9.716793212890625,-0.8784699108339845,8.573729083999991,4.678657289697229
1776021054873854200,9.726854248046875,-0.8550186003588139,8.597652395901083,4.638936981466412
1776021054883915300,9.736915283203125,-0.8231330043416469,8.626075357308983,4.591696799124777
1776021054893976300,9.746976318359375,-0.7822185178902,8.658167362618446,4.538133843502402
1776021054904037000,9.757037109375,-0.738581401541829,8.69107769857347,4.482193345093727
1776021054914098200,9.76709814453125,-0.69959868687056,8.722381183853745,4.427304401564598
1776021054924159200,9.7771591796875,-0.6701718091171235,8.750574428158998,4.375924635200202
1776021054934220000,9.787219970703125,-0.6491537171382457,8.77589650094211,4.328121558278799
1776021054944281000,9.797281005859375,-0.6284254749514162,8.798777610313891,4.28450716521889
1776021054954342100,9.807342041015625,-0.6022677915943786,8.819756685456634,4.244943508854508
1776021054964403200,9.8174033203125,-0.5690432020584121,8.840665617972611,4.205854776525497
1776021054974464300,9.82746435546875,-0.5285952736727894,8.863506979855895,4.162834842227399
1776021054984524300,9.837524169921876,-0.48771202260982244,8.887956945979594,4.11542485627681
1776021054994585300,9.84758544921875,-0.45581075409948824,8.912503358215092,4.0656992868602275
1776021055004646400,9.857646484375,-0.4385634128309786,8.935782526993751,4.01619671254456
1776021055014707200,9.867707275390625,-0.4306893915202468,8.957464197447896,3.968466116337478
1776021055024768000,9.87776806640625,-0.42200167920645326,8.977889730361104,3.9229818377524612
1776021055034829000,9.8878291015625,-0.4080088462218642,8.997472967231273,3.8793563387766477
1776021055044890000,9.89789013671875,-0.3865350463647395,9.01607128471732,3.8381557288601993
1776021055054951200,9.907951171875,-0.35593229323234404,9.034044748303293,3.7986490633800623
1776021055065012200,9.91801220703125,-0.3191503400083631,9.052344959625602,3.7581370202496647
1776021055075073300,9.9280732421875,-0.2813438295096159,9.07105316722691,3.715809744390845
1776021055085134300,9.93813427734375,-0.24369238170841706,9.089816904407739,3.672359601981938
1776021055095194000,9.948194091796875,-0.201133744779136,9.108385995799303,3.6286706823810935
1776021055105255200,9.958255126953125,-0.15277611184804699,9.126492145854234,3.5852769463345404
1776021055115316200,9.968316162109375,-0.10294605001052841,9.143594087302684,3.5432319945484396
1776021055125377300,9.978377197265624,-0.055335362989222626,9.159421771031617,3.5031855231031774
1776021055135438000,9.98843798828125,-0.015094450109027092,9.174372087404132,3.464253442640602
1776021055145499100,9.9984990234375,0.012037201979855307,9.188881674271821,3.4255911190301176
1776021055155560200,10.008560302734375,0.026578927276679314,9.203608118760584,3.385744554071128
1776021055165621200,10.018621337890625,0.03376131306143943,9.218716256043315,3.34432913236022
1776021055175682300,10.028682373046875,0.03807495902645169,9.233705150860548,3.3026731798917055
1776021055185743000,10.0387431640625,0.04171154598011635,9.24791195538938,3.2626351840138432
1776021055195804200,10.04880419921875,0.04526510114269331,9.261457665660977,3.223931651610136
1776021055205865200,10.058865234375,0.048868651193147525,9.275117357701063,3.184368579767644
1776021055215925200,10.06892529296875,0.05276364020453766,9.289335268145798,3.142585201527178
1776021055225986800,10.07898681640625,0.0589199069451075,9.304001506879926,3.098785807289183
1776021055236048000,10.0890478515625,0.0720113980426453,9.318237537503242,3.0554335722967982
1776021055246108700,10.099108642578125,0.09556000401298514,9.332280675902963,3.0116110894441603
1776021055256169700,10.109169677734375,0.12561339790062045,9.346927040892838,2.964719866670668
1776021055266230800,10.119230712890625,0.15447386480979622,9.36246304819882,2.913900364537537
1776021055276291800,10.129291748046874,0.17711559420144185,9.378523371639847,2.860475063820183
1776021055286352600,10.1393525390625,0.19346218723794445,9.394529919067026,2.806380485539138
1776021055296413700,10.14941357421875,0.20780449124732986,9.409690663319825,2.7540698680654168
1776021055306474800,10.159474853515626,0.2240858735605143,9.422941774559021,2.7070889211818576
1776021055316535800,10.169535888671875,0.24295248659392818,9.433705160635709,2.6676883464246988
1776021055326596900,10.179596923828125,0.2631890180073678,9.442471235415338,2.634548293367028
1776021055336657000,10.189656982421875,0.2820781899324618,9.450160620874167,2.604857503980398
1776021055346718000,10.199718017578125,0.29692782240947707,9.457882155036925,2.575008016900718
1776021055356778500,10.209778564453124,0.30355575264925133,9.466349539130926,2.5429247794196006
1776021055366839600,10.219839599609376,0.30043473455188796,9.475438269993662,2.509217740128934
1776021055376900600,10.229900634765626,0.2923189951734617,9.484514141374826,2.475659169398248
1776021055386961700,10.239961669921875,0.2864768450165167,9.493001983734965,2.443612318404764
1776021055397022700,10.250022705078125,0.2865702771873213,9.500537639936804,2.4141378021173177
1776021055407083800,10.260083740234375,0.2915142546618357,9.50742564588487,2.386261368676275
1776021055417144800,10.270144775390625,0.29886896480619907,9.513673600363731,2.3603138574711977
1776021055427206000,10.280205810546875,0.3078931790653616,9.518608718678355,2.3391570876739918
1776021055437267000,10.290266845703124,0.3182476920802146,9.522163196289538,2.323250639620423
1776021055447327500,10.300327392578126,0.3280756239376962,9.524974162057042,2.31032788355276
1776021055457387800,10.3103876953125,0.3347753042394295,9.527570608291029,2.298637445759028
1776021055467448800,10.32044873046875,0.3368795830423012,9.529932076725363,2.288514403412491
1776021055477509600,10.330509521484375,0.33525950755979866,9.531965628379583,2.2802678224623203
1776021055487570700,10.34057080078125,0.3293921498963609,9.533881106612085,2.2731030453994867
1776021055497631700,10.3506318359375,0.3162711678428575,9.536104043358565,2.265626864299923
1776021055507692800,10.36069287109375,0.2925751070926897,9.538234041124582,2.25983732111305
1776021055517753900,10.37075390625,0.2609431935756467,9.539267475825548,2.2593502682484683
1776021055527814700,10.380814697265626,0.2284489641408436,9.538773554828763,2.264946773081273
1776021055537875700,10.390875732421875,0.19894560535140335,9.537312250104547,2.2738725684672594
1776021055547936800,10.400936767578125,0.17223757636891676,9.535950314101576,2.2817447631470857
1776021055557997800,10.410997802734375,0.14629740822007878,9.535403786134719,2.2858352473311125
1776021055568058600,10.42105859375,0.11910060020680538,9.535957912886142,2.2851054717518386
1776021055578119700,10.43111962890625,0.0906686883074697,9.53741746404469,2.280315899387747
1776021055588179700,10.4411796875,0.06221729538952932,9.539586624777316,2.272185053771734
1776021055598240500,10.451240478515626,0.03509912840330508,9.542225156587362,2.2616575222775337
1776021055608301600,10.461301513671875,0.009108799828164047,9.544854920569062,2.25078220025897
1776021055618362600,10.471362548828125,-0.017578541417676022,9.547260228145122,2.24051112774387
1776021055628423700,10.481423583984375,-0.04438325397397857,9.549866026729346,2.229011536347121
1776021055638484700,10.491484619140625,-0.06852083881341386,9.552903202468157,2.215338400303572
1776021055648545800,10.5015458984375,-0.08721891317977569,9.555330137354135,2.204188060735911
1776021055658606800,10.51160693359375,-0.09930675279325805,9.555940378206968,2.201030765748769
1776021055668668000,10.52166796875,-0.10820376960933208,9.554317160919307,2.2076418544515968
1776021055678728700,10.531728759765626,-0.11854067390225827,9.550838671153784,2.2221166622668505
1776021055688789800,10.541789794921876,-0.1326036495136097,9.546306872943044,2.2407212633632123
1776021055698850600,10.5518505859375,-0.15175482424260117,9.541662846529483,2.259203407123685
1776021055708911600,10.56191162109375,-0.17542442624410615,9.537934765917063,2.273191454335302
1776021055718971600,10.5719716796875,-0.20383388884961604,9.5358129514575,2.2797131111890074
1776021055729032700,10.58203271484375,-0.23719092739252373,9.535117954930662,2.279399222934246
1776021055739093800,10.59209375,-0.27312106782644985,9.535245965224505,2.2748305998444556
1776021055749154800,10.60215478515625,-0.3099746980471536,9.535784894406795,2.2678433713056148
1776021055759215900,10.6122158203125,-0.34810243985690176,9.536540681210159,2.2591114910565318
1776021055769276700,10.622276611328125,-0.38792847348451615,9.537181317201256,2.2499007412493226
1776021055779337700,10.632337646484375,-0.42956159306671465,9.537354335680604,2.2415881093256176
1776021055789398800,10.642398681640625,-0.47286502048131074,9.536614330968261,2.2360205383263527
1776021055799459600,10.65245947265625,-0.5180823186932131,9.53458253287971,2.2346622555851936
1776021055809520600,10.662520751953124,-0.5639375860150904,9.531409163540602,2.237098542821407
1776021055819581700,10.672581787109374,-0.6086922716839238,9.52770095667243,2.241157608953863
1776021055829642800,10.682642822265626,-0.6516736640699208,9.52415700045526,2.244129756632447
1776021055839703800,10.692703857421876,-0.6945280325427651,9.520746899750828,2.2457487361364064
1776021055849764900,10.702764892578125,-0.7375438751876354,9.51699602278471,2.2479370399609206
1776021055859824600,10.71282470703125,-0.7783842004243284,9.51257294564545,2.2528782957553863
1776021055869885700,10.7228857421875,-0.8143168068099766,9.507398173356055,2.262001367279142
1776021055879946800,10.73294677734375,-0.8447148676831274,9.501357724148034,2.2761846448019147
1776021055890007800,10.7430078125,-0.8713631475687027,9.494401329138874,2.295093489541858
1776021055900068900,10.75306884765625,-0.8987100772429257,9.486517882412672,2.3170406790643927
1776021055910129700,10.763129638671876,-0.929918577716127,9.477889754799008,2.3399201810009775
1776021055920190700,10.773190673828125,-0.9653042908087373,9.469117834800482,2.3610103153027593
1776021055930251800,10.783251708984375,-1.0020528166871516,9.46093569738865,2.378434474442899
1776021055940312600,10.7933125,-1.0351998840074985,9.45399683803618,2.3918011748857793
1776021055950373600,10.80337353515625,-1.0619535239636897,9.448161556011438,2.4031046591885388
1776021055960434700,10.8134345703125,-1.0824680503346025,9.442852343687415,2.4147816529788075
1776021055970495700,10.823495849609374,-1.0987351483941077,9.437055640107392,2.4300527257382867
1776021055980556800,10.833556884765626,-1.1145158511761575,9.429910444527865,2.450515668052435
1776021055990617900,10.843617919921876,-1.1329884233906864,9.42098128814101,2.4762527513772246
1776021056000678000,10.853677978515625,-1.1545272513080387,9.41024069841802,2.5069515487626193
1776021056010739000,10.863739013671875,-1.1762743882138282,9.398283718642592,2.541464059217274
1776021056020799700,10.8737998046875,-1.1937634292837231,9.386121571683884,2.5779908321037888
1776021056030860500,10.883860595703124,-1.2048662033826112,9.374663773602247,2.6142656760558483
1776021056040921600,10.893921630859374,-1.2116576170884072,9.364262791097163,2.6481825587049124
1776021056050982700,10.903982666015626,-1.2193714794013648,9.354697674894332,2.6782760836735364
1776021056061043700,10.914043701171876,-1.2308344651147722,9.345663304567337,2.704441913804412
1776021056071104800,10.924104736328125,-1.2452562275685368,9.336337257817387,2.7299320366308093
1776021056081165800,10.934165771484375,-1.2603114656202494,9.326108124747872,2.7578435413852334
1776021056091227000,10.944226806640625,-1.2744557263068854,9.315099239477515,2.7883807184681295
1776021056101288000,10.954287841796875,-1.289250705987215,9.303910905987024,2.818770011512935
1776021056111348700,10.9643486328125,-1.3068410154744983,9.292930077767371,2.846750782111287
1776021056121409500,10.974409423828124,-1.3261632633209228,9.282387640964984,2.8720991583794353
1776021056131470600,10.984470703125,-1.3451836056113242,9.272187149468063,2.8961045956060287
1776021056141531000,10.99453076171875,-1.362014767294377,9.262177796629071,2.9201655624121425
1776021056151591700,11.004591796875,-1.374487879898399,9.252645413652061,2.9444404642298814
1776021056161652700,11.01465283203125,-1.383056824670732,9.243885768613218,2.9678499813899397
1776021056171713800,11.0247138671875,-1.391715201292187,9.23530440275073,2.99042567807436
1776021056181774600,11.034774658203125,-1.4037303409956394,9.22585034570694,3.013905630122125
1776021056191835600,11.044835693359374,-1.4208378354020417,9.214991682562232,3.0390038310214877
1776021056201896700,11.054896728515626,-1.4427601827442644,9.202825443950294,3.0654236359134313
1776021056211957800,11.064957763671876,-1.4662432035319506,9.188712747445702,3.096458825646341
1776021056222018800,11.075018798828125,-1.4873938358493148,9.171358877062797,3.137547499620914
1776021056232080000,11.085079833984375,-1.5012334145009516,9.151571642053126,3.1883243316560983
1776021056242140700,11.095140625,-1.5061619569443165,9.131333740666507,3.243545575879514
1776021056252201700,11.10520166015625,-1.505883140002936,9.112004186296463,3.2975869626685976
1776021056262262500,11.115262451171875,-1.5090413117729127,9.093709820193052,3.346282896776497
1776021056272323600,11.125323486328124,-1.5238104263596235,9.076178255155682,3.3869396090745925
1776021056282384600,11.135384521484376,-1.5512117896348236,9.059248163142799,3.419669327765703
1776021056292445700,11.14544580078125,-1.5858878200881181,9.042151482391358,3.448888700248301
1776021056302505700,11.155505615234375,-1.6217099518366158,9.024394291904569,3.4786139764264226
1776021056312566800,11.16556689453125,-1.6560418450273573,9.005599575063586,3.5109961968541143
1776021056322627800,11.1756279296875,-1.689761451538652,8.985518325543403,3.546200781226158
1776021056332688600,11.185688720703125,-1.7246536089606581,8.963768266028165,3.5842420503288506
1776021056342749700,11.195749755859374,-1.7608720465503631,8.940320754945278,3.62496481360048
1776021056352810500,11.205810546875,-1.7980213352493941,8.914964779892562,3.668910338310897
1776021056362871600,11.21587158203125,-1.834837592601776,8.887797956025599,3.716289052340388
1776021056372932600,11.2259326171875,-1.8704729696065185,8.859190870222449,3.7664892535313963
1776021056382993700,11.23599365234375,-1.9059968490608035,8.829026033583283,3.8191421085715294
1776021056393054700,11.2460546875,-1.943129771146923,8.796883174869418,3.874207869972288
1776021056403115800,11.25611572265625,-1.9803309361636638,8.762920114991068,3.931908071529865
1776021056413176800,11.2661767578125,-2.0142061716280875,8.727711438965796,3.992543157495558
1776021056423238000,11.27623779296875,-2.03995786800012,8.692355463424324,4.056094423168897
1776021056433298700,11.286298583984374,-2.0548824654094875,8.657719618850946,4.12210068077892
1776021056443359500,11.296359375,-2.060823838157207,8.623229904749989,4.190858867445588
1776021056453419800,11.306419677734375,-2.0661592078357933,8.587209327819943,4.261596829752624
1776021056463480800,11.316480712890625,-2.0805665033727885,8.548602826049924,4.331631612226367
1776021056473541600,11.326541748046875,-2.1095520670995116,8.508072662740945,4.396916277563571
1776021056483602700,11.336602783203125,-2.149895621795207,8.46761030397117,4.45509754063636
1776021056493663700,11.346663818359374,-2.190294413809478,8.428679977074266,4.508917393629253
1776021056503724500,11.356724609375,-2.2192706251859664,8.39040080756247,4.565786989581585
1776021056513785600,11.36678564453125,-2.233391943388432,8.350985327497124,4.630701944823563
1776021056523846700,11.3768466796875,-2.237540149109065,8.309826218634843,4.702191310019791
1776021056533907700,11.38690771484375,-2.2410006648264824,8.267146183815598,4.775206277348101
1776021056543968800,11.39696875,-2.2513260978773233,8.223056866720318,4.845950084874033
1776021056554029800,11.40702978515625,-2.2696054125420746,8.178149803501366,4.912955582654476
1776021056564090600,11.417090576171875,-2.290239327508956,8.133205330881475,4.9775645406872036
1776021056574151700,11.427151611328124,-2.30441062233299,8.088654241493344,5.043187644198537
1776021056584212700,11.437212646484374,-2.306350796615332,8.043931887191533,5.113345468530059
1776021056594272500,11.4472724609375,-2.297424416707456,7.997756995993852,5.18923043833673
1776021056604333600,11.45733349609375,-2.2847570967055857,7.948967538383602,5.269173159101605
1776021056614394600,11.46739453125,-2.2762132863745093,7.898161480253934,5.348672227752209
1776021056624455700,11.47745556640625,-2.2758448914535343,7.847484601461887,5.422905923220515
1776021056634516700,11.487516845703125,-2.2843128600694236,7.798757687693834,5.4892345446527
1776021056644577800,11.497577880859374,-2.2959444072827697,7.7500874725490805,5.5529439234972
1776021056654638800,11.507638916015624,-2.301531267504394,7.69783063108921,5.622878460466861
1776021056664700000,11.517699951171876,-2.2948076583378016,7.639359152898192,5.704771730777621
1776021056674760700,11.5277607421875,-2.2776194999106227,7.573605701005459,5.7985635286748405
1776021056684821500,11.537821533203125,-2.2549450190268456,7.501755685803293,5.899938913568854
1776021056694882600,11.547882568359375,-2.2285475720971823,7.427712544471025,6.002755144920945
1776021056704943600,11.557943603515625,-2.202222313620895,7.357157245254516,6.098594522997737
1776021056715004700,11.568004638671875,-2.1778706933051346,7.2954492693603035,6.180913325244188
1776021056725065700,11.578065673828124,-2.1491994562245904,7.2473583154082295,6.247168881440162
1776021056735126800,11.588126708984374,-2.1084693864293396,7.210383798754215,6.303579335448146
1776021056745187800,11.598187744140626,-2.0567910755097865,7.177832943761349,6.357568699789047
1776021056755247600,11.60824755859375,-2.0055843276247383,7.14543523350358,6.410208403086662
1776021056765308700,11.61830859375,-1.9673745700873433,7.11421299676597,6.456608335211873
1776021056775369700,11.62836962890625,-1.9447258081667125,7.087741169425844,6.492483950713276
1776021056785430800,11.6384306640625,-1.9366421626932917,7.070692419469356,6.513457180637121
1776021056795491600,11.64849169921875,-1.9439020706936716,7.064680611833929,6.517813622280955
1776021056805552600,11.658552734375,-1.959666772188991,7.065940841028094,6.511725826799869
1776021056815613700,11.66861376953125,-1.9716881955027579,7.069722113132476,6.503989679589867
1776021056825674800,11.6786748046875,-1.9680073150329291,7.071970184320211,6.5026593077689405
1776021056835735800,11.68873583984375,-1.945518273718655,7.070739181220531,6.510759027594328
1776021056845796600,11.698796630859375,-1.9088291498772798,7.064551432496309,6.528313973507284
1776021056855857700,11.708857666015625,-1.8649169429145753,7.053517412784696,6.552890196359157
1776021056865918700,11.718918701171875,-1.819590485239774,7.039463168469071,6.580685965779423
1776021056875979800,11.728979736328125,-1.7755796402081847,7.0238359757483,6.609344489508866
1776021056886040600,11.73904052734375,-1.7309778435461223,7.010210770499706,6.6355883533120155
1776021056896101600,11.7491015625,-1.6831673139706254,7.000082759717106,6.658540189832449
1776021056906162700,11.75916259765625,-1.635310899426788,6.9940142534583805,6.676818773844838
1776021056916222500,11.769222412109375,-1.6022129319451748,6.98890494762063,6.690180359721183
1776021056926283500,11.779283447265625,-1.5960145156964658,6.981176983717083,6.699722679570317
1776021056936344600,11.789344482421875,-1.6158780308127403,6.971717665976286,6.7048091890543695
1776021056946405600,11.799405517578125,-1.6524639865405857,6.963342051818967,6.704597007608413
1776021056956466700,11.809466796875,-1.694869880593568,6.957556454154848,6.70001494051516
1776021056966527700,11.81952783203125,-1.7364238339923321,6.954405881169438,6.692642950442433
1776021056976588800,11.8295888671875,-1.7728756419464944,6.9535828743487595,6.683935912373662
1776021056986649900,11.83964990234375,-1.8009369304351508,6.954788743007183,6.675172175681591
1776021056996710700,11.849710693359375,-1.8195264800928532,6.957340181055665,6.667468761697411
1776021057006771700,11.859771728515625,-1.8290801981188356,6.961206793355942,6.660815733548999
1776021057016832500,11.86983251953125,-1.830731034065783,6.966856781941652,6.65445204373598
1776021057026893600,11.8798935546875,-1.8265498028583824,6.974594098195433,6.647491557073593
1776021057036954600,11.88995458984375,-1.8200880594983695,6.984581823724508,6.638771075001358
1776021057047015700,11.900015625,-1.816412439725548,6.995526411586999,6.628245589333773
1776021057057076700,11.91007666015625,-1.81525698608011,7.005800552842021,6.617702568009495
1776021057067137800,11.9201376953125,-1.8135585115991533,7.013684584090114,6.609813860586285
1776021057077197800,11.93019775390625,-1.8097148417830466,7.016401441833376,6.6079831380277865
1776021057087258600,11.940258544921875,-1.8023770462408661,7.01180709978044,6.614861207103729
1776021057097319700,11.950319580078125,-1.788874590589106,6.999352107354998,6.631696606570482
1776021057107380700,11.960380615234374,-1.7667302710592745,6.9813155154049396,6.65659782359302
1776021057117441500,11.970441650390624,-1.736744005857408,6.963968074762821,6.682608463162183
1776021057127502600,11.980502685546876,-1.7052653101406992,6.9535635851264,6.701521837946772
1776021057137563600,11.990563720703125,-1.6791604164168237,6.951825217026472,6.709911480629444
1776021057147624700,12.000624755859375,-1.6611396065577864,6.957235551637411,6.708790952166915
1776021057157685800,12.010685791015625,-1.6488650852657853,6.967483973929285,6.701178723597526
1776021057167746800,12.020746826171875,-1.6340262664437293,6.97847883067429,6.693368342107534
1776021057177808000,12.030807861328125,-1.6078633589223026,6.987376422879099,6.690420013695955
1776021057187868700,12.04086865234375,-1.571506097383797,6.993720823469758,6.692431938040256
1776021057197929700,12.0509296875,-1.5344761972807346,6.999998588564991,6.6944613980412475
1776021057207990500,12.060990478515626,-1.5029793813854455,7.012314464780688,6.68871262525618
1776021057218051600,12.071051513671875,-1.4771644105188548,7.036042546370625,6.669519264486432
1776021057228112400,12.0811123046875,-1.4589536310456692,7.070166934290528,6.6373635462909935
1776021057238172400,12.09117236328125,-1.4485285370126366,7.107589779233932,6.599570698991418
1776021057248233500,12.1012333984375,-1.4398178456820547,7.140598899388313,6.565757861238717
1776021057258294500,12.11129443359375,-1.4260945868864654,7.1640382271647445,6.543181872293353
1776021057268355600,12.12135546875,-1.4065207023665307,7.1773021978855125,6.53287324424684
1776021057278416600,12.131416748046876,-1.379988669271767,7.185515314957499,6.529502306509017
1776021057288477700,12.141477783203126,-1.3458758256591856,7.195490181005001,6.52563627873063
1776021057298538500,12.15153857421875,-1.3035456271909176,7.212317397165298,6.5156456305921076
1776021057308599600,12.161599609375,-1.2537329640127717,7.23665221247673,6.498417432415485
1776021057318660600,12.17166064453125,-1.1989883243251591,7.264391283273697,6.477762766921519
1776021057328721400,12.181721435546875,-1.1423938189871607,7.290436409634351,6.458704430708289
1776021057338782500,12.191782470703124,-1.0854105335272848,7.310559160208702,6.445774806508422
1776021057348843500,12.201843505859374,-1.033296680734679,7.322023972553015,6.441326010406017
1776021057358904600,12.211904541015626,-0.9933278776355087,7.3245865165174004,6.444696948143839
1776021057368965600,12.221965576171876,-0.9688037502970546,7.323678169500828,6.449460217022896
1776021057379026700,12.232026611328125,-0.9549622719492763,7.3273191563516855,6.447389840489626
1776021057389087700,12.242087646484375,-0.9361278806850314,7.339892222198843,6.4358414415150875
1776021057399147500,12.2521474609375,-0.9048918346177786,7.36099346241653,6.416176371580362
1776021057409208600,12.26220849609375,-0.8739075713545084,7.3861132906258105,6.391555140542984
1776021057419269600,12.27226953125,-0.8593071643982082,7.410697112262248,6.365025445535778
1776021057429330700,12.28233056640625,-0.8639439573533833,7.431949743649363,6.339568348196148
1776021057439391500,12.2923916015625,-0.8775655824054032,7.44847826912403,6.318264278882742
1776021057449452500,12.30245263671875,-0.8888386715698987,7.461763282632828,6.300988149911165
1776021057459513600,12.312513671875,-0.887597366271913,7.475490779212117,6.2848705433249465
1776021057469574400,12.322574462890625,-0.8647891029406338,7.493272519618272,6.26684973346591
1776021057479635500,12.332635498046875,-0.8164192589819431,7.518153278374672,6.243495161363482
1776021057489696500,12.342696533203124,-0.753471146833524,7.550045961719751,6.212848678687214
1776021057499757600,12.352757568359374,-0.6966471435885876,7.586143111017346,6.175394269561767
1776021057509818600,12.362818603515626,-0.6576290653429925,7.62250212612152,6.134765906575322
1776021057519879700,12.372879638671876,-0.6339833282742648,7.656739326766133,6.094487672200799
1776021057529940500,12.3829404296875,-0.6166617527257651,7.688545500871538,6.05610328874886
1776021057540001500,12.39300146484375,-0.6018348070045932,7.716938067141175,6.021382103979588
1776021057550062600,12.4030625,-0.5930749062374234,7.7423793823897835,5.9895098789006465
1776021057560122400,12.413122314453124,-0.5934107871282845,7.766934562453627,5.957599659898877
1776021057570183400,12.423183349609374,-0.5985339022956788,7.792894348618388,5.923085395878553
1776021057580244500,12.433244384765626,-0.6000539514698088,7.822334962636232,5.883993156418204
1776021057590305500,12.443305419921876,-0.5911197901142761,7.855089815768599,5.84110561632812
1776021057600366600,12.45336669921875,-0.5692490633614361,7.887721919304132,5.799152726739645
1776021057610427600,12.463427734375,-0.5361356060497462,7.916705437204241,5.76270018813312
1776021057620488700,12.47348876953125,-0.5030872133309021,7.94220228203237,5.730507060536742
1776021057630549800,12.4835498046875,-0.48127804403956975,7.966136115327477,5.699072642353177
1776021057640610600,12.493610595703124,-0.4715718023329973,7.9908806804835795,5.665139393091201
1776021057650671400,12.50367138671875,-0.4685016376400366,8.017325619816779,5.627909440371393
1776021057660732400,12.513732421875,-0.4641763583194464,8.045420079922676,5.588035110622644
1776021057670793500,12.52379345703125,-0.4528306057775393,8.073095437833667,5.5489136450678105
1776021057680854500,12.5338544921875,-0.4314413423987105,8.096989523640275,5.515705787470936
1776021057690915600,12.54391552734375,-0.4030065809551626,8.116469884657858,5.48916031037271
1776021057700976600,12.5539765625,-0.37687615093123167,8.133936567765474,5.4651095726996655
1776021057711037700,12.56403759765625,-0.3600098814021796,8.151967314496636,5.439320466926693
1776021057721098800,12.5740986328125,-0.35140495200101285,8.173217023274303,5.407903584399819
1776021057731159600,12.58415966796875,-0.3464490100940689,8.198820835608243,5.369328062289953
1776021057741219600,12.594219482421876,-0.3408951753592118,8.227367131134868,5.32584197178483
1776021057751280600,12.60428076171875,-0.3303049538923427,8.256386304870247,5.281418892690539
1776021057761341700,12.614341796875,-0.3115503863986581,8.284576042044161,5.238235000002384
1776021057771402500,12.624402587890625,-0.28513971466124055,8.311912961781024,5.196266912844777
1776021057781463600,12.634463623046875,-0.25541911465823647,8.338512214893102,5.155034738746285
1776021057791524600,12.644524658203125,-0.2248416055649519,8.365406067037583,5.112710093235969
1776021057801585700,12.654585693359374,-0.1909495650961995,8.394750819465518,5.065776492625474
1776021057811646500,12.664646484375,-0.15219361751866525,8.426575113749504,5.013988437721133
1776021057821707500,12.67470751953125,-0.11107094080979003,8.459612875476479,4.959133980983496
1776021057831768600,12.6847685546875,-0.07219017040934413,8.492575233879684,4.903196405184269
1776021057841829600,12.69482958984375,-0.03856627022433094,8.525174019667507,4.846681906279922
1776021057851890700,12.704890625,-0.014367315153055824,8.558273740714787,4.788125380153954
1776021057861951500,12.714951416015625,0.0014653801090127672,8.592264857643842,4.726873915855586
1776021057872012500,12.725012451171875,0.016875184629514112,8.6263974288702,4.664264022685587
1776021057882073600,12.735073486328124,0.03911769356201403,8.659678351703286,4.602046051442623
1776021057892134700,12.745134765625,0.06906301483213902,8.691984292024374,4.540377530775964
1776021057902195500,12.755195556640626,0.10032653342820703,8.72324802981615,4.479425049424171
1776021057912255500,12.76525537109375,0.1260169280670583,8.753568349277973,4.419226016788184
1776021057922316500,12.775316650390625,0.14400444757784717,8.784446302622555,4.35696274509877
1776021057932377600,12.785377685546875,0.15490144257210195,8.817100617989897,4.290121497969329
1776021057942438700,12.795438720703125,0.16137611847892402,8.851090565875172,4.219303748424351
1776021057952499700,12.805499755859374,0.16732635038653387,8.884840859785676,4.14753001332879
1776021057962560800,12.815560791015624,0.17642182151731103,8.916833496373892,4.077905857482552
1776021057972621600,12.82562158203125,0.19179067382914944,8.947707358065246,4.009005339735746
1776021057982682400,12.835682373046875,0.2145556460079737,8.978233429232239,3.9389980297908185
1776021057992743400,12.845743408203125,0.242355982005503,9.008317601850628,3.868057238388061
1776021058002804500,12.855804443359375,0.27292172759575767,9.038111267089842,3.7958459886580704
1776021058012865500,12.865865478515625,0.3033561566902324,9.06851692674756,3.7202605863198634
1776021058022926600,12.875926513671875,0.32990897684469817,9.099943161624669,3.640409927752614
1776021058032987600,12.885987548828124,0.3535698018847033,9.131151369836926,3.559134789340198
1776021058043048700,12.896048583984374,0.3811149575447663,9.160880737668275,3.4789959614813326
1776021058053109800,12.90610986328125,0.41672395799923684,9.188798672163486,3.4003993946284052
1776021058063170600,12.916170654296875,0.45860513405837117,9.214849059221148,3.3236487479031083
1776021058073231400,12.9262314453125,0.5017651709469035,9.23881328765452,3.2500700092121955
1776021058083292400,12.93629248046875,0.5411381270447746,9.260879573512076,3.1801986006066203
1776021058093352400,12.9463525390625,0.5706680267812684,9.281832929691673,3.1132422026649116
1776021058103413500,12.95641357421875,0.5861611082609742,9.302524420064687,3.047919251143932
1776021058113474600,12.966474609375,0.58746758774966,9.323447381106018,2.9830501808702943
1776021058123535600,12.97653564453125,0.5794755295498296,9.344311305436491,2.918635284104943
