time,seconds_elapsed,z,y,x
1776556117084968000,0.237968017578125,0.13606667518615723,2.7915589809417725,-0.6022903323173523
1776556117095008800,0.2480087890625,0.2088504135608673,2.828615427017212,-0.6972814202308655
1776556117105048800,0.258048828125,0.13489548861980438,2.639314889907837,-0.9120699167251587
1776556117115089000,0.2680888671875,0.0064171673730015755,1.982598900794983,-1.3178449869155884
1776556117125130000,0.2781298828125,-0.07943729311227798,1.162785530090332,-1.7932021617889404
1776556117135169800,0.288169677734375,-0.02476569637656212,0.7457096576690674,-2.139383316040039
1776556117145209900,0.2982099609375,0.1002952829003334,0.8971827626228333,-2.3280670642852783
1776556117155250700,0.308250732421875,0.20750033855438232,1.4714018106460571,-2.3816354274749756
1776556117165290800,0.318290771484375,0.2675011157989502,1.974708080291748,-2.269658088684082
1776556117175330800,0.328330810546875,0.0637681782245636,2.5714898109436035,-1.8471148014068604
1776556117185372000,0.338371826171875,-0.7222462296485901,2.7832415103912354,-1.273059606552124
1776556117195412000,0.348411865234375,-1.3055038452148438,2.8549118041992188,-0.764595091342926
1776556117205452000,0.3584521484375,-1.355118751525879,3.0326082706451416,-0.5417050123214722
1776556117215492900,0.368492919921875,-0.5620917677879333,2.8408236503601074,-0.10490231215953827
1776556117225532700,0.37853271484375,-0.07847633957862854,2.7964231967926025,0.23559774458408356
1776556117235572700,0.38857275390625,-0.19748979806900024,2.476999044418335,0.5793702602386475
1776556117245613800,0.39861376953125,-0.3297159969806671,2.123225450515747,0.946642279624939
1776556117255654000,0.40865380859375,-0.41035398840904236,1.645493984222412,1.2301710844039917
1776556117265694000,0.41869384765625,-0.5855758786201477,1.4655697345733643,1.2495980262756348
1776556117275734800,0.42873486328125,-0.7236244082450867,1.4386411905288696,1.1041302680969238
1776556117285774800,0.43877490234375,-0.8401049375534058,1.5908012390136719,0.8025141358375549
1776556117295814700,0.448814697265625,-0.7581222653388977,1.5582517385482788,0.5184965133666992
1776556117305855700,0.458855712890625,-0.6399093866348267,1.4001002311706543,0.38915127515792847
1776556117315895800,0.468895751953125,-0.49708715081214905,1.0232059955596924,0.3034152388572693
1776556117325937000,0.47893701171875,-0.37827208638191223,0.639565646648407,0.22522561252117157
1776556117335977000,0.48897705078125,-0.1862056702375412,0.036133743822574615,0.1225576251745224
1776556117346016800,0.499016845703125,0.18959352374076843,-0.7129623293876648,0.04817100986838341
1776556117356057900,0.509057861328125,0.6700209379196167,-1.3429069519042969,0.09588886797428131
1776556117366098000,0.519097900390625,1.0076361894607544,-1.467997670173645,0.11578667163848877
1776556117376138000,0.529137939453125,1.2179539203643799,-1.5739078521728516,0.26348474621772766
1776556117386179000,0.539178955078125,1.3032780885696411,-1.62811279296875,0.4643574059009552
1776556117396219000,0.549218994140625,1.3430557250976562,-1.5198081731796265,0.5989259481430054
1776556117406259000,0.559259033203125,1.4147593975067139,-1.3435723781585693,0.7078313827514648
1776556117416299800,0.5692998046875,1.4900459051132202,-1.0149612426757812,0.641560971736908
1776556117426339600,0.579339599609375,1.302291750907898,-0.08692658692598343,0.3514111340045929
1776556117436379600,0.589379638671875,0.7754878401756287,0.2194046527147293,0.6584817171096802
1776556117446420700,0.599420654296875,0.6579009890556335,0.596439003944397,0.34166407585144043
1776556117456460800,0.609460693359375,0.9219731092453003,0.7496212720870972,0.3107881247997284
1776556117466501600,0.619501708984375,1.0560063123703003,0.7648739814758301,0.09432533383369446
1776556117476541700,0.629541748046875,1.185575008392334,0.8295208215713501,0.5039452910423279
1776556117486581800,0.639581787109375,1.2533817291259766,0.9109352827072144,0.7439371347427368
1776556117496622800,0.649622802734375,1.2688095569610596,0.8681051731109619,0.8811635375022888
1776556117506663000,0.659662841796875,1.2570785284042358,0.8205903768539429,0.8615525960922241
1776556117516702700,0.66970263671875,1.2522327899932861,0.8503545522689819,0.7182557582855225
1776556117526743600,0.67974365234375,1.2486481666564941,1.0643994808197021,0.639909565448761
1776556117536783600,0.68978369140625,1.262452244758606,1.2547835111618042,0.6751385927200317
1776556117546824700,0.69982470703125,1.477056622505188,1.13832688331604,0.7206671833992004
1776556117556864800,0.70986474609375,1.7425521612167358,0.9152999520301819,0.7673842906951904
1776556117566904800,0.71990478515625,1.7392146587371826,0.569871723651886,0.6665657758712769
1776556117576945700,0.729945556640625,1.4742188453674316,-0.5535668134689331,0.6643005609512329
1776556117586985700,0.73998583984375,0.9649671316146851,-0.623805820941925,0.3351815342903137
1776556117597025500,0.750025634765625,0.36705854535102844,-0.2977791130542755,-0.18451489508152008
1776556117607066600,0.760066650390625,-0.15743187069892883,0.2162058800458908,-0.7398455142974854
1776556117617106700,0.770106689453125,-0.5549949407577515,0.8430530428886414,-1.0536950826644897
1776556117627146800,0.780146728515625,-0.6811211705207825,1.2905828952789307,-1.1425291299819946
1776556117637187800,0.790187744140625,-0.6965504884719849,1.4059568643569946,-1.2023266553878784
1776556117647227600,0.8002275390625,-0.8921261429786682,1.589835286140442,-1.3070714473724365
1776556117657268700,0.810268798828125,-1.1902424097061157,1.7334421873092651,-1.2439454793930054
1776556117667308800,0.820308837890625,-1.5261290073394775,1.682139277458191,-1.2262921333312988
1776556117677348600,0.8303486328125,-1.7611607313156128,1.5840635299682617,-1.1906198263168335
1776556117687389700,0.8403896484375,-1.9586061239242554,1.5544121265411377,-1.1460530757904053
1776556117697429800,0.8504296875,-2.210874080657959,1.4801746606826782,-1.0959837436676025
1776556117707469800,0.8604697265625,-2.454159736633301,1.251183032989502,-1.114475965499878
1776556117717510700,0.8705107421875,-2.5608086585998535,1.0617616176605225,-1.2514280080795288
1776556117727550700,0.88055078125,-2.5400333404541016,0.8797204494476318,-1.4261574745178223
1776556117737591800,0.890591796875,-2.4179935455322266,0.6716287732124329,-1.6023452281951904
1776556117747631900,0.9006318359375,-2.2779343128204346,0.5349500179290771,-1.759807825088501
1776556117757672000,0.910671875,-2.2543692588806152,0.40107619762420654,-1.9169052839279175
1776556117767712800,0.920712646484375,-2.4435994625091553,0.190134659409523,-2.095022439956665
1776556117777752600,0.930752685546875,-2.806932210922241,0.017794225364923477,-2.2671806812286377
1776556117787793700,0.940793701171875,-3.2430288791656494,0.057921137660741806,-2.321800947189331
1776556117797833700,0.950833740234375,-3.679245948791504,0.3108396828174591,-2.2424042224884033
1776556117807873800,0.960873779296875,-4.062571048736572,0.6687523126602173,-2.078165292739868
1776556117817914600,0.97091455078125,-4.348604679107666,0.9988781809806824,-1.9509048461914062
1776556117827954700,0.98095458984375,-4.485752582550049,1.1203603744506836,-1.9872543811798096
1776556117837994800,0.990994873046875,-4.493113994598389,0.9437249898910522,-2.1715047359466553
1776556117848035800,1.001035888671875,-4.360677719116211,0.5638341307640076,-2.4549663066864014
1776556117858075600,1.01107568359375,-4.194015026092529,0.232047438621521,-2.659038782119751
1776556117868116700,1.02111669921875,-4.068363189697266,0.15880917012691498,-2.6495745182037354
1776556117878156500,1.031156494140625,-4.041920185089111,0.32912373542785645,-2.4293057918548584
1776556117888196600,1.041196533203125,-4.145755767822266,0.650962233543396,-2.054490804672241
1776556117898237700,1.05123779296875,-4.346534729003906,0.8747544288635254,-1.7116525173187256
1776556117908277800,1.06127783203125,-4.577755928039551,0.9598333239555359,-1.6007561683654785
1776556117918317800,1.07131787109375,-4.794991493225098,1.0028077363967896,-1.743881106376648
1776556117928359000,1.08135888671875,-4.859713077545166,0.9401419758796692,-2.057675838470459
1776556117938398700,1.091398681640625,-4.636531829833984,0.7488901615142822,-2.4347338676452637
1776556117948439800,1.101439697265625,-4.254202365875244,0.45024970173835754,-2.703948736190796
1776556117958479600,1.111479736328125,-3.8064382076263428,0.11702058464288712,-2.8684234619140625
1776556117968519700,1.121519775390625,-3.409374475479126,-0.07834438234567642,-2.938822031021118
1776556117978560800,1.131560791015625,-3.1415765285491943,-0.2629285156726837,-3.031578302383423
1776556117988600800,1.141600830078125,-2.977658748626709,-0.34007683396339417,-3.223863124847412
1776556117998641000,1.151640869140625,-2.904508113861084,-0.36698177456855774,-3.5004992485046387
1776556118008681700,1.161681640625,-2.7823352813720703,-0.36216995120048523,-3.7646093368530273
1776556118018721800,1.1717216796875,-2.5322000980377197,-0.2556575536727905,-3.9583210945129395
1776556118028763000,1.181762939453125,-2.1923446655273438,-0.1251823902130127,-4.037743091583252
1776556118038802700,1.191802734375,-1.8293676376342773,0.08091671764850616,-4.0045318603515625
1776556118048842800,1.2018427734375,-1.3887735605239868,0.15487590432167053,-3.9294521808624268
1776556118058883600,1.211883544921875,-0.7697293162345886,0.3291844427585602,-3.8704161643981934
1776556118068923600,1.221923583984375,-0.24323755502700806,0.6183992028236389,-3.7705726623535156
1776556118078963700,1.231963623046875,0.23886604607105255,1.0551992654800415,-3.6443543434143066
1776556118089004800,1.2420048828125,0.6464471220970154,1.5938653945922852,-3.4377284049987793
1776556118099044900,1.252044921875,0.913000226020813,2.0302538871765137,-3.1478664875030518
1776556118109085700,1.262085693359375,1.1303573846817017,2.3475356101989746,-2.8553085327148438
1776556118119125800,1.272125732421875,1.405266523361206,2.5337324142456055,-2.632558584213257
1776556118129165600,1.28216552734375,1.791786789894104,2.531296730041504,-2.475356340408325
1776556118139206700,1.29220654296875,2.192570209503174,2.3960342407226562,-2.295722723007202
1776556118149246700,1.302246826171875,2.6703317165374756,2.2284953594207764,-2.069898843765259
1776556118159286800,1.312286865234375,3.248047113418579,2.032123327255249,-1.805580735206604
1776556118169327600,1.32232763671875,3.8548245429992676,1.8006335496902466,-1.5407847166061401
1776556118179367700,1.33236767578125,4.472349166870117,1.6505942344665527,-1.3006107807159424
1776556118189408800,1.34240869140625,4.598567008972168,2.0855963230133057,-0.7767696976661682
1776556118199448800,1.35244873046875,4.096839427947998,2.588202476501465,0.2565370202064514
1776556118209488600,1.362488525390625,3.32210373878479,3.0273640155792236,1.328986406326294
1776556118219529700,1.37252978515625,2.4152698516845703,3.008007526397705,1.8933135271072388
1776556118229569800,1.38256982421875,1.6054152250289917,2.299387216567993,2.006864547729492
1776556118239609600,1.392609619140625,1.0870026350021362,1.1392921209335327,1.8426203727722168
1776556118249650700,1.402650634765625,0.9142822027206421,-0.2681038975715637,1.4770294427871704
1776556118259690800,1.412690673828125,0.8733594417572021,-1.5232079029083252,0.9905428290367126
1776556118269731800,1.42273193359375,0.9113470315933228,-2.4329640865325928,0.45425403118133545
1776556118279772000,1.43277197265625,0.9646139144897461,-2.9573237895965576,0.014181332662701607
1776556118289812000,1.44281201171875,1.1674652099609375,-3.268584728240967,-0.22526879608631134
1776556118299852800,1.452852783203125,1.4487074613571167,-3.467130184173584,-0.28562697768211365
1776556118309892600,1.462892578125,1.4950659275054932,-3.198706865310669,-0.34489405155181885
1776556118319932700,1.4729326171875,1.3038724660873413,-2.60506272315979,-0.39115530252456665
1776556118329973800,1.482973876953125,1.2126511335372925,-1.5210826396942139,-0.29297760128974915
1776556118340013800,1.493013916015625,1.335942029953003,-0.4783923923969269,0.09922243654727936
1776556118350054700,1.5030546875,1.5455520153045654,0.09504663944244385,0.5308268666267395
1776556118360094700,1.5130947265625,1.7730093002319336,0.3368026912212372,0.6383807063102722
1776556118370134800,1.523134765625,2.0927858352661133,0.49455609917640686,0.7864436507225037
1776556118380176000,1.53317578125,1.94210946559906,0.6268787384033203,1.0333623886108398
1776556118390215700,1.543215576171875,2.0665547847747803,1.2097065448760986,1.3971810340881348
1776556118400255700,1.553255859375,2.5529673099517822,1.3312791585922241,1.578839659690857
1776556118410297000,1.563297119140625,2.4007914066314697,0.8534919023513794,1.289005994796753
1776556118420337200,1.573337158203125,2.139902353286743,0.758007824420929,0.8420811295509338
1776556118430378200,1.583378173828125,1.8652650117874146,0.8689937591552734,0.9475598931312561
1776556118440418300,1.593418212890625,2.0374720096588135,1.0068777799606323,1.4848111867904663
1776556118450458000,1.6034580078125,2.1685314178466797,0.4234244227409363,1.3862601518630981
1776556118460499000,1.6134990234375,2.058082342147827,-0.06442254781723022,0.8130884170532227
1776556118470539000,1.6235390625,1.9442813396453857,-0.42724254727363586,0.37434008717536926
1776556118480579000,1.6335791015625,1.802504062652588,-0.9142749309539795,0.177249938249588
1776556118490620200,1.6436201171875,1.5683573484420776,-1.242771029472351,0.01210200134664774
1776556118500660200,1.65366015625,1.1910741329193115,-1.459315299987793,-0.1699935644865036
1776556118510701000,1.663701171875,0.8347278237342834,-1.6740059852600098,-0.3415818214416504
1776556118520741000,1.6737412109375,0.5250808000564575,-1.7305564880371094,-0.547766387462616
1776556118530781000,1.683781005859375,0.2850725054740906,-1.7666127681732178,-0.6790050864219666
1776556118540822000,1.693822021484375,0.16353751718997955,-1.773039698600769,-0.7402748465538025
1776556118550862000,1.703862060546875,0.13793815672397614,-1.722325086593628,-0.762209951877594
1776556118560902100,1.713902099609375,0.2173720896244049,-1.5763013362884521,-0.7176600098609924
1776556118570943200,1.723943115234375,0.3098711371421814,-1.4180471897125244,-0.578261137008667
1776556118580983000,1.733983154296875,0.49546709656715393,-1.2847870588302612,-0.4270605742931366
1776556118591024000,1.744024169921875,0.5585153698921204,-0.6185176372528076,0.03617764264345169
1776556118601064200,1.754064208984375,0.49112704396247864,0.3204432725906372,1.3374431133270264
1776556118611104300,1.764104248046875,0.30959904193878174,0.6291427612304688,1.3972103595733643
1776556118621145300,1.774145263671875,0.4147706627845764,0.8284835815429688,2.082805871963501
1776556118631185200,1.78418505859375,0.5655194520950317,1.042722225189209,2.1517434120178223
1776556118641226000,1.79422607421875,0.6984750628471375,0.6036619544029236,1.5997825860977173
1776556118651266000,1.80426611328125,0.6704415678977966,0.056020431220531464,1.0940691232681274
1776556118661306000,1.81430615234375,0.33159467577934265,-0.40326231718063354,1.4796974658966064
1776556118671347200,1.82434716796875,0.17202791571617126,0.2482299655675888,2.6100058555603027
1776556118681387300,1.83438720703125,0.1365991234779358,-0.038551099598407745,2.823528289794922
1776556118691427300,1.84442724609375,0.06360933184623718,-0.3116033971309662,2.378962993621826
1776556118701468200,1.85446826171875,0.053158950060606,-0.6365399956703186,2.0375452041625977
1776556118711508000,1.864508056640625,0.12732718884944916,-0.7695875763893127,1.9131994247436523
1776556118721548000,1.874548095703125,0.21242675185203552,-0.5844744443893433,1.8500386476516724
1776556118731589000,1.884589111328125,0.2884213924407959,-0.41080063581466675,1.7136940956115723
1776556118741629200,1.894629150390625,0.26931485533714294,-0.09241795539855957,1.4042627811431885
1776556118751670000,1.904669921875,0.17499183118343353,0.20751921832561493,0.9061296582221985
1776556118761710000,1.9147099609375,0.14308024942874908,0.2164902687072754,0.28787511587142944
1776556118771750100,1.924750244140625,0.2728704810142517,-0.18496263027191162,-0.32840511202812195
1776556118781791200,1.934791259765625,0.5532761216163635,-0.8236356973648071,-0.8421096205711365
1776556118791831300,1.944831298828125,0.7697535753250122,-1.3619245290756226,-1.171250581741333
1776556118801871000,1.95487109375,0.7853557467460632,-1.639316201210022,-1.274475336074829
1776556118811912000,1.964911865234375,0.6028863191604614,-1.4849156141281128,-1.1804927587509155
1776556118821952000,1.974951904296875,0.23968367278575897,-1.0064656734466553,-0.9627323746681213
1776556118831993000,1.9849931640625,-0.14706829190254211,-0.5805261731147766,-0.6734701991081238
1776556118842033200,1.995033203125,-0.35851216316223145,-0.322969913482666,-0.26581865549087524
1776556118852073200,2.0050732421875,-0.38857313990592957,-0.4271154999732971,0.023571588099002838
1776556118862114300,2.0151142578125,-0.2860412299633026,-0.7463915348052979,0.005154367536306381
1776556118872154000,2.025154052734375,-0.3013538718223572,-1.0876154899597168,-0.17066965997219086
1776556118882194000,2.03519384765625,-0.41129201650619507,-1.1962672472000122,-0.331068754196167
1776556118892235000,2.045235107421875,-0.5166639685630798,-0.992763876914978,-0.3073567748069763
1776556118902275000,2.055275146484375,-0.6071187257766724,-0.7473715543746948,-0.12862533330917358
1776556118912316200,2.065316162109375,-0.5873716473579407,-0.5165399312973022,0.027695562690496445
1776556118922356200,2.075356201171875,-0.6209099292755127,-0.19904960691928864,0.08461374044418335
1776556118932396300,2.085396240234375,-0.8412460088729858,0.037432968616485596,0.07384072244167328
1776556118942437000,2.09543701171875,-1.078595519065857,0.14937956631183624,-0.002524028532207012
1776556118952477200,2.105477294921875,-1.2485544681549072,0.3435855507850647,-0.15350341796875
1776556118962517200,2.115517333984375,-1.2913483381271362,0.49811744689941406,-0.3153468668460846
1776556118972558300,2.125558349609375,-1.170459270477295,0.5590481162071228,-0.4300636053085327
1776556118982598100,2.13559814453125,-1.0463893413543701,0.5654587745666504,-0.5028653144836426
1776556118992639000,2.145638916015625,-0.9625927209854126,0.535447895526886,-0.567093551158905
1776556119002679000,2.155678955078125,-1.0869324207305908,0.6846213936805725,-0.579789936542511
1776556119012719000,2.165718994140625,-1.4395285844802856,0.9777496457099915,-0.5532646179199219
1776556119022760200,2.17576025390625,-1.7927303314208984,1.3089306354522705,-0.5475797653198242
1776556119032800300,2.18580029296875,-1.947061538696289,1.3733083009719849,-0.5755189657211304
1776556119042840300,2.19584033203125,-1.807186484336853,1.063632607460022,-0.6991807222366333
1776556119052881200,2.205881103515625,-1.5663036108016968,0.6983404755592346,-0.8028061985969543
1776556119062921000,2.2159208984375,-1.6090912818908691,0.3505142033100128,-0.823225200176239
1776556119072962000,2.225962158203125,-1.9722141027450562,0.30982163548469543,-0.8136865496635437
1776556119083002000,2.236002197265625,-2.416226625442505,0.5627276301383972,-0.7306078672409058
1776556119093042200,2.246042236328125,-2.79811692237854,0.7409522533416748,-0.5986711382865906
1776556119103083000,2.2560830078125,-3.013343572616577,0.7369456887245178,-0.3967932462692261
1776556119113123000,2.266123046875,-3.075174331665039,0.5470362305641174,-0.3527640104293823
1776556119123163100,2.2761630859375,-3.210160970687866,0.40819019079208374,-0.5746724605560303
1776556119133204200,2.286204345703125,-3.322585344314575,0.15845069289207458,-0.8142240643501282
1776556119143244300,2.296244384765625,-3.417275905609131,-0.08535642921924591,-1.1633952856063843
1776556119153284000,2.3062841796875,-3.4184634685516357,-0.32529446482658386,-1.7312403917312622
1776556119163325200,2.3163251953125,-3.189877986907959,-0.4999651610851288,-2.3248841762542725
1776556119173365000,2.326364990234375,-2.7613110542297363,-0.8564939498901367,-2.8883564472198486
1776556119183406000,2.336406005859375,-2.1674904823303223,-1.2261804342269897,-3.4129223823547363
1776556119193446100,2.346446044921875,-1.5754858255386353,-1.2203779220581055,-3.480997323989868
1776556119203486200,2.356486328125,-1.046257495880127,-1.1849817037582397,-3.7089266777038574
1776556119213527300,2.36652734375,-0.6537674069404602,-0.5950625538825989,-3.5281121730804443
1776556119223567400,2.3765673828125,-0.33259204030036926,-0.08188438415527344,-3.3251333236694336
1776556119233607200,2.386607177734375,0.1829485446214676,0.2638935148715973,-3.203936815261841
1776556119243648000,2.39664794921875,0.9760634899139404,0.4977305233478546,-2.9136500358581543
1776556119253688000,2.40668798828125,1.7420070171356201,0.6776526570320129,-2.383190393447876
1776556119263728000,2.41672802734375,2.2514808177948,0.9704955816268921,-1.671759009361267
1776556119273769200,2.426769287109375,2.5546298027038574,1.3949919939041138,-0.892565131187439
1776556119283809300,2.436809326171875,2.7465152740478516,1.7479795217514038,-0.15568643808364868
1776556119293849300,2.446849365234375,2.821051836013794,1.7767517566680908,0.4014892280101776
1776556119303890200,2.45689013671875,2.821136713027954,1.5002930164337158,0.8167974352836609
1776556119313930000,2.466929931640625,2.6819820404052734,1.1085433959960938,1.1106153726577759
1776556119323971000,2.47697119140625,2.1871373653411865,0.5956670641899109,1.2620254755020142
1776556119334011100,2.48701123046875,1.2281264066696167,0.14554646611213684,1.1746530532836914
1776556119344051200,2.49705126953125,0.4287073612213135,-0.36890101432800293,0.9847502708435059
1776556119354092000,2.507092041015625,0.3141365647315979,-0.9472229480743408,0.8770504593849182
1776556119364132000,2.517132080078125,0.6389621496200562,-1.664649486541748,0.7462866902351379
1776556119374172200,2.527172119140625,1.24373459815979,-2.260924816131592,0.5094720125198364
1776556119384213200,2.537213134765625,1.7309131622314453,-2.4423177242279053,0.1865304410457611
1776556119394253300,2.54725341796875,1.5362584590911865,-2.1283161640167236,-0.0027729107532650232
1776556119404293000,2.557293212890625,1.2515571117401123,-1.6168177127838135,-0.16830365359783173
1776556119414334000,2.567333984375,1.1932179927825928,-1.2452303171157837,-0.45316869020462036
1776556119424374000,2.5773740234375,1.582802414894104,-0.5810534358024597,-0.25407588481903076
1776556119434414000,2.5874140625,2.1718366146087646,-0.0945085808634758,0.4219321310520172
1776556119444455200,2.597455078125,2.2235372066497803,-0.08180831372737885,0.3175662159919739
1776556119454495200,2.6074951171875,2.3581385612487793,0.3535766899585724,0.014126710593700409
1776556119464535000,2.61753515625,2.3283112049102783,0.426850289106369,-0.13980962336063385
1776556119474576000,2.627575927734375,2.095492124557495,0.1792639195919037,-0.33936747908592224
1776556119484616000,2.637615966796875,1.8109054565429688,-0.18649762868881226,-0.5945999026298523
1776556119494657000,2.647656982421875,1.5330642461776733,-0.7182278633117676,-0.6169528961181641
1776556119504697000,2.657697021484375,1.174202561378479,-1.0272637605667114,-0.4503139555454254
1776556119514737200,2.667737060546875,0.8528133034706116,-1.1076539754867554,-0.4492606818675995
1776556119524778200,2.6777783203125,0.5183207392692566,-0.999083399772644,-0.4752829968929291
1776556119534818000,2.687818115234375,0.2838115692138672,-1.1007894277572632,-0.34470421075820923
1776556119544858000,2.697858154296875,0.36723896861076355,-1.2987680435180664,-0.13928604125976562
1776556119554899200,2.707899169921875,0.696663498878479,-1.3721927404403687,-0.030084451660513878
1776556119564939000,2.71793896484375,1.2222539186477661,-1.4530410766601562,-0.06270615011453629
1776556119574979000,2.72797900390625,1.4946420192718506,-1.2572824954986572,-0.1108449175953865
1776556119585020200,2.738020263671875,1.2033472061157227,-0.6013032793998718,0.1782035082578659
1776556119595060200,2.748060302734375,0.8269234895706177,0.07215449213981628,0.6874750256538391
1776556119605100000,2.75810009765625,0.5381788611412048,0.684631884098053,1.0805168151855469
1776556119615141000,2.76814111328125,0.47342681884765625,0.6665412783622742,1.2357882261276245
1776556119625181200,2.77818115234375,0.635975182056427,0.30103808641433716,1.0013641119003296
1776556119635221000,2.788220947265625,0.9433862566947937,-0.3238324522972107,0.5376119017601013
1776556119645262000,2.798261962890625,1.1099073886871338,-0.8339807987213135,0.4640752375125885
1776556119655302100,2.80830224609375,0.8737432360649109,-1.0921995639801025,0.4250796437263489
1776556119665342200,2.81834228515625,0.38015565276145935,-0.8417168855667114,0.49526122212409973
1776556119675383000,2.828383056640625,-0.07306507974863052,-0.4698932468891144,0.8904306292533875
1776556119685423000,2.838423095703125,-0.150228813290596,-0.21775038540363312,1.0444048643112183
1776556119695463200,2.848463134765625,0.011581127531826496,-0.15096336603164673,1.064538598060608
1776556119705504300,2.858504150390625,0.20814423263072968,-0.19367261230945587,1.0770939588546753
1776556119715544300,2.86854443359375,0.19326595962047577,-0.36823296546936035,1.143155574798584
1776556119725584100,2.878584228515625,-0.03565962612628937,-0.5531113147735596,1.1960396766662598
1776556119735625000,2.888625,-0.36575764417648315,-1.0525387525558472,1.0724902153015137
1776556119745665000,2.8986650390625,-0.525923490524292,-1.3252822160720825,0.8553160429000854
1776556119755705000,2.908705078125,-0.5134455561637878,-1.6529661417007446,0.8415672183036804
1776556119765746200,2.91874609375,-0.7673553228378296,-1.8516544103622437,0.8058675527572632
1776556119775786200,2.9287861328125,-1.3455665111541748,-1.6503537893295288,0.7820045351982117
1776556119785827000,2.9388271484375,-1.9230209589004517,-1.415184736251831,0.7125809192657471
1776556119795867100,2.9488671875,-2.287339687347412,-1.1262428760528564,0.6632729768753052
1776556119805907000,2.958906982421875,-2.4570472240448,-0.7060579657554626,0.8001792430877686
1776556119815948000,2.968947998046875,-2.613901376724243,-0.35934847593307495,0.9379259347915649
1776556119825988000,2.978988037109375,-2.660900831222534,-0.3586108088493347,1.0466543436050415
1776556119836028200,2.989028076171875,-2.708866834640503,-0.5287353992462158,1.3066965341567993
1776556119846069000,2.999069091796875,-2.759996175765991,-0.49223145842552185,1.4678328037261963
1776556119856109000,3.009109130859375,-2.7112960815429688,-0.4387642443180084,1.3513890504837036
1776556119866149000,3.019149169921875,-2.608292579650879,-0.5581232309341431,1.0332248210906982
1776556119876190200,3.029190185546875,-2.3335440158843994,-0.4526441693305969,0.7458382248878479
1776556119886230000,3.03922998046875,-2.071380376815796,0.016092441976070404,0.5765495300292969
1776556119896270000,3.04927001953125,-2.260512113571167,0.7662218809127808,0.6427592039108276
1776556119906311000,3.059310791015625,-1.942758560180664,0.18972179293632507,0.7130838632583618
1776556119916351000,3.06935107421875,-1.2143621444702148,-0.18752269446849823,0.6822652220726013
1776556119926391000,3.07939111328125,-0.5812698602676392,-0.04868971183896065,0.5887129306793213
1776556119936432000,3.08943212890625,-0.15672257542610168,0.002015812089666724,0.4473927915096283
1776556119946472200,3.09947216796875,0.22213470935821533,-0.06726927310228348,0.26652956008911133
1776556119956512300,3.10951220703125,0.5932283401489258,-0.13043172657489777,-0.0043482668697834015
1776556119966553000,3.119552978515625,0.8919451236724854,-0.18672716617584229,-0.33339738845825195
1776556119976593000,3.129593017578125,0.9627678990364075,-0.3257708251476288,-0.6864672899246216
1776556119986633000,3.139633056640625,0.8518288135528564,-0.23904702067375183,-0.8989381790161133
1776556119996674000,3.149674072265625,0.49189722537994385,0.06590090692043304,-0.8425644040107727
1776556120006714000,3.159714111328125,-0.07239801436662674,0.560595691204071,-0.4387006461620331
1776556120016754200,3.169754150390625,-0.41368424892425537,1.0642180442810059,-0.060511548072099686
1776556120026795300,3.179795166015625,-0.6249237656593323,1.4484716653823853,0.10395282506942749
1776556120036835000,3.1898349609375,-0.6186299324035645,1.311552882194519,0.12499446421861649
1776556120046875000,3.199875,-0.5167095065116882,0.9789524674415588,0.0902392640709877
1776556120056915000,3.2099150390625,-0.4990993142127991,0.4067765474319458,0.1055937185883522
1776556120066956000,3.2199560546875,-0.6788106560707092,0.12949919700622559,0.2645702362060547
1776556120076996000,3.22999609375,-0.9336578845977783,0.1315855234861374,0.41766098141670227
1776556120087036200,3.2400361328125,-1.145182728767395,0.24003402888774872,0.5842040181159973
1776556120097077200,3.2500771484375,-1.3134173154830933,0.3802172541618347,0.5750638246536255
1776556120107117000,3.260116943359375,-1.515967607498169,0.10421644151210785,0.3903205394744873
1776556120117157000,3.2701572265625,-1.8374431133270264,-0.24899649620056152,0.27639371156692505
1776556120127198200,3.2801982421875,-2.152406692504883,-0.12464572489261627,0.6193347573280334
1776556120137238000,3.290238037109375,-2.3156793117523193,0.056820739060640335,0.6164166927337646
1776556120147278000,3.300278076171875,-2.5099937915802,0.7317385077476501,0.34016746282577515
1776556120157319200,3.310319091796875,-2.625771999359131,1.289755940437317,0.2269687056541443
1776556120167359200,3.320359130859375,-2.530421495437622,2.2649121284484863,0.5160275101661682
1776556120177399000,3.33039892578125,-2.3210036754608154,1.9252338409423828,0.27168652415275574
1776556120187440000,3.340440185546875,-2.1017940044403076,1.8475970029830933,0.4390910565853119
1776556120197480200,3.350480224609375,-1.8807743787765503,1.3294814825057983,0.361524373292923
1776556120207520000,3.36052001953125,-1.9385876655578613,0.7752229571342468,0.3567168414592743
1776556120217561000,3.37056103515625,-2.1256375312805176,0.42095884680747986,0.3419332504272461
1776556120227601200,3.38060107421875,-2.6235313415527344,0.40468743443489075,0.3800783157348633
1776556120237641200,3.39064111328125,-3.4163479804992676,0.5859168767929077,0.3849247097969055
1776556120247682000,3.40068212890625,-4.366044998168945,0.716152548789978,0.2697110176086426
1776556120257722000,3.41072216796875,-5.244937896728516,0.6309183239936829,0.04634850472211838
1776556120267762200,3.42076220703125,-5.981293678283691,0.3598070442676544,-0.2889120280742645
1776556120277803300,3.43080322265625,-6.5466790199279785,0.062199074774980545,-0.6853304505348206
1776556120287843000,3.440843017578125,-6.974444389343262,-0.2624490559101105,-1.0783309936523438
1776556120297883100,3.450883056640625,-7.22510290145874,-0.7334997057914734,-1.5573323965072632
1776556120307924000,3.460924072265625,-7.267362594604492,-0.9121768474578857,-2.093963146209717
1776556120317964000,3.470964111328125,-7.142254829406738,-1.1519700288772583,-2.205925941467285
1776556120328004000,3.481004150390625,-6.788381099700928,-1.661794900894165,-2.392531633377075
1776556120338045200,3.491045166015625,-5.915470600128174,-2.3958351612091064,-2.4221696853637695
1776556120348085200,3.501085205078125,-5.067877769470215,-2.711930990219116,-2.436286211013794
1776556120358125300,3.511125244140625,-3.95809006690979,-3.2596962451934814,-2.048842191696167
1776556120368166100,3.521166259765625,-2.670809507369995,-2.399333953857422,-0.5178139209747314
1776556120378206000,3.5312060546875,-1.432627558708191,-1.6617918014526367,0.8289247751235962
1776556120388246000,3.54124609375,-0.5896665453910828,-0.6517134308815002,1.8194124698638916
1776556120398286000,3.5512861328125,-0.014882858842611313,0.2541669011116028,2.2676868438720703
1776556120408327200,3.5613271484375,0.36762067675590515,0.9727882742881775,2.2056047916412354
1776556120418367000,3.571366943359375,0.5412582159042358,1.1873935461044312,1.7080562114715576
1776556120428407000,3.581406982421875,0.6841503381729126,0.7502293586730957,0.8768612146377563
1776556120438447900,3.59144775390625,0.701469898223877,0.20888008177280426,0.09913299977779388
1776556120448487700,3.60148779296875,0.7552100419998169,-0.47088947892189026,-0.5544000864028931
1776556120458527700,3.61152783203125,0.7922815084457397,-1.0450294017791748,-0.8299307227134705
1776556120468568800,3.62156884765625,0.7406743764877319,-1.2847198247909546,-0.8494782447814941
1776556120478609000,3.63160888671875,0.6067229509353638,-1.2540758848190308,-0.6851071119308472
1776556120488649000,3.64164892578125,0.3823506236076355,-1.130453109741211,-0.40811190009117126
1776556120498689800,3.651689697265625,0.1238705962896347,-0.9331001043319702,-0.08235964179039001
1776556120508729900,3.661729736328125,-0.13831698894500732,-0.72003573179245,0.1861359179019928
1776556120518769700,3.671769775390625,-0.32182395458221436,-0.5290461182594299,0.33372002840042114
1776556120528810800,3.681810791015625,-0.3671773076057434,-0.3177753984928131,0.348235160112381
1776556120538850800,3.691850830078125,-0.3057461678981781,-0.11923915892839432,0.24760788679122925
1776556120548891000,3.701890869140625,-0.18876048922538757,0.02641020342707634,0.14953507483005524
1776556120558931000,3.711930908203125,-0.09246030449867249,0.14314453303813934,0.14858858287334442
1776556120568971800,3.7219716796875,-0.07857251167297363,0.23514430224895477,0.22562387585639954
1776556120579011800,3.73201171875,-0.12101184576749802,0.2839967906475067,0.31000107526779175
1776556120589052000,3.742052001953125,-0.18184413015842438,0.309501051902771,0.33204251527786255
1776556120599093000,3.752093017578125,-0.2202833890914917,0.31355544924736023,0.2980957329273224
1776556120609132800,3.7621328125,-0.21588101983070374,0.26927682757377625,0.22701166570186615
1776556120619172900,3.7721728515625,-0.1666245311498642,0.15559208393096924,0.13389743864536285
1776556120629213700,3.782213623046875,-0.08880119025707245,-0.03534733131527901,0.0343632698059082
1776556120639253800,3.792253662109375,-0.039506085216999054,-0.20383408665657043,-0.08268878608942032
1776556120649293800,3.8022939453125,0.010684619657695293,-0.3175758421421051,-0.1907331794500351
1776556120659334000,3.812333984375,0.06583469361066818,-0.30332234501838684,-0.24108050763607025
1776556120669375000,3.822375,0.09901834279298782,-0.177641361951828,-0.2150723934173584
1776556120679414800,3.832414794921875,0.09902819246053696,-0.009663807228207588,-0.1504443883895874
1776556120689454800,3.842454833984375,0.07611759752035141,0.08275638520717621,-0.09636060893535614
1776556120699495700,3.85249560546875,0.05655054375529289,0.0766577497124672,-0.053805429488420486
1776556120709535700,3.86253564453125,0.032496001571416855,0.009029963053762913,-0.026096012443304062
1776556120719575800,3.872575927734375,-0.013204376213252544,-0.10521085560321808,-0.027188440784811974
1776556120729617000,3.882616943359375,-0.07191449403762817,-0.23046186566352844,-0.04416395723819733
1776556120739654000,3.89265380859375,-0.09030681848526001,-0.26537856459617615,-0.025067761540412903
1776556120749694000,3.90269384765625,-0.09572570770978928,-0.21809719502925873,0.005111695267260075
1776556120759734000,3.912734130859375,-0.12403351068496704,-0.1740437150001526,-0.015778673812747
1776556120769774800,3.92277490234375,-0.1260676234960556,-0.14437136054039001,-0.06471523642539978
1776556120779815000,3.93281494140625,-0.03772205114364624,-0.05829692259430885,-0.04316306859254837
1776556120789854700,3.942854736328125,0.007964182645082474,0.019198834896087646,0.021710142493247986
1776556120799895800,3.952895751953125,-0.07549235969781876,-0.06389179080724716,-0.041428882628679276
1776556120809936000,3.962935791015625,-0.13374964892864227,-0.23708319664001465,-0.11060038208961487
1776556120819976000,3.972975830078125,-0.11938135325908661,-0.34441766142845154,-0.08862850069999695
1776556120830016000,3.98301611328125,-0.10063313692808151,-0.3037073016166687,-0.017393585294485092
1776556120840056800,3.993056884765625,-0.08208608627319336,-0.14761146903038025,0.016533488407731056
1776556120850097000,4.003096923828125,-0.038676243275403976,0.004674999043345451,0.017523152753710747
1776556120860136700,4.01313671875,0.018424859270453453,0.0894833654165268,0.014944947324693203
1776556120870177800,4.023177734375,0.03604389727115631,0.06107112020254135,0.02622220851480961
1776556120880217900,4.0332177734375,0.02905815653502941,-0.011448618955910206,0.06541302055120468
1776556120890258000,4.0432578125,-0.0009610261768102646,-0.08970913290977478,0.09174646437168121
1776556120900298800,4.053298828125,-0.014493079856038094,-0.1332390308380127,0.1431683748960495
1776556120910338800,4.0633388671875,-0.012543066404759884,-0.09542375802993774,0.18669351935386658
1776556120920379000,4.07337890625,-0.014096488244831562,-0.0381665974855423,0.19505159556865692
1776556120930419000,4.0834189453125,-0.017699891701340675,0.01188224833458662,0.21322409808635712
1776556120940460000,4.0934599609375,-0.02061951532959938,0.0578225739300251,0.2540554404258728
1776556120950499800,4.103499755859375,-0.025826582685112953,0.06413380056619644,0.29411187767982483
1776556120960540000,4.113539794921875,-0.021616924554109573,0.03674424812197685,0.31808674335479736
1776556120970580700,4.123580810546875,-0.00005704071372747421,-0.01935972459614277,0.32428088784217834
1776556120980620800,4.133620849609375,0.02714581787586212,-0.045325011014938354,0.3098553717136383
1776556120990660900,4.143660888671875,0.06619620323181152,-0.04446972534060478,0.2758779525756836
1776556121000701000,4.153700927734375,0.09277375042438507,-0.06529644876718521,0.273790568113327
1776556121010742000,4.163741943359375,0.09980114549398422,-0.09966679662466049,0.28205034136772156
1776556121020781800,4.17378173828125,0.12742450833320618,-0.11315890401601791,0.26241350173950195
1776556121030822000,4.18382177734375,0.15641872584819794,-0.15196013450622559,0.2141626924276352
1776556121040862700,4.19386279296875,0.18116216361522675,-0.17929135262966156,0.15685385465621948
1776556121050902800,4.20390283203125,0.18745210766792297,-0.13270840048789978,0.13609400391578674
1776556121060942800,4.21394287109375,0.23864445090293884,-0.06960612535476685,0.16105607151985168
1776556121070984000,4.22398388671875,0.3094620406627655,0.008782842196524143,0.21434666216373444
1776556121081024000,4.23402392578125,0.37232062220573425,0.1060582622885704,0.25604403018951416
1776556121091063800,4.244063720703125,0.4165782928466797,0.1705724596977234,0.29542598128318787
1776556121101103900,4.254103759765625,0.42025265097618103,0.17828017473220825,0.35623207688331604
1776556121111144700,4.264144775390625,0.40824368596076965,0.19454152882099152,0.43417254090309143
1776556121121184800,4.274184814453125,0.4063217043876648,0.2505373954772949,0.5136727094650269
1776556121131224800,4.284224853515625,0.4435008764266968,0.38621219992637634,0.5965085625648499
1776556121141266000,4.294265869140625,0.5302842259407043,0.6127148866653442,0.7180086374282837
1776556121151306000,4.304305908203125,0.5680264234542847,0.8690292835235596,0.8046815991401672
1776556121161346000,4.314345947265625,0.5853236317634583,1.0903071165084839,0.8331561088562012
1776556121171385900,4.3243857421875,0.6335297226905823,1.2027251720428467,0.8715872764587402
1776556121181426700,4.3344267578125,0.6954119801521301,1.2777621746063232,0.9173744916915894
1776556121191466800,4.344466796875,0.7378226518630981,1.314674735069275,0.984249472618103
1776556121201506800,4.3545068359375,0.7578155398368835,1.3792997598648071,1.0819083452224731
1776556121211548000,4.3645478515625,0.7501099705696106,1.4251021146774292,1.1911487579345703
1776556121221588000,4.374587890625,0.7323565483093262,1.4682016372680664,1.2832549810409546
1776556121231628000,4.3846279296875,0.7215809226036072,1.4207966327667236,1.3568956851959229
1776556121241667800,4.394667724609375,0.6987863779067993,1.2613190412521362,1.3629285097122192
1776556121251708700,4.404708740234375,0.6795628666877747,1.1160120964050293,1.2845209836959839
1776556121261748700,4.414748779296875,0.671677827835083,1.0630488395690918,1.1368274688720703
1776556121271788800,4.424788818359375,0.6699565649032593,1.0663658380508423,0.9847817420959473
1776556121281828900,4.434828857421875,0.6797455549240112,1.0783569812774658,0.8977019786834717
1776556121291870000,4.444869873046875,0.679019570350647,1.0100882053375244,0.8820564150810242
1776556121301910000,4.454909912109375,0.6541014313697815,0.8474287390708923,0.9335148334503174
1776556121311950000,4.4649501953125,0.5749058723449707,0.6366965770721436,0.9808558225631714
1776556121321991000,4.474990966796875,0.45227208733558655,0.4595361649990082,1.015460729598999
1776556121332030700,4.48503076171875,0.309219092130661,0.37864571809768677,1.0049151182174683
1776556121342070800,4.49507080078125,0.1840803325176239,0.33430302143096924,0.9329751133918762
1776556121352110800,4.50511083984375,0.13062870502471924,0.305674284696579,0.8399259448051453
1776556121362152000,4.51515185546875,0.11860638856887817,0.2420646846294403,0.7399562001228333
1776556121372192000,4.52519189453125,0.12742649018764496,0.15820160508155823,0.6389190554618835
1776556121382232000,4.535232177734375,0.13488467037677765,0.10341877490282059,0.5335079431533813
1776556121392273000,4.54527294921875,0.1482819765806198,0.16311785578727722,0.39805176854133606
1776556121402312700,4.555312744140625,0.1826162487268448,0.31123727560043335,0.2701534330844879
1776556121412352800,4.565352783203125,0.23729699850082397,0.4372437298297882,0.12093640118837357
1776556121422393000,4.57539306640625,0.2851380407810211,0.5269046425819397,-0.01213456317782402
1776556121432434200,4.58543408203125,0.31591665744781494,0.5796193480491638,-0.10541324317455292
1776556121442474000,4.595473876953125,0.3091016411781311,0.5583598613739014,-0.15085236728191376
1776556121452514000,4.60551416015625,0.2685965895652771,0.4417395293712616,-0.1579710990190506
1776556121462555000,4.615554931640625,0.2066434621810913,0.28609055280685425,-0.15102450549602509
1776556121472595000,4.625594970703125,0.11642120033502579,0.1113860160112381,-0.12729232013225555
1776556121482635000,4.635635009765625,0.03057900071144104,-0.08669271320104599,-0.11942534148693085
1776556121492675000,4.645675048828125,-0.030967576429247856,-0.2170000523328781,-0.1250074803829193
1776556121502716200,4.655716064453125,-0.040824465453624725,-0.23942413926124573,-0.1426655650138855
1776556121512756000,4.665755859375,-0.04370436444878578,-0.2048148661851883,-0.15661604702472687
1776556121522796000,4.675796142578125,-0.07266677170991898,-0.17081747949123383,-0.16887085139751434
1776556121532835800,4.6858359375,-0.11660987883806229,-0.14873912930488586,-0.1885123997926712
1776556121542877000,4.695876953125,-0.15888036787509918,-0.11458248645067215,-0.1929638683795929
1776556121552917000,4.7059169921875,-0.18527370691299438,-0.10478102415800095,-0.17279566824436188
1776556121562957000,4.71595703125,-0.20074668526649475,-0.08821696043014526,-0.16553589701652527
1776556121572998100,4.725998046875,-0.19960170984268188,-0.03591248020529747,-0.18386748433113098
1776556121583038200,4.7360380859375,-0.18786169588565826,0.02317560464143753,-0.22849221527576447
1776556121593078000,4.746078125,-0.1692175716161728,0.05662621930241585,-0.2703607678413391
1776556121603117800,4.756117919921875,-0.1616145223379135,0.056549519300460815,-0.3070652484893799
1776556121613159000,4.766158935546875,-0.16810381412506104,0.045836832374334335,-0.3461935222148895
1776556121623199000,4.776198974609375,-0.19546672701835632,0.019469140097498894,-0.3979496657848358
1776556121633239000,4.786239013671875,-0.23466718196868896,-0.062475819140672684,-0.42564913630485535
1776556121643280100,4.796280029296875,-0.26761794090270996,-0.17890681326389313,-0.4111040234565735
1776556121653320200,4.8063203125,-0.2890026271343231,-0.26688265800476074,-0.3567264974117279
1776556121663360000,4.816360107421875,-0.2929806113243103,-0.30285850167274475,-0.2972756624221802
1776556121673399800,4.82639990234375,-0.28228849172592163,-0.2784263789653778,-0.2515285015106201
1776556121683441000,4.83644091796875,-0.2668575942516327,-0.24619652330875397,-0.23656311631202698
1776556121693481000,4.84648095703125,-0.2804260849952698,-0.23184531927108765,-0.25861477851867676
1776556121703521000,4.85652099609375,-0.30191540718078613,-0.23570743203163147,-0.3095051348209381
1776556121713561000,4.86656103515625,-0.3145653009414673,-0.28482785820961,-0.36674922704696655
1776556121723602200,4.876602294921875,-0.3230823576450348,-0.3422197699546814,-0.4105398654937744
1776556121733642000,4.88664208984375,-0.3463206887245178,-0.3455828130245209,-0.4247771203517914
1776556121743681800,4.896681884765625,-0.38309040665626526,-0.2798554599285126,-0.3951507806777954
1776556121753723000,4.906722900390625,-0.40659675002098083,-0.1500135213136673,-0.3480864465236664
1776556121763763000,4.916762939453125,-0.41302695870399475,-0.0016373568214476109,-0.3126341700553894
1776556121773803000,4.926802978515625,-0.40687915682792664,0.10794252902269363,-0.3132469654083252
1776556121783843000,4.936843017578125,-0.38676536083221436,0.13494963943958282,-0.3811897933483124
1776556121793884200,4.94688427734375,-0.34796836972236633,0.1226368248462677,-0.47207850217819214
1776556121803924000,4.956924072265625,-0.30387014150619507,0.03512747958302498,-0.5612326264381409
1776556121813963800,4.9669638671875,-0.27227261662483215,-0.07584914565086365,-0.6228492856025696
1776556121824003800,4.97700390625,-0.2651316225528717,-0.22329159080982208,-0.6656913161277771
1776556121834045000,4.987044921875,-0.2963394820690155,-0.3721514344215393,-0.7135823369026184
1776556121844085000,4.9970849609375,-0.37734779715538025,-0.5028932094573975,-0.7694727182388306
1776556121854125000,5.007125,-0.49127528071403503,-0.5749985575675964,-0.8335731029510498
1776556121864166100,5.017166259765625,-0.5912101864814758,-0.5948982238769531,-0.9191388487815857
1776556121874206000,5.0272060546875,-0.6102526187896729,-0.5546495914459229,-1.0168561935424805
1776556121884245800,5.037245849609375,-0.5261222720146179,-0.4522888660430908,-1.0854458808898926
1776556121894285800,5.047285888671875,-0.35970672965049744,-0.33995240926742554,-1.1113423109054565
1776556121904327000,5.057326904296875,-0.16614364087581635,-0.2759478688240051,-1.109980583190918
1776556121914367000,5.067366943359375,0.0021748142316937447,-0.24415601789951324,-1.1193817853927612
1776556121924407000,5.077406982421875,0.1518561840057373,-0.16578370332717896,-1.0697178840637207
1776556121934447000,5.087447021484375,0.25136759877204895,-0.04496278613805771,-0.921120285987854
1776556121944488000,5.097488037109375,0.2643134891986847,-0.014760677702724934,-0.6111027598381042
1776556121954528000,5.107528076171875,0.18821901082992554,-0.02058437466621399,-0.20699678361415863
1776556121964567800,5.11756787109375,0.04800117388367653,-0.09321276843547821,0.1784534454345703
1776556121974608000,5.12760791015625,-0.08303709328174591,-0.21744108200073242,0.4028877913951874
1776556121984649000,5.13764892578125,-0.10890491306781769,-0.36489632725715637,0.4863874912261963
1776556121994689000,5.14768896484375,-0.05768000707030296,-0.4331222474575043,0.48742347955703735
1776556122004729000,5.15772900390625,-0.10296066850423813,-0.45379501581192017,0.4280397593975067
1776556122014770000,5.16777001953125,-0.1767081767320633,-0.3463239073753357,0.31235674023628235
1776556122024810000,5.17781005859375,-0.20319518446922302,-0.17747816443443298,0.2127355933189392
1776556122034849800,5.187849853515625,-0.21163059771060944,0.031659163534641266,0.18335624039173126
1776556122044889900,5.197889892578125,-0.226718470454216,0.2562478184700012,0.20979531109333038
1776556122054931000,5.207930908203125,-0.26036518812179565,0.4536082148551941,0.2362528294324875
1776556122064971000,5.217970947265625,-0.2936384677886963,0.6443606019020081,0.25195562839508057
1776556122075011000,5.228010986328125,-0.33896785974502563,0.8204770684242249,0.2673492133617401
1776556122085051100,5.238051025390625,-0.3797437846660614,0.9067805409431458,0.26627781987190247
1776556122095092000,5.248092041015625,-0.4154931604862213,0.8848239183425903,0.24199122190475464
1776556122105131800,5.2581318359375,-0.4500679075717926,0.8157684206962585,0.17295995354652405
1776556122115171800,5.268171875,-0.4433433711528778,0.6577795147895813,0.07056554406881332
1776556122125212000,5.2782119140625,-0.6085728406906128,0.4582139253616333,-0.09448253363370895
1776556122135253000,5.2882529296875,-0.7632346749305725,0.2069031149148941,-0.25261247158050537
1776556122145293000,5.29829296875,-0.8504995703697205,-0.2236035317182541,-0.4716779887676239
1776556122155333000,5.3083330078125,-0.911716639995575,-0.48881420493125916,-0.8239355683326721
1776556122165374000,5.3183740234375,-0.9098495244979858,-0.8248944282531738,-1.2527273893356323
1776556122175414000,5.3284140625,-0.7920771241188049,-1.1519626379013062,-1.692031979560852
1776556122185453800,5.338453857421875,-0.5726789832115173,-1.4392967224121094,-2.1447486877441406
1776556122195494000,5.348493896484375,-0.3334352374076843,-1.5023643970489502,-2.470952033996582
1776556122205535000,5.358534912109375,-0.07552513480186462,-1.3069368600845337,-2.572458267211914
1776556122215575000,5.368574951171875,0.14790688455104828,-0.8400821089744568,-2.458874464035034
1776556122225615000,5.378614990234375,0.3182831406593323,-0.14190486073493958,-2.171248197555542
1776556122235655200,5.3886552734375,0.4438284635543823,0.7342433929443359,-1.6989164352416992
1776556122245696000,5.398696044921875,0.4782940447330475,1.52386474609375,-1.0909016132354736
1776556122255735800,5.40873583984375,0.4313068985939026,1.9628829956054688,-0.5576385855674744
1776556122265775900,5.41877587890625,0.32251277565956116,1.9428538084030151,-0.21926052868366241
1776556122275816000,5.42881591796875,0.19835269451141357,1.593103051185608,-0.05441363900899887
1776556122285857000,5.43885693359375,0.0864994004368782,1.1822329759597778,0.051769256591796875
1776556122295897000,5.44889697265625,-0.009298896417021751,0.8785676956176758,0.1715070605278015
1776556122305937200,5.458937255859375,-0.0765724778175354,0.7109879851341248,0.2533252239227295
1776556122315978000,5.46897802734375,-0.11981652677059174,0.6771142482757568,0.2612767219543457
1776556122326018000,5.47901806640625,-0.12337984144687653,0.7286072969436646,0.1997843235731125
1776556122336057900,5.489057861328125,-0.0849839374423027,0.8138052225112915,0.07587938755750656
1776556122346098000,5.499097900390625,-0.012772591784596443,0.8558679819107056,-0.06372804194688797
1776556122356139000,5.509138916015625,0.05896981060504913,0.8635992407798767,-0.21912726759910583
1776556122366179000,5.519178955078125,0.10817144066095352,0.8166341185569763,-0.3781443238258362
1776556122376219100,5.52921923828125,0.1370331048965454,0.7158108353614807,-0.5301934480667114
1776556122386259200,5.53925927734375,0.14737629890441895,0.5846426486968994,-0.6332117319107056
1776556122396300000,5.549300048828125,0.14187487959861755,0.46068274974823,-0.6310802698135376
1776556122406339800,5.55933984375,0.1342473179101944,0.38518717885017395,-0.5676679611206055
1776556122416380000,5.5693798828125,0.13124381005764008,0.36648276448249817,-0.48587897419929504
1776556122426420000,5.579419921875,0.1410152167081833,0.4476008117198944,-0.3762262463569641
1776556122436461000,5.5894609375,0.17069628834724426,0.6089383363723755,-0.23354770243167877
1776556122446500900,5.5995009765625,0.2200625091791153,0.7665074467658997,-0.04777970537543297
1776556122456541000,5.609541015625,0.24489183723926544,0.8880972266197205,0.14872168004512787
1776556122466581000,5.6195810546875,0.2420177310705185,0.9438363909721375,0.2639249563217163
1776556122476621800,5.629621826171875,0.23813213407993317,0.8889667987823486,0.27124252915382385
1776556122486662000,5.639661865234375,0.2380325347185135,0.7646061778068542,0.22595945000648499
1776556122496702000,5.649701904296875,0.24437753856182098,0.6228297352790833,0.15162776410579681
1776556122506741800,5.65974169921875,0.2370634227991104,0.49805980920791626,0.04395802691578865
1776556122516782800,5.669782958984375,0.2126370519399643,0.38935792446136475,-0.09101779013872147
1776556122526823000,5.679822998046875,0.1760108768939972,0.3226768970489502,-0.15849030017852783
1776556122536863000,5.689863037109375,0.08424779772758484,0.3043881356716156,-0.12812595069408417
1776556122546902800,5.69990283203125,-0.03878597915172577,0.2930997908115387,-0.12899866700172424
1776556122556944000,5.70994384765625,-0.1597994565963745,0.32486987113952637,-0.18307338654994965
1776556122566984000,5.71998388671875,-0.22478245198726654,0.44863495230674744,-0.2553026080131531
1776556122577023700,5.730023681640625,-0.2120065987110138,0.7040441036224365,-0.24252265691757202
1776556122587064800,5.74006494140625,-0.11507979780435562,0.9165571331977844,0.005787551403045654
1776556122597105000,5.75010498046875,0.0071403635665774345,0.8746468424797058,0.42950183153152466
1776556122607145000,5.76014501953125,0.12715758383274078,0.5295630097389221,0.6907299757003784
1776556122617184800,5.770184814453125,0.1580207794904709,0.15034683048725128,0.6877243518829346
1776556122627225900,5.780225830078125,0.13726916909217834,-0.06528932601213455,0.481702983379364
1776556122637266000,5.790265869140625,0.14604470133781433,-0.11291909962892532,0.16007286310195923
1776556122647306000,5.800305908203125,0.16344422101974487,0.05702412873506546,-0.14095647633075714
1776556122657345800,5.810345703125,0.2457113415002823,0.2603296935558319,-0.09990222007036209
1776556122667387000,5.820386962890625,0.3566173315048218,0.31414154171943665,0.1113801971077919
1776556122677426700,5.8304267578125,0.3610249161720276,0.28326770663261414,0.29658427834510803
1776556122687466800,5.840466796875,0.2206590324640274,0.2709934711456299,0.38446271419525146
1776556122697506800,5.8505068359375,0.038580529391765594,0.29878920316696167,0.3531060218811035
1776556122707548000,5.8605478515625,-0.06442362070083618,0.290987491607666,0.20677834749221802
1776556122717588000,5.870587890625,-0.073219895362854,0.2371825873851776,-0.04472609981894493
1776556122727627800,5.880627685546875,-0.060174670070409775,0.1955227553844452,-0.3106565773487091
1776556122737667800,5.890667724609375,-0.08016311377286911,0.18446315824985504,-0.5050121545791626
1776556122747708700,5.900708740234375,-0.07120370864868164,0.17427897453308105,-0.5451643466949463
1776556122757748700,5.910748779296875,-0.06361374258995056,0.07743370532989502,-0.4463220536708832
1776556122767788800,5.920788818359375,-0.012155615724623203,-0.13917529582977295,-0.24541904032230377
1776556122777828900,5.930828857421875,0.02616886794567108,-0.4142369329929352,-0.03742242977023125
1776556122787870000,5.940869873046875,0.0499972365796566,-0.773751974105835,0.06011131778359413
1776556122797910000,5.950909912109375,0.051456816494464874,-1.0900380611419678,0.16185960173606873
1776556122807949800,5.96094970703125,0.017218686640262604,-1.1417936086654663,0.2653455138206482
1776556122817990000,5.970989990234375,0.00573436263948679,-0.9384514093399048,0.23751138150691986
1776556122828030700,5.98103076171875,0.1256682127714157,-0.6459966897964478,0.1971152126789093
1776556122838070800,5.99107080078125,0.32575342059135437,-0.47261375188827515,0.24824458360671997
1776556122848110800,6.00111083984375,0.5261259078979492,-0.485061377286911,0.25153782963752747
1776556122858151000,6.01115087890625,0.6194363832473755,-0.4705018997192383,0.11674068868160248
1776556122868192000,6.02119189453125,0.5386959910392761,-0.2808443605899811,-0.0661550983786583
1776556122878231800,6.031231689453125,0.3199250400066376,-0.013323233462870121,-0.10097343474626541
1776556122888272000,6.04127197265625,0.08140752464532852,0.18772226572036743,0.0769779235124588
1776556122898312000,6.05131201171875,-0.09272829443216324,0.22802159190177917,0.2812000811100006
1776556122908352800,6.061352783203125,-0.19699105620384216,0.2189825475215912,0.2927568852901459
1776556122918392800,6.071392822265625,-0.23909471929073334,0.24576160311698914,0.0769544392824173
1776556122928433000,6.081432861328125,-0.24183323979377747,0.22520999610424042,-0.23602797091007233
1776556122938472700,6.09147265625,-0.22437208890914917,0.09630050510168076,-0.5205614566802979
1776556122948513800,6.101513671875,-0.23181429505348206,0.013343309052288532,-0.7099883556365967
1776556122958553900,6.111553955078125,-0.27102893590927124,-0.04075930640101433,-0.7492232322692871
1776556122968594000,6.121593994140625,-0.3467117249965668,-0.16478458046913147,-0.5974504351615906
1776556122978634000,6.131634033203125,-0.4054400622844696,-0.40239572525024414,-0.347041517496109
1776556122988674800,6.1416748046875,-0.367789626121521,-0.4845907390117645,-0.10055239498615265
1776556122998715000,6.15171484375,-0.2948675751686096,-0.4904974102973938,0.042561426758766174
1776556123008755000,6.1617548828125,-0.25968798995018005,-0.5286421179771423,0.02551320195198059
1776556123018794800,6.171794677734375,-0.2935032546520233,-0.6559109687805176,-0.1844552606344223
1776556123028835800,6.1818359375,-0.3363654911518097,-0.7959825992584229,-0.4759201407432556
1776556123038876000,6.1918759765625,-0.33630868792533875,-0.8537571430206299,-0.6125303506851196
1776556123048916000,6.201916015625,-0.2885749638080597,-0.8314654231071472,-0.5142155289649963
1776556123058956000,6.2119560546875,-0.24368686974048615,-0.7510690689086914,-0.3243207633495331
1776556123068996900,6.221996826171875,-0.2287960648536682,-0.646500825881958,-0.2030060589313507
1776556123079037000,6.232036865234375,-0.23315289616584778,-0.5750443935394287,-0.20163072645664215
1776556123089076700,6.24207666015625,-0.27070775628089905,-0.59489506483078,-0.21021515130996704
1776556123099116800,6.25211669921875,-0.36006268858909607,-0.6526091694831848,-0.19946357607841492
1776556123109158000,6.262157958984375,-0.4905509054660797,-0.5705065727233887,-0.29410192370414734
1776556123119198000,6.272197998046875,-0.6135315299034119,-0.33589014410972595,-0.4804535210132599
1776556123129238000,6.282238037109375,-0.591636598110199,-0.07053305208683014,-0.4581892490386963
1776556123139277800,6.29227783203125,-0.4586649239063263,0.1599496304988861,-0.2620195746421814
1776556123149319000,6.30231884765625,-0.2758921980857849,0.3591839075088501,-0.06560160219669342
1776556123159358700,6.312358642578125,-0.15805263817310333,0.5390653610229492,-0.024030117318034172
1776556123169398800,6.322398681640625,-0.10097923129796982,0.7094922065734863,-0.10323438793420792
1776556123179438800,6.33243896484375,-0.049092378467321396,0.7465466260910034,-0.2711855173110962
1776556123189479000,6.34247900390625,0.034018490463495255,0.5711292624473572,-0.4870155453681946
1776556123199520000,6.35252001953125,0.13858915865421295,0.15092235803604126,-0.6384260654449463
1776556123209559800,6.362559814453125,0.18935780227184296,-0.2970873713493347,-0.6737419366836548
1776556123219600000,6.372599853515625,0.04405565187335014,-0.7327618598937988,-0.7613475322723389
1776556123229639700,6.3826396484375,-0.2494787722826004,-1.1108522415161133,-0.7940532565116882
1776556123239680800,6.3926806640625,-0.6662946343421936,-0.9317194223403931,-0.5849575400352478
1776556123249720800,6.402720947265625,-0.9691115021705627,-0.3141755163669586,-0.2497534453868866
1776556123259761000,6.412760986328125,-0.9447289109230042,0.24694623053073883,0.10989663004875183
1776556123269801000,6.422801025390625,-0.8203020095825195,0.5543612837791443,0.16482725739479065
1776556123279841800,6.432841796875,-0.6886780261993408,0.5820838809013367,-0.14793246984481812
1776556123289881900,6.4428818359375,-0.3411421775817871,0.308942586183548,-0.5263007879257202
1776556123299921700,6.452921630859375,-0.02750653401017189,0.04636717960238457,-0.7284030914306641
1776556123309961700,6.462961669921875,0.07625900954008102,-0.09403946995735168,-0.7205978631973267
1776556123320002800,6.4730029296875,0.020072966814041138,-0.15586335957050323,-0.5497985482215881
1776556123330043000,6.48304296875,-0.17082880437374115,-0.06772365421056747,-0.41983360052108765
1776556123340085800,6.493085693359375,-0.4269569218158722,0.16653406620025635,-0.4197967052459717
1776556123350125800,6.503125732421875,-0.5650567412376404,0.31558772921562195,-0.4861307144165039
1776556123360167000,6.5131669921875,-0.6129899621009827,0.32964465022087097,-0.5162134170532227
1776556123370206700,6.523206787109375,-0.6446467041969299,0.35477423667907715,-0.5340201258659363
1776556123380246800,6.533246826171875,-0.6374298334121704,0.4290599226951599,-0.5630422234535217
1776556123390286800,6.543286865234375,-0.5792680382728577,0.49304503202438354,-0.5895012617111206
1776556123400328000,6.553327880859375,-0.5106552839279175,0.5300694704055786,-0.5931574702262878
1776556123410368000,6.563367919921875,-0.47714555263519287,0.5451842546463013,-0.5573176741600037
1776556123420407600,6.573407470703125,-0.4792550802230835,0.5601882934570312,-0.5270353555679321
1776556123430447600,6.583447509765625,-0.4951956868171692,0.578438401222229,-0.5158168077468872
1776556123440488700,6.59348876953125,-0.4958946406841278,0.5843146443367004,-0.5031927824020386
1776556123450528500,6.603528564453125,-0.4968331456184387,0.5762655138969421,-0.5168052315711975
1776556123460568600,6.613568603515625,-0.4749649465084076,0.5642013549804688,-0.5689706206321716
1776556123470608600,6.623608642578125,-0.4245832562446594,0.5840216875076294,-0.5660930871963501
1776556123480648700,6.633648681640625,-0.3703535199165344,0.6707911491394043,-0.4747914969921112
1776556123490689800,6.643689697265625,-0.3511981964111328,0.7867134809494019,-0.3484247624874115
1776556123500729600,6.6537294921875,-0.38963034749031067,0.8719245195388794,-0.2651982307434082
1776556123510769700,6.663769775390625,-0.4726266860961914,0.8442156910896301,-0.28399986028671265
1776556123520809700,6.673809814453125,-0.5690397620201111,0.68906569480896,-0.36830267310142517
1776556123530850600,6.6838505859375,-0.6658326387405396,0.48652350902557373,-0.4578562378883362
1776556123540890600,6.693890625,-0.7637192010879517,0.3448328971862793,-0.5267893671989441
1776556123550930700,6.7039306640625,-0.8791177272796631,0.28049811720848083,-0.6045510172843933
1776556123560970500,6.713970458984375,-1.0038354396820068,0.2728094458580017,-0.7079687714576721
1776556123571011600,6.724011474609375,-1.1221232414245605,0.3331547975540161,-0.800705075263977
1776556123581051600,6.7340517578125,-1.206246018409729,0.39298930764198303,-0.8609967231750488
1776556123591091700,6.744091796875,-1.2594373226165771,0.4145968556404114,-0.877189576625824
1776556123601131800,6.7541318359375,-1.2995625734329224,0.40948623418807983,-0.8927059173583984
1776556123611172600,6.764172607421875,-1.3023593425750732,0.3899945616722107,-0.9136461019515991
1776556123621212700,6.774212646484375,-1.2478593587875366,0.36561819911003113,-0.9094014167785645
1776556123631252700,6.784252685546875,-1.0994080305099487,0.3109344244003296,-0.8374321460723877
1776556123641292500,6.79429248046875,-0.8435397744178772,0.12247014790773392,-0.7059095501899719
1776556123651332600,6.80433251953125,-0.5417062044143677,-0.13476991653442383,-0.5685935020446777
1776556123661373700,6.814373779296875,-0.255433589220047,-0.34963467717170715,-0.42713233828544617
1776556123671413800,6.824413818359375,-0.0012013157829642296,-0.3996190130710602,-0.28336477279663086
1776556123681453800,6.834453857421875,0.23441606760025024,-0.21728217601776123,-0.09273231029510498
1776556123691493600,6.84449365234375,0.4703199565410614,0.18200209736824036,0.17440377175807953
1776556123701534700,6.85453466796875,0.7109289765357971,0.6729350686073303,0.5237204432487488
1776556123711574500,6.864574462890625,0.9303942322731018,1.079870581626892,0.8947027921676636
1776556123721614600,6.874614501953125,1.103510856628418,1.2436927556991577,1.2432435750961304
1776556123731654700,6.884654541015625,1.1852302551269531,1.1990277767181396,1.5024842023849487
1776556123741695700,6.89469580078125,1.1913906335830688,0.9697844982147217,1.6439884901046753
1776556123751735800,6.90473583984375,1.1467008590698242,0.6083368062973022,1.6935954093933105
1776556123761775600,6.914775634765625,1.1266454458236694,0.14364750683307648,1.674697756767273
1776556123771815400,6.9248154296875,1.1586765050888062,-0.32745903730392456,1.631738305091858
1776556123781855500,6.93485546875,1.199306845664978,-0.7027140855789185,1.5746774673461914
1776556123791896600,6.944896484375,1.2119675874710083,-0.9072848558425903,1.5367980003356934
1776556123801936600,6.9549365234375,1.1514686346054077,-0.8411204218864441,1.5521833896636963
1776556123811976700,6.964976806640625,1.029904842376709,-0.5076907873153687,1.6574002504348755
1776556123822016800,6.975016845703125,0.9353391528129578,-0.09857557713985443,1.7992736101150513
1776556123832057600,6.9850576171875,0.9411776065826416,0.2947136461734772,1.9409644603729248
1776556123842097700,6.99509765625,0.9710334539413452,0.7052918672561646,2.082144260406494
1776556123852137500,7.005137451171875,1.008108377456665,1.052404761314392,2.228572368621826
1776556123862177500,7.015177490234375,1.093097448348999,1.214417576789856,2.321875810623169
1776556123872217600,7.025217529296875,1.2002766132354736,1.1743873357772827,2.3577568531036377
1776556123882258700,7.0352587890625,1.3076997995376587,0.9806845188140869,2.3326971530914307
1776556123892298800,7.045298828125,1.3982877731323242,0.7106250524520874,2.2880032062530518
1776556123902338800,7.0553388671875,1.4415749311447144,0.5046597123146057,2.2438735961914062
1776556123912378600,7.065378662109375,1.4005625247955322,0.4180696904659271,2.2107126712799072
1776556123922419500,7.07541943359375,1.2931617498397827,0.4097732901573181,2.2065114974975586
1776556123932459500,7.08545947265625,1.1537684202194214,0.4179105758666992,2.236327648162842
1776556123942499600,7.09549951171875,1.0292174816131592,0.394960880279541,2.2838757038116455
1776556123952539600,7.10553955078125,0.9211083054542542,0.3573565185070038,2.287172794342041
1776556123962579700,7.115579833984375,0.859778881072998,0.2987411618232727,2.234614849090576
1776556123972620800,7.125620849609375,0.8659936189651489,0.22979779541492462,2.1207244396209717
1776556123982660600,7.13566064453125,0.9222217202186584,0.21196116507053375,2.0079901218414307
1776556123992700700,7.14570068359375,1.0337953567504883,0.2485029250383377,1.8709317445755005
1776556124002740700,7.15574072265625,1.1765650510787964,0.34708982706069946,1.696572184562683
1776556124012781600,7.165781494140625,1.3169147968292236,0.4876866340637207,1.5096241235733032
1776556124022821600,7.175821533203125,1.4112589359283447,0.5926645398139954,1.3308160305023193
1776556124032861700,7.18586181640625,1.4512615203857422,0.6012333035469055,1.194626808166504
1776556124042901800,7.19590185546875,1.44040846824646,0.5547634959220886,1.1069409847259521
1776556124052941600,7.205941650390625,1.4281443357467651,0.4702158570289612,1.0541317462921143
1776556124062982700,7.215982666015625,1.427120566368103,0.3698207139968872,1.0285301208496094
1776556124073022700,7.226022705078125,1.4114731550216675,0.3163236677646637,1.001187801361084
1776556124083062500,7.2360625,1.369849681854248,0.2996555268764496,0.9610893726348877
1776556124093102600,7.2461025390625,1.3247146606445312,0.24972736835479736,0.9048457741737366
1776556124103143700,7.256143798828125,1.2617251873016357,0.15571999549865723,0.8370074033737183
1776556124113183700,7.266183837890625,1.221213459968567,0.04792748764157295,0.792427122592926
1776556124123223600,7.2762236328125,1.1717238426208496,-0.019404707476496696,0.7412015795707703
1776556124133263600,7.286263671875,1.109474539756775,-0.015496520325541496,0.6867665648460388
1776556124143303700,7.2963037109375,1.0461636781692505,-0.009030512534081936,0.6320546865463257
1776556124153344500,7.306344482421875,0.9834800362586975,0.001427721232175827,0.5673238635063171
1776556124163384600,7.316384521484375,0.9039532542228699,-0.043447379022836685,0.5078393220901489
1776556124173424600,7.326424560546875,0.8039512634277344,-0.12179651111364365,0.44091007113456726
1776556124183464700,7.336464599609375,0.6881873607635498,-0.2156296968460083,0.3717443346977234
1776556124193504500,7.34650439453125,0.5642984509468079,-0.3454209566116333,0.30443906784057617
1776556124203545600,7.356545654296875,0.43533653020858765,-0.4528951942920685,0.23565009236335754
1776556124213585700,7.366585693359375,0.3017536997795105,-0.5264527797698975,0.15911456942558289
1776556124223625700,7.376625732421875,0.18182040750980377,-0.5651317834854126,0.09531016647815704
1776556124233665800,7.386665771484375,0.09450095891952515,-0.5840418338775635,0.057824037969112396
1776556124243705900,7.396705810546875,0.056177493184804916,-0.5872532725334167,0.06630554795265198
1776556124253746700,7.40674658203125,0.07298469543457031,-0.5986433625221252,0.12929248809814453
1776556124263786500,7.416786376953125,0.12854784727096558,-0.6343093514442444,0.2392696738243103
1776556124273826600,7.42682666015625,0.21639221906661987,-0.6791436672210693,0.3744892477989197
1776556124283866600,7.43686669921875,0.31407430768013,-0.6839454174041748,0.49974361062049866
1776556124293906700,7.44690673828125,0.4271734356880188,-0.6529110670089722,0.5904082655906677
1776556124303947800,7.45694775390625,0.5458036661148071,-0.6203529834747314,0.6320140957832336
1776556124313987800,7.46698779296875,0.6487566828727722,-0.6166769862174988,0.6535137891769409
1776556124324027600,7.477027587890625,0.7183346152305603,-0.6580045223236084,0.696492075920105
1776556124334067500,7.4870673828125,0.7355762124061584,-0.7157328128814697,0.7854821085929871
1776556124344108500,7.497108642578125,0.7452266216278076,-0.7075936198234558,0.8971052765846252
1776556124354148600,7.507148681640625,0.7849753499031067,-0.6314154863357544,0.9833775758743286
1776556124364188700,7.517188720703125,0.8820628523826599,-0.5110843777656555,1.0588728189468384
1776556124374228700,7.527228759765625,1.0205494165420532,-0.3407091498374939,1.0165979862213135
1776556124384268800,7.537268798828125,1.1677337884902954,-0.05956283211708069,0.7626218795776367
1776556124394309600,7.5473095703125,1.303771734237671,0.4338492751121521,0.3597593307495117
1776556124404349400,7.557349365234375,1.4300559759140015,1.0761710405349731,0.0030318566132336855
1776556124414390500,7.567390625,1.4134410619735718,1.091629981994629,-0.20575836300849915
1776556124424430600,7.5774306640625,1.5180332660675049,1.4067333936691284,-0.01673102006316185
1776556124434470700,7.587470703125,1.8581594228744507,2.5752944946289062,0.5393351912498474
1776556124444511700,7.59751171875,2.1387557983398438,2.572049617767334,0.7914592027664185
1776556124454551800,7.6075517578125,2.373979330062866,1.0100921392440796,0.9787057638168335
1776556124464591600,7.617591552734375,2.319490432739258,-0.3143288493156433,1.5372459888458252
1776556124474631400,7.62763134765625,1.6592859029769897,-0.46796873211860657,2.6142473220825195
1776556124484671500,7.63767138671875,0.8930470943450928,-0.974452018737793,3.414877414703369
1776556124494712600,7.647712646484375,0.24953600764274597,-1.2895492315292358,3.5243306159973145
1776556124504752600,7.657752685546875,-0.15314029157161713,-1.4822845458984375,3.26055645942688
1776556124514792700,7.667792724609375,-0.09255417436361313,-1.4479560852050781,2.9407529830932617
1776556124524832800,7.677832763671875,0.3005664050579071,-0.5493423342704773,2.7001776695251465
1776556124534872600,7.68787255859375,0.7614898085594177,1.6617742776870728,2.501310348510742
1776556124544913400,7.697913330078125,1.473299264907837,2.151899814605713,1.8768999576568604
1776556124554953500,7.707953369140625,2.06425404548645,0.7111687660217285,0.6425053477287292
1776556124564993500,7.71799365234375,2.0783095359802246,-0.3663489520549774,-0.08534416556358337
1776556124575033600,7.72803369140625,1.6096868515014648,-0.4207245707511902,0.20403225719928741
1776556124585073700,7.73807373046875,0.9721127152442932,0.08117280155420303,1.1319382190704346
1776556124595114800,7.74811474609375,0.5663204789161682,0.32232576608657837,1.9385181665420532
1776556124605154800,7.75815478515625,0.5208598375320435,0.26845410466194153,2.17590594291687
1776556124615194600,7.768194580078125,0.6449272036552429,0.27560922503471375,1.930449366569519
1776556124625234700,7.778234619140625,0.7789323329925537,0.15690681338310242,1.5127354860305786
1776556124635274800,7.788274658203125,0.8662843108177185,0.015120117925107479,1.25245201587677
1776556124645314800,7.798314697265625,0.9462184906005859,0.009821445681154728,1.2162024974822998
1776556124655355600,7.808355712890625,1.0287929773330688,-0.07198314368724823,1.2394225597381592
1776556124665395700,7.818395751953125,1.0616391897201538,-0.04677979275584221,1.2346251010894775
1776556124675435500,7.828435546875,1.009381890296936,0.10705557465553284,1.1028354167938232
1776556124685475600,7.8384755859375,0.9345173239707947,0.08968343585729599,0.8595775961875916
1776556124695515600,7.848515625,0.8575471639633179,-0.07786508649587631,0.7386101484298706
1776556124705556700,7.858556640625,0.7713178396224976,-0.042517274618148804,0.7764514088630676
1776556124715596800,7.8685966796875,0.6972312927246094,0.004469140432775021,0.825494110584259
1776556124725636600,7.87863671875,0.6885439157485962,-0.08304736018180847,0.7746724486351013
1776556124735673600,7.888673583984375,0.7233916521072388,-0.16954603791236877,0.6664692759513855
1776556124745713700,7.898713623046875,0.7997186779975891,-0.26685041189193726,0.5891441702842712
1776556124755754800,7.908754638671875,0.789037823677063,-0.32538720965385437,0.5621407628059387
1776556124765794800,7.918794921875,0.720523476600647,-0.39234840869903564,0.5789423584938049
1776556124775834600,7.928834716796875,0.6303866505622864,-0.3465196490287781,0.6024135947227478
1776556124785874700,7.938874755859375,0.5662304162979126,-0.08397586643695831,0.5764527320861816
1776556124795914800,7.948914794921875,0.52741539478302,-0.08888594061136246,0.46646445989608765
1776556124805954800,7.958954833984375,0.4302462935447693,-0.27285900712013245,0.37824463844299316
1776556124815995600,7.96899560546875,0.25199800729751587,-0.3812187612056732,0.3948710262775421
1776556124826035700,7.97903564453125,0.1355426013469696,-0.23661446571350098,0.3759293556213379
1776556124836075500,7.989075439453125,0.06407986581325531,-0.14576871693134308,0.17365480959415436
1776556124846115600,7.999115478515625,-0.02173769101500511,0.020959200337529182,-0.21092328429222107
1776556124856155600,8.00915576171875,-0.057075440883636475,0.19551369547843933,-0.49003884196281433
1776556124866196700,8.01919677734375,-0.008996982127428055,0.3830004036426544,-0.520492434501648
1776556124876236800,8.02923681640625,0.004334801807999611,0.30767637491226196,-0.46788859367370605
1776556124886276600,8.039276611328125,-0.13924242556095123,0.05980197340250015,-0.4024249017238617
1776556124896316700,8.049316650390624,-0.43986162543296814,-0.18560084700584412,-0.3347494304180145
1776556124906356500,8.0593564453125,-0.5875586867332458,-0.3420858681201935,-0.35675308108329773
1776556124916396500,8.069396484375,-0.5789638757705688,-0.3331368565559387,-0.44299182295799255
1776556124926437600,8.079437744140625,-0.5717139840126038,-0.11087469011545181,-0.49201148748397827
1776556124936477700,8.089477783203124,-0.6032966375350952,-0.01753781922161579,-0.6075186133384705
1776556124946517800,8.099517822265625,-0.5690037608146667,0.031120717525482178,-0.8415113091468811
1776556124956557800,8.109557861328126,-0.5000241994857788,0.10293738543987274,-1.0683375597000122
1776556124966597600,8.11959765625,-0.5082641243934631,0.07769239693880081,-1.1241455078125
1776556124976638500,8.129638427734376,-0.5419475436210632,-0.029639387503266335,-1.064323902130127
1776556124986678500,8.139678466796875,-0.5934039354324341,-0.14364740252494812,-1.0191019773483276
1776556124996718600,8.149718505859376,-0.6617361307144165,-0.22872795164585114,-0.9649335145950317
1776556125006758700,8.159758544921875,-0.6961176991462708,-0.23907193541526794,-0.9703591465950012
1776556125016798700,8.169798828125,-0.6941424012184143,-0.28475630283355713,-1.0493316650390625
1776556125026838500,8.179838623046875,-0.7017672061920166,-0.2781522572040558,-1.1335147619247437
1776556125036879600,8.189879638671876,-0.7110264897346497,-0.21247175335884094,-1.1889575719833374
1776556125046919700,8.199919677734375,-0.6763226389884949,-0.216044083237648,-1.278670072555542
1776556125056959700,8.209959716796876,-0.6377547383308411,-0.37848734855651855,-1.3932914733886719
1776556125066999600,8.21999951171875,-0.6390968561172485,-0.2989952564239502,-1.4290367364883423
1776556125077039600,8.23003955078125,-0.6525823473930359,-0.2553905248641968,-1.4229615926742554
1776556125087079700,8.24007958984375,-0.7115039229393005,-0.3377510905265808,-1.4066797494888306
1776556125097120800,8.250120849609376,-0.7956174612045288,-0.3381335139274597,-1.3998761177062988
1776556125107160600,8.26016064453125,-0.8681033849716187,-0.30841776728630066,-1.4305514097213745
1776556125117200600,8.27020068359375,-0.9166730642318726,-0.24202221632003784,-1.514492154121399
1776556125127240700,8.28024072265625,-0.9517073035240173,-0.21801400184631348,-1.653369426727295
1776556125137280800,8.29028076171875,-1.0106619596481323,-0.28392350673675537,-1.7996174097061157
1776556125147320800,8.30032080078125,-1.1036453247070312,-0.3765450119972229,-1.8702192306518555
1776556125157361700,8.310361572265625,-1.179059386253357,-0.5129108428955078,-1.9360988140106201
1776556125167401500,8.3204013671875,-1.271141529083252,-0.6999927163124084,-2.0222041606903076
1776556125177441500,8.330441650390625,-1.395837426185608,-0.7594083547592163,-2.043667793273926
1776556125187481600,8.340481689453124,-1.507888674736023,-0.6611511707305908,-2.0525951385498047
1776556125197521700,8.350521728515625,-1.5721571445465088,-0.644766628742218,-2.154188394546509
1776556125207561700,8.360561767578124,-1.6445844173431396,-0.5693668723106384,-2.273216724395752
1776556125217602800,8.370602783203125,-1.7344852685928345,-0.45052647590637207,-2.3497817516326904
1776556125227642600,8.380642578125,-1.8324625492095947,-0.4189772605895996,-2.391305446624756
1776556125237682700,8.3906826171875,-1.896699070930481,-0.45510411262512207,-2.5186667442321777
1776556125247722800,8.40072265625,-1.9781066179275513,-0.5082470774650574,-2.684591293334961
1776556125257762600,8.410762451171875,-2.0599300861358643,-0.4958231449127197,-2.818563461303711
1776556125267803600,8.4208037109375,-2.139036178588867,-0.347268670797348,-2.8656113147735596
1776556125277843700,8.43084375,-2.186612367630005,-0.13687095046043396,-2.825190782546997
1776556125287883800,8.4408837890625,-2.1371512413024902,0.07506127655506134,-2.736194610595703
1776556125297923600,8.450923583984375,-1.958320140838623,0.22445157170295715,-2.571359634399414
1776556125307963600,8.460963623046876,-1.636006236076355,0.3386244773864746,-2.3621420860290527
1776556125318003700,8.471003662109375,-1.2982498407363892,0.48990294337272644,-2.2231690883636475
1776556125328043800,8.481043701171876,-1.01840341091156,0.6397582292556763,-2.222137689590454
1776556125338084600,8.491084716796875,-0.8353025317192078,0.7960910797119141,-2.3497555255889893
1776556125348124700,8.501124755859376,-0.7683069705963135,0.9158353209495544,-2.5295329093933105
1776556125358164500,8.51116455078125,-0.7922602295875549,1.0087236166000366,-2.605076789855957
1776556125368204500,8.52120458984375,-0.8458451628684998,1.1221221685409546,-2.5782251358032227
1776556125378244600,8.53124462890625,-0.9233160018920898,1.1831024885177612,-2.440887451171875
1776556125388285700,8.54128564453125,-1.004730224609375,1.2143213748931885,-2.2314062118530273
1776556125398325800,8.55132568359375,-1.089241623878479,1.2053747177124023,-2.0322601795196533
1776556125408365800,8.56136572265625,-1.1710890531539917,1.1837210655212402,-1.8617881536483765
1776556125418405600,8.571405517578125,-1.2061443328857422,1.0752836465835571,-1.7131662368774414
1776556125428445700,8.58144580078125,-1.2278834581375122,0.8595662117004395,-1.6011477708816528
1776556125438485500,8.591485595703125,-1.204001545906067,0.5832067728042603,-1.427924394607544
1776556125448526600,8.601526611328126,-1.1494241952896118,0.2930293679237366,-1.207711100578308
1776556125458566400,8.61156640625,-1.1079087257385254,0.017629997804760933,-0.9803141951560974
1776556125468606500,8.6216064453125,-1.043412685394287,-0.2323431372642517,-0.8259063363075256
1776556125478646500,8.631646484375,-0.990929901599884,-0.4664757251739502,-0.6559468507766724
1776556125488686600,8.6416865234375,-0.9827525615692139,-0.6606907844543457,-0.5865499973297119
1776556125498726700,8.6517265625,-0.9987325668334961,-0.8600201606750488,-0.5289381146430969
1776556125508767500,8.661767578125,-1.0190308094024658,-1.0647084712982178,-0.516181230545044
1776556125518807300,8.671807373046875,-1.011764407157898,-1.3053545951843262,-0.5431140661239624
1776556125528847400,8.681847412109375,-0.919162392616272,-1.5096852779388428,-0.5548887848854065
1776556125538887400,8.691887451171874,-0.8616653084754944,-1.542194128036499,-0.5362970232963562
1776556125548927500,8.701927490234375,-0.7671897411346436,-1.422421932220459,-0.49394506216049194
1776556125558967600,8.711967529296874,-0.6451588869094849,-1.1676455736160278,-0.5139022469520569
1776556125569008600,8.722008544921875,-0.47858038544654846,-0.7918727397918701,-0.6276472806930542
1776556125579048700,8.732048583984374,-0.29583585262298584,-0.3403755724430084,-0.7354685664176941
1776556125589088500,8.742088623046875,-0.15726834535598755,0.07467160373926163,-0.8104590773582458
1776556125599128600,8.752128662109374,-0.05034669116139412,0.3843032121658325,-0.824202835559845
1776556125609168600,8.762168701171875,0.0055035436525940895,0.5522230267524719,-0.733323872089386
1776556125619208400,8.77220849609375,0.01290446799248457,0.5490652918815613,-0.6254546642303467
1776556125629248500,8.78224853515625,-0.02332945168018341,0.4265023171901703,-0.5828088521957397
1776556125639289600,8.79228955078125,-0.07836207747459412,0.27945321798324585,-0.6211653351783752
1776556125649329400,8.802329345703125,-0.13075974583625793,0.18984666466712952,-0.709604799747467
1776556125659369500,8.812369384765624,-0.1335296928882599,0.177127406001091,-0.7787734866142273
1776556125669409500,8.822409423828125,-0.07238170504570007,0.1824348121881485,-0.8255948424339294
1776556125679449600,8.83244970703125,-0.0015514744445681572,0.22873519361019135,-0.8912761211395264
1776556125689489700,8.84248974609375,0.07101768255233765,0.3238346576690674,-0.8767169117927551
1776556125699530500,8.852530517578124,0.15875260531902313,0.4706299602985382,-0.7955554723739624
1776556125709570300,8.8625703125,0.19849546253681183,0.601248025894165,-0.6227256655693054
1776556125719610400,8.8726103515625,0.19843581318855286,0.6387000679969788,-0.3937961161136627
1776556125729650400,8.882650390625,0.18062472343444824,0.5705437064170837,-0.19382937252521515
1776556125739690500,8.8926904296875,0.16850866377353668,0.47642549872398376,-0.04068082943558693
1776556125749730600,8.90273046875,0.17923401296138763,0.4271863102912903,0.06109219044446945
1776556125759771600,8.912771728515626,0.20634232461452484,0.43887147307395935,0.15244580805301666
1776556125769811700,8.922811767578125,0.21790942549705505,0.5076954364776611,0.20837631821632385
1776556125779851500,8.9328515625,0.21509473025798798,0.5588414669036865,0.17816941440105438
1776556125789891600,8.9428916015625,0.20031386613845825,0.5424174666404724,0.1236497163772583
1776556125799931600,8.952931640625,0.10295802354812622,0.5658703446388245,0.08052168786525726
1776556125809971500,8.962971435546875,-0.07515299320220947,0.7387133240699768,0.04615473374724388
1776556125820012500,8.973012451171876,-0.24703873693943024,1.0612308979034424,-0.023518623784184456
1776556125830052600,8.983052490234375,-0.29272574186325073,1.3608558177947998,-0.12450502812862396
1776556125840092400,8.993092529296876,-0.27852070331573486,1.6130590438842773,-0.13167665898799896
1776556125850132500,9.003132568359375,-0.24184207618236542,1.727542519569397,0.04224587604403496
1776556125860172500,9.013172607421875,-0.184640035033226,1.572055459022522,0.3325274884700775
1776556125870212600,9.023212646484374,-0.12638475000858307,1.1653603315353394,0.5830805897712708
1776556125880252700,9.033252685546875,-0.08173978328704834,0.6728851199150085,0.6560624241828918
1776556125890293500,9.04329345703125,-0.012774035334587097,0.20878279209136963,0.5351877808570862
1776556125900333300,9.053333251953125,0.05536586791276932,-0.12144225835800171,0.2992255687713623
1776556125910373400,9.063373291015624,0.1458965539932251,-0.23884737491607666,0.07529670000076294
1776556125920413400,9.073413330078125,0.2539108991622925,-0.20269256830215454,-0.012406259775161743
1776556125930453500,9.08345361328125,0.3569457232952118,0.049207787960767746,0.05899668112397194
1776556125940493600,9.09349365234375,0.4311901330947876,0.4945639371871948,0.2647687494754791
1776556125950534700,9.10353466796875,0.42719683051109314,0.9037305116653442,0.5520225167274475
1776556125960574700,9.11357470703125,0.35798606276512146,1.0395069122314453,0.751631498336792
1776556125970614500,9.123614501953124,0.35618436336517334,0.7577440142631531,0.7710452675819397
1776556125980654600,9.133654541015625,0.37930935621261597,0.03533867746591568,0.6541407704353333
1776556125990694400,9.1436943359375,0.3977303206920624,-0.7905733585357666,0.48823997378349304
1776556126000734500,9.153734375,0.3400246798992157,-1.3410983085632324,0.38767847418785095
1776556126010775600,9.163775634765624,0.25969794392585754,-1.4292434453964233,0.36258426308631897
1776556126020815600,9.173815673828125,0.2556017339229584,-1.1501374244689941,0.4993594288825989
1776556126030855400,9.18385546875,0.3080521821975708,-0.8994698524475098,0.6973641514778137
1776556126040895500,9.1938955078125,0.40259572863578796,-0.7818907499313354,0.7442256808280945
1776556126050935600,9.203935546875,0.5172991156578064,-0.6676027774810791,0.602954089641571
1776556126060975600,9.2139755859375,0.599967360496521,-0.45681655406951904,0.3840837776660919
1776556126071015700,9.224015625,0.6324771046638489,-0.2128274291753769,0.06927195936441422
1776556126081056500,9.234056396484375,0.5650370717048645,-0.0579339861869812,-0.24799759685993195
1776556126091096600,9.2440966796875,0.34910035133361816,-0.03259686008095741,-0.5784987211227417
1776556126101136400,9.254136474609375,-0.0012528738006949425,-0.22305095195770264,-0.7406894564628601
1776556126111176400,9.264176513671876,-0.45221632719039917,-0.6100239753723145,-0.6707005500793457
1776556126121216500,9.274216552734375,-0.861458957195282,-1.1863104104995728,-0.519229531288147
1776556126131256600,9.284256591796876,-1.111465573310852,-1.7070268392562866,-0.4759877026081085
1776556126141297700,9.294297607421875,-1.1472398042678833,-1.9576328992843628,-0.6555321216583252
1776556126151337700,9.304337646484376,-1.0173099040985107,-2.0023415088653564,-0.8334876894950867
1776556126161377500,9.31437744140625,-0.8115271329879761,-1.9508317708969116,-0.8991628289222717
1776556126171417600,9.32441748046875,-0.6288763880729675,-1.8746626377105713,-0.8382301330566406
1776556126181457400,9.33445751953125,-0.49722251296043396,-1.8029420375823975,-0.7167263031005859
1776556126191497500,9.34449755859375,-0.36740627884864807,-1.7513985633850098,-0.6028767228126526
1776556126201538600,9.35453857421875,-0.18413765728473663,-1.6169967651367188,-0.505340576171875
1776556126211578600,9.36457861328125,-0.07451654970645905,-1.3019238710403442,-0.46231698989868164
1776556126221618400,9.374618408203125,-0.07836481928825378,-0.8706744313240051,-0.5290004014968872
1776556126231658500,9.384658447265625,-0.11906995624303818,-0.5196999311447144,-0.6062437295913696
1776556126241698600,9.394698486328124,-0.15168996155261993,-0.3532244563102722,-0.5902072191238403
1776556126251738600,9.404738525390625,-0.1911817193031311,-0.3323408365249634,-0.5060556530952454
1776556126261778700,9.41477880859375,-0.24894435703754425,-0.36176368594169617,-0.4403323233127594
1776556126271819500,9.424819580078125,-0.2889805734157562,-0.38608136773109436,-0.4241151213645935
1776556126281859600,9.434859619140624,-0.32492178678512573,-0.3851418197154999,-0.4187259376049042
1776556126291899400,9.4448994140625,-0.36358383297920227,-0.1894163191318512,-0.4470415413379669
1776556126301939500,9.454939453125,-0.3803494870662689,0.22992528975009918,-0.47223156690597534
1776556126311979500,9.4649794921875,-0.3435240387916565,0.7102539539337158,-0.41173839569091797
1776556126322019600,9.47501953125,-0.25897321105003357,1.0788426399230957,-0.30980992317199707
1776556126332060700,9.485060791015625,-0.14310212433338165,1.2114614248275757,-0.23540550470352173
1776556126342100700,9.495100830078124,-0.033643532544374466,1.1394588947296143,-0.2623670995235443
1776556126352140500,9.505140625,0.05886266380548477,0.9232513308525085,-0.3405575156211853
1776556126362180400,9.515180419921874,0.11224439740180969,0.6660624146461487,-0.39667004346847534
1776556126372220400,9.525220458984375,0.105758436024189,0.48963662981987,-0.3818356394767761
1776556126382260500,9.535260498046876,0.05940638482570648,0.425161212682724,-0.34933680295944214
1776556126392301600,9.545301513671875,-0.005702625028789043,0.4337522089481354,-0.25041210651397705
1776556126402341600,9.555341552734374,-0.09143669903278351,0.4244982600212097,-0.24879983067512512
1776556126412381400,9.56538134765625,-0.0909472107887268,0.2427394688129425,-0.36445772647857666
1776556126422421500,9.57542138671875,-0.0077591100707650185,-0.2555859386920929,-0.694699227809906
1776556126432461300,9.58546142578125,-0.07782869040966034,-1.0014954805374146,-1.2308632135391235
1776556126442501400,9.59550146484375,-0.35858258605003357,-1.4045549631118774,-1.2319004535675049
1776556126452541400,9.60554150390625,-0.8594061732292175,-1.138392448425293,-0.5941382050514221
1776556126462582300,9.615582275390626,-1.3334389925003052,-0.28811249136924744,0.20486389100551605
1776556126472622300,9.625622314453125,-1.3283003568649292,0.7256820797920227,0.7742459774017334
1776556126482662400,9.635662353515626,-0.9021341800689697,1.193692684173584,0.9181748628616333
1776556126492702200,9.6457021484375,-0.18922439217567444,1.0389546155929565,0.4776874780654907
1776556126502742300,9.6557421875,0.5580977201461792,0.8361344337463379,-0.31837689876556396
1776556126512782300,9.6657822265625,1.0210577249526978,0.6887674331665039,-0.8981794118881226
1776556126522823400,9.675823486328126,1.1439837217330933,0.4580950140953064,-0.9520162343978882
1776556126532863500,9.685863525390625,0.9487874507904053,0.1897473782300949,-0.6710030436515808
1776556126542903300,9.6959033203125,0.447836697101593,0.055494241416454315,-0.3975086808204651
1776556126552943400,9.705943359375,-0.23145589232444763,0.2078186571598053,-0.3490467965602875
1776556126562983200,9.715983154296875,-0.700309693813324,0.2711382210254669,-0.4867266118526459
1776556126573023200,9.726023193359374,-0.8427810668945312,0.12780556082725525,-0.5300180912017822
1776556126583064300,9.736064208984375,-0.7732840180397034,-0.04645145684480667,-0.4658109247684479
1776556126593104400,9.7461044921875,-0.5997958779335022,-0.08287746459245682,-0.3937813639640808
1776556126603144400,9.75614453125,-0.49145764112472534,-0.028738856315612793,-0.31567564606666565
1776556126613184500,9.7661845703125,-0.5555792450904846,0.023984519764780998,-0.2648254632949829
1776556126623224300,9.776224365234375,-0.7083480358123779,0.07400534301996231,-0.22302182018756866
1776556126633264400,9.786264404296874,-0.8478237390518188,0.12282460182905197,-0.21783380210399628
1776556126643304400,9.796304443359375,-0.9177351593971252,0.17221078276634216,-0.25392627716064453
1776556126653345300,9.80634521484375,-0.9395379424095154,0.19027066230773926,-0.30916568636894226
1776556126663385300,9.81638525390625,-0.9663474559783936,0.18792708218097687,-0.39583295583724976
1776556126673425400,9.82642529296875,-1.0187792778015137,0.20054703950881958,-0.4873046576976776
1776556126683465200,9.83646533203125,-1.0631835460662842,0.25435858964920044,-0.537672758102417
1776556126693505300,9.84650537109375,-1.107114553451538,0.32460281252861023,-0.5473822951316833
1776556126703545300,9.85654541015625,-1.1651808023452759,0.34928098320961,-0.535751223564148
1776556126713586400,9.86658642578125,-1.2259572744369507,0.3134971261024475,-0.5455704927444458
1776556126723626500,9.87662646484375,-1.2720634937286377,0.28780800104141235,-0.5767329335212708
1776556126733666300,9.886666259765626,-1.3004159927368164,0.3122769296169281,-0.632258415222168
1776556126743706400,9.896706298828125,-1.276528239250183,0.42344337701797485,-0.7571777105331421
1776556126753746200,9.90674609375,-1.1502190828323364,0.6458356976509094,-0.8570624589920044
1776556126763786200,9.9167861328125,-0.9040610194206238,0.8477944135665894,-0.8552674651145935
1776556126773826300,9.926826416015626,-0.6624717116355896,0.9124001860618591,-0.8072879910469055
1776556126783867400,9.936867431640625,-0.5149000883102417,0.8353919386863708,-0.7884314656257629
1776556126793907500,9.946907470703126,-0.44909173250198364,0.6821724772453308,-0.7627979516983032
1776556126803947500,9.956947509765625,-0.4361357092857361,0.4379441440105438,-0.6899293065071106
1776556126813987300,9.9669873046875,-0.4715003967285156,0.12500886619091034,-0.6185418963432312
1776556126824027400,9.97702734375,-0.5690079927444458,-0.06901547312736511,-0.5866764187812805
1776556126834067500,9.9870673828125,-0.762642502784729,0.012834182009100914,-0.6452415585517883
1776556126844108300,9.9971083984375,-0.984251856803894,0.29477638006210327,-0.7166395783424377
1776556126854148400,10.0071484375,-0.9839033484458923,0.34639912843704224,-0.722269594669342
1776556126864188400,10.0171884765625,-0.7868395447731018,0.3704959452152252,-0.6347911357879639
1776556126874228200,10.027228271484375,-0.48535075783729553,0.4839869439601898,-0.43791553378105164
1776556126884268300,10.037268310546875,-0.18195891380310059,0.6404415369033813,-0.19436176121234894
1776556126894308400,10.047308349609375,0.011554989963769913,0.733855128288269,-0.05238430202007294
1776556126904348400,10.057348388671874,0.14486218988895416,0.6916541457176208,0.000023778295144438744
1776556126914389200,10.06738916015625,0.2681591212749481,0.5434637665748596,0.016975387930870056
1776556126924429300,10.07742919921875,0.4175664484500885,0.33923423290252686,0.07395131886005402
1776556126934469400,10.087469482421875,0.5975432395935059,0.1794947385787964,0.17690615355968475
1776556126944509200,10.09750927734375,0.8084282875061035,0.11286456882953644,0.33590617775917053
1776556126954549200,10.10754931640625,1.0400376319885254,0.16344121098518372,0.5384947657585144
1776556126964589300,10.11758935546875,1.2706692218780518,0.3204862177371979,0.7556654214859009
1776556126974630400,10.12763037109375,1.4698132276535034,0.5403780341148376,0.9726197719573975
1776556126984670500,10.13767041015625,1.6303759813308716,0.7615426182746887,1.1544537544250488
1776556126994710500,10.14771044921875,1.7335995435714722,0.9230895638465881,1.2762446403503418
1776556127004750300,10.157750244140624,1.7921561002731323,0.9477895498275757,1.3300836086273193
1776556127014790400,10.167790283203125,1.8354803323745728,0.7946725487709045,1.3390377759933472
1776556127024830500,10.17783056640625,1.874866008758545,0.492804616689682,1.3505359888076782
1776556127034870300,10.187870361328125,1.892939805984497,0.15746454894542694,1.3741778135299683
1776556127044911400,10.197911376953124,1.8744909763336182,-0.1425139158964157,1.3938902616500854
1776556127054951400,10.207951416015625,1.8120557069778442,-0.3375948369503021,1.4221234321594238
1776556127064991500,10.217991455078124,1.692702054977417,-0.3823620676994324,1.4854328632354736
1776556127075031300,10.22803125,1.538684606552124,-0.26001811027526855,1.6178710460662842
1776556127085071400,10.2380712890625,1.387537956237793,-0.013899402692914009,1.8037160634994507
1776556127095111400,10.248111328125,1.279435157775879,0.2807261645793915,2.030172348022461
1776556127105152300,10.25815234375,1.228781819343567,0.5389806032180786,2.2428948879241943
1776556127115192300,10.2681923828125,1.2176724672317505,0.6909027099609375,2.390899896621704
1776556127125232400,10.278232421875,1.1791272163391113,0.7712220549583435,2.4407665729522705
1776556127135272200,10.288272216796875,1.1231194734573364,0.8078398108482361,2.3841960430145264
1776556127145313300,10.298313232421876,1.072118878364563,0.8430132269859314,2.2782275676727295
1776556127155353300,10.308353271484375,1.0451264381408691,0.91574627161026,2.1492486000061035
1776556127165393400,10.318393310546876,1.092212200164795,1.0825530290603638,2.023005723953247
1776556127175434200,10.328434326171875,1.1798104047775269,1.3716143369674683,1.932447910308838
1776556127185474300,10.338474365234376,1.2537517547607422,1.7585647106170654,1.8886964321136475
1776556127195514400,10.348514404296875,1.2642091512680054,2.0814452171325684,1.8539786338806152
1776556127205554200,10.35855419921875,1.2155662775039673,2.1472790241241455,1.8236523866653442
1776556127215594200,10.36859423828125,1.1726500988006592,1.9031745195388794,1.7540922164916992
1776556127225634300,10.37863427734375,1.1802555322647095,1.4100369215011597,1.6727899312973022
1776556127235675400,10.38867529296875,1.2295937538146973,0.7300053238868713,1.5285429954528809
1776556127245715500,10.398715576171876,1.2863246202468872,0.04587302729487419,1.3810064792633057
1776556127255755500,10.408755615234375,1.325674295425415,-0.42055895924568176,1.2858850955963135
1776556127265795600,10.418795654296876,1.3507112264633179,-0.5354778170585632,1.2569197416305542
1776556127275835400,10.42883544921875,1.340299129486084,-0.3498168885707855,1.2718358039855957
1776556127285875200,10.438875244140625,1.2676537036895752,-0.026213524863123894,1.3141694068908691
1776556127295915300,10.448915283203124,1.1786421537399292,0.13394887745380402,1.3176252841949463
1776556127305956400,10.458956298828125,1.1137031316757202,0.07392150908708572,1.2507565021514893
1776556127315996400,10.468996337890625,1.07613205909729,-0.09624846279621124,1.13642156124115
1776556127326036500,10.479036376953125,1.0641664266586304,-0.2192438840866089,1.0040159225463867
1776556127336076300,10.489076171875,1.0817766189575195,-0.2244967222213745,0.8821382522583008
1776556127346116400,10.499116455078125,1.1091855764389038,-0.16660946607589722,0.7883960604667664
1776556127356156400,10.509156494140624,1.1417338848114014,-0.13485601544380188,0.7297223210334778
1776556127366196500,10.519196533203125,1.1568374633789062,-0.1665620058774948,0.7259331345558167
1776556127376237300,10.5292373046875,1.1216259002685547,-0.24999748170375824,0.7199755907058716
1776556127386277400,10.53927734375,1.0711421966552734,-0.375853955745697,0.6991821527481079
1776556127396317200,10.549317138671874,1.0074586868286133,-0.47967690229415894,0.6436220407485962
1776556127406357200,10.559357177734375,0.945712685585022,-0.5629987120628357,0.5477016568183899
1776556127416397300,10.569397216796874,0.8673751354217529,-0.6275766491889954,0.44540563225746155
1776556127426437600,10.579437744140625,0.781072199344635,-0.6906211376190186,0.34448620676994324
1776556127436477700,10.589477783203124,0.6886534094810486,-0.7594665884971619,0.280298113822937
1776556127446518800,10.599518798828125,0.5947505831718445,-0.8107465505599976,0.25362733006477356
1776556127456558600,10.60955859375,0.49642980098724365,-0.8341823816299438,0.25785648822784424
1776556127466598400,10.619598388671875,0.4032899737358093,-0.8279335498809814,0.2775399088859558
1776556127476638500,10.629638427734376,0.3061831593513489,-0.813979983329773,0.2816549241542816
1776556127486678500,10.639678466796875,0.21515657007694244,-0.7808026075363159,0.26017120480537415
1776556127496718600,10.649718505859376,0.12656910717487335,-0.7420121431350708,0.22104868292808533
1776556127506758700,10.659758544921875,0.03682536259293556,-0.6943055987358093,0.1799744963645935
1776556127516799700,10.6697998046875,-0.019549952819943428,-0.6646085381507874,0.16600269079208374
1776556127526839600,10.679839599609375,-0.018507059663534164,-0.6532924771308899,0.16666820645332336
1776556127536879600,10.689879638671876,0.04274021089076996,-0.7169310450553894,0.18905940651893616
1776556127546919700,10.699919677734375,0.15129464864730835,-0.8215519785881042,0.2784681022167206
1776556127556959700,10.709959716796876,0.2924131155014038,-0.8736749887466431,0.43196243047714233
1776556127566999600,10.71999951171875,0.44967594742774963,-0.7962265610694885,0.6005616188049316
1776556127577039600,10.73003955078125,0.6116219162940979,-0.6376104354858398,0.7163819074630737
1776556127587080700,10.740080810546875,0.7350538372993469,-0.5008006691932678,0.7450175881385803
1776556127597120500,10.75012060546875,0.8145536184310913,-0.39810267090797424,0.7171985507011414
1776556127607160600,10.76016064453125,0.9068121910095215,-0.254618763923645,0.7102698087692261
1776556127617200600,10.77020068359375,1.0892767906188965,0.020303163677453995,0.7132681012153625
1776556127627240700,10.78024072265625,1.3922507762908936,0.44331300258636475,0.6255398392677307
1776556127637280800,10.79028076171875,1.7356436252593994,0.936459481716156,0.33411887288093567
1776556127647320600,10.800320556640624,1.9623746871948242,1.031795859336853,-0.1394204944372177
1776556127657360600,10.810360595703125,2.168245315551758,0.9771336317062378,-0.510623574256897
1776556127667401500,10.8204013671875,2.4717249870300293,2.0578126907348633,-0.33692795038223267
1776556127677441500,10.830441650390625,2.7761292457580566,3.538933038711548,0.3341408967971802
1776556127687481600,10.840481689453124,2.9496755599975586,3.405914783477783,1.0911046266555786
1776556127697521700,10.850521728515625,2.7308859825134277,1.5342051982879639,1.4577674865722656
1776556127707561500,10.8605615234375,2.0286614894866943,-0.3488829433917999,2.0279040336608887
1776556127717601500,10.8706015625,1.1215158700942993,-1.570247769355774,2.971409797668457
1776556127727641600,10.8806416015625,0.37536102533340454,-1.9453654289245605,3.488936185836792
1776556127737682700,10.8906826171875,-0.09080067276954651,-2.086242198944092,3.5297365188598633
1776556127747722800,10.90072265625,-0.254171758890152,-2.1650850772857666,3.3345136642456055
1776556127757762600,10.910762451171875,-0.1261216700077057,-1.8124072551727295,3.207214832305908
1776556127767802600,10.920802734375,0.29221007227897644,-0.35428154468536377,3.0165176391601562
1776556127777842400,10.930842529296875,0.7330254316329956,1.675405740737915,2.6782922744750977
1776556127787882500,10.940882568359376,1.3776826858520508,1.842241883277893,1.7671678066253662
1776556127797922600,10.950922607421875,1.9042974710464478,0.6229036450386047,0.5661673545837402
1776556127807962600,10.960962646484376,1.935659408569336,0.13601256906986237,-0.22365133464336395
1776556127818003700,10.971003662109375,1.7037739753723145,0.5953966975212097,-0.16334885358810425
1776556127828043800,10.981043701171876,1.3932154178619385,1.1299852132797241,0.5004328489303589
1776556127838083600,10.99108349609375,1.1796833276748657,1.2921106815338135,1.234166145324707
1776556127848123600,11.00112353515625,1.0119622945785522,0.9036281108856201,1.60127592086792
1776556127858163700,11.011163818359375,0.8594879508018494,0.11673521250486374,1.6388802528381348
1776556127868203500,11.02120361328125,0.7388342618942261,-0.480939120054245,1.5660065412521362
1776556127878243600,11.03124365234375,0.6616913676261902,-0.6770895719528198,1.5019676685333252
1776556127888284700,11.04128466796875,0.6589912176132202,-0.5334554314613342,1.4801111221313477
1776556127898324500,11.051324462890625,0.7450008988380432,-0.35641875863075256,1.4271584749221802
1776556127908364500,11.061364501953125,0.8384272456169128,-0.19451694190502167,1.2811949253082275
1776556127918404600,11.071404541015625,0.9358522891998291,0.14936132729053497,1.0251071453094482
1776556127928444700,11.081444580078125,1.016247034072876,0.46393418312072754,0.7173181772232056
1776556127938484700,11.091484619140624,1.0346322059631348,0.4500725269317627,0.4984850287437439
1776556127948524800,11.10152490234375,0.9535794258117676,0.3916928470134735,0.4708520472049713
1776556127958564600,11.111564697265624,0.7852232456207275,0.2597185969352722,0.622461199760437
1776556127968604700,11.121604736328125,0.6021791100502014,0.01726069673895836,0.8292277455329895
1776556127978645500,11.1316455078125,0.4577130377292633,-0.2373005449771881,0.9288785457611084
1776556127988685600,11.141685546875,0.4003991484642029,-0.5032269954681396,0.9294929504394531
1776556127998725600,11.1517255859375,0.3700084686279297,-0.5943064093589783,0.9355766773223877
1776556128008765700,11.161765625,0.3416716158390045,-0.4154804050922394,0.946398138999939
1776556128018805500,11.171805419921874,0.35961344838142395,-0.23814179003238678,0.8978382349014282
1776556128028845600,11.181845458984375,0.35574600100517273,0.013063807971775532,0.8109861612319946
1776556128038885600,11.1918857421875,0.3791486620903015,0.15853221714496613,0.7354702949523926
1776556128048925700,11.20192578125,0.38301849365234375,0.16619811952114105,0.6996701955795288
1776556128058966500,11.211966552734374,0.34749945998191833,0.027119668200612068,0.692806601524353
1776556128069006600,11.222006591796875,0.32676249742507935,-0.12471938878297806,0.7284761667251587
1776556128079046400,11.23204638671875,0.32491838932037354,-0.15234994888305664,0.7069422006607056
1776556128089086500,11.24208642578125,0.3467232584953308,-0.3173101544380188,0.5890496373176575
1776556128099126500,11.25212646484375,0.3111876845359802,-0.4132848381996155,0.45167678594589233
1776556128109166600,11.26216650390625,0.1284245252609253,-0.3272021412849426,0.33520156145095825
1776556128119206700,11.27220654296875,-0.04638489708304405,-0.04749235138297081,0.06855149567127228
1776556128129246700,11.282246826171875,-0.18178986012935638,0.27749666571617126,-0.2123645842075348
1776556128139286500,11.29228662109375,-0.21156732738018036,0.5007582306861877,-0.47096899151802063
1776556128149327600,11.30232763671875,-0.15692885220050812,0.45887815952301025,-0.632224440574646
1776556128159367700,11.31236767578125,-0.11551963537931442,0.3070749342441559,-0.6100718379020691
1776556128169407500,11.322407470703125,-0.13103175163269043,0.1512368619441986,-0.457438588142395
1776556128179447600,11.332447509765625,-0.22890286147594452,-0.0031602822709828615,-0.3816660940647125
1776556128189487600,11.342487548828124,-0.253958135843277,-0.16138267517089844,-0.4212190806865692
1776556128199527400,11.35252734375,-0.23627883195877075,-0.0884258896112442,-0.49434182047843933
1776556128209567500,11.3625673828125,-0.3007699251174927,-0.12179795652627945,-0.6109126806259155
1776556128219607600,11.372607666015625,-0.38445642590522766,-0.2456488460302353,-0.7310687303543091
1776556128229647600,11.382647705078124,-0.4246256649494171,-0.12717385590076447,-0.8345463871955872
1776556128239688700,11.392688720703125,-0.43450891971588135,-0.09208032488822937,-0.957758367061615
1776556128249728800,11.402728759765624,-0.4445514380931854,-0.11248599737882614,-1.0507158041000366
1776556128259768800,11.412768798828125,-0.4803084433078766,-0.07077684998512268,-1.104859709739685
1776556128269808600,11.42280859375,-0.5577728748321533,-0.18248313665390015,-1.1166191101074219
1776556128279848400,11.432848388671875,-0.6449634432792664,-0.2572021186351776,-1.1192437410354614
1776556128289888500,11.442888427734376,-0.6701476573944092,-0.32156461477279663,-1.18576180934906
1776556128299928600,11.452928466796875,-0.6524388194084167,-0.44688114523887634,-1.3020272254943848
1776556128309968600,11.46296875,-0.6259206533432007,-0.2627837657928467,-1.4305628538131714
1776556128320008400,11.473008544921875,-0.6258563995361328,-0.13364523649215698,-1.5536627769470215
1776556128330049500,11.483049560546876,-0.6787102818489075,-0.10747622698545456,-1.6581604480743408
1776556128340089600,11.493089599609375,-0.7004743814468384,-0.2186635136604309,-1.728735327720642
1776556128350129700,11.503129638671876,-0.7475143074989319,-0.28515785932540894,-1.7425181865692139
1776556128360169700,11.513169677734375,-0.8009504079818726,-0.24248135089874268,-1.7531076669692993
1776556128370209800,11.523209716796876,-0.8641095161437988,-0.32502976059913635,-1.7873256206512451
1776556128380249600,11.53324951171875,-1.0026017427444458,-0.5016939640045166,-1.8289932012557983
1776556128390289700,11.54328955078125,-1.141489028930664,-0.6328918933868408,-1.8318090438842773
1776556128400329500,11.55332958984375,-1.240011215209961,-0.6947954297065735,-1.8400516510009766
1776556128410369500,11.56336962890625,-1.3345656394958496,-0.7008490562438965,-1.8931505680084229
1776556128420409600,11.57340966796875,-1.4385844469070435,-0.692200243473053,-1.9543359279632568
1776556128430454000,11.5834541015625,-1.5529706478118896,-0.5869095325469971,-2.0561776161193848
1776556128440494000,11.593494140625,-1.6640169620513916,-0.5160965919494629,-2.188986301422119
1776556128450534000,11.603533935546874,-1.768881916999817,-0.49803927540779114,-2.328444719314575
1776556128460574000,11.613573974609375,-1.8774019479751587,-0.4672257900238037,-2.462855577468872
1776556128470614000,11.623614013671874,-1.9589424133300781,-0.37393924593925476,-2.5912468433380127
1776556128480654000,11.633654052734375,-1.9922683238983154,-0.2500395178794861,-2.715165853500366
1776556128490694100,11.643694091796876,-1.9979453086853027,-0.09752535074949265,-2.7877705097198486
1776556128500734200,11.653734130859375,-2.0160419940948486,0.1783946007490158,-2.7917933464050293
1776556128510774000,11.66377392578125,-2.0335545539855957,0.42738497257232666,-2.771979808807373
1776556128520813800,11.673813720703125,-2.0229172706604004,0.5692899823188782,-2.7284934520721436
1776556128530855000,11.68385498046875,-2.0014615058898926,0.7066920399665833,-2.6439411640167236
1776556128540895000,11.69389501953125,-1.9314861297607422,0.803553581237793,-2.5490198135375977
1776556128550935000,11.70393505859375,-1.818454623222351,0.8540681600570679,-2.4262757301330566
1776556128560975000,11.71397509765625,-1.6854569911956787,0.8984547853469849,-2.3055992126464844
1776556128571015000,11.724014892578126,-1.5422720909118652,0.8847783803939819,-2.223224401473999
1776556128581055000,11.734054931640625,-1.4167503118515015,0.8371075987815857,-2.1832115650177
1776556128591095000,11.744094970703125,-1.328754186630249,0.7815569639205933,-2.1744868755340576
1776556128601135000,11.754135009765625,-1.279865026473999,0.6846284866333008,-2.188220977783203
1776556128611175200,11.764175048828125,-1.2566126585006714,0.6222498416900635,-2.1721200942993164
1776556128621215000,11.774215087890624,-1.247175931930542,0.5659083724021912,-2.1654441356658936
1776556128631255800,11.784255859375,-1.2358589172363281,0.5605620741844177,-2.1376121044158936
1776556128641296000,11.7942958984375,-1.242403507232666,0.6242521405220032,-2.1132655143737793
1776556128651336000,11.8043359375,-1.2517402172088623,0.7414479851722717,-2.0977587699890137
1776556128661376000,11.8143759765625,-1.244706630706787,0.8318225741386414,-2.117192506790161
1776556128671416000,11.824416015625,-1.205589771270752,0.8891609907150269,-2.1366686820983887
1776556128681456000,11.8344560546875,-1.138153076171875,0.8847768902778625,-2.1287405490875244
1776556128691496000,11.844495849609375,-1.074488878250122,0.891012966632843,-2.0606436729431152
1776556128701536000,11.854535888671874,-1.0428695678710938,0.9649912714958191,-1.894310712814331
1776556128711576000,11.864576171875,-1.0323262214660645,1.0322550535202026,-1.7151947021484375
1776556128721616100,11.8746162109375,-1.039110541343689,0.9002240300178528,-1.5092158317565918
1776556128731656200,11.88465625,-1.086451768875122,0.48837655782699585,-1.303673267364502
1776556128741696000,11.894696044921876,-1.1494712829589844,-0.15880201756954193,-1.063653588294983
1776556128751735800,11.90473583984375,-1.2369153499603271,-0.8930959701538086,-0.8107680678367615
1776556128761775900,11.91477587890625,-1.3223778009414673,-1.5058009624481201,-0.5921154022216797
1776556128771816000,11.92481591796875,-1.392848253250122,-1.949984073638916,-0.43718066811561584
1776556128781856000,11.93485595703125,-1.397385835647583,-2.2053956985473633,-0.3356952667236328
1776556128791895800,11.944895751953124,-1.3338044881820679,-2.258781671524048,-0.210395947098732
1776556128801936000,11.954935791015625,-1.2414486408233643,-2.0173075199127197,-0.07482597976922989
1776556128811976000,11.964975830078124,-1.0862853527069092,-1.604702353477478,0.013434641063213348
1776556128822016000,11.97501611328125,-0.9202636480331421,-1.1121405363082886,0.08198092132806778
1776556128832056000,11.98505615234375,-0.7942380905151367,-0.649476945400238,0.0793188214302063
1776556128842096000,11.99509619140625,-0.6629438996315002,-0.31851837038993835,0.005013706628233194
1776556128852136000,12.005135986328124,-0.534213662147522,-0.09438087791204453,-0.14979290962219238
1776556128862176000,12.015176025390625,-0.40204349160194397,-0.0021085862535983324,-0.35507211089134216
1776556128872216800,12.025216796875,-0.3135618269443512,-0.0009351975750178099,-0.6304903626441956
1776556128882257000,12.0352568359375,-0.2391688972711563,-0.07357435673475266,-0.8597464561462402
1776556128892297000,12.045296875,-0.15424975752830505,-0.20284073054790497,-0.9655431509017944
1776556128902337000,12.0553369140625,-0.08266136050224304,-0.3412303328514099,-0.9499607086181641
1776556128912376800,12.065376953125,-0.06145274639129639,-0.39137232303619385,-0.8976919054985046
1776556128922417000,12.0754169921875,-0.127916157245636,-0.2807411849498749,-0.8627306222915649
1776556128932457000,12.08545703125,-0.16991153359413147,-0.07534860074520111,-0.847627580165863
1776556128942497000,12.0954970703125,-0.1430833786725998,0.16705136001110077,-0.7470670938491821
1776556128952537000,12.105537109375,-0.08442112803459167,0.3629436492919922,-0.5784168243408203
1776556128962577000,12.115576904296875,-0.003680839203298092,0.38592416048049927,-0.3559131324291229
1776556128972617000,12.125616943359375,0.042851243168115616,0.27513423562049866,-0.1962566077709198
1776556128982657000,12.135656982421875,0.05235578864812851,0.14753809571266174,-0.15439072251319885
1776556128992697900,12.14569775390625,0.06783141195774078,0.07339408993721008,-0.15699103474617004
1776556129002738000,12.155738037109375,0.10279190540313721,0.028733959421515465,-0.16484946012496948
1776556129012778000,12.165778076171875,0.16609178483486176,-0.030755463987588882,-0.17125409841537476
1776556129022818000,12.175818115234375,0.2245788276195526,-0.08051738888025284,-0.20627713203430176
1776556129032857900,12.18585791015625,0.25453460216522217,-0.05493799224495888,-0.22857950627803802
1776556129042898000,12.19589794921875,0.23844990134239197,0.09849007427692413,-0.21302326023578644
1776556129052938000,12.20593798828125,0.17946593463420868,0.3040251135826111,-0.16538596153259277
1776556129062978000,12.21597802734375,0.0950223058462143,0.4748154580593109,-0.09381921589374542
1776556129073018000,12.22601806640625,-0.01856471411883831,0.5613396763801575,0.005001633893698454
1776556129083058000,12.236057861328124,-0.1540505737066269,0.6141979694366455,0.08565870672464371
1776556129093098000,12.246097900390625,-0.27628329396247864,0.6859453916549683,0.12672731280326843
1776556129103138000,12.256137939453126,-0.3303345739841461,0.748793363571167,0.1771896779537201
1776556129113178000,12.26617822265625,-0.30522364377975464,0.734228253364563,0.2908235490322113
1776556129123218200,12.27621826171875,-0.23840248584747314,0.6688076853752136,0.4257744252681732
1776556129133259000,12.286259033203125,-0.16511841118335724,0.6627964377403259,0.5758606195449829
1776556129143298800,12.296298828125,-0.0678289458155632,0.6184843182563782,0.6679699420928955
1776556129153339000,12.3063388671875,0.0833754912018776,0.5149499773979187,0.7173539996147156
1776556129163379000,12.31637890625,0.26748427748680115,0.44815537333488464,0.7154279947280884
1776556129173419000,12.3264189453125,0.4442310929298401,0.5313011407852173,0.6478590965270996
1776556129183459000,12.336458984375,0.574192464351654,0.8366804718971252,0.530807375907898
1776556129193499100,12.3464990234375,0.6657042503356934,1.0820318460464478,0.5114288926124573
1776556129203539000,12.3565390625,0.7538608312606812,0.8106017708778381,0.5836970806121826
1776556129213579000,12.3665791015625,0.8387631773948669,0.17581044137477875,0.6746464371681213
1776556129223619000,12.376619140625,0.8213098049163818,-0.47489190101623535,0.7071839570999146
1776556129233659100,12.3866591796875,0.7091580033302307,-1.0411255359649658,0.6970514059066772
1776556129243699200,12.39669921875,0.6455169320106506,-1.4267585277557373,0.6140428185462952
1776556129253739000,12.406739013671874,0.563145101070404,-1.3982480764389038,0.6377382874488831
1776556129263778800,12.41677880859375,0.40025851130485535,-1.2017062902450562,0.743714451789856
1776556129273820000,12.42681982421875,0.18553875386714935,-1.093441367149353,0.7736137509346008
1776556129283860000,12.43685986328125,-0.00380589347332716,-0.9687638878822327,0.7037003636360168
1776556129293900000,12.446900146484374,-0.16825635731220245,-0.7160192131996155,0.5356205701828003
1776556129303940000,12.456940185546875,-0.33805638551712036,-0.4368256628513336,0.2752431333065033
1776556129313980000,12.46697998046875,-0.504549503326416,-0.29578065872192383,0.08385370671749115
1776556129324020000,12.47702001953125,-0.6692899465560913,-0.3136216700077057,-0.035637594759464264
1776556129334060000,12.48706005859375,-0.7858495712280273,-0.4510330557823181,-0.11782461404800415
1776556129344100000,12.49710009765625,-0.8329058289527893,-0.678008496761322,-0.12443861365318298
1776556129354140200,12.50714013671875,-0.7857365012168884,-0.9729767441749573,-0.1292368322610855
1776556129364180000,12.517179931640625,-0.6660528779029846,-1.2092621326446533,-0.1887136995792389
1776556129374219800,12.5272197265625,-0.5278188586235046,-1.332871675491333,-0.35521450638771057
1776556129384259800,12.537259765625,-0.4023895263671875,-1.3278151750564575,-0.5836308002471924
1776556129394300000,12.5472998046875,-0.3050121068954468,-1.248889684677124,-0.7770636677742004
1776556129404340000,12.557340087890625,-0.259257435798645,-1.102113962173462,-0.9244571328163147
1776556129414380000,12.567380126953125,-0.2778249979019165,-0.9466167092323303,-0.9740548133850098
1776556129424415700,12.577415771484375,-0.3444649577140808,-0.7870982885360718,-0.8917115926742554
1776556129434456800,12.587456787109375,-0.3350650668144226,-0.621120810508728,-0.6907427906990051
1776556129444497000,12.597496826171875,-0.25222885608673096,-0.5013861060142517,-0.5312321782112122
1776556129454537000,12.607536865234374,-0.18015705049037933,-0.3999830484390259,-0.519062876701355
1776556129464577000,12.617576904296875,-0.1614500731229782,-0.23186025023460388,-0.6186904311180115
1776556129474616800,12.627616943359374,-0.19185751676559448,0.038370970636606216,-0.6829471588134766
1776556129484657000,12.637656982421875,-0.21332158148288727,0.23666441440582275,-0.6398793458938599
1776556129494697000,12.647697021484374,-0.23410968482494354,0.3199124336242676,-0.5714883208274841
1776556129504737000,12.657737060546875,-0.27549925446510315,0.33192792534828186,-0.5296744704246521
1776556129514776800,12.66777685546875,-0.29841679334640503,0.31251853704452515,-0.42293813824653625
1776556129524816600,12.677816650390625,-0.31242743134498596,0.3419264256954193,-0.37371766567230225
1776556129534856700,12.687856689453126,-0.32089948654174805,0.4626150131225586,-0.3811582624912262
1776556129544896800,12.697896728515625,-0.3330761194229126,0.6301023364067078,-0.35042595863342285
1776556129554936800,12.707936767578126,-0.3532881736755371,0.7425071597099304,-0.23118986189365387
1776556129564977000,12.717976806640625,-0.3633515238761902,0.8185328245162964,-0.1852910965681076
1776556129575017000,12.728016845703126,-0.3438374698162079,0.8403548002243042,-0.18747514486312866
