time,seconds_elapsed,roll,rotationRateZ,quaternionY,rotationRateY,quaternionZ,quaternionW,yaw,devicelocation,accelerationZ,pitch,gravityX,gravityZ,quaternionX,rotationRateX,accelerationX,gravityY,accelerationY
1776556117395649800,0.54864990234375,1.014187792027721,-0.20741872489452362,0.4780216840681771,0.2274274230003357,-3.1210515814255e-17,0.8712981155769763,0.10843870149699032,left,-0.3694412112236023,-0.19476523674160426,8.168927801647781,-5.082992415842414,-0.11106199601340146,0.9373133182525635,-0.9186004400253296,1.89794199129045,0.22147676348686218
1776556117435650000,0.588650146484375,0.12435543446696928,-0.2211550921201706,0.1015870146370814,0.23467424511909485,-0.1861539896666036,0.9512416567100241,-0.3558776560012711,left,-0.028622567653656006,-0.4824326248194159,1.077543818740174,-8.620321323826909,-0.22397772101294383,0.9234416484832764,-0.1870187371969223,4.549653600904345,-0.0843108594417572
1776556117475074000,0.628073974609375,-0.1106696760845515,-0.3303578197956085,0.003460665091779291,0.20970448851585388,-0.23304836622086803,0.945420527316051,-0.508543083321362,left,-0.040330056101083755,-0.4469262670960458,-0.9767041481580585,-8.789338166317343,-0.22772022222439364,0.895861804485321,0.01389013510197401,4.238392479775846,-0.08829209208488464
1776556117515074000,0.668073974609375,-0.10144556026991955,-0.3491497337818146,0.0038982316561114038,0.2106524258852005,-0.24014352279383824,0.9479986460935381,-0.5172600916142164,left,-0.031180858612060547,-0.40915438403456467,-0.9111600281670689,-8.9509292427212,-0.20884069034133967,0.8465933799743652,0.018412448465824127,3.901415318110585,-0.08029642701148987
1776556117555074000,0.708073974609375,-0.0920106260557271,-0.367941677570343,0.004334184442083382,0.2116003781557083,-0.2471393090203989,0.9501846743056208,-0.5262161620280744,left,-0.02339249849319458,-0.37145814347566347,-0.8395916063852608,-9.099174515339731,-0.18987478389745815,0.7973248958587646,0.022320456802845,3.5595641206681727,-0.07180368900299072
1776556117595074300,0.74807421875,-0.08334334559794437,-0.3845508098602295,0.0039005544391775065,0.18688827753067017,-0.25685711239154835,0.9517461998393891,-0.5409741855139337,left,-0.02049839496612549,-0.32740655178332184,-0.7730072566263377,-9.25348537160754,-0.16789384571153404,0.7083814144134521,0.011991947889328003,3.1537051459565757,-0.07164402306079865
1776556117635074000,0.788073974609375,-0.07570801091911143,-0.39858317375183105,0.004058410595806048,0.21713067591190338,-0.26580102750764484,0.952161622077793,-0.5556425922786207,left,-0.02024441957473755,-0.2934005556129156,-0.7100359097328036,-9.360681425479054,-0.15073683973542007,0.6626628041267395,0.010163389146327972,2.8361726894736288,-0.0719093382358551
1776556117675074000,0.828073974609375,-0.07037973774692415,-0.4243794083595276,0.004231250970768477,0.25254517793655396,-0.2719257589763185,0.9521589977483674,-0.5659683946086042,left,-0.019057035446166992,-0.2710657918377327,-0.6644393298797309,-9.42517932435274,-0.139397565176548,0.6516281962394714,0.021458793431520462,2.6258134905084964,-0.1010361909866333
1776556117715074000,0.868073974609375,-0.06611910565513919,-0.6098323464393616,0.003158437861282493,0.23886816203594208,-0.282240130986806,0.9512490976774334,-0.5848579097289733,left,-0.009479641914367676,-0.2406173778440727,-0.6292685016468167,-9.503319379609822,-0.12432042688877261,0.6454252600669861,0.028284326195716858,2.336946864278614,-0.08418138325214386
1776556117755074000,0.908073974609375,-0.06243732662172831,-0.6035304665565491,0.00226812479904682,0.20404097437858582,-0.29303543650862246,0.949589505908225,-0.6053647339343092,left,-0.0070375800132751465,-0.2144939757292236,-0.5978812105406075,-9.563252162525057,-0.1113764126721822,0.5916768312454224,0.005125150084495544,2.087375014343858,-0.03932669758796692
1776556117795074000,0.948073974609375,-0.05353171837118047,-0.5073968172073364,0.0026295164331603497,0.26506733894348145,-0.30525453641952555,0.9475799010162138,-0.6281588606945415,left,-0.008923828601837158,-0.18143759018538938,-0.5161032737052068,-9.63185983480513,-0.0943658725490353,0.5778195858001709,0.01916680857539177,1.769548689480871,-0.06730011850595474
1776556117835074000,0.988073974609375,-0.04754565215392217,-0.43352365493774414,0.0018723253036441326,0.13903923332691193,-0.31635598765664447,0.9452731095011955,-0.6495470491724697,left,0.005996286869049072,-0.1527145593073062,-0.4606636740233749,-9.681564653694629,-0.07983778029823081,0.5747579336166382,0.027242738753557205,1.4918037612460553,-0.056600816547870636
1776556117875074000,1.028073974609375,-0.04480945725905554,-0.2803784906864166,-0.00038286406709046015,0.09255155920982361,-0.32493998927623363,0.9433396629950452,-0.6663059642828141,left,-0.009788215160369873,-0.1269916893062128,-0.43574641918148843,-9.717916654536127,-0.06726074125282659,0.44389158487319946,0.013898413628339767,1.242018268560618,-0.025750629603862762
1776556117915074000,1.068073974609375,-0.04076994995368477,-0.24950750172138214,-0.0007871113931571837,0.1427849382162094,-0.32801793500625015,0.9427968180507456,-0.6719243890053139,left,-0.021423816680908203,-0.11186818107906794,-0.3972076123528182,-9.73725322316885,-0.05947801759851287,0.4606550931930542,0.010864393785595894,1.094765221849829,-0.03891097009181976
1776556117955074000,1.108073974609375,-0.03378372411858167,-0.18300387263298035,-0.0010327833989243458,0.08372440934181213,-0.33296723853046684,0.941735558826855,-0.6812049813556573,left,0.01122206449508667,-0.08908228686360978,-0.3299288871215656,-9.762191265070438,-0.04759949744099145,0.4967697262763977,-0.013059299439191818,0.8724437093470245,-0.04868800565600395
1776556117995074000,1.148073974609375,-0.030091210982279678,-0.10176200419664383,-0.0035200172990107357,0.049189355224370956,-0.3363892864579698,0.9410738428046098,-0.6875476133848518,left,-0.00196152925491333,-0.06314124030909264,-0.29446165149165315,-9.782677003738284,-0.034783394505703974,0.5053589344024658,-0.015083352103829384,0.6187924811441451,-0.04271042346954346
1776556118035074000,1.188073974609375,-0.030185367388329935,-0.08551130443811417,-0.005861542544427482,0.048917256295681,-0.3374886185227379,0.9408852928647059,-0.6895404771655695,left,0.0019534826278686523,-0.049351473287588314,-0.29561219149995593,-9.790248315775393,-0.028317931409105754,0.48615726828575134,-0.009463630616664886,0.4837759983351454,-0.048393286764621735
1776556118075074000,1.228073974609375,-0.031844181926892326,-0.0778922438621521,-0.00953763915631485,-0.018835410475730896,-0.33872350099521153,0.9406145146058749,-0.6918146799366313,left,-0.0018770694732666016,-0.03208797179110064,-0.3120714145980775,-9.79663246385455,-0.02048857955610666,0.47181859612464905,-0.009701378643512726,0.314621318276599,-0.03248661383986473
1776556118115074000,1.268073974609375,-0.034585275192224436,-0.04862537980079651,-0.015464471687647334,0.00479851383715868,-0.3404857403288528,0.9400877033064227,-0.6950577446329073,left,-0.021342813968658447,-0.004660518144795919,-0.3390945556780323,-9.800679108896851,-0.008079759687687227,0.3849779963493347,0.0012155622243881226,0.045703707189089615,-0.011154253035783768
1776556118155074000,1.308073974609375,-0.03410120084291112,-0.032015830278396606,-0.016933993186341974,0.04150779917836189,-0.340782888525922,0.939983623696563,-0.6955163752017703,left,0.0016070008277893066,0.005311307354519937,-0.33434918778184797,-9.80081004180014,-0.003314072546055361,0.36155009269714355,-0.0014872290194034576,-0.05208608800284564,-0.018260378390550613
1776556118195074000,1.348073974609375,-0.03156708833099626,-0.02144339308142662,-0.01791456559284891,0.09877964854240417,-0.34101770860366665,0.9398810183086983,-0.6958334759392433,left,-0.008077144622802734,0.01805794072884392,-0.30946568907909094,-9.800166483199597,0.003106026718413908,0.2876152992248535,0.011765699833631516,-0.1770784953277558,-0.010583626106381416
1776556118235074000,1.388073974609375,-0.02730939058925768,0.05730673298239708,-0.01761520331540107,0.09648648649454117,-0.340550014310411,0.9400224993145876,-0.694759155707679,left,0.011663734912872314,0.028072287322397353,-0.26767500431500374,-9.799130710411072,0.008548138433173464,0.15737588703632355,0.0017032884061336517,-0.2752591575673781,0.0043680500239133835
1776556118275074000,1.428073974609375,-0.024646404966714563,0.05591920018196106,-0.016925931287258444,0.10327085107564926,-0.33986331019970595,0.9402628928224985,-0.6932999080109264,left,0.0031262636184692383,0.031423844166608324,-0.24155505915246903,-9.798831435203551,0.010589414344643115,0.11656166613101959,0.01679225265979767,-0.3081121555782854,-0.006114065647125244
1776556118315074000,1.468073974609375,-0.019276763980736744,0.07022382318973541,-0.014927031094627593,0.10952410846948624,-0.3385149454706614,0.9407523835792515,-0.6904839092105584,left,0.01960909366607666,0.03462776674236989,-0.1889156115831807,-9.798950093147159,0.01302935878476687,0.05459843575954437,0.007050575688481331,-0.3395147538514808,-0.020641185343265533
1776556118355074000,1.508073974609375,-0.01576545226934302,0.02787603810429573,-0.013854476583321647,-0.006304547190666199,-0.33739203057117995,0.9411378653712366,-0.6881421028036099,left,-0.011147022247314453,0.03815804445435748,-0.15448749147634952,-9.79829367506504,0.015300630384554125,0.020309466868638992,0.011293857358396053,-0.3741119834475219,-0.012632470577955246
1776556118395074000,1.548073974609375,-0.014384711852346514,0.05759473145008087,-0.013471248478920162,0.013930492103099823,-0.3366893290459563,0.9413778554468141,-0.6866712316146325,left,-0.007734715938568115,0.03981032865785996,-0.14094937085616402,-9.79786638956368,0.01632105665212307,0.0380730964243412,0.003944128751754761,-0.39030305712874974,-0.02183113992214203
1776556118435074000,1.588073974609375,-0.013778638252474952,0.06039217859506607,-0.01368660447606487,0.018192267045378685,-0.3352043894449742,0.9418754706159741,-0.6835293769315569,left,-0.015075922012329102,0.04295389140407248,-0.13499354945798403,-9.796674549430609,0.01792437816728707,0.05370538681745529,0.01575438678264618,-0.42110447463840245,-0.04731518775224686
1776556118475074000,1.628073974609375,-0.011656717707272841,0.020655255764722824,-0.013185412332008059,0.09650563448667526,-0.334022323089343,0.9422656300926954,-0.6810671258770071,left,-0.012044310569763184,0.046073449159008795,-0.1141896208195947,-9.795577401843666,0.019765501936689786,0.025597840547561646,0.0294602420181036,-0.45166656696684654,-0.06061449274420738
1776556118515074000,1.668073974609375,-0.010480416346478293,-0.014255974441766739,-0.01309961685217855,0.007862478494644165,-0.33407292434117075,0.9422159395667038,-0.681208217952032,left,0.011698663234710693,0.04887115107374161,-0.10265335067426785,-9.794403097367287,0.0212792223119185,0.029158946126699448,0.019587092101573944,-0.47907172963432965,-0.052324045449495316
1776556118555074000,1.708073974609375,-0.00934838229763782,-0.07839623093605042,-0.013174759386029408,0.00917822029441595,-0.3352294136760617,0.9417614787580351,-0.683704313692526,left,-0.001148998737335205,0.05234371475705484,-0.09154958106153645,-9.79279040147364,0.0230879489319515,0.00392836332321167,0.030995987355709076,-0.5130823549814522,-0.04137491434812546
1776556118595074300,1.74807421875,-0.008620153927497933,-0.09309669584035873,-0.01344893184585428,0.0022754468955099583,-0.3370783741011106,0.9410543324692551,-0.6876683648641561,left,-0.00423043966293335,0.05573442759176088,-0.08440268671526573,-9.79105904763639,0.02478012555513872,0.02835860475897789,0.031840935349464417,-0.5462853172075003,-0.05320269614458084
1776556118635074000,1.788073974609375,-0.006698069823198118,-0.10587812215089798,-0.01308345165049306,0.032704975455999374,-0.33855921641536896,0.940481739034543,-0.690887864929447,left,0.004255473613739014,0.05868092927488066,-0.0655722409737762,-9.789550981160998,0.026469525797307776,0.04552626609802246,0.02869037166237831,-0.5751333356270566,-0.041376080363988876
1776556118675074000,1.828073974609375,-0.003501616896062273,-0.03725810348987579,-0.012324625530412137,0.03326161205768585,-0.3402812978216819,0.9397986121061886,-0.6946797406216806,left,0.012479543685913086,0.06275572952553295,-0.034271625787310765,-9.787285374316573,0.028903461961154904,0.021209390833973885,0.015321943908929825,-0.6150198307376354,-0.034555308520793915
1776556118715074000,1.868073974609375,-0.0026848837408517756,0.0004438944160938263,-0.012499183660845152,-0.03533485531806946,-0.3404644151821144,0.9396774631437965,-0.6951280943561732,left,0.013873159885406494,0.0659980647590307,-0.02627252135876333,-9.785264682143927,0.030563204476831203,0.08105504512786865,0.0052236150950193405,-0.6467503823235631,-0.048382021486759186
1776556118755074000,1.908073974609375,-0.004545090664766797,-0.014279029332101345,-0.014032427755921194,-0.06061172857880592,-0.34056199548576166,0.939570633674459,-0.6953142952245255,left,-0.003451228141784668,0.06985461633526224,-0.04446341567125637,-9.782631995552778,0.03205719379871174,0.04109315574169159,0.012982404790818691,-0.6844830238685011,-0.03882212936878204
1776556118795074000,1.948073974609375,-0.006765622135874738,0.02978891134262085,-0.015594346484111494,-0.03511368855834007,-0.34053631470007506,0.9395185823801019,-0.6952135368095496,left,0.010352253913879395,0.07291265893954282,-0.06617146267567295,-9.78037048036158,0.03311652956547952,0.0035074129700660706,0.0036236089654266834,-0.7143957854427396,-0.036653079092502594
1776556118835074000,1.988073974609375,-0.007984221730776068,0.01098609622567892,-0.01680172147834094,-0.019828781485557556,-0.3398376603272119,0.9396917882844106,-0.6937206860235001,left,-0.01704353094100952,0.07679700837523647,-0.07806701742033474,-9.777433842387795,0.034746406941091434,0.06582558900117874,-0.0010689618065953255,-0.752381524965912,-0.04937942326068878
1776556118875074000,2.028073974609375,-0.007698224147292193,0.036354295909404755,-0.016954675383611395,0.026546582579612732,-0.33961130555955765,0.9397383354981157,-0.6932672677971065,left,-0.009740948677062988,0.07853699682061788,-0.07526050406566355,-9.776132112139463,0.035616449540619675,-0.010242119431495667,0.00878344289958477,-0.7693935231085867,-0.01614239066839218
1776556118915074000,2.068073974609375,-0.006823554845872674,0.08250129222869873,-0.0167184107434153,0.02011863887310028,-0.33852906192843735,0.9401036911222631,-0.6910114762831998,left,0.005778014659881592,0.07980853632781579,-0.06670286613863427,-9.77520798303187,0.03638136198411067,-0.005712226033210754,0.005262087099254131,-0.7818240386798977,-0.016122691333293915
1776556118955074000,2.108073974609375,-0.006213984231041701,0.10033728182315826,-0.01650528327898901,0.015328099951148033,-0.3366338889098542,0.9407665012894072,-0.6870145159645697,left,-0.00519174337387085,0.08067862457034687,-0.060739925446500996,-9.774562670865654,0.036926620024494275,-0.02442602440714836,0.017279349267482758,-0.7903291975010186,-0.010158441960811615
1776556118995074000,2.148073974609375,-0.00618569348370325,0.12520861625671387,-0.016302026258989098,0.018775947391986847,-0.33522814542021456,0.9412855528370035,-0.6840189416695869,left,-0.015059888362884521,0.07987494253344268,-0.06046730535046663,-9.775196292594075,0.03657776302962054,-0.06544974446296692,0.02051997371017933,-0.7824731502383947,0.0010104626417160034
1776556119035074000,2.188073974609375,-0.004497642915667108,0.1275329738855362,-0.015079001529498417,0.07171733677387238,-0.3330152703804734,0.9421161233678963,-0.6793608751058029,left,-0.009736716747283936,0.07781595685712997,-0.04397335343225859,-9.776875039461254,0.03592676632336489,-0.07596790045499802,0.024549560621380806,-0.7623441891189664,-0.004341155290603638
1776556119074617900,2.227617919921875,0.0009522833658538406,0.13195276260375977,-0.011785667738435915,0.11307306587696075,-0.3296259271923588,0.94338257436778,-0.6723308515426333,left,0.011112727224826813,0.07419692295485533,0.009312851054125349,-9.77966437791884,0.03517085339410503,-0.051453787833452225,0.010738573968410492,-0.7269560648735612,0.006593775935471058
1776556119114617900,2.267617919921875,0.006053481921297601,0.15822790563106537,-0.00898991651835441,0.10167334973812103,-0.3268528787170477,0.944376228640714,-0.6666197799844832,left,0.014350831508636475,0.07244399206210228,0.05920814473538193,-9.780748666024207,0.035210481027160526,-0.05043951794505119,0.005404976662248373,-0.7098118917185813,0.0005701035261154175
1776556119154618000,2.3076181640625,0.011163994154689532,0.18450304865837097,-0.006194019891067612,0.09027362614870071,-0.324074465667064,0.9453543485522544,-0.6609006136519103,left,0.017557740211486816,0.07072017214502092,0.10920529306838288,-9.78152724918127,0.03524952855519433,-0.04942524805665016,0.00006098765879869461,-0.6929502618320286,-0.005424752831459045
1776556119194618000,2.3476181640625,0.016135259582497886,0.1341761350631714,-0.0033240056167319685,0.11146803200244904,-0.3203054024219385,0.9466635395015177,-0.653072625156886,left,-0.0050778985023498535,0.06835723662795752,0.1578562920560129,-9.782473590120672,0.03495149901658019,-0.05205513536930084,0.015184437856078148,-0.6698338093344122,0.002723284065723419
1776556119234617900,2.387617919921875,0.018574007203344716,0.14616768062114716,-0.0018405317049989033,0.12053108215332031,-0.3184116977945366,0.9473199738798179,-0.6491300668863467,left,0.00602036714553833,0.0667305040292179,0.18173276914069428,-9.783135853421687,0.034575908087066745,-0.06340719759464264,0.008046021685004234,-0.6539173513434827,-0.009628698229789734
1776556119274617900,2.427617919921875,0.02248618907947042,0.12201320379972458,0.0004578544761326642,0.05551828444004059,-0.315022274847229,0.948466582821275,-0.6420773424250001,left,0.014186203479766846,0.06469563600454437,0.22003416875060647,-9.783660169556736,0.03423366962602314,-0.01180197298526764,0.001065695658326149,-0.6340051747798919,-0.024241112172603607
1776556119314081500,2.46708154296875,0.023391322429256966,0.12728479504585266,0.0008863760057395199,0.014100947417318821,-0.3121324665314027,0.9494045306681921,-0.6360344024540792,left,-0.006056786980479956,0.06536420429083292,0.2288796106430702,-9.783031224003434,0.034690693497363194,0.022673968225717545,0.0012487465282902122,-0.6405477282911539,-0.014967176131904125
1776556119354081300,2.507081298828125,0.021872097694274225,0.10364474356174469,0.00021746238753710085,-0.02505958452820778,-0.3100309226996666,0.950099118203804,-0.6315570989892375,left,-0.004675328731536865,0.06552423983679655,0.21401448833597822,-9.783265032759308,0.03452913571195881,-0.013218261301517487,0.008247237652540207,-0.6421138085640966,-0.007211267948150635
1776556119394081300,2.547081298828125,0.0203521705207601,0.08000468462705612,-0.00045144923434801916,-0.0642201155424118,-0.3079278046323221,0.9507886736657345,-0.6270797551512495,left,-0.003295719623565674,0.06567750068182539,0.19914238829882813,-9.783480136814713,0.034367398407298064,-0.049110494554042816,0.01524643786251545,-0.64361354560256,0.000537872314453125
1776556119434081300,2.587081298828125,0.019504795439246526,-0.006339617073535919,-0.0005033788000628732,0.018080785870552063,-0.3071821276509963,0.9510698827717938,-0.6254384649424996,left,-0.0037308335304260254,0.0635797697152084,0.1908779611647129,-9.784974174764752,0.033240293853444895,-0.0701199620962143,0.027301616966724396,-0.623084771510586,0.005884408950805664
1776556119474081300,2.627081298828125,0.019093694479473327,0.017370039597153664,-0.00038290726157673096,-0.0633254125714302,-0.30715787206653977,0.9511133469805406,-0.6253329499951986,left,0.016818344593048096,0.06153753860085157,0.1868792286510579,-9.786303377541898,0.03220619345383536,-0.07636445015668869,-0.00045670196413993835,-0.6030964975034818,0.019664905965328217
1776556119514081300,2.667081298828125,0.015716902213788735,0.07485785335302353,-0.0014171230128376647,-0.10489019006490707,-0.3062864689787994,0.9514649705463706,-0.6233258697710615,left,0.004548013210296631,0.058017451813872044,0.15386433634301647,-9.788940740308165,0.03001519752305521,-0.06859700381755829,-0.0027468837797641754,-0.5686379091931507,0.006577730178833008
1776556119554081300,2.707081298828125,0.010656004097267273,0.11516319960355759,-0.0033598174600387803,-0.04882150515913963,-0.3041883169542269,0.9521941753989266,-0.618721957117464,left,-0.03573566675186157,0.05540558917039057,0.10433720297482796,-9.791045603632927,0.028005428570591108,-0.014384772628545761,0.008522097021341324,-0.5430654783781618,-0.04063278064131737
1776556119594081300,2.747081298828125,0.011015174511863896,0.09767673909664154,-0.003023081146784614,0.029153216630220413,-0.3029921368703504,0.9525868722099967,-0.6162082975325636,left,-0.016930997371673584,0.05454521004531992,0.10785895649334415,-9.791471135568619,0.027654290124728875,-0.020325476303696632,0.00876698549836874,-0.5346408009147271,-0.03172072023153305
1776556119634081300,2.787081298828125,0.013816986474632337,0.1100919097661972,-0.0014760986705795833,0.09455990791320801,-0.3010104576127526,0.9532203945055963,-0.6121150808607382,left,0.005862593650817871,0.05351638096677756,0.13529988459395245,-9.791675718230008,0.02759183368065828,-0.0468548946082592,0.01229634415358305,-0.5245661642871797,-0.02831713855266571
1776556119674081300,2.827081298828125,0.0171124398980761,0.13499443233013153,0.00013640308918242574,0.062455032020807266,-0.2991509028486853,0.9537911950074838,-0.6083121549022398,left,0.031977713108062744,0.053593513806197826,0.16756640622010455,-9.791136204525827,0.02812432752192886,0.0006962232291698456,-0.00512872077524662,-0.525321476166509,-0.04348373040556908
1776556119714081300,2.867081298828125,0.01867792271478927,0.1597292125225067,0.0005912554764236013,0.011651553213596344,-0.2959921712048561,0.9547315941863709,-0.601784626935663,left,-0.0003465414047241211,0.05618561437833709,0.1828680019820109,-9.789467394530773,0.029592647834245395,0.04273935779929161,-0.0011609233915805817,-0.5507030240518972,-0.04018409922719002
1776556119754081300,2.907081298828125,0.019455821494101366,0.170144185423851,0.0005958614730745974,0.07260571420192719,-0.29194139624254956,0.9559233706393822,-0.5933910362057229,left,-0.025556087493896484,0.05954571115261332,0.19044609081977978,-9.787416891741753,0.031309226259137256,0.0050150565803050995,0.009584233164787292,-0.583599148818478,-0.03397723659873009
1776556119794081300,2.947081298828125,0.02000234457891515,0.16051718592643738,0.0006587430594456862,0.009076885879039764,-0.2886234291805641,0.9568940637998272,-0.5865112541419082,left,-0.0008584856986999512,0.061663903964227704,0.1957699527236633,-9.786053202173113,0.03239914022269453,0.008857079781591892,-0.0033962316811084747,-0.6043333823546767,-0.026558034121990204
1776556119834081500,2.98708154296875,0.0194261682002617,0.15967440605163574,0.000326521229152374,-0.01144585944712162,-0.2863451257508843,0.9575662238058671,-0.581749332202008,left,-0.001735985279083252,0.06259441521681472,0.1901204207956791,-9.785597859621047,0.0327604203244796,0.00379715533927083,-0.008167669177055359,-0.6134409640483558,-0.009903304278850555
1776556119874081300,3.027081298828125,0.019248588715905807,0.15821698307991028,0.00028709791394273534,0.015825046226382256,-0.2834114405879375,0.958433190566803,-0.5756259533581395,left,0.004384279251098633,0.06297910233948902,0.1883781437056139,-9.785395030525326,0.03291841927051939,-0.02127837762236595,-0.0014250576496124268,-0.6172060156702995,0.004447326064109802
1776556119914081300,3.067081298828125,0.019383304653649333,0.16152514517307281,0.0005600879889630008,0.01615401729941368,-0.2800145282766323,0.9594410456476257,-0.5685334664412414,left,0.0028014183044433594,0.06232598186915686,0.18970414987867698,-9.785770293578505,0.03262279864263933,-0.04404924809932709,0.0018117260187864304,-0.6108136477520689,0.013145487755537033
1776556119954081300,3.107081298828125,0.01874185103063778,0.16890649497509003,0.000491463053470646,-0.020846735686063766,-0.2779421320452446,0.9600661010259613,-0.5641709729858568,left,0.007394075393676758,0.06111854844396913,0.18344068730343133,-9.78662018840611,0.03195285246899974,-0.06875690072774887,0.0029834751039743423,-0.5989953457949683,0.02055623009800911
1776556119994081300,3.147081298828125,0.01519002986890243,0.22323542833328247,-0.00039793775539127086,-0.07507283240556717,-0.2721292169761562,0.9618153482900474,-0.5518822607058994,left,0.009860813617706299,0.05655211170046646,0.14871926507214084,-9.78984324210584,0.029270375042944986,-0.07019984722137451,-0.002751472406089306,-0.5542914039326832,0.006776578724384308
1776556120034081300,3.187081298828125,0.011986097854320728,0.2105715274810791,-0.001631292525837652,-0.10833713412284851,-0.26899782213098955,0.9627298733696209,-0.5452554147811179,left,-0.010589122772216797,0.05497857031712147,0.11736287142769433,-9.79112919026315,0.02808329260268824,-0.037488214671611786,-0.005594155285507441,-0.5388842106381431,0.009433455765247345
1776556120074081500,3.22708154296875,0.00941268346849673,0.20714077353477478,-0.0025247223571971907,-0.06032866612076759,-0.26590114877177673,0.963623736691753,-0.5387273488078239,left,-0.02779465913772583,0.053064023021711704,0.09217542134230025,-9.792412800332903,0.02682399184793301,-0.07433582842350006,-0.00034819450229406357,-0.5201363286135718,0.018123313784599304
1776556120114081300,3.267081298828125,0.007977638501407395,0.1773620843887329,-0.002513770734034901,-0.008901923894882202,-0.2613605487401712,0.9649263787373917,-0.5292217370200164,left,-0.0017461180686950684,0.0486613027912569,0.07814028358594514,-9.794729845103621,0.02452420243974582,-0.09977687895298004,0.00024311989545822144,-0.4770162584092468,0.01174594834446907
1776556120154081300,3.307081298828125,0.008634943619302417,0.10451757162809372,-0.0013592660937883556,0.048013873398303986,-0.25780604429325177,0.9659492438774131,-0.5218143844985744,left,0.0023696422576904297,0.042876291000924674,0.08460080310325138,-9.797271930801868,0.021824283894668565,-0.10833529382944107,0.013522269204258919,-0.42034415779039264,0.006446033716201782
1776556120194081300,3.347081298828125,0.009650100458766407,0.07521031051874161,-0.00044383564309227654,0.025345059111714363,-0.25663433904195493,0.9662920007930447,-0.5193797666675936,left,0.009933710098266602,0.03977365751074894,0.09455866321702487,-9.798438051971793,0.02045725554933442,-0.08727873861789703,0.013460987247526646,-0.3899436857644468,0.004499174654483795
1776556120234081300,3.387081298828125,0.011789949436279685,0.07478420436382294,0.0009530227067953134,0.05588933080434799,-0.2552462057373861,0.9666795902822068,-0.5165241179208754,left,-0.001848757266998291,0.037163460503338,0.11553720863680354,-9.799197345906496,0.01946943836501156,-0.0275622196495533,0.0009912317618727684,-0.36436533666532483,0.006142083555459976
1776556120274081300,3.427081298828125,0.01524095582204509,0.13306865096092224,0.0027455604500445105,0.06746211647987366,-0.252300074444488,0.9674454558290508,-0.5104950262981526,left,-0.004352152347564697,0.03665251693414435,0.14935636653243564,-9.79892554322779,0.019654710726488136,0.021856915205717087,0.0012281378731131554,-0.35935810296256093,0.007242780178785324
1776556120314081500,3.46708154296875,0.01876425671342988,0.11427107453346252,0.004331393596463116,0.08917569369077682,-0.24957513106180554,0.9681230836923899,-0.5049558863017117,left,-0.0016046762466430664,0.03804585790161998,0.18387036569127813,-9.797828395640849,0.02076114959416738,0.028215758502483368,0.008965013548731804,-0.37301260737087577,-0.000794924795627594
1776556120354081300,3.507081298828125,0.022246836297269968,0.09680204838514328,0.006019716595010421,0.08588065207004547,-0.24738402290229913,0.9686633201114832,-0.5005118240455545,left,0.004909694194793701,0.038405306975220835,0.21798790374528615,-9.796993698382376,0.02135635216653172,-0.012150373309850693,0.013059040531516075,-0.3765350093433633,0.0002366863191127777
1776556120394081300,3.547081298828125,0.02523010594385886,0.07700954377651215,0.007590215816745823,0.05960376560688019,-0.24572449935084476,0.9690744976508566,-0.4971398325794081,left,0.0164298415184021,0.03768231110207753,0.24722075676396488,-9.796569335490464,0.02136244319938174,-0.03063027374446392,0.008547879755496979,-0.36944998298585413,-0.005255356431007385
1776556120434081300,3.587081298828125,0.02658207074624115,0.05222605541348457,0.00842121028724381,0.015251979231834412,-0.24460363020984693,0.9693608222650354,-0.49483464680202793,left,0.004437386989593506,0.03644913693916241,0.26047705563493073,-9.796673964908718,0.020921406699547312,-0.04243945702910423,0.011150946840643883,-0.35736495638396587,0.0008479133248329163
1776556120474081300,3.627081298828125,0.026906536458640298,0.07423096895217896,0.008809401731278156,-0.0018991976976394653,-0.2434429285282245,0.9696661740359326,-0.492416998383541,left,0.005151510238647461,0.034763222518097575,0.2636715590936132,-9.797177822777629,0.020133420816727962,-0.05822337791323662,0.010394318029284477,-0.34084227612819523,0.007830198854207993
1776556120514081300,3.667081298828125,0.02659469850655267,0.1245182603597641,0.008946723311972611,-0.01944812200963497,-0.2414601806334463,0.9701816921497309,-0.48828628872596636,left,0.002484917640686035,0.03272073656740572,0.26063438335480166,-9.797934778624773,0.019086864506602682,-0.07200069725513458,0.0075948480516672134,-0.3208237165806815,0.008958734571933746
1776556120554081300,3.707081298828125,0.025621941349532357,0.16603922843933105,0.008922404483553947,-0.028551820665597916,-0.23856740000735513,0.970929776673974,-0.4822517351811478,left,0.000686347484588623,0.0294533145521261,0.25112876052055505,-9.799179225727915,0.017357715654738166,-0.11064217984676361,0.010641582310199738,-0.28879675759775564,0.011654894798994064
1776556120594081300,3.747081298828125,0.024278142051105612,0.20531737804412842,0.008886157740960327,-0.02488871105015278,-0.23490733571743444,0.9718630129567802,-0.4746198713090034,left,-0.006819963455200195,0.02477188730891153,0.23799062640285118,-9.800752174133061,0.014891091002660149,-0.14154057204723358,0.019770512357354164,-0.24290455579897388,-0.007013624534010887
1776556120634081300,3.787081298828125,0.02350187261310176,0.20849177241325378,0.009143228859766175,-0.026228848844766617,-0.23090282577778248,0.972855368435957,-0.4662998790220408,left,0.0040419697761535645,0.019815664906901176,0.23040798925412817,-9.802017079502344,0.0123537185834959,-0.1343192756175995,0.019946685060858727,-0.19431273965267462,-0.01810181699693203
1776556120674081300,3.827081298828125,0.023066423572200345,0.21444469690322876,0.009596526795796253,-0.008715178817510605,-0.22683215982953298,0.9738388805615192,-0.45785693560809937,left,0.002952396869659424,0.014412708577546828,0.2261605974753387,-9.803023041674495,0.009634967228370126,-0.166124626994133,0.027999525889754295,-0.1413356576268561,-0.010842609219253063
1776556120714081300,3.867081298828125,0.02312681082613604,0.2022973746061325,0.01047353381490736,-0.004236460197716951,-0.22273540878502682,0.9748036681408023,-0.4493553352380209,left,0.005209624767303467,0.00717232448994622,0.22677029033889992,-9.80377532134652,0.006071949180624274,-0.23768503963947296,0.03504303842782974,-0.07033603044264018,-0.013163900002837181
1776556120754081300,3.907081298828125,0.023716170368742278,0.2005259245634079,0.011937006883803012,0.0025276816450059414,-0.21868117353109556,0.9757227772555298,-0.4409178359796317,left,0.005750536918640137,-0.0033495249409309755,0.23255287406202405,-9.803837280666828,0.0009589192307046039,-0.32977229356765747,0.039671141654253006,0.032847406237048564,-0.0307620856910944
1776556120794081300,3.947081298828125,0.024325621354896455,0.17208902537822723,0.01372597047216153,-0.024612577632069588,-0.21488192890700994,0.9765263377522746,-0.4329813801061003,left,0.00007408857345581055,-0.01720608036363908,0.23849382668463512,-9.802297650009393,-0.005789042723353859,-0.4201185703277588,0.03852469474077225,0.1687255313936621,-0.03756219148635864
1776556120834081500,3.98708154296875,0.024544604372081693,0.14567169547080994,0.015662900431712864,-0.031945157796144485,-0.21156556368750667,0.9771325125153789,-0.42602462780225153,left,-0.0048722028732299805,-0.034725169731695545,0.24053088547019286,-9.797785725542902,-0.01437406403782696,-0.5279887318611145,0.03245673328638077,0.3404690223690122,-0.03955696523189545
1776556120874081300,4.027081298828125,0.02465132168453393,0.14816324412822723,0.017792072332226395,-0.04180432856082916,-0.20839727564308502,0.9775775684383229,-0.419386222538094,left,0.007032930850982666,-0.05517360398862915,0.241354385481216,-9.788752524259685,-0.024412373203631384,-0.5855854749679565,0.028493383899331093,0.5407936244560405,-0.04046039283275604
1776556120914081300,4.067081298828125,0.024122524093646704,0.14556466042995453,0.019550991294112665,-0.04297534003853798,-0.20520019651728116,0.9779138365020655,-0.4127539615835398,left,0.0008040666580200195,-0.07570773485754188,0.2358604642400518,-9.775714178988338,-0.03456935401628014,-0.544175922870636,0.02696135640144348,0.7417301478963345,-0.047754012048244476
1776556120954081300,4.107081298828125,0.024074755753271657,0.1281648725271225,0.021283102459187346,-0.021992599591612816,-0.20217546690482072,0.9781422895993361,-0.4065108775032596,left,-0.0032157301902770996,-0.0942351047766159,0.23502229638285935,-9.760310273629427,-0.043700110549614334,-0.4938177466392517,0.021138519048690796,0.9227634452644735,-0.04289870709180832
1776556120994081300,4.147081298828125,0.025816720682851353,0.11183811724185944,0.023670048138062772,0.018501000478863716,-0.1994889822015278,0.9782452000198357,-0.4009002402894973,left,0.002257823944091797,-0.11095900719736258,0.25159045974817124,-9.743094934934376,-0.05177006421094842,-0.4513483941555023,0.008501719683408737,1.0859046006545423,-0.032580941915512085
1776556121034081300,4.187081298828125,0.02788349583429755,0.08206234872341156,0.026027445857606222,0.026475150138139725,-0.19737748859596227,0.9782087517028477,-0.39644467287279694,left,0.0033230185508728027,-0.1258904378843494,0.2712443689680658,-9.72526058755815,-0.05892592467484555,-0.4111933410167694,0.0047271978110075,1.23130500523597,-0.01775946468114853
1776556121074081500,4.22708154296875,0.02977508095151739,0.05289042741060257,0.028202658317152844,0.049524225294589996,-0.1957199827586454,0.9780551188023594,-0.39291957517898457,left,0.008252918720245361,-0.139861313473159,0.2890996495344676,-9.706586866748333,-0.06562316050417508,-0.3793758153915405,0.002600276842713356,1.3671036148659883,-0.016975022852420807
1776556121114081300,4.267081298828125,0.031614303859837024,0.0489511601626873,0.030263376806542425,0.037277717143297195,-0.194500779317058,0.9778004445447305,-0.3902863709760201,left,0.009423613548278809,-0.15284042285847338,0.3063650379163213,-9.687487029480934,-0.07183140173023231,-0.3477855622768402,-0.0062492527067661285,1.493023658429831,-0.03561943769454956
1776556121154081300,4.307081298828125,0.03342436851916411,-0.0063980743288993835,0.032335163651260046,0.028501588851213455,-0.19406149794178296,0.9773545502110668,-0.38924245622205994,left,0.0072394609451293945,-0.16562972863435013,0.32323490590825676,-9.667041038301587,-0.07792640533766816,-0.34276747703552246,-0.01904705911874771,1.6168563743256033,-0.03224818408489227
1776556121194081300,4.347081298828125,0.035205300563089584,-0.042061980813741684,0.034445071176757595,0.06304321438074112,-0.19445770397283213,0.9767056055199919,-0.3899040443986348,left,0.007827162742614746,-0.17830819662687225,0.33970187392141665,-9.645186933889985,-0.083939637541539,-0.3430352807044983,-0.027904417365789413,1.7393549190081654,-0.04091143608093262
1776556121234081300,4.387081298828125,0.036087921461371096,-0.08731922507286072,0.03616841642937488,0.0468139722943306,-0.195714337145046,0.9758672746717535,-0.3924059625446842,left,0.004619896411895752,-0.19064810922381684,0.3474138730708509,-9.622699792271852,-0.08983698425317986,-0.35337644815444946,-0.04282531142234802,1.8583140375182032,-0.02434973418712616
1776556121274081300,4.427081298828125,0.03601427555764388,-0.10443995893001556,0.03755969229852793,0.051503852009773254,-0.1975081047780699,0.9748543899938891,-0.39611354590752756,left,-0.014098703861236572,-0.20364254167975487,0.34580647440683093,-9.597781624114512,-0.09611756017989834,-0.3580186665058136,-0.0480755940079689,1.9832766342267394,-0.028168678283691406
1776556121314081500,4.46708154296875,0.0352099892626586,-0.10554478317499161,0.03855818736628763,0.03985124081373215,-0.19948030772616732,0.9738111883085614,-0.40028530120861777,left,-0.017131447792053223,-0.21579233700631364,0.3372138199653476,-9.573267360582948,-0.10204147376068406,-0.31646451354026794,-0.05185285955667496,2.0998140785478054,-0.05026620626449585
1776556121354081300,4.507081298828125,0.03346024496078594,-0.12461277842521667,0.03887669984237131,0.03157508000731468,-0.20180110612706303,0.9728298825767489,-0.405291758277052,left,-0.026644349098205566,-0.2250223247148545,0.3198005110127851,-9.554065231984854,-0.1066154554512991,-0.21414443850517273,-0.06104364991188049,2.188139427732676,-0.059284672141075134
1776556121394081300,4.547081298828125,0.03191150287637148,-0.1464051604270935,0.03903555857643866,0.062105610966682434,-0.20440836017314373,0.9719424514369525,-0.41087156464612046,left,-0.024136722087860107,-0.2311404858530396,0.3045705191823654,-9.540989477312564,-0.10964097639127918,-0.15790612995624542,-0.05468079447746277,2.246584164047241,-0.07485349476337433
1776556121434081300,4.587081298828125,0.03077784078447529,-0.1287774294614792,0.03929186127763038,0.07948526740074158,-0.20731753737699435,0.9710608311113216,-0.4170310645792239,left,-0.021780550479888916,-0.2357464259155513,0.29343250937331466,-9.530884847405552,-0.1118761254130022,-0.15327586233615875,-0.06479118764400482,2.2905277890615166,-0.07712559401988983
1776556121474081300,4.627081298828125,0.029493936603876652,-0.1280018538236618,0.03942252811449179,0.0678766518831253,-0.21006074045991432,0.9702301775391035,-0.42287566850732167,left,-0.026172220706939697,-0.23987795149446745,0.2809140597902238,-9.52171311443448,-0.11390174647854094,-0.12893196940422058,-0.06727293133735657,2.3299038138993082,-0.09364062547683716
1776556121514081300,4.667081298828125,0.0284680747265535,-0.12924672663211823,0.03955349602845441,0.06593222171068192,-0.21284415968586215,0.9694587019834869,-0.42876957114819664,left,-0.006096243858337402,-0.24267337503493439,0.27095950587838885,-9.515448793342708,-0.11525042938788184,-0.08221016824245453,-0.07555483281612396,2.356523525277525,-0.10271123051643372
1776556121554081300,4.707081298828125,0.027456862370794585,-0.12575721740722656,0.03948080290913303,0.08191609382629395,-0.21572476098078394,0.9687895016118016,-0.43484284040815596,left,-0.011839866638183594,-0.24330737955936163,0.2612961717317812,-9.514222466418147,-0.11554622027510474,-0.049363844096660614,-0.07599693536758423,2.362558275397122,-0.10106505453586578
1776556121594081300,4.747081298828125,0.027660623642806553,-0.12247543781995773,0.03981442007930395,0.11908881366252899,-0.2185391021877645,0.9682139330551174,-0.4406180991458392,left,-0.010329067707061768,-0.24239215559657004,0.2632944876758382,-9.516326160699128,-0.11496607972234764,-0.023714156821370125,-0.07324165105819702,2.3538464150227605,-0.11171172559261322
1776556121634081300,4.787081298828125,0.02758299938775004,-0.12260280549526215,0.03993031964094449,0.10342632979154587,-0.2213613814273692,0.9676755979733549,-0.44643630124202904,left,-0.02482050657272339,-0.24073411140466386,0.2626630579045042,-9.520234858575463,-0.11405556346884395,-0.018122786656022072,-0.06563514471054077,2.338058624912798,-0.1086113303899765
1776556121674081300,4.827081298828125,0.028100826888275587,-0.10334287583827972,0.04034876112561857,0.1304265856742859,-0.22397722829659478,0.9671454857060359,-0.45176660620392683,left,-0.04182732105255127,-0.23950361469644682,0.2676735064776614,-9.522966329365968,-0.11329527725730441,-0.033872053027153015,-0.05915958061814308,2.326337791980803,-0.10341848433017731
1776556121714081300,4.867081298828125,0.030311006251517825,-0.10687291622161865,0.04147304273686695,0.15178747475147247,-0.22648142319817302,0.9666670669705896,-0.4566629725499144,left,-0.029815495014190674,-0.2375202184263041,0.2888595571682788,-9.526944585347175,-0.11198656287196526,0.022590313106775284,-0.06009601801633835,2.3074380073301493,-0.11460632085800171
1776556121754081300,4.907081298828125,0.033041030623334154,-0.11521309614181519,0.042665872010061494,0.1850290447473526,-0.229253536240085,0.9662202094172793,-0.462041698403158,left,-0.0529102087020874,-0.2337339352420613,0.3151535985223949,-9.534784192931651,-0.10973116012064671,0.04676658660173416,-0.05288396403193474,2.2713332592479882,-0.09418049454689026
1776556121794081300,4.947081298828125,0.037886605453705646,-0.10410197079181671,0.044746097412509324,0.17082081735134125,-0.23181111770799878,0.9658363993468657,-0.46674910308701895,left,-0.03469914197921753,-0.22918595434880007,0.36173878755401817,-9.543369065925479,-0.1068708704819272,0.09003623574972153,-0.06076999381184578,2.2279221336752175,-0.08488684892654419
1776556121834081500,4.98708154296875,0.0429329770754376,-0.08477940410375595,0.04676844125219715,0.24256348609924316,-0.23414530061098385,0.9655457440471408,-0.4709949011850661,left,-0.11662095785140991,-0.2236064809987911,0.41042047394085673,-9.553692891541123,-0.10348889816783564,0.09314792603254318,-0.04756060242652893,2.1746024852894243,-0.06100150942802429
1776556121874081300,5.027081298828125,0.04930677881753272,-0.05043148994445801,0.04942917816078999,0.23087598383426666,-0.23611852606960548,0.9652811181366108,-0.4743916282233389,left,-0.15235722064971924,-0.21848982205333395,0.4718472948061302,-9.561870937299728,-0.10018496320152348,0.09722339361906052,-0.028181366622447968,2.1256461466796694,-0.017964154481887817
1776556121914081300,5.067081298828125,0.0563387202523371,-0.033315058797597885,0.05235893467586407,0.16820985078811646,-0.2374272320943169,0.9651357583197798,-0.47638595790903965,left,-0.16455841064453125,-0.21362751603784322,0.5396492036612704,-9.568522211882472,-0.09695188882109126,0.10593938827514648,-0.005726184695959091,2.0790718809008597,0.018834039568901062
1776556121954081300,5.107081298828125,0.06315243529968759,-0.042681872844696045,0.055382877730708206,0.20003649592399597,-0.23852658198123974,0.9649218426971283,-0.4779995515090573,left,-0.13566982746124268,-0.21068505898548825,0.6052168506583199,-9.57068728096187,-0.0946756900966736,0.02306126058101654,0.03137583285570145,2.050863292896002,0.05154934525489807
1776556121994081300,5.147081298828125,0.07042820422896388,-0.09237274527549744,0.05919180840695656,0.18283401429653168,-0.2402224769580198,0.9642996365310834,-0.4807918098423782,left,0.004653513431549072,-0.21212812346919163,0.6746253544598817,-9.563068622651695,-0.09442209880075664,-0.11092400550842285,0.04135633260011673,2.0646998028077186,0.10751760005950928
1776556122034081300,5.187081298828125,0.07514410691014976,-0.044500499963760376,0.06229141182820569,0.10447432845830917,-0.2417683560796787,0.9634957187945257,-0.4834728422557234,left,0.09603738784790039,-0.21811512904190322,0.7187753157012164,-9.54728302449882,-0.09666343484915312,-0.16582530736923218,0.05617299675941467,2.122058935842663,0.14886139333248138
1776556122074081500,5.22708154296875,0.07858279566481566,-0.0017389357089996338,0.06473931342594025,0.08161166310310364,-0.2422376803011561,0.9629391212558388,-0.48402512265196806,left,0.11588150262832642,-0.22465794747369347,0.7504950536321848,-9.530709490838646,-0.099387547902703,-0.16375645995140076,0.05900806933641434,2.184655969531089,0.1552952080965042
1776556122114081300,5.267081298828125,0.08052255539556262,0.043956052511930466,0.06636943633108086,0.028393074870109558,-0.24173054409517528,0.9626446012616199,-0.48269249667336434,left,0.09272098541259766,-0.23120628953919914,0.7678137796364725,-9.514771916994452,-0.10235596854689535,-0.13478125631809235,0.07162614166736603,2.2472122328177093,0.13811638951301575
1776556122154081300,5.307081298828125,0.08186881803343216,0.040882084518671036,0.06758440043760287,0.015371302142739296,-0.24075016835968202,0.9625087269530388,-0.48044115867592635,left,0.05380547046661377,-0.23710026468135553,0.7795257716748863,-9.500363452413678,-0.1051123437908074,-0.1379445344209671,0.08492828160524368,2.303435055299103,0.10951714217662811
1776556122194081300,5.347081298828125,0.08376142834195646,0.026824217289686203,0.06916422535183314,0.007046557031571865,-0.2398668168575081,0.9622714110136511,-0.478314771129282,left,0.04606735706329346,-0.24388529829990171,0.7961789464425295,-9.483078555613755,-0.10823056419246169,-0.11290540546178818,0.07647470384836197,2.3680584802486,0.0770779550075531
1776556122234081300,5.387081298828125,0.08571160489537152,0.02143246680498123,0.0706032735961307,-0.013375711627304554,-0.23913717209896013,0.9620812859758995,-0.4765122790415522,left,0.049880266189575195,-0.2491118934263512,0.8136004021689295,-9.469047107651829,-0.11058090050858799,-0.07076585292816162,0.05705180764198303,2.417764468181878,0.03651665151119232
1776556122274081300,5.427081298828125,0.08713024306425703,-0.002889847382903099,0.07177302003011826,-0.03624974563717842,-0.23878114885628698,0.9618335645729964,-0.4755477587011399,left,0.07539516687393188,-0.253850829097144,0.8260263876955956,-9.456362982645631,-0.11273111661269807,-0.10389897972345352,0.043617360293865204,2.462775722427666,0.018090277910232544
1776556122314081500,5.46708154296875,0.08875294517829374,-0.022131633013486862,0.07320960697518644,-0.0014202296733856201,-0.23858101351375455,0.9614454486678303,-0.474861143770383,left,0.09425663948059082,-0.2599590941224239,0.840021083843708,-9.439849654740094,-0.11550742504035369,-0.12295332551002502,0.02905583381652832,2.5207111940458415,-0.03244227170944214
1776556122354081300,5.507081298828125,0.09019088631039451,-0.07765810191631317,0.07455819756180182,0.01998874545097351,-0.2393610041761705,0.9608785124416416,-0.4762448698094811,left,0.11312121152877808,-0.26502831495882107,0.8524323101926594,-9.425784889030457,-0.1177276531807006,-0.08638933300971985,0.03080900013446808,2.5687206071943045,-0.06085687875747681
1776556122394081300,5.547081298828125,0.09075758006180051,-0.10867087543010712,0.0754799910139322,0.0033204983919858932,-0.24117752905784628,0.9601525631668976,-0.47990977010776964,left,0.14314234256744385,-0.2688119057627647,0.8568867323182523,-9.415554002395272,-0.11934459761659195,-0.07647764682769775,0.029410697519779205,2.604510882499814,-0.059134408831596375
1776556122434081300,5.587081298828125,0.09026270107579033,-0.09776849299669266,0.07597681917561631,0.01536492072045803,-0.24310722702589174,0.9593804032475417,-0.48394255048643064,left,0.17296850681304932,-0.27308228549496805,0.85121672385782,-9.40481399719417,-0.12130733208518746,-0.11180707812309265,0.03378660976886749,2.6448610130667687,-0.0691872090101242
1776556122474081300,5.627081298828125,0.08969525644838404,-0.06911595165729523,0.07649229976377936,-0.04799392819404602,-0.24456237759267294,0.9586570682228345,-0.4869943424694291,left,0.24191051721572876,-0.27826355262265445,0.8446409987293183,-9.391520215857028,-0.12375235161581388,-0.10022838413715363,0.029867760837078094,2.693753346529603,-0.08536288142204285
1776556122514081300,5.667081298828125,0.08627685022290194,-0.06646191328763962,0.07547379185763184,-0.07178650796413422,-0.24563404599488575,0.9581782780430682,-0.4896412971049703,left,0.19945943355560303,-0.2821609167072587,0.811621284115687,-9.383822062569855,-0.12594414958110267,-0.08130225539207458,0.04641462862491608,2.7304829485118387,-0.10269419848918915
1776556122554081300,5.707081298828125,0.08307747303074071,-0.09057560563087463,0.07451430133912418,-0.06736543029546738,-0.24687897447396143,0.9576886802636024,-0.49264280931142634,left,0.16887980699539185,-0.28542126190694195,0.7808519057121127,-9.377449604928493,-0.1277918762545905,-0.05875948816537857,0.05255129188299179,2.7611770697221156,-0.12557412683963776
1776556122594081300,5.747081298828125,0.08112320903321403,-0.09517938643693924,0.07424258520677081,-0.020057935267686844,-0.2485937376212347,0.9570247235567088,-0.4964716202349272,left,0.19928205013275146,-0.2889532028826496,0.7617294182214885,-9.369178620189428,-0.12958729910040165,-0.08677861839532852,0.05729268491268158,2.7943948641911147,-0.11604923009872437
1776556122634081300,5.787081298828125,0.07830101388904048,-0.08849126845598221,0.07336985949863559,-0.05829863250255585,-0.24999662834048939,0.9565516187394028,-0.4997822226550669,left,0.18438506126403809,-0.2911521513434,0.7348023213945328,-9.365142496541141,-0.13087199746316283,0.017719238996505737,0.05639304965734482,2.81505858977437,-0.14914105832576752
1776556122674081300,5.827081298828125,0.0748315071856428,-0.1592578887939453,0.07165504894660134,-0.020835820585489273,-0.25235009048751145,0.9562518398054545,-0.5051789973920281,left,0.14018452167510986,-0.28776757465787534,0.7030138290762901,-9.37708310970366,-0.12948889609263514,0.1483987420797348,0.024273641407489777,2.7832480317547916,-0.17617228627204895
1776556122714081300,5.867081298828125,0.06857098009069691,-0.25052911043167114,0.06835900732708987,-0.35645991563796997,-0.25597526116143676,0.9559049315411948,-0.5135914735992275,left,0.11866599321365356,-0.280875170548263,0.6455940518952906,-9.400215563488006,-0.12668634324382827,0.323982298374176,-0.04276870936155319,2.7183701936528086,-0.17614899575710297
1776556122754081300,5.907081298828125,0.06823305107384403,-0.23749688267707825,0.06798449714316976,-0.00027883052825927734,-0.2603420025863817,0.9551828504037897,-0.522757617021891,left,0.2733222246170044,-0.27456119770916587,0.6435748210273683,-9.417369527384638,-0.12339321004535582,0.34419864416122437,-0.13078714907169342,2.6588240719676017,-0.20670457184314728
1776556122794081300,5.947081298828125,0.06172552837756877,-0.37091541290283203,0.06432220279804222,-0.14636768400669098,-0.2665269037288542,0.9543384552279011,-0.53649224913357,left,0.15203893184661865,-0.2636868338469365,0.5840269092438742,-9.449658516570926,-0.11859237126128695,0.2185795158147812,-0.13420504331588745,2.556022161401808,-0.0420282781124115
1776556122834081500,5.98708154296875,0.06110772236233692,-0.30880439281463623,0.06487129274338893,0.11358483135700226,-0.2725406392115205,0.9526006558781862,-0.549187807454629,left,0.10421669483184814,-0.2643806775936465,0.5780803123317658,-9.448245142641664,-0.11859711935581332,-0.06268362700939178,-0.11173728108406067,2.5625904338762164,0.056282371282577515
1776556122874081300,6.027081298828125,0.06138304832237581,-0.2945024371147156,0.06691875443722375,0.0025585368275642395,-0.2786914014302859,0.950223689732662,-0.5621498458723101,left,0.10041308403015137,-0.27286847820974686,0.5793264399353415,-9.42603564892113,-0.12217940415247275,-0.2673493027687073,-0.09243539720773697,2.642842074459791,0.24968355894088745
1776556122914081300,6.067081298828125,0.05967918851368692,-0.2566092908382416,0.06862749265184746,-0.02083726041018963,-0.2834759719493984,0.9478425760272454,-0.5726049792950624,left,0.07979696989059448,-0.2865091908181098,0.5610624689701944,-9.390147173938155,-0.1285534955433707,-0.3308141827583313,-0.10475865751504898,2.7714126325324178,0.2938253581523895
1776556122954081300,6.107081298828125,0.05710537085412237,-0.19153274595737457,0.0698770147144457,0.023156246170401573,-0.2871370359877971,0.9457203432256053,-0.580900364124093,left,0.013783514499664307,-0.3003723524128763,0.5346477421121671,-9.352301135146618,-0.13521298979554008,-0.3031511604785919,-0.0631183534860611,2.9015514628350734,0.2907487750053406
1776556122994081300,6.147081298828125,0.05811527190425219,-0.07983094453811646,0.07237061491054593,0.08836428076028824,-0.2895541497465316,0.9440236279491538,-0.5860775940903427,left,-0.013252615928649902,-0.31222978177538274,0.5420558629442006,-9.316752851903438,-0.14050016375114732,-0.2814856767654419,-0.031948573887348175,3.0124200677394866,0.3256567716598511
1776556123034081300,6.187081298828125,0.06376364929673366,-0.064085453748703,0.0766086644602616,0.13962630927562714,-0.29054068660434945,0.9427680618588218,-0.5875033817872636,left,-0.02115309238433838,-0.3227138870232125,0.5926263587523252,-9.281513196218013,-0.14458786832245266,-0.17229731380939484,0.006094876676797867,3.1100957213327285,0.2573101818561554
1776556123074081500,6.22708154296875,0.06857909598911989,-0.094141885638237,0.08010911494553377,0.1531447321176529,-0.29207984478014465,0.9415844520788014,-0.5901494164909503,left,-0.10480648279190063,-0.3301074218152306,0.6357208195913583,-9.255357595220207,-0.14727735562169061,-0.18511919677257538,0.055526502430438995,3.1787732439786196,0.2610012888908386
1776556123114081300,6.267081298828125,0.07627734112857436,-0.11707518994808197,0.08499211314503594,0.19001810252666473,-0.2940939249948433,0.9401847796566454,-0.5933270380462163,left,-0.09963035583496094,-0.3373926331369608,0.7051678653050214,-9.226853385269642,-0.14945813410985032,-0.11233927309513092,0.09307976067066193,3.246274416321516,0.2465660274028778
1776556123154081300,6.307081298828125,0.0821113992161359,-0.07949832081794739,0.08886212684839594,0.07900018244981766,-0.2960172925530382,0.9389091612872731,-0.596569462972555,left,-0.1090889573097229,-0.34366723883774797,0.7572999844066798,-9.202100636807083,-0.15141650958740221,-0.13900838792324066,0.09183236211538315,3.3042736008256672,0.24494242668151855
1776556123194081300,6.347081298828125,0.07662724509333346,-0.04808957502245903,0.08659672160038533,-0.03986162692308426,-0.29670646845837695,0.938719085216393,-0.5989380637942113,left,-0.5741101503372192,-0.3445769205700361,0.7065927104763686,-9.20311478228569,-0.1525540957587949,-0.1152324229478836,0.07556694000959396,3.3126717190757393,0.2149011194705963
1776556123234081300,6.387081298828125,0.07830599433397148,-0.05628411844372749,0.08830584445114124,-0.012973006814718246,-0.2968064438841578,0.938069256012102,-0.5989761773908154,left,-0.3563401699066162,-0.3510465403678471,0.7203497984763234,-9.180357007032633,-0.15535165541465512,-0.10622888058423996,0.0901479721069336,3.3723177940040823,0.23905032873153687
1776556123274081300,6.427081298828125,0.08155359177903036,0.10586842894554138,0.09023028220712828,0.05311746522784233,-0.29610064357750143,0.9378663763645424,-0.5969898792281907,left,-0.31669360399246216,-0.35497793628704916,0.7490742270488292,-9.164684221604466,-0.15681081833050678,-0.03206606209278107,0.08094348013401031,3.40849414601773,0.2617899477481842
1776556123314081500,6.46708154296875,0.08603943851010495,0.04372803121805191,0.09204829307455638,-0.032623711973428726,-0.294585605613288,0.9382328577841637,-0.5930131338757226,left,-0.21048247814178467,-0.35515887744258656,0.7901249071005731,-9.160617702817916,-0.1564148627748502,0.10396456718444824,0.06565751880407333,3.410157987576723,0.17550736665725708
1776556123354081300,6.507081298828125,0.08178537096572334,0.045624662190675735,0.08920590073421951,-0.24276947975158691,-0.2934230867588239,0.9391465289033154,-0.591179084929627,left,-0.19987457990646362,-0.35013552015645244,0.7525379576366394,-9.180853266116976,-0.15475485336758643,0.165054053068161,0.049082376062870026,3.363927274538576,0.1692618429660797
1776556123394081300,6.547081298828125,0.07566764895176477,0.12301059067249298,0.08503262117959318,-0.1683623194694519,-0.292018316894998,0.9404358758889891,-0.5890757295264066,left,-0.1923200488090515,-0.34200455576879807,0.6984029742799699,-9.21225495107472,-0.1519051254060202,0.30162516236305237,0.11413531005382538,3.2889173340007662,0.16151714324951172
1776556123434081300,6.587081298828125,0.06394917844224622,0.22001653909683228,0.07623606483563063,-0.5181570053100586,-0.28890078254973833,0.943391680001019,-0.5839722103954398,left,-0.1400212049484253,-0.3212469148538265,0.5946392694773152,-9.285946210229396,-0.14400201935698503,0.7892856597900391,0.1664261519908905,3.096449181035161,0.08947238326072693
1776556123474081300,6.627081298828125,0.03944642808805055,0.48796889185905457,0.057867486020929976,-0.6780723333358765,-0.28229536989959664,0.9490702947529888,-0.572700656810325,left,-0.2939143180847168,-0.2780290094689819,0.3718854665044695,-9.422721994328498,-0.1273822584176339,1.2174668312072754,0.2185576856136322,2.6915418079599736,0.10172674059867859
1776556123514081300,6.667081298828125,0.013904465450444473,0.6700721979141235,0.03742717080578894,-0.8184574842453003,-0.27047970374086183,0.9560014414216883,-0.5498570267870492,left,-0.3713875412940979,-0.22724705143429383,0.13284608910051174,-9.553600537082552,-0.10724336831466641,1.23574960231781,0.11077803373336792,2.2094009730786084,0.005109190940856934
1776556123554081300,6.707081298828125,-0.010829426910005841,0.7439562082290649,0.018335777996928756,-0.6245511770248413,-0.2557415245809471,0.9623891295107235,-0.5204619815832678,left,-0.4446222186088562,-0.18328167780485008,-0.10441979409120976,-9.641831778243183,-0.08981752634172592,0.9652645587921143,0.07724190503358841,1.78733306023553,-0.051610469818115234
1776556123594081300,6.747081298828125,-0.02502701851146302,0.6814152002334595,0.006564325553959163,-0.3427664041519165,-0.2413384440682414,0.9673156831545375,-0.49093115757667094,left,-0.2484809160232544,-0.1537926465905802,-0.24250932767000047,-9.687869306796788,-0.07754379586315724,0.5140186548233032,0.05863719433546066,1.5022522361546753,0.02591678500175476
1776556123634081300,6.787081298828125,-0.03129484674010232,0.5541321039199829,0.0011468309550752944,-0.14918455481529236,-0.22861032532621048,0.970805308737797,-0.4647692780713901,left,0.014192283153533936,-0.1419930178486819,-0.3037595863919705,-9.703201900485157,-0.07261600152308502,0.1898667812347412,0.07146897912025452,1.3878012427188455,0.06550084054470062
1776556123674081300,6.827081298828125,-0.03724501113497758,0.32800137996673584,-0.002873083293277946,-0.26937687397003174,-0.2196370024680273,0.972973131757954,-0.44660405888216126,left,0.1352183222770691,-0.1377970117830141,-0.3617031682513654,-9.706956284582615,-0.07123702078950625,0.04109595715999603,-0.02261241525411606,1.3470545140497385,0.13828538358211517
1776556123714081300,6.867081298828125,-0.04518121021713109,0.1421814113855362,-0.006590675519492483,-0.09965552389621735,-0.21502057561380486,0.9737703523013892,-0.4378639727019342,left,0.1915954351425171,-0.14199866956667362,-0.43846780696939675,-9.698040572199226,-0.07412230744871862,-0.20363681018352509,-0.03235344961285591,1.3878561877764761,0.17863528430461884
1776556123754081300,6.907081298828125,-0.05104530985308669,-0.014101877808570862,-0.008648124724867654,-0.1204005628824234,-0.21380693508164755,0.9736704469432552,-0.4361501955212805,left,0.25152963399887085,-0.1499216943339282,-0.4947536482170224,-9.684016723021864,-0.07859885457211739,-0.2189086228609085,-0.08737495541572571,1.464728122793883,0.19338954985141754
1776556123794081300,6.947081298828125,-0.05439244104976284,-0.07760225981473923,-0.009038206804010546,0.03335687518119812,-0.21503554194960423,0.9729535954572749,-0.43939631437510074,left,0.29503101110458374,-0.1600582018945269,-0.5263302148176356,-9.666983755156398,-0.08390057706840959,-0.3275814950466156,-0.09700466692447662,1.562941244264692,0.17716653645038605
1776556123834081500,6.98708154296875,-0.05408086824169486,-0.04713235795497894,-0.007312416058462132,0.012054326012730598,-0.2166409461824685,0.9720584282149348,-0.4432551552349076,left,0.3390260338783264,-0.17283021775675733,-0.5221965490790084,-9.64642670481801,-0.09008688143071894,-0.31533119082450867,-0.11507450044155121,1.6864602180361747,0.12418168783187866
1776556123874081300,7.027081298828125,-0.05196408445592883,-0.03702126070857048,-0.0050237193335983515,0.11879437416791916,-0.21753880253916896,0.971409402162729,-0.44539044703807756,left,0.3321857452392578,-0.18330842704155018,-0.500830630043149,-9.629334115719795,-0.09494929230203936,-0.19336861371994019,-0.08194267749786377,1.7875909805193542,0.008869320154190063
1776556123914081300,7.067081298828125,-0.04891866787779314,-0.16054119169712067,-0.002753337780294608,0.04765613377094269,-0.21973714410271078,0.970707456626547,-0.44985705471364607,left,0.3338221311569214,-0.18848086893842483,-0.4710445635885,-9.621450668993592,-0.09713374733427538,-0.09362748265266418,-0.08508309721946716,1.837441345359385,-0.05245347321033478
1776556123954081300,7.107081298828125,-0.04754526101207457,-0.2238205373287201,-0.0012048809833735477,0.12344589084386826,-0.22392068702302872,0.9695706959009717,-0.45852940906344564,left,0.26768922805786133,-0.19252094718053017,-0.4574734266147017,-9.614594811749457,-0.09894764219524271,-0.120081827044487,-0.06874433159828186,1.8763441997274755,-0.0816832035779953
1776556123994081300,7.147081298828125,-0.044507539043353306,-0.24959397315979004,0.001145409177361476,0.09603959321975708,-0.22885056823298855,0.9682904389708286,-0.46854457396760946,left,0.2673580050468445,-0.19581477068596345,-0.427987585215643,-9.609714053970574,-0.10019800699707038,-0.047425106167793274,-0.07710161805152893,1.9080385840214789,-0.11543884873390198
1776556124034081300,7.187081298828125,-0.04376399978876977,-0.2652251422405243,0.002039511335158261,0.06744568049907684,-0.23404531528894676,0.9670560100147252,-0.4792043647065025,left,0.20712679624557495,-0.19581940763425099,-0.4208418781794607,-9.610020343440771,-0.10010571756973248,0.015059161931276321,-0.06970676779747009,1.9080832999460398,-0.12120164185762405
1776556124074081500,7.22708154296875,-0.041963122628166455,-0.22867225110530853,0.0032964183653558287,0.09706985950469971,-0.23908456143917003,0.9658929475379537,-0.48940038009990794,left,0.18242961168289185,-0.19480648964594854,-0.4036155796989798,-9.61268868586719,-0.09939012571984249,0.012201999314129353,-0.06896274536848068,1.8983387355230747,-0.11508571356534958
1776556124114081300,7.267081298828125,-0.0390157004709094,-0.19150614738464355,0.005069293309264573,0.12575837969779968,-0.24317311877794448,0.9649239949177114,-0.4975483303688603,left,0.16612160205841064,-0.1943689363925053,-0.375313577789627,-9.61466612342,-0.09880672582267074,0.005690956488251686,-0.053597573190927505,1.8941288627430795,-0.12554877996444702
1776556124154081300,7.307081298828125,-0.035116020462239377,-0.15222738683223724,0.007255977305268671,0.13622011244297028,-0.24686228420707332,0.9640436779009838,-0.5047827352210308,left,0.1668909788131714,-0.193966022447031,-0.3378434596383944,-9.616818333017825,-0.09811256500538207,0.003654636675491929,-0.061222828924655914,1.890251875179261,-0.12113592028617859
1776556124194081300,7.347081298828125,-0.03090135305182724,-0.09762266278266907,0.009540243744453123,0.13283978402614594,-0.24958926977500617,0.9633776781145179,-0.5100133842112662,left,0.19460588693618774,-0.19394637481383317,-0.29731004492640495,-9.618193713024258,-0.09755804519788937,-0.013001026585698128,-0.05785118415951729,1.8900627823479472,-0.12341006845235825
1776556124234081300,7.387081298828125,-0.025263521127801735,-0.05992782115936279,0.012458899190159462,0.16356396675109863,-0.2514375544326416,0.9629199131119492,-0.5132956869497248,left,0.243402898311615,-0.19429374415339215,-0.2430632534920238,-9.619060558986662,-0.09700097755387173,-0.0018776226788759232,-0.05409006401896477,1.89340537077412,-0.14334145188331604
1776556124274081300,7.427081298828125,-0.01954702129829587,-0.06477437913417816,0.015223458238719696,0.13697659969329834,-0.25289125695921455,0.9626126931904511,-0.5157129194578057,left,0.2706261873245239,-0.19347709561262685,-0.1881023772378452,-9.621835284397006,-0.0958705985136172,0.047514960169792175,-0.04045136645436287,1.8855467662282286,-0.1667066514492035
1776556124314081500,7.46708154296875,-0.012721988014454635,-0.08482731878757477,0.01836579002686107,0.22336836159229279,-0.25462886155203407,0.9622907357519142,-0.5185775524081444,left,0.3012496829032898,-0.1912990127050031,-0.12248110949057153,-9.626978492504358,-0.09393286463406615,0.059967003762722015,-0.03253655880689621,1.8645811350889503,-0.17172303795814514
1776556124354081300,7.507081298828125,-0.006617803493270182,-0.10035891830921173,0.021063392703708023,0.036906540393829346,-0.25659514040186976,0.9619350503599807,-0.5219829774864901,left,0.29929524660110474,-0.18820473234590407,-0.06375221333922818,-9.633270286124944,-0.09163098000069844,0.13320483267307281,-0.015171881765127182,1.8347813323698936,-0.1663970947265625
1776556124394081300,7.547081298828125,-0.00025968442489633073,-0.16130681335926056,0.023772297804657522,0.12419141083955765,-0.25913950579535683,0.9614651003477621,-0.5265632760747917,left,0.32421189546585083,-0.1839062456460576,-0.0025038800003967477,-9.64127882053554,-0.08869310484593627,0.20225800573825836,-0.0297714751213789,1.7933550970040262,-0.16784481704235077
1776556124434081300,7.587081298828125,-0.001336969827094933,-0.2919294834136963,0.02240499315901042,-0.11113081127405167,-0.2635677148960837,0.9607010948481155,-0.5356393123172657,left,0.1564280390739441,-0.17440567964342857,-0.012912481268821283,-9.657872812461852,-0.08416374199020434,0.2732473313808441,0.016043972223997116,1.70167795317322,-0.07733668386936188
1776556124474081300,7.627081298828125,-0.0002822259328156314,-0.20229217410087585,0.022859858819678374,0.12847968935966492,-0.2687248490737014,0.9594364249135051,-0.5462013075495947,left,0.0946798324584961,-0.1707202033838893,-0.0027276428571145514,-9.66408686467111,-0.0821347294610531,0.029212534427642822,0.03245239704847336,1.6660725329153239,0.0742771327495575
1776556124514081300,7.667081298828125,0.0007382407975165372,-0.14769047498703003,0.02349114808796497,0.07777770608663559,-0.27253345064830525,0.9584194249799423,-0.5540263634154866,left,0.013236284255981445,-0.16940713233697283,0.00713584665422677,-9.666264208710192,-0.0812763945898121,0.028884170576930046,0.06085529923439026,1.6533813936464488,0.16792161762714386
1776556124554081300,7.707081298828125,-0.001987891570341453,-0.17958149313926697,0.02216967892351326,0.0741233229637146,-0.27599169377646093,0.9575291803978195,-0.5614202904823065,left,-0.12484121322631836,-0.16711295697961195,-0.01922315311981365,-9.670015670198202,-0.08046696174411096,-0.027897806838154793,0.11217133700847626,1.6312009798899292,0.23065000772476196
1776556124594081300,7.747081298828125,0.0023649897294319854,-0.15277314186096191,0.02482592202862863,0.1800338327884674,-0.2794443190791909,0.9564340712413522,-0.5683209833777656,left,-0.07732737064361572,-0.16923905411090598,0.022861075797327792,-9.666517306688428,-0.0807987724270829,-0.06229165196418762,0.10261555016040802,1.6517567150540649,0.24199628829956055
1776556124634081300,7.787081298828125,0.007407080459170201,-0.08915072679519653,0.02773985622621629,0.2252843677997589,-0.2822004754610957,0.9555277296422624,-0.573706558114633,left,-0.14587998390197754,-0.1712789653819417,0.07157493372098542,-9.662889763841033,-0.08099520982840393,-0.029813844710588455,0.10881663858890533,1.671472200001776,0.2093762308359146
1776556124674081300,7.827081298828125,0.013577423958227534,-0.10299021005630493,0.03046449290121082,0.14224523305892944,-0.28443507293844195,0.9549694012587618,-0.5778145203621241,left,-0.15424460172653198,-0.16854211274865627,0.13125816232194193,-9.666802553370594,-0.07875381012057725,0.08117395639419556,0.11312896013259888,1.6450193696230648,0.18361592292785645
1776556124714081300,7.867081298828125,0.017966019803055816,-0.07943423092365265,0.03206889143460797,0.15510539710521698,-0.28649324611325105,0.9545314659055082,-0.5816939359394302,left,-0.19546014070510864,-0.16403405459783466,0.17381191301355137,-9.67344973630011,-0.07591388644566571,0.1288103461265564,0.106340192258358,1.6014201741322873,0.1699891835451126
1776556124754081300,7.907081298828125,0.022091654658664236,-0.07170803844928741,0.03354216470469232,0.12144094705581665,-0.2882809265287066,0.954155114367298,-0.5850557830884756,left,-0.23178225755691528,-0.15969117229181712,0.21387106127729638,-9.679511812818049,-0.0731925979022731,0.05861230939626694,0.07706359028816223,1.559387789566815,0.18063883483409882
1776556124794081300,7.947081298828125,0.021184281936011747,-0.06467381119728088,0.03229019968417146,-0.09431800246238708,-0.29014718066620554,0.9538664097901122,-0.5889506187826036,left,-0.3903997540473938,-0.15302456057652378,0.20530370567385106,-9.6898806466192,-0.07007806346534025,0.2723231315612793,0.052258480340242386,1.4948083498895168,0.18520784378051758
1776556124834081500,7.98708154296875,0.022200774731408923,-0.03692347928881645,0.03159909606357628,0.10386067628860474,-0.29168925608603014,0.9537334173848961,-0.592007491287857,left,-0.41453349590301514,-0.14418073468019213,0.2154383288603276,-9.702503981348872,-0.06566168150703781,0.1922522485256195,-0.00592057965695858,1.409036192318797,0.23018841445446014
1776556124874081300,8.027081298828126,0.01768693843336904,0.18064439296722412,0.02769052148938403,-0.026025548577308655,-0.29102607277310427,0.9543866897831519,-0.5907844574374745,left,-0.46609747409820557,-0.13234291744365673,0.17192374291308224,-9.719375036650895,-0.060687982213974596,0.23326535522937775,-0.0012517273426055908,1.2940553297899662,0.3385694622993469
1776556124914081300,8.067081298828125,0.0191100623350979,0.29761651158332825,0.026253705279652755,-0.005223780870437622,-0.28633972236591626,0.9562139976987862,-0.5807624998756646,left,-0.34739208221435547,-0.1196308074802934,0.18605476052565498,-9.734781864619254,-0.05454359824586523,0.33024460077285767,0.004723621532320976,1.1703810193262993,0.28028059005737305
1776556124954081300,8.107081298828126,0.02015267110869746,0.2900432050228119,0.024339464618426742,0.12846116721630096,-0.2805598107866473,0.958355104513888,-0.5685304593309229,left,-0.29473811388015747,-0.10474790973314467,0.19653350270837544,-9.750918760427831,-0.047424546497253896,0.3991412818431854,0.05707274377346039,1.0253484982091934,0.1828506588935852
1776556124994081300,8.147081298828125,0.022005194881869618,0.18517586588859558,0.02216875948478565,0.004850812256336212,-0.27682536441964645,0.9599411384231371,-0.5605960870445783,left,-0.22002238035202026,-0.08392930967115121,0.21502010344825684,-9.769764915195108,-0.037271587207377214,0.5362190008163452,0.04151053726673126,0.8220992773797362,0.13606950640678406
1776556125034081300,8.187081298828126,0.020823511778204604,0.10254768282175064,0.018157467366949877,0.017903443425893784,-0.2748062795735038,0.9609851441487318,-0.5564410148037403,left,-0.2680608630180359,-0.05936621608208823,0.20383423590948804,-9.78725147204697,-0.025677701274999295,0.6111769676208496,0.049539074301719666,0.5818416376266629,0.06923506408929825
1776556125074081500,8.22708154296875,0.02042404326272948,0.21972331404685974,0.014427786293600066,-0.026501581072807312,-0.271854916178688,0.9621351013935395,-0.5504046022019548,left,-0.30531275272369385,-0.03387100579666219,0.20016247032787648,-9.798981072807312,-0.013522009784776148,0.656279981136322,-0.021448487415909767,0.33209742679968474,0.02611994743347168
1776556125114081300,8.267081298828124,0.019516290586360185,0.23989072442054749,0.010227001436261261,0.05258431285619736,-0.2677151285889294,0.9634437954137357,-0.5420105763087372,left,-0.4691678285598755,-0.006165413331482096,0.19137347133038565,-9.80459599007964,-0.00035784560831881456,0.6917357444763184,-0.04974449425935745,0.06046149666418787,0.01567629911005497
1776556125154081300,8.307081298828125,0.025661460923041567,0.3544687330722809,0.00963820444198965,0.21977972984313965,-0.2621959000933158,0.9648728232596115,-0.5309367097750171,left,-0.4986003637313843,0.0209049285504784,0.2515701841451228,-9.801279412877559,0.01345130710721605,0.6601388454437256,-0.08940467983484268,-0.20499255736544728,0.030491868034005165
1776556125194081300,8.347081298828124,0.032571335689488785,0.2534763216972351,0.009597679152441424,0.18848879635334015,-0.2558951099897776,0.9662708967444831,-0.5185493682242346,left,-0.38363927602767944,0.047896576799674136,0.3189927748264745,-9.790207983765006,0.027316492864333883,0.615251362323761,-0.04676549509167671,-0.4695255738602951,0.0183816310018301
1776556125234081300,8.387081298828125,0.03919321456135301,0.1724984347820282,0.010295405917277962,0.18170985579490662,-0.2520844634017891,0.9669022304536106,-0.5114144173151043,left,-0.17302995920181274,0.0684383878433826,0.3833560144698247,-9.776179458412528,0.03804707257589364,0.3751258850097656,-0.021121647208929062,-0.670627736191079,0.09515371918678284
1776556125274081300,8.427081298828124,0.04437132362489,0.23647314310073853,0.011236113658730323,0.08768468350172043,-0.2478293645648827,0.9676780359730136,-0.5032622160106561,left,0.05001884698867798,0.08222496782194587,0.4335214366083964,-9.763898068988322,0.04531549782509652,0.3207511007785797,0.0068834759294986725,-0.8054433991983533,0.12919777631759644
1776556125314081500,8.46708154296875,0.04685798582907816,0.222599595785141,0.011090766356428387,0.1436753273010254,-0.24328409054972108,0.9685136577631613,-0.4944272548626408,left,0.15464144945144653,0.09485654162299857,0.45728652574047446,-9.751848150232433,0.051682683750385046,0.25810956954956055,0.02909788116812706,-0.928830709414184,0.13963361084461212
1776556125354081300,8.507081298828124,0.052596759706405385,0.18612799048423767,0.01293938061108384,0.18322007358074188,-0.23925352539899938,0.9692047326615164,-0.4867774466316866,left,0.3041669726371765,0.10420516885205822,0.512763425225392,-9.739966573780775,0.056854998372355206,0.18395763635635376,0.019185908138751984,-1.0200554333023726,0.1285288780927658
1776556125394081300,8.547081298828125,0.058338768455045875,0.1953696757555008,0.015101846615871804,0.1593160331249237,-0.23550752830738314,0.9698492004917337,-0.47968170840040075,left,0.4295904040336609,0.11111233242129274,0.5682572758451104,-9.729595401892066,0.060832673454691996,0.14090140163898468,0.01689235121011734,-1.087399223126471,0.11201288551092148
1776556125434081300,8.587081298828124,0.061627499949183255,0.22492757439613342,0.016202178593928734,0.09259086847305298,-0.2313201493045247,0.9706203765123492,-0.47153967615620146,left,0.47822803258895874,0.11744528863402416,0.5998160145280882,-9.720606039750576,0.06422246207045484,0.1358828991651535,0.021120261400938034,-1.1490991618447004,0.08352327346801758
1776556125474081300,8.627081298828125,0.06299085797748838,0.21039465069770813,0.01644740248984662,0.06174365431070328,-0.22703203721816845,0.9714264230075372,-0.46307137624529,left,0.4588325619697571,0.1234149965711646,0.6126253733491525,-9.712759417903422,0.06720535504743226,0.10502192378044128,0.026630736887454987,-1.2072178810752927,0.047758981585502625
1776556125514081300,8.667081298828125,0.06312401004059102,0.17272093892097473,0.01633391615379864,0.007085360586643219,-0.22324445070729157,0.9721791323713335,-0.4554621397903808,left,0.4228585958480835,0.12723459908400667,0.6136232618127018,-9.708004916852712,0.06901222833955983,0.03680378198623657,0.03341575711965561,-1.2443816366910934,0.014967948198318481
1776556125554081300,8.707081298828125,0.06275337402381105,0.13293695449829102,0.01624602532996331,0.04685331881046295,-0.22009470539120496,0.9728650298707999,-0.44901191200610874,left,0.3686407208442688,0.12839597867501237,0.609934051905945,-9.706783266103267,0.06948282355665746,-0.006294317543506622,0.0741468146443367,-1.2556779606007038,-0.027226537466049194
1776556125594081300,8.747081298828125,0.06503110892036773,0.07868652045726776,0.017506521478447057,0.06957100331783295,-0.2177885816480622,0.9733448557405225,-0.44443802625387563,left,0.3357425928115845,0.12845808273013798,0.6320368703816086,-9.705290981718898,0.06972375868563031,0.010153567418456078,0.08643848448991776,-1.2562819178432225,-0.07070331275463104
1776556125634081300,8.787081298828125,0.06640834919952907,-0.0028580203652381897,0.018065440084231117,0.043691907078027725,-0.21704799449363132,0.9734398781779308,-0.44308364011084606,left,0.25075608491897583,0.12989228941606612,0.6452825747933238,-9.702603350070119,0.07055878761322344,0.038635700941085815,0.09466307610273361,-1.270229486913979,-0.09555722773075104
1776556125674081300,8.827081298828125,0.0668826504317752,-0.038969654589891434,0.01818382161326326,-0.02175305411219597,-0.21758925422029557,0.9732897044605139,-0.44426094156106666,left,0.20433908700942993,0.1305315030078273,0.6498300089646131,-9.701483990651369,0.07093178431248988,-0.011953908950090408,0.07475302368402481,-1.2764450004279613,-0.09491324424743652
1776556125714081300,8.867081298828126,0.06522950385046915,-0.08605442941188812,0.0175125517371386,-0.03742434084415436,-0.21892688121899875,0.9730836909313662,-0.4467950095254711,left,0.20752960443496704,0.1285326631299083,0.6339562210716306,-9.705071786010265,0.06980231309703455,-0.08670604228973389,0.0668901801109314,-1.2570073095083236,-0.09278474748134613
1776556125754081300,8.907081298828125,0.06229665419269529,-0.08982725441455841,0.01651743221609354,-0.12030526995658875,-0.2206346177862847,0.9729005144773245,-0.44987661308142546,left,0.2636587619781494,0.1237295501979118,0.6058589114215225,-9.712803257045149,0.0671716832923223,-0.1398005187511444,0.04766194522380829,-1.2102790222115813,-0.07384534925222397
1776556125794081300,8.947081298828126,0.057080575782451654,-0.1270572990179062,0.014583699353194866,-0.12481460720300674,-0.22273089741340865,0.9727003749733899,-0.4535552524986563,left,0.2225937843322754,0.11730340716970443,0.5556203875141218,-9.72339537820816,0.06349902739912622,-0.18498316407203674,0.033394742757081985,-1.1477173520974815,-0.08182810992002487
1776556125834081500,8.98708154296875,0.05347676347650473,-0.13308799266815186,0.013639328212908594,-0.09609425067901611,-0.22527652131056397,0.9724076113695738,-0.45822159269213425,left,0.26576322317123413,0.10892589774414725,0.5210712348435074,-9.734594233092665,0.059057470711239374,-0.20991694927215576,0.01017758995294571,-1.0660872627675533,-0.07505075633525848
1776556125874081300,9.027081298828126,0.05028270222458419,-0.08623899519443512,0.01291213954185184,-0.04115653038024902,-0.22741561166710472,0.9721717971284041,-0.4621221169933139,left,0.2733829617500305,0.10074609535122005,0.49039764496460553,-9.744592480015754,0.05474783433940117,-0.1715778112411499,-0.026162229478359222,-0.9863114230021833,-0.07968005537986755
1776556125914081300,9.067081298828125,0.04791373880226673,-0.08064735680818558,0.012279612708509685,-0.04759514331817627,-0.22898996833624738,0.9719622734292449,-0.46504414666547483,left,0.2651272416114807,0.09556854975214442,0.4675500360036269,-9.75069722663164,0.051980904190481035,-0.094852976500988,-0.04696904867887497,-0.9357815514653921,-0.08946248888969421
1776556125954081300,9.107081298828126,0.04166184374071482,-0.09176954627037048,0.00934857189337342,-0.002247083932161331,-0.23117732223519094,0.97156037233576,-0.4691551960169936,left,0.00023168325424194336,0.09374330820958718,0.4066514037309214,-9.75511971924901,0.05039749831880624,-0.10849260538816452,-0.010409530252218246,-0.9179621824625879,-0.10522276908159256
1776556125994081300,9.147081298828125,0.04698955059440345,-0.19524118304252625,0.012198426556418233,-0.18223132193088531,-0.2331755483270875,0.9710969484532497,-0.47343878003529927,left,0.23733192682266235,0.09058856097811728,0.4587515567917376,-9.75565923295319,0.04950765331253309,0.02053634077310562,-0.025776918977499008,-0.8871559791799635,-0.05912696570158005
1776556126034081300,9.187081298828126,0.04414686030958321,-0.32135605812072754,0.010928000789821231,0.004188314080238342,-0.23845727061086075,0.9699175219297097,-0.48407671956835435,left,-0.007565677165985107,0.0874965323442436,0.43113640463538466,-9.759617615190148,0.04773429445710977,-0.11499162763357162,0.08715791255235672,-0.8569536600746214,0.03263413906097412
1776556126074081500,9.22708154296875,0.04327006565089121,-0.29437577724456787,0.010848388866929206,-0.10490000993013382,-0.24425327483995216,0.968595365927407,-0.49582915026394586,left,-0.02861309051513672,0.08240975194057157,0.4227621787175536,-9.76422072507143,0.04522838770411483,-0.14930012822151184,0.10958503186702728,-0.8072493526417761,0.1622721254825592
1776556126114081300,9.267081298828124,0.036943919879499125,-0.19776976108551025,0.008099109768692509,-0.1352115273475647,-0.24952192337504578,0.9674071093576262,-0.5062961673505657,left,-0.10277116298675537,0.07804772910154827,0.3611108649140224,-9.770125565201043,0.04238666743901815,-0.09712947905063629,0.08626900613307953,-0.7646101612895727,0.2352733612060547
1776556126154081300,9.307081298828125,0.029269022343332982,-0.06882168352603912,0.004614760595517924,-0.22740155458450317,-0.2523599835243088,0.9667894870785757,-0.511766414225554,left,-0.1388310194015503,0.07535343899372672,0.28617550571607425,-9.774632813492417,0.040138681093848216,-0.07641549408435822,-0.024353349581360817,-0.7382659058518707,0.23785428702831268
1776556126194081300,9.347081298828124,0.016557110141166818,-0.02198655903339386,-0.0013504381944523882,-0.27290916442871094,-0.2530775917721808,0.9667070297194634,-0.5127055982379187,left,-0.20233005285263062,0.0737937569662678,0.16192030835822224,-9.77862042182386,0.03777942409092872,-0.04305410385131836,-0.07932150363922119,-0.7230130994014442,0.1936931014060974
1776556126234081300,9.387081298828125,0.005916607204717535,0.0720343291759491,-0.006042603446775762,-0.16597884893417358,-0.2531087010737769,0.9667949392212273,-0.5123180852183443,left,-0.2403169870376587,0.07028921710751457,0.057878298070840536,-9.782263746762276,0.03473977752626521,-0.14696788787841797,-0.13090382516384125,-0.6887344707679003,0.2077145278453827
1776556126274081300,9.427081298828124,0.0007610053908118062,0.0796787291765213,-0.0077967660560424226,-0.036985188722610474,-0.2514435818341841,0.967327575507666,-0.5086414874384357,left,-0.18929672241210938,0.06491777584915344,0.007447000100029981,-9.785990073809026,0.03150499173050595,-0.1440662294626236,-0.09013017266988754,-0.6361790116876364,0.1774197518825531
1776556126314081500,9.46708154296875,-0.0009472914586029548,-0.025821059942245483,-0.007821484948852347,0.00837738811969757,-0.250884883672454,0.9675721059102776,-0.5073839955045873,left,-0.17542052268981934,0.05868410804447365,-0.009273956373930558,-9.789764331650733,0.028279983406237726,-0.18354716897010803,-0.059559810906648636,-0.5751644248850644,0.15942645072937012
1776556126354081300,9.507081298828124,0.002564774512722714,-0.0757274478673935,-0.0050832553035495285,0.11807674169540405,-0.2517269648567642,0.9674716027630474,-0.5091574759616967,left,-0.1289786696434021,0.050227487696400085,0.02511990584109444,-9.794250537154078,0.024624591759138274,-0.2256537824869156,-0.029199732467532158,-0.4923564874147996,0.14637507498264313
1776556126394081300,9.547081298828125,0.0008642495636337129,0.006393752992153168,-0.005012318828421957,-0.18092292547225952,-0.25305523399146795,0.9672138536058562,-0.511812981540174,left,-0.43739527463912964,0.0429095992865172,0.00846739836455381,-9.797619721326232,0.020863868705729448,-0.05052030086517334,0.02871556393802166,-0.42067050366792824,0.05639345198869705
1776556126434081300,9.587081298828124,0.003307129836981563,-0.22454997897148132,-0.003630320042839524,0.05148783326148987,-0.2550393670639944,0.9667120612305873,-0.5159561927938722,left,-0.5205855369567871,0.04099308103089786,0.03240436832741834,-9.798357972472905,0.020238628177893153,-0.03602319210767746,0.08349055796861649,-0.4018924091681838,0.017007548362016678
1776556126474081300,9.627081298828125,0.005997456255659069,-0.23285377025604248,-0.001865113942028418,-0.10429267585277557,-0.259832462131417,0.9654754296226572,-0.5258999688223168,left,-0.3675636649131775,0.0366295633698543,0.05877496378277428,-9.79989584956467,0.018463514138783034,-0.04241369664669037,0.11893956363201141,-0.35913317163288594,0.09766902029514313
1776556126514081300,9.667081298828125,0.004433608654173551,0.017581284046173096,-0.001861212686286847,-0.024893388152122498,-0.26217969815037434,0.964895958923102,-0.5306926405092172,left,-0.3819894790649414,0.030508647642817677,0.04345828461616765,-9.801990191495419,0.015301116371784697,-0.2197747677564621,0.07168523967266083,-0.29914140680572016,0.19436600804328918
1776556126554081300,9.707081298828125,0.002967159333951609,0.09906944632530212,-0.001434259149341309,-0.08599984645843506,-0.2607670095721245,0.9653380495880294,-0.5276990680666862,left,-0.2595258355140686,0.021982238709140036,0.029090631536394355,-9.804237678161263,0.010997418702402124,-0.17978894710540771,-0.028091080486774445,-0.21555494097732006,0.18408286571502686
1776556126594081300,9.747081298828125,-0.0022210791325384728,0.09876540303230286,-0.003469548316333563,-0.11376094818115234,-0.2585896212323025,0.9659421595528058,-0.5231264964997926,left,-0.2147892713546753,0.018537878012760734,-0.021777776355936657,-9.804940857994556,0.008666377033812874,0.0198373943567276,-0.023330150172114372,-0.1817842435996048,0.09788323938846588
1776556126634081300,9.787081298828125,-0.006397303922681455,0.13483673334121704,-0.00603986758885314,-0.2687675654888153,-0.256088233706761,0.9665795380610405,-0.5179107828226462,left,-0.10336148738861084,0.023026084713396077,-0.06271925812887494,-9.803849555626512,0.010309845799883794,0.28369832038879395,-0.024574654176831245,-0.2257889694176614,-0.008006265386939049
1776556126674081300,9.827081298828125,-0.016334220056223335,0.08925119042396545,-0.012424450533560434,-0.2717135548591614,-0.25421035986671603,0.9669503372074542,-0.51387220614644,left,-0.2007477879524231,0.03563040837209866,-0.1600753928775899,-9.799118435451387,0.015153840215685312,0.34252476692199707,0.0022249631583690643,-0.34934118787162005,-0.080063596367836
1776556126714081300,9.867081298828126,-0.025098210870440275,0.2979514002799988,-0.018148036628196806,-0.16871407628059387,-0.2510812080462288,0.9675887376235004,-0.5071827265673077,left,-0.2332279086112976,0.04787208260625033,-0.2458217949525453,-9.792329798224568,0.020019113618683932,0.290426105260849,-0.02399362437427044,-0.46928566415719686,-0.10206048935651779
1776556126754081300,9.907081298828125,-0.03127877708248747,0.3523217737674713,-0.022670530056555123,-0.14744773507118225,-0.24398682886261203,0.9691624642623682,-0.49228560078060174,left,-0.24158382415771484,0.061662178916401224,-0.30610735509451475,-9.783224700748919,0.02608463037002133,0.40508341789245605,-0.03340575471520424,-0.6043164677524939,-0.18138714134693146
1776556126794081300,9.947081298828126,-0.039793711696506834,0.3200875520706177,-0.028500081195819506,-0.22348792850971222,-0.23736669228291507,0.9704419591944725,-0.47822811146852,left,-0.28814637660980225,0.07759831353084368,-0.3889662190344184,-9.769399004492163,0.03296978248396978,0.3646252155303955,-0.014367789030075073,-0.7602162371795624,-0.1617664396762848
1776556126834081500,9.98708154296875,-0.048925180491484185,0.2160252034664154,-0.033965154564011,-0.18907546997070312,-0.2317664007301537,0.9714635744841148,-0.4662320124386894,left,-0.2144089937210083,0.08827443846897229,-0.47773353983312844,-9.756777423328161,0.03727153398930214,0.21476323902606964,0.008244648575782776,-0.8645528830319642,-0.11436083912849426
1776556126874081300,10.027081298828126,-0.05729574209474699,0.08837814629077911,-0.03857328281802745,-0.16841740906238556,-0.22891258116998314,0.9718903705875538,-0.459936658030834,left,-0.10969436168670654,0.09408007596184462,-0.5590887212118134,-9.747261406964062,0.0392438980080255,0.09187512844800949,0.03373205289244652,-0.9212501911573111,0.05773262679576874
1776556126914081300,10.067081298828125,-0.05886666378629891,0.13357096910476685,-0.03920503486950157,0.01993975043296814,-0.22728799097350738,0.9722622343028133,-0.4565415772379859,left,0.0020776987075805664,0.09349907909896622,-0.5744316170984879,-9.746903679567575,0.03884818281230474,-0.0501861497759819,0.008664343506097794,-0.9155775523483752,0.24843962490558624
1776556126954081300,10.107081298828126,-0.055721288821355804,0.13431306183338165,-0.03722237270910094,0.16335904598236084,-0.22430316920905446,0.973072747486236,-0.4505829330242322,left,0.05801558494567871,0.09046438532468412,-0.5439233738491311,-9.751391638636589,0.03784036352129628,-0.08724731206893921,0.03794099763035774,-0.8859431693241,0.2902398705482483
1776556126994081300,10.147081298828125,-0.04749794952500892,0.05064805597066879,-0.03263581814436677,0.21683961153030396,-0.2226152562425814,0.9736763028545296,-0.44750383192998133,left,0.1433367133140564,0.08569921102768092,-0.4639120813600719,-9.759640996065736,0.03649256246389577,-0.1392144411802292,0.018211673945188522,-0.8393940379865467,0.2877374291419983
1776556127034081300,10.187081298828126,-0.04128218045531917,0.027575770393013954,-0.028978506149044982,0.11869746446609497,-0.22178983902816937,0.9740519825821238,-0.44610554811354164,left,0.17313134670257568,0.0802018576684311,-0.40342418531272556,-9.766798466604948,0.034526713759954766,-0.13672873377799988,0.007170971482992172,-0.7856688044745475,0.24124009907245636
1776556127074081500,10.22708154296875,-0.03488705626927772,-0.022194569930434227,-0.02525342217725865,0.19277232885360718,-0.22165885607350302,0.9742540222067126,-0.44611361235977876,left,0.22171849012374878,0.07466085545133722,-0.34110304595623164,-9.773379598560929,0.032535776619790235,-0.12310061603784561,-0.00940556451678276,-0.7314930507160723,0.15986932814121246
1776556127114081300,10.267081298828124,-0.027454179319153015,-0.10036525875329971,-0.021321111042339726,0.15385204553604126,-0.2228943995730994,0.9740917984328475,-0.4489189382209746,left,0.2750088572502136,0.0714330379976771,-0.2685133913679048,-9.777954651391505,0.03175655063029707,-0.04354208707809448,-0.022875206544995308,-0.6999233887802809,0.09534168243408203
1776556127154081300,10.307081298828125,-0.022345458006619783,-0.12622284889221191,-0.018846017115433367,0.09750878810882568,-0.22509320578048392,0.9736288873796796,-0.4536042556944779,left,0.25377529859542847,0.07087563073232617,-0.21856594109525904,-9.7795872210294,0.03201018720568528,-0.0008203722536563873,-0.02603975124657154,-0.6944708955280482,0.050916511565446854
1776556127194081300,10.347081298828124,-0.01760926011410042,-0.14538253843784332,-0.01653271849124903,0.09196681529283524,-0.22772076286838516,0.9730575128910781,-0.4591607529747306,left,0.2619704008102417,0.0700130993365859,-0.17225608013998717,-9.781107562464475,0.03207735782653699,-0.03886754810810089,-0.022262288257479668,-0.6860333220504224,0.02362370491027832
1776556127234081300,10.387081298828125,-0.013203940761852242,-0.1328590214252472,-0.014175132771301677,0.0957728922367096,-0.2304901383494675,0.9724700971567262,-0.46499691524616954,left,0.2487148642539978,0.06732463198246927,-0.12918953022118657,-9.783580674579738,0.031229406291586728,-0.07374286651611328,-0.021470077335834503,-0.6597306407321244,-0.005822516977787018
1776556127274081300,10.427081298828124,-0.007649731975398827,-0.12427648901939392,-0.011281501223760877,0.1279665231704712,-0.2329120626236834,0.9719479795003138,-0.47014980970057735,left,0.2765071392059326,0.06496070804538923,-0.07485948551672045,-9.785679692685603,0.030690857753885026,-0.024107273668050766,-0.026908382773399353,-0.6365991367958486,-0.036278240382671356
1776556127314081500,10.46708154296875,-0.0028790740683738362,-0.1597190946340561,-0.009106643545403583,0.07322898507118225,-0.23559236422194227,0.9713003650490479,-0.4758219348649117,left,0.27677780389785767,0.06542785130086051,-0.02817382265215274,-9.785626501193642,0.031447671334247015,0.037848424166440964,-0.04546079784631729,-0.641170536364615,-0.05873666703701019
1776556127354081300,10.507081298828124,-0.0003145673520875897,-0.18976154923439026,-0.008145399245308969,0.04957842454314232,-0.239064398561191,0.9704285784691692,-0.48306903499407905,left,0.2269132137298584,0.06684358813820859,-0.003078160198926343,-9.784749133837222,0.03240798642500895,0.019172772765159607,-0.051278963685035706,-0.6550238512806594,-0.06789268553256989
1776556127394081300,10.547081298828125,0.002578435774421696,-0.17756733298301697,-0.006886156226388757,0.07343214750289917,-0.24253922798696567,0.9695614949755483,-0.4903328270631712,left,0.21069657802581787,0.06705443655029784,0.025228768476471302,-9.784579037967324,0.032831270990615766,-0.004496093839406967,-0.06727902591228485,-0.6570869212903082,-0.08011552691459656
1776556127434081300,10.587081298828124,0.00597527145583567,-0.16836322844028473,-0.0052213228166460525,0.07644540071487427,-0.24586583369912723,0.9687381942887776,-0.49730120021756496,left,0.2328498363494873,0.06596608735967249,0.058469409531517885,-9.78514602420032,0.032697567924198596,-0.04876569285988808,-0.0786433219909668,-0.6464374439168721,-0.07885130494832993
1776556127474081300,10.627081298828125,0.009695334345947163,-0.1264631748199463,-0.003244285714432739,0.0729346051812172,-0.24868675798310394,0.9680470992430865,-0.5032248029306139,left,0.27224546670913696,0.06377053606272592,0.09488381265131757,-9.786256615790725,0.032081962075510145,-0.043437547981739044,-0.08109249919652939,-0.6249517344262451,-0.08619647473096848
1776556127514081300,10.667081298828125,0.012457830858961218,-0.09610885381698608,-0.001806949718178227,0.06506619602441788,-0.25078172102833296,0.9675208543334883,-0.5076266160637704,left,0.28074944019317627,0.06240421420838482,0.12192844404387287,-9.786801974713802,0.031760255393760595,-0.03157385438680649,-0.06829772889614105,-0.6115793714275584,-0.0827472060918808
1776556127554081300,10.707081298828125,0.01683967645258932,-0.07989621162414551,0.0005766003297519623,0.1037863940000534,-0.25238223699707457,0.9671278472289214,-0.511039563463125,left,0.33523714542388916,0.05988181233760139,0.1648368351257406,-9.787684602767229,0.03109055261254331,-0.08163298666477203,-0.06794169545173645,-0.5868892764050513,-0.07237031310796738
1776556127594081300,10.747081298828125,0.018836999958026963,-0.13072484731674194,0.0019365221980142515,-0.043381765484809875,-0.2544136200864991,0.9666403856167572,-0.5152444613826883,left,0.27792859077453613,0.05627303349053454,0.18442436457853764,-9.789389653119445,0.029601853361972394,-0.08211838454008102,-0.06471283733844757,-0.5515589102288708,-0.06262092292308807
1776556127634081300,10.787081298828125,0.020857574902591807,-0.10355795919895172,0.003635792368327037,-0.009832579642534256,-0.2566939792051825,0.9661117610871149,-0.5199183869981251,left,0.32464444637298584,0.05011082139229188,0.20427118428833782,-9.792209386715292,0.026889447976841504,-0.1349676549434662,-0.062963105738163,-0.49121382018569854,-0.008186906576156616
1776556127674081300,10.827081298828125,0.01625054705046534,-0.16450168192386627,0.0017444375905883555,-0.1079104095697403,-0.2598691006281933,0.9653250029228055,-0.5263201637393047,left,0.14054572582244873,0.046896157876409085,0.15918103785375132,-9.794574946802854,0.024751053315942146,-0.04647684097290039,-0.01709953509271145,-0.45972584518399084,0.04232937470078468
1776556127714081300,10.867081298828126,0.015042246920381312,-0.08882465958595276,0.0011282062264921459,0.01308836042881012,-0.26237248615810266,0.964655352336029,-0.531474506541048,left,0.051811933517456055,0.04666505755205698,0.14734772099060936,-9.794866038703917,0.024485503194070585,0.03115139901638031,0.017175868153572083,-0.45746199190523473,0.10470499098300934
1776556127754081300,10.907081298828125,0.016420529447514653,-0.05139981582760811,0.0016011993796868895,0.04764363914728165,-0.2634257595258566,0.9643473899558328,-0.5337119536362772,left,-0.036702752113342285,0.04790987549726616,0.16083819394363089,-9.79407693415284,0.025268458266369098,0.03345794230699539,0.04527980089187622,-0.469655849176459,0.12131515145301819
1776556127794081300,10.947081298828126,0.01838305111090588,-0.06576765328645706,0.0023340751050437408,0.048387449234724045,-0.26463054436638767,0.9639914850431953,-0.5362843677286797,left,-0.09373486042022705,0.04927228694048681,0.18004704454345627,-9.793093183812498,0.02618679127778871,0.028188541531562805,0.05395942181348801,-0.48300077617894854,0.1406903862953186
1776556127834081500,10.98708154296875,0.021559987500563458,-0.028436556458473206,0.0038630689460040562,0.15128935873508453,-0.26554624545976724,0.9637255264934232,-0.5382682742521098,left,-0.13496053218841553,0.049090952526598425,0.21115999395400284,-9.792559515327214,0.026523570689010654,-0.0004802141338586807,0.08289199322462082,-0.48122463335189963,0.1211625337600708
1776556127874081300,11.027081298828126,0.026687914076192053,-0.011167164891958237,0.006344404209991374,0.15676820278167725,-0.26621314214710146,0.9635123828576475,-0.53979068498218,left,-0.11854928731918335,0.04885782312702986,0.26137552057830615,-9.791459445130824,0.02709685726794901,-0.034914664924144745,0.11288405954837799,-0.4789411620572209,0.13299566507339478
1776556127914081300,11.067081298828125,0.03138863869784022,-0.061555683612823486,0.008692824798085055,0.07209887355566025,-0.26656019724073704,0.9633900533214015,-0.540628870974734,left,-0.09905421733856201,0.048143571761096085,0.3074100717235356,-9.79046225078702,0.027382106567344622,-0.013014338910579681,0.10464706271886826,-0.4719449830269441,0.10064022988080978
1776556127954081300,11.107081298828126,0.033617627070583536,-0.03174729645252228,0.009886714170977182,0.0915469378232956,-0.2673549365505625,0.9631642416317857,-0.542317578774781,left,-0.16937285661697388,0.047072580415250045,0.3292489055007696,-9.790252407428621,0.027171753080228112,-0.019525645300745964,0.0944712907075882,-0.46145405721608546,0.11181347072124481
1776556127994081300,11.147081298828125,0.0409298902062925,-0.07284018397331238,0.013588972505883434,0.1650431752204895,-0.26795548522293133,0.9629446198318273,-0.5437345986981961,left,-0.13128507137298584,0.04557867726763296,0.4008561614556238,-9.78826094135046,0.027439468627701333,-0.01927632838487625,0.05771197751164436,-0.4468196018597111,0.10881289839744568
1776556128034081300,11.187081298828126,0.04584235111091641,-0.07243355363607407,0.015849248043149626,0.22010233998298645,-0.26951640617632816,0.962448573458705,-0.5471315467430559,left,-0.25866979360580444,0.04600117371483161,0.4489268763372674,-9.78598422859013,0.028327859676310786,-0.013519711792469025,0.06428006291389465,-0.45095852829534555,0.1626584231853485
1776556128074081500,11.22708154296875,0.05088575193912445,-0.1134670078754425,0.018031966916336083,0.040563732385635376,-0.27068943467089374,0.9620376711078185,-0.5497685090573764,left,-0.36184871196746826,0.047516542663699764,0.49824028475638477,-9.782902044665812,0.029760159926759736,0.09166738390922546,0.07315634191036224,-0.4658029731405899,0.17351672053337097
1776556128114081300,11.267081298828124,0.0588747815338985,-0.08660878241062164,0.02205055677019657,0.261680543422699,-0.2728810841444271,0.9613264417099053,-0.5545128805171318,left,-0.4888794422149658,0.04569957065291611,0.5764282708084211,-9.77943816794753,0.030019992481565175,-0.11232611536979675,0.09334157407283783,-0.4480039162734523,0.22951717674732208
1776556128154081300,11.307081298828125,0.06971886594898996,-0.3031380772590637,0.02737184805505967,0.28751340508461,-0.2760960241169513,0.9602452270643064,-0.5614875796064763,left,-0.47201240062713623,0.04411949320756171,0.6824898042246699,-9.773305948802829,0.030835715948262805,0.02318587899208069,0.1420632004737854,-0.4325242787972092,0.19823117554187775
1776556128194081300,11.347081298828124,0.07858811254918112,-0.4081685245037079,0.031408042352175085,0.07590055465698242,-0.2826771687568191,0.9581575353506159,-0.5755002527274432,left,-0.4177824854850769,0.04409453954850043,0.7691445898488164,-9.766879715147613,0.032268662818147754,0.03495648130774498,0.11131922900676727,-0.43227980251684783,0.17791496217250824
1776556128234081300,11.387081298828125,0.08122080191492054,-0.4758913218975067,0.03205322046640811,-0.048574961721897125,-0.2906098444187079,0.9556990140612808,-0.5922799036621275,left,-0.36326146125793457,0.04642744258153734,0.7947710524059831,-9.76378876339495,0.034027830484084066,0.1740577071905136,0.11075369268655777,-0.45513431614264843,0.1044536679983139
1776556128274081300,11.427081298828124,0.08063841299536552,-0.4780283272266388,0.030388473443389116,-0.08838284015655518,-0.2995547057709364,0.9528535954586494,-0.6113442869761893,left,-0.3153688311576843,0.05346733621417396,0.7888069563698024,-9.760814716020226,0.037596481572473486,0.2817218601703644,0.12068333476781845,-0.5240858699569478,0.012557636946439743
1776556128314081500,11.46708154296875,0.07643729766002111,-0.5002131462097168,0.0263161595223546,-0.07770919799804688,-0.30927325032585234,0.9496632431290549,-0.6321276280789416,left,-0.37550777196884155,0.06428505512436358,0.7473171542484313,-9.757818456813693,0.04239321473924728,0.2811276614665985,0.12994980812072754,-0.6299870982449501,-0.04303653538227081
1776556128354081300,11.507081298828124,0.07264284979505355,-0.4039264917373657,0.022597887962413465,-0.2165299355983734,-0.3179649986832615,0.9466899099469126,-0.650747414885825,left,-0.3570933938026428,0.07381063499116391,0.7098185406550764,-9.754155842652917,0.04653810449131053,0.2905372977256775,0.05292889475822449,-0.7231782268352807,-0.08328627049922943
1776556128394081300,11.547081298828125,0.07039827627354428,-0.33581647276878357,0.01975939679902682,0.024933382868766785,-0.32538657212609157,0.9440305196338336,-0.6667541064928171,left,-0.35974669456481934,0.08238001452142912,0.6874616743531078,-9.749184483981132,0.05039336691609715,0.24410097301006317,0.027170874178409576,-0.8069587721973657,-0.10084572434425354
1776556128434081300,11.587081298828124,0.06957072257754959,-0.3879478871822357,0.01698270643163599,-0.04024062305688858,-0.33262460061312865,0.941243499846414,-0.682661515310314,left,-0.360933780670166,0.09421178599953119,0.6786822286352515,-9.739543379932641,0.055973938356974305,0.3206585645675659,-0.02108672261238098,-0.9225361393146216,-0.08059079945087433
1776556128474081300,11.627081298828125,0.0683610806380999,-0.35696303844451904,0.014252040511644424,0.0004029087722301483,-0.34020406647554985,0.9382924069495293,-0.6992343844641868,left,-0.20813888311386108,0.10410186606696453,0.6662445526707917,-9.7307778896749,0.060541438146012025,0.14701619744300842,-0.016230300068855286,-1.0190478636950253,0.035773493349552155
1776556128514081300,11.667081298828125,0.06793348227760089,-0.10886013507843018,0.013053768162129607,-0.09717588126659393,-0.34471660562370027,0.9365381695354931,-0.7090495696918151,left,0.04571855068206787,0.10812744220054663,0.6617997751563787,-9.726890819108485,0.06241954376242653,0.13123659789562225,-0.011203523725271225,-1.058303184762597,0.12261607497930527
1776556128554081300,11.707081298828125,0.06072912725643179,0.09093262255191803,0.008770542435365129,-0.23267894983291626,-0.34494417594132887,0.9364248591662835,-0.7093234511033223,left,0.1412665843963623,0.11330438296035553,0.5913667871452868,-9.725807115525006,0.06359976511852176,0.10848469287157059,-0.00045969337224960327,-1.1087607947807758,0.16476795077323914
1776556128594081300,11.747081298828125,0.049790549956157594,0.250873327255249,0.0035614807815411435,-0.24826191365718842,-0.34195291378637305,0.9376277775855795,-0.7022887154357047,left,0.21962445974349976,0.11507097900914831,0.4848488151984289,-9.729722243142128,0.06252636629711125,-0.04111769050359726,0.014306578785181046,-1.1259723340835421,0.17801624536514282
1776556128634081300,11.787081298828125,0.03912389506065134,0.3611300587654114,-0.0005130838740581915,-0.25211212038993835,-0.33635362705488225,0.9398720708846735,-0.6895315729332372,left,0.3114701509475708,0.11188597085831024,0.38117793977838005,-9.737874569937587,0.05921418719138794,-0.11112947762012482,0.012869026511907578,-1.0949389709815383,0.16060656309127808
1776556128674081300,11.827081298828125,0.027263007213774768,0.46294230222702026,-0.004724797719722814,-0.2702038288116455,-0.3289287955683604,0.9427547372028691,-0.672845759910475,left,0.3621799945831299,0.1065299306728467,0.26581005069334057,-9.74743267187774,0.05474398702589663,-0.1669294834136963,0.010923707857728004,-1.0427271377071738,0.1439986526966095
1776556128714081300,11.867081298828126,0.014683444519342274,0.5307824015617371,-0.00899908846957184,-0.23162595927715302,-0.3198473662831268,0.9461344384084975,-0.6527227832430835,left,0.3787526488304138,0.09951147070111427,0.14327772247218526,-9.757082543754578,0.049459486292082036,-0.20839887857437134,0.029900968074798584,-0.9742645729862153,0.10310244560241699
1776556128754081300,11.907081298828125,0.0032319785608210896,0.5201447606086731,-0.012638699474189623,-0.2349088042974472,-0.3100324947824323,0.9496275777222929,-0.631283849868751,left,0.38916999101638794,0.09134649050411559,0.0315625152423745,-9.7657130094558,0.04390283891934331,-0.21148598194122314,0.034813884645700455,-0.8945579990647733,0.056382425129413605
1776556128794081300,11.947081298828126,-0.0074000957722646695,0.4850543439388275,-0.015919529892942763,-0.19528838992118835,-0.3009210462366282,0.9527526809943301,-0.6115516058817154,left,0.3626543879508972,0.08236770166776236,-0.07232363319643773,-9.77313468388915,0.03814922544610847,-0.24674245715141296,0.055508680641651154,-0.8068383606880902,0.03541914373636246
1776556128834081500,11.98708154296875,-0.015199259307519952,0.4756140410900116,-0.017731149486210223,-0.10877346992492676,-0.29193565373060154,0.955735214335868,-0.5923651969753675,left,0.31824642419815063,0.07174205958493687,-0.14866485887062736,-9.78029390799403,0.0320841082637496,-0.2760635018348694,0.05793098732829094,-0.7029460976023226,-0.00801103562116623
1776556128874081300,12.027081298828126,-0.019209158201035085,0.44492220878601074,-0.017623605978654058,-0.017157085239887238,-0.2832347270542244,0.9585416578744272,-0.5740476409227834,left,0.2673869729042053,0.059468833641916484,-0.18803311139391735,-9.787508077156543,0.025794681240769144,-0.32453155517578125,0.06779986619949341,-0.5828465403528884,-0.0456584207713604
1776556128914081300,12.067081298828125,-0.01914210535230106,0.3851689398288727,-0.015422866799184403,0.04854687303304672,-0.2753163027604012,0.9610399454001541,-0.5575771027539997,left,0.25561046600341797,0.0452388480583453,-0.18751661323914304,-9.79482219956219,0.019110072304122386,-0.35212427377700806,0.0747305154800415,-0.44349042090438306,-0.08994417637586594
1776556128954081300,12.107081298828126,-0.016798969374886712,0.2664329409599304,-0.012209017448878767,0.09426576644182205,-0.2690195417017219,0.9629761881172676,-0.5445776450837877,left,0.2474415898323059,0.03064169827455733,-0.16465672931848094,-9.800663326805829,0.012496661524075386,-0.36031314730644226,0.09511833637952805,-0.3004455664731562,-0.13158933818340302
1776556128994081300,12.147081298828125,-0.012838459042965213,0.12731312215328217,-0.008262087080069588,0.07896865159273148,-0.26537471375501076,0.9640923162535935,-0.5371129253446022,left,0.2554481625556946,0.015627128044667992,-0.12588363880990072,-9.804644505396485,0.005830040252601906,-0.37450867891311646,0.07879016548395157,-0.15324372022664173,-0.1377294659614563
1776556129034081300,12.187081298828126,-0.010034988325622775,0.03514140099287033,-0.004826596227401102,0.036658454686403275,-0.2638724346207507,0.9645445369530851,-0.534076859734863,left,0.2403087019920349,-0.0000988402978681418,-0.09840815998571924,-9.806156079003214,-0.0013716586384788306,-0.3906855583190918,0.04534786194562912,0.0009691223090187122,-0.127077117562294
1776556129074081500,12.22708154296875,-0.008390532454872278,0.00855284370481968,-0.0018160176663733426,0.018473532050848007,-0.2636436106235836,0.9645739838068962,-0.5336903961750794,left,0.22490108013153076,-0.016918813403054327,-0.08227046959269792,-9.804901110506057,-0.00926604359330113,-0.42474812269210815,0.0033204220235347748,0.1659088117388077,-0.11099618673324585
1776556129114081300,12.267081298828124,-0.007817025817624538,0.01008511334657669,0.0005731057711719315,-0.02005450800061226,-0.26350577826103255,0.9645092455207692,-0.5335164066323832,left,0.23097699880599976,-0.032951377269149595,-0.0766166359489318,-9.801026899421215,-0.01692227488541023,-0.3536529839038849,-0.018897604197263718,0.3230839896628633,-0.1213543564081192
1776556129154081300,12.307081298828125,-0.006079060450314807,0.015557542443275452,0.0031627650279875685,-0.017678996548056602,-0.26323676426199083,0.9644489958136105,-0.533040931603052,left,0.3094857931137085,-0.046281772428439255,-0.0595512042857008,-9.795967862465977,-0.02312208303166695,-0.253583163022995,-0.03328756242990494,0.45370698675327,-0.1090460866689682
1776556129194081300,12.347081298828124,-0.003911693024673463,-0.03648839145898819,0.005413317519022745,0.17853280901908875,-0.26356845588269223,0.9642416287764071,-0.5337580192079796,left,0.275848388671875,-0.05536240223867452,-0.03830192476629745,-9.791550046023726,-0.027213389573268933,-0.1973106563091278,-0.020412568002939224,0.5426422479974106,-0.10814890265464783
1776556129234081300,12.387081298828125,-0.000134522845890479,-0.19021150469779968,0.008385081731482292,0.021818891167640686,-0.2660096074276002,0.9634474523801833,-0.5387849058735407,left,0.27912092208862305,-0.06350883254980813,-0.0013167468668398214,-9.78687971612513,-0.03062186939091627,-0.24081046879291534,-0.05804574117064476,0.6223901403099298,-0.0469287745654583
1776556129274081300,12.427081298828124,-0.0007353783071514439,-0.3006821870803833,0.010236835784882744,-0.005402170121669769,-0.2707918379654775,0.9618444236855532,-0.5488899031016724,left,0.10617148876190186,-0.07817488588713198,-0.007189758523751515,-9.7766967602849,-0.03771461375502979,-0.48994001746177673,-0.07058897614479065,0.7658530009575187,0.025650739669799805
1776556129314081500,12.46708154296875,-0.0034729085406674707,-0.30141621828079224,0.01323872436371676,-0.03136768937110901,-0.27670753212548044,0.9594471669921507,-0.5617545694523159,left,-0.029048442840576172,-0.10759021550176744,-0.0338607868139632,-9.749886494770646,-0.052142660045269386,-0.9540997743606567,-0.0943351686000824,1.053065064913407,0.14052844047546387
1776556129354081300,12.507081298828124,-0.003935109254205893,-0.2124054729938507,0.019046141623270785,-0.017249761149287224,-0.28106615932980555,0.9568122050874612,-0.5717239465473785,left,-0.026203691959381104,-0.1485751542910904,-0.038165176326863,-9.6985350777179,-0.07176052027081237,-0.9568620920181274,-0.1302737295627594,1.4516697576478124,0.16350068151950836
1776556129394081300,12.547081298828125,-0.001879264367653238,-0.16920284926891327,0.02549247437069078,0.11200214922428131,-0.2844725942202895,0.9542261409921436,-0.5796340460483755,left,-0.08628726005554199,-0.18494661052944167,-0.018115166761737782,-9.639390814831852,-0.0887579091100554,-0.8266474604606628,-0.1358662247657776,1.8033844697177408,0.19550885260105133
1776556129434081300,12.587081298828124,0.004118750707986901,-0.029993847012519836,0.03283816747795775,0.16502758860588074,-0.28614332124728437,0.9521506597109914,-0.5834286076580764,left,-0.06229525804519653,-0.21514244754437428,0.03945967996667605,-9.580486205920577,-0.10223894056403347,-0.63465815782547,-0.1373789757490158,2.0935881897702813,0.1786487102508545
1776556129474081300,12.627081298828125,0.011362476878451896,0.014096163213253021,0.03957820033143871,0.27725839614868164,-0.2861415597395957,0.9507704770762802,-0.5833099275863454,left,-0.14003849029541016,-0.23827846570148098,0.10827701750863343,-9.528955340647697,-0.1122143317301202,-0.5684624910354614,-0.09403809905052185,2.3146643053218723,0.15723437070846558
1776556129514081300,12.667081298828125,0.02447920747145054,-0.007347291335463524,0.048940056237091585,0.3784342110157013,-0.28627536511095697,0.9492198444960693,-0.5826219195206129,left,-0.12533551454544067,-0.26060827932661035,0.231929718928691,-9.472674065977335,-0.12096653674941628,-0.554238498210907,-0.050509192049503326,2.526863286934793,0.12253975868225098
1776556129554081300,12.707081298828125,0.03796951345547792,-0.12334451824426651,0.05856780494525361,0.35213571786880493,-0.28777137164211125,0.947105366576611,-0.5845558260152958,left,-0.034369587898254395,-0.2825981054469732,0.35749793511386957,-9.410873735624552,-0.12941715353335753,-0.568522036075592,0.030252303928136826,2.734600320702791,0.12097039818763733
1776556129594081300,12.747081298828125,0.043578409843420096,-0.2241765856742859,0.0645366864699024,0.38296401500701904,-0.29186316783400573,0.944314583926617,-0.5928888870965313,left,-0.17204582691192627,-0.3020290738495162,0.4078845257224515,-9.35386180859208,-0.1375528273006113,-0.5290528535842896,0.1109386682510376,2.917067011874914,0.21848666667938232
1776556129634081300,12.787081298828125,0.04496613412325371,-0.19331029057502747,0.06770251671229592,0.3175594210624695,-0.29624169011292717,0.9418987542417524,-0.6022995172467909,left,-0.5820337533950806,-0.31490382213897833,0.4191416501328349,-9.314994025537372,-0.1431217564877068,-0.3756552040576935,0.11382371187210083,3.0373648316428064,0.1922522783279419
1776556129674081300,12.827081298828125,0.05261056928831151,-0.25987160205841064,0.07342822580366203,0.24312525987625122,-0.30114380708608257,0.939421406754333,-0.6118051131275216,left,-0.402213454246521,-0.32480807434610787,0.4887306250678375,-9.281020444265007,-0.14631452327099953,-0.2639119625091553,0.08834594488143921,3.129565853217244,0.24312260746955872
1776556129714081300,12.867081298828126,0.05847975617568539,-0.22250917553901672,0.07865041246383087,0.24433504045009613,-0.30616000332741283,0.9367065036709953,-0.6218680341561004,left,-0.35766035318374634,-0.3364885110995744,0.5410204554818571,-9.240867882096767,-0.15053559902359237,-0.3117386996746063,0.09527251124382019,3.237906400948763,0.28389772772789
1776556129754081300,12.907081298828125,0.06602601512844346,-0.1536535918712616,0.08469953133721646,0.2582087516784668,-0.30976377798364807,0.9341972096110772,-0.6286735080777885,left,-0.35820329189300537,-0.349911696753135,0.6078158176429569,-9.192323339158296,-0.15539607688299817,-0.3791634142398834,0.10358765721321106,3.361865373572707,0.3153868317604065
1776556129794081300,12.947081298828126,0.07455686925487529,-0.05361036956310272,0.09127602361244778,0.18501237034797668,-0.31167071987134476,0.9319347203799779,-0.63168912944142,left,-0.32388293743133545,-0.3656920501345858,0.6821741624042391,-9.132757635989785,-0.16133079650005092,-0.3664354383945465,0.11644279211759567,3.5068156962990757,0.29612696170806885
1776556129834081500,12.98708154296875,0.08136511234439202,0.047069668769836426,0.09626755463799286,0.11078650504350662,-0.3114599662191723,0.9306096323489086,-0.6303306005377706,left,-0.3036930561065674,-0.3786694032591232,0.7405745481204241,-9.08177563677132,-0.16640569465860905,-0.24722792208194733,0.1377831995487213,3.62536608787775,0.21181249618530273
1776556129874081300,13.027081298828126,0.08268371340833819,-0.0422610267996788,0.09793644342224517,-0.098587267100811,-0.31093107159216404,0.929979237808844,-0.6291277001187523,left,-0.3056986927986145,-0.38647509569234356,0.7501891294881701,-9.052313395443559,-0.16990856601204685,-0.19782690703868866,0.14752312004566193,3.696379944516718,0.09413298964500427
1776556129914081300,13.067081298828125,0.07710342188734245,-0.04153135418891907,0.0973482291028957,-0.11485494673252106,-0.3111795720243327,0.9287309682768824,-0.6310122709564748,left,-0.36770451068878174,-0.3989081366297708,0.69606919757016,-9.009839112329482,-0.17649184116844815,-0.4318429231643677,0.16440753638744354,3.8090249114438888,0.03208738565444946
1776556129954081300,13.107081298828126,0.06865968662057423,-0.0959579348564148,0.09621853518481474,-0.2543151378631592,-0.31068489229539903,0.927121663769457,-0.6321602246328247,left,-0.37508100271224976,-0.41698608544430504,0.6151433840520679,-8.945228985252976,-0.186178015359666,-0.49524685740470886,0.13532419502735138,3.9717584358811377,-0.05672335624694824
1776556129994081300,13.147081298828125,0.05895821501147718,-0.1463480144739151,0.0955016361941246,-0.116678386926651,-0.3111626670291438,0.9245631714677532,-0.6361066403944228,left,-0.28024691343307495,-0.439766861781635,0.5228658631753176,-8.858138146299122,-0.19809107963511574,-0.6515895128250122,0.11059081554412842,4.174970685701072,-0.021095186471939087
1776556130034081300,13.187081298828126,0.05253963455874116,-0.18320231139659882,0.09723032492002184,-0.10178819298744202,-0.31260182142264087,0.9209337232679705,-0.6419735475132884,left,-0.010710537433624268,-0.4670289126928041,0.45984917930271474,-8.744372066387534,-0.21144117105466986,-0.630897045135498,0.07177570462226868,4.415300660037994,0.07834416627883911
1776556130074081500,13.22708154296875,0.04747275581334306,-0.2553046643733978,0.09964073493291954,-0.044607847929000854,-0.3154340567500013,0.9168942256102902,-0.6507606910707827,left,0.13666647672653198,-0.4920198877791249,0.41017128495275973,-8.6336519300431,-0.2233338188524882,-0.588489294052124,0.010399587452411652,4.632731404824555,0.16708651185035706
1776556130114081300,13.267081298828124,0.03962250327857607,-0.25019729137420654,0.1005082918754749,-0.04487175494432449,-0.3187028146595976,0.913050158514701,-0.6612627441447856,left,0.18094664812088013,-0.5132607163963455,0.3384080712512135,-8.53633897228241,-0.23380745511924694,-0.4196648597717285,-0.012178823351860046,4.815265316013992,0.19510549306869507
1776556130154081300,13.307081298828125,0.033995849861210875,-0.31879210472106934,0.10143479169265962,0.0296177938580513,-0.32344079256272573,0.9097075885469792,-0.6740575845787269,left,0.27427053451538086,-0.5259175783577927,0.28827722723567856,-8.476514910438656,-0.23985207045791193,-0.2159939706325531,-0.09099075198173523,4.923005267503857,0.14600104093551636
1776556130194081300,13.347081298828124,0.0264857473763948,-0.2974773645401001,0.1008461451852623,0.0023608841001987457,-0.32887130328771663,0.906878596499789,-0.6885574412332722,left,0.27834975719451904,-0.5326340476933157,0.223729497870896,-8.44519622758925,-0.24340273059195328,-0.11512725055217743,-0.12292691320180893,4.979858789104223,0.09449338912963867
1776556130234081300,13.387081298828125,0.020400740285752474,-0.2789112627506256,0.10020688207891053,0.005665281321853399,-0.3339118496079202,0.9046175546826349,-0.7016094779578429,left,0.29791462421417236,-0.5358414688190171,0.17200988682657478,-8.43038853455782,-0.24521092648268192,-0.04984555393457413,-0.1431666612625122,5.006929751381278,0.008467376232147217
1776556130274081300,13.427081298828124,0.014689826759637413,-0.2412712275981903,0.09938333781491676,0.06913910806179047,-0.3386905574948675,0.9026504283226284,-0.7138785499707667,left,0.2731322646141052,-0.5373437980255639,0.1237514856194146,-8.423702188661695,-0.2462390328479705,-0.006147913634777069,-0.1237601488828659,5.019592249077558,-0.03469124436378479
1776556130314081500,13.46708154296875,0.013693471772890453,-0.1961463987827301,0.09960088766846005,0.11641198396682739,-0.34318181285731364,0.9014170427065281,-0.7237946373116686,left,0.2699909806251526,-0.5340868737435133,0.11558167796619236,-8.44012374663055,-0.2444444945285937,0.17793139815330505,-0.106843963265419,4.992127319046855,-0.12584581971168518
1776556130354081300,13.507081298828124,0.01324752675245031,-0.19149795174598694,0.09923741178634778,0.09298881888389587,-0.347750880002661,0.9007463366901962,-0.7333106694541175,left,0.25623852014541626,-0.5263923149897812,0.1123233702899888,-8.478333358037471,-0.24057690259685874,0.1740299016237259,-0.09218141436576843,4.927030869758129,-0.1446458101272583
1776556130394081300,13.547081298828125,0.01443637763949774,-0.1730344593524933,0.10008674112703357,0.17462189495563507,-0.3519554661209809,0.8996842656199322,-0.7419346352462276,left,0.21396148204803467,-0.5222496015097448,0.12269636880960315,-8.498530342891812,-0.23807183884953206,0.037213146686553955,-0.08291251212358475,4.891862233482301,-0.16989755630493164
