time,seconds_elapsed,z,y,x
1776017887925787400,0.087787353515625,-0.01362228263914585,0.11711612099185585,0.10687076743990183
1776017887935849500,0.097849365234375,-0.025060206976532936,0.10221212797909975,0.10010068878307939
1776017887945910500,0.10791064453125,-0.018825696501135827,0.07434183201789855,0.05676065568514168
1776017887955971600,0.1179716796875,-0.039219665232300756,0.041411476188153024,-0.010568959483131767
1776017887966032400,0.128032470703125,-0.030497429594397545,0.06976794823110104,-0.045398938389122484
1776017887976093400,0.138093505859375,-0.028018472260236738,0.11310191691443323,-0.043462782694771884
1776017887986155500,0.148155517578125,-0.06134849493205547,0.14183701301142573,0.01573145681284368
1776017887996216600,0.158216552734375,-0.09924187999665736,0.11848229477852583,0.048799394482374185
1776017888006277400,0.16827734375,-0.09635083473026752,0.09290507819056511,0.038534167186170816
1776017888016338400,0.17833837890625,-0.04234335021078586,0.015588322015106676,-0.017410934332385657
1776017888026399500,0.1883994140625,-0.06074643738567829,0.03290770560652018,-0.05425312984362244
1776017888036460300,0.198460205078125,-0.078365680706501,0.07642097637951374,-0.03324387875832617
1776017888046522400,0.2085224609375,-0.11145254227221012,0.10636910152807831,0.009885288067907094
1776017888056583400,0.21858349609375,-0.13149638239145278,0.06776245362758636,0.018942966205254198
1776017888066644500,0.22864453125,-0.07274316464960574,0.0437599390104413,0.008444587740302085
1776017888076705500,0.23870556640625,-0.025657003825902937,0.04015256216824054,-0.03966806658692658
1776017888086766600,0.2487666015625,0.012202478969097137,-0.01943155343979597,-0.08756284037977456
1776017888096828400,0.258828369140625,-0.0397492420643568,0.017272914101183413,-0.14560286835096775
1776017888106889500,0.268889404296875,-0.015213351222872732,0.06737213913574815,-0.11321904048807918
1776017888116950500,0.278950439453125,-0.05351648613214492,0.12321268430128693,-0.11635894594900309
1776017888127011600,0.289011474609375,-0.08867080162167548,0.15658771515861153,-0.09152648331373929
1776017888137072400,0.299072265625,-0.0728892951220274,0.09294584859237075,-0.0035068390771746632
1776017888147133400,0.309133544921875,0.052103112202882766,0.01575081910043955,0.03085391488187015
1776017888157195300,0.3191953125,0.15456804589927195,0.011896774020791053,0.016306991678476334
1776017888167256300,0.32925634765625,0.16821137132644653,0.052973903688043354,-0.0031889322344213723
1776017888177317400,0.3393173828125,0.14360124620497225,0.12685571697875855,-0.05835990757532417
1776017888187378400,0.34937841796875,0.06953238590955733,0.1524932854518294,-0.09941972078159451
1776017888197439500,0.359439453125,-0.060687400674819945,0.09191007580384611,-0.06571596942655741
1776017888207501300,0.369501220703125,-0.14407529345750808,0.019849924982339142,-0.06020633915960789
1776017888217562400,0.379562255859375,-0.042530981737375254,0.004448065450042486,-0.02895275743566453
1776017888227623400,0.38962353515625,0.0183475575953722,0.03929463016465306,0.052701443422213196
1776017888237684500,0.3996845703125,-0.0472346293836832,0.05752995955720543,0.12544321983233092
1776017888247745500,0.40974560546875,-0.079646952688694,0.026630817294120788,0.14577891903761772
1776017888257806600,0.419806640625,-0.03689502167701721,-0.01741363774612546,0.17348522007614373
1776017888267868400,0.429868408203125,-0.02815700394809246,-0.001261544368416071,0.22603574725296346
1776017888277929500,0.439929443359375,-0.05537175861001015,0.1133143906213343,0.19720855242572724
1776017888287990300,0.449990234375,0.028525252738595006,0.18313845295384526,0.05484671182259917
1776017888298051300,0.46005126953125,0.15408932247161863,0.1900092155061662,-0.030655944624356925
1776017888308112400,0.4701123046875,0.20574469090700148,0.17665230580493807,-0.03751728176120669
1776017888318174500,0.480174560546875,0.13512334071695803,0.15511121286526322,0.01552468219436705
1776017888328235300,0.4902353515625,-0.02850596351623535,0.11534691936224699,0.051738882000371814
1776017888338296300,0.50029638671875,-0.12837678906619548,0.031711627689749,0.11348529020883143
1776017888348357400,0.510357421875,-0.1041553710013628,0.00543824553117156,0.0948540203012526
1776017888358418400,0.52041845703125,-0.015075988578796386,0.03949892056509852,0.049278556301444766
1776017888368480500,0.53048046875,0.023010288709402082,0.10196794395968317,0.03122954326122999
1776017888378541600,0.54054150390625,-0.0003191489517688751,0.19058321600183845,0.035276590162329376
1776017888388602400,0.550602294921875,0.004907061263918876,0.16631503618583082,0.018736191586777567
1776017888398663400,0.560663330078125,0.09752104755342006,0.09811901344656944,-0.020333689911291003
1776017888408724500,0.570724365234375,0.030469372543692586,0.05536094495505094,0.07380958830472081
1776017888418785300,0.580785400390625,-0.2295902613967657,0.09351371160820127,0.26609537044074383
1776017888428847600,0.59084765625,-0.1726303568124771,0.08438523325696587,0.23412384970579295
1776017888438908400,0.600908447265625,0.06012392157316208,0.06794789319708942,0.08359474046640097
1776017888448969500,0.610969482421875,0.08069850756824017,0.11981135142520069,0.03978464217130095
1776017888459030300,0.6210302734375,-0.08287760517299175,0.2140484088718891,0.038443730690050866
1776017888469091300,0.63109130859375,-0.17909750699996949,0.2228421023108065,0.07085177967874333
1776017888479153400,0.6411533203125,-0.062086746078729625,0.2186633553214371,0.07985858614537865
1776017888489214500,0.65121435546875,0.11626140385866164,0.21984759666994214,0.06857954216413199
1776017888499275500,0.661275634765625,0.18645722211301324,0.2723220264032483,0.13390517883254213
1776017888509336600,0.671336669921875,0.2254951010376215,0.30740400730893014,0.13876071083862335
1776017888519397400,0.6813974609375,0.22507892145216463,0.2529470254562795,0.13318700235951692
1776017888529458400,0.69145849609375,0.1371907946407795,0.2075149154499173,0.1023350054400973
1776017888539520500,0.7015205078125,0.12010931145846843,0.2148928968720138,-0.0037860578773543235
1776017888549581600,0.71158154296875,0.10246201108694077,0.19396102187186479,-0.09682473585233092
1776017888559642600,0.721642578125,0.03397884196937084,0.13869272363632917,-0.08274020599629729
1776017888569703400,0.731703369140625,0.06256546950638293,0.11012816180065274,-0.05922227829201147
1776017888579764500,0.741764404296875,0.07141746900379657,0.1205965104535222,-0.010508735462184995
1776017888589826300,0.751826416015625,0.06800210760235786,0.1252316229082644,0.01973210728894919
1776017888599887400,0.761887451171875,0.033901100558042525,0.14177081590741872,0.052432453755103046
1776017888609948400,0.771948486328125,0.012858312529325485,0.1343218150757253,0.055476278430409726
1776017888620009500,0.782009521484375,0.04892331312298774,0.07828384764194488,0.03484946905774995
1776017888630070500,0.792070556640625,0.08173194226920605,0.0411675844296813,-0.018911091495957225
1776017888640132400,0.80213232421875,0.09636603229939937,0.044034810429066415,-0.056242038638517254
1776017888650193400,0.812193359375,0.06830781255066394,0.06670929131284356,-0.04744545912276953
1776017888660254500,0.82225439453125,0.04232172290086746,0.08352569381818174,-0.0687642328149639
1776017888670315500,0.8323154296875,0.017016016730666158,0.08147197615876793,-0.07788109379364178
1776017888680376600,0.84237646484375,-0.037000235617160794,0.096238022005558,-0.08789039183370768
1776017888690437400,0.852437255859375,-0.06443886216282844,0.052762891285866496,-0.07421974000819027
1776017888700499000,0.8624990234375,-0.0071831895023584365,0.08864829752892256,-0.10043116284646093
1776017888710559700,0.872559814453125,0.016049802047014235,0.16631722814291713,-0.10155351793989538
1776017888720620800,0.882620849609375,-0.0013631050467491149,0.1983775231398642,-0.06019908743491396
1776017888730681900,0.892681884765625,-0.019757424393296242,0.15922200918495655,-0.04251129065621644
1776017888740743000,0.902742919921875,0.0007715688943862914,0.10183730331733823,-0.013485212256014347
1776017888750805000,0.912804931640625,-0.034866146197915074,0.0699222620099783,0.011333039190806448
1776017888760866000,0.922865966796875,-0.014016834914684294,0.07080225971490145,0.015623667323123662
1776017888770926800,0.9329267578125,0.023258125990629194,0.08685323080569506,-0.05398372005140409
1776017888780988000,0.94298779296875,0.006888005948066711,0.10874050683453679,-0.12556755859805271
1776017888791049000,0.953049072265625,-0.033683073893189426,0.0645034518316388,-0.14591425412138923
1776017888801110000,0.963110107421875,-0.05763794997632503,0.05472250092104077,-0.11718127691624686
1776017888811172000,0.973172119140625,-0.10010697239339351,0.024693565621227025,-0.06922889118464663
1776017888821233200,0.983233154296875,-0.12711422178447246,0.04806669629365205,0.008773143841233105
1776017888831293700,0.993293701171875,-0.07013152084648609,0.07656067711114883,0.07678058520583435
1776017888841354800,1.003354736328125,0.013531097224354744,0.05661109114661812,0.0461423406349495
1776017888851415800,1.013415771484375,0.083481416285038,0.07130027236491442,0.008740063555538654
1776017888861478000,1.023477783203125,0.14208850355446337,0.11328048835173249,0.005184763960447162
1776017888871539000,1.0335390625,0.14281447974145411,0.10427198311835527,-0.013803502691257744
1776017888881600000,1.04360009765625,0.11888766070902347,0.07620178067088126,-0.04050343969883397
1776017888891661000,1.0536611328125,0.0638262832224369,0.07421206815838813,-0.03984700335040688
1776017888901721900,1.063721923828125,0.016222820526361464,0.08377367722988129,-0.01890639705453068
1776017888911783000,1.073782958984375,-0.01561257967352867,0.08060074628219008,0.016440737593360243
1776017888921845000,1.083844970703125,-0.088861940279603,0.10441372967660427,-0.001882343147881329
1776017888931906000,1.093906005859375,-0.07237783846855163,0.09327171954587102,-0.012735142807383089
1776017888941967000,1.103967041015625,-0.039323710128664965,0.0632483372040093,-0.042150677182897923
1776017888952028200,1.114028076171875,-0.04416530494093895,0.06590411240980029,-0.05385472337687388
1776017888962088700,1.124088623046875,-0.044293315234780306,0.050907472677528855,-0.048703916484955694
1776017888972151000,1.134151123046875,0.02575929515659809,0.07298413379862904,-0.019596242482215163
1776017888982211800,1.1442119140625,0.03934475291669368,0.04324555974751711,0.05692065028613433
1776017888992273000,1.15427294921875,0.11277648435235023,0.07292246673926711,0.07514476416492834
1776017889002334000,1.164333984375,0.20946751082241533,0.1079939262509346,0.04278722152076661
1776017889012395000,1.17439501953125,0.19312544783055782,0.1718830455765128,-0.011129808236286044
1776017889022455800,1.184455810546875,0.06473813737034798,0.18060542734488844,-0.0048251916667446495
1776017889032518000,1.194517822265625,-0.02705459566414356,0.1327110188782215,-0.01823927491530776
1776017889042579000,1.204578857421875,-0.08068973973989486,0.07383753575757146,-0.003623999183438718
1776017889052640000,1.214639892578125,-0.18860475553572176,0.0434082029633224,0.04603007589951157
1776017889062701000,1.224701171875,-0.20764146443903445,0.03768807175084948,0.04823200639057904
1776017889072762000,1.23476220703125,-0.17252689643800256,0.09074921533092856,0.03841112532839179
1776017889082824000,1.244823974609375,-0.12028700611293315,0.13720336186140775,0.025882063019741323
1776017889092885000,1.254885009765625,-0.05008826524913311,0.14744798476099968,0.022921715376805513
1776017889102946000,1.264946044921875,0.06017828210890293,0.12700973849669098,0.022575477488711474
1776017889113006800,1.2750068359375,0.15982231316566467,0.08783186657950282,0.021196754747722295
1776017889123068000,1.28506787109375,0.1831955899685621,0.078935443418473,-0.03353559171389788
1776017889133129000,1.29512890625,0.13396423380970954,0.12235972073376178,-0.04986211007675156
1776017889143190800,1.305190673828125,0.08609422913193703,0.145252228282392,-0.06284859729669988
1776017889153251800,1.315251953125,0.04313654641509056,0.1570486106686294,-0.07000088020414114
1776017889163313000,1.32531298828125,0.009364625194668769,0.11808306632786988,-0.06522109858170151
1776017889173374000,1.3353740234375,0.03248246593177318,0.06787701991796494,-0.041817463173158466
1776017889183435000,1.34543505859375,0.014150105905532836,0.06643295858949422,-0.03885189136583358
1776017889193496800,1.355496826171875,0.02257248181402683,0.09255904123187064,-0.053086314553953705
1776017889203558000,1.365557861328125,0.06931903541982173,0.1316375444278121,-0.0709113826451823
1776017889213619000,1.375618896484375,0.06625847880542278,0.12254194543287157,-0.08214826798513532
1776017889223680000,1.385679931640625,0.06988543713092804,0.10636106435209512,-0.11794690926019101
1776017889233741000,1.395740966796875,0.07245148822665214,0.08248363741934299,-0.13021207820195704
1776017889243801900,1.4058017578125,-0.0107575408577919,0.0866362270541489,-0.10602346642818301
1776017889253864000,1.415864013671875,-0.11107611017525196,0.09964505397006869,-0.05566606538146734
1776017889263924700,1.4259248046875,-0.12814239578843117,0.03434022262766957,-0.047826275133900344
1776017889273985800,1.43598583984375,-0.1346598148584366,-0.034810324357450004,-0.02025225870553404
1776017889284046800,1.446046875,-0.1703822856247425,-0.02686199570149183,-0.009364332933723926
1776017889294108000,1.45610791015625,-0.11980185294449329,0.013949176505953073,-0.009094612614251672
1776017889304170000,1.466169921875,-0.026526772397756575,0.06385887031778693,-0.016326828890107573
1776017889314231000,1.47623095703125,0.05682371098399162,0.0895288797557354,-0.06047503656577319
1776017889324291800,1.486291748046875,0.056250879532098765,0.08817936484292149,-0.06875730988383293
1776017889334353000,1.496352783203125,0.039243630629777905,0.10842676471024751,-0.0808304633848369
1776017889344414000,1.5064140625,-0.01988426564335823,0.10232581748664378,-0.06451086795311421
1776017889354475000,1.51647509765625,-0.03855155671238899,0.03577186286598444,-0.06495243770815431
1776017889364537000,1.526537109375,-0.09920388607382774,-0.014706570744514464,-0.04412844352927059
1776017889374598100,1.53659814453125,-0.06898176628947257,-0.04025806836932897,-0.05571501908972859
1776017889384659000,1.546658935546875,-0.09107377111017703,-0.043945816971361636,-0.05450283028837293
1776017889394719700,1.5567197265625,-0.12908756768405436,-0.00042480128332972523,-0.014916998624801635
1776017889404780800,1.56678076171875,0.0556523291170597,0.025795097122341393,-0.07577274160385132
1776017889414843000,1.5768427734375,0.215865102905035,0.057868251600861544,-0.16975494750663636
1776017889424904000,1.586904052734375,0.27622634036540983,0.13782733897864818,-0.2581866431428119
1776017889434965000,1.596965087890625,0.4004577001899481,0.19995280963256953,-0.24782818460520356
1776017889445026000,1.607026123046875,0.26639994287788865,0.24354002242460845,-0.20372940556183455
1776017889455086800,1.6170869140625,0.009581482815742491,0.25800124010592695,-0.1440633107587695
1776017889465148000,1.62714794921875,0.08964987578690052,0.17364874007478356,-0.0966700932798907
1776017889475210000,1.6372099609375,0.26593583249747754,0.10170257102176547,-0.03881035377904773
1776017889485271000,1.64727099609375,0.3537017942339182,0.13050810200646518,-0.033406521974131465
1776017889495332000,1.65733203125,0.3813029178649187,0.23927169745564458,0.04841620385106653
1776017889505393200,1.66739306640625,0.36783728709220886,0.2696291340574622,0.1590643344052136
1776017889515453700,1.67745361328125,0.1828553982287645,0.26527707632780073,0.2449262526186183
1776017889525514800,1.6875146484375,-0.020675123760104178,0.1958599873609841,0.320889402228035
1776017889535576800,1.697576904296875,-0.007619242832064628,0.046430327263474465,0.1997142516363412
1776017889545638000,1.707637939453125,-0.03358955039083957,-0.06412088225483895,-0.02577211810555309
1776017889555699000,1.717698974609375,-0.1320487555772066,-0.0626117928661406,-0.1829017581211403
1776017889565760000,1.727760009765625,-0.2075608004182577,-0.09210428320169449,-0.2682769522635266
1776017889575820800,1.73782080078125,-0.1754535975396633,-0.10338760149925946,-0.2566457338437438
1776017889585883000,1.7478828125,-0.07026479183733463,-0.05071531110629439,-0.18715850225016473
1776017889595944000,1.75794384765625,-0.04857844520807266,0.014882219572365282,-0.0911457403678447
1776017889606005000,1.7680048828125,-0.12531564792990685,0.07511793095692992,-0.044387277128547425
1776017889616066000,1.778066162109375,-0.1515291165947914,0.050747605940699575,-0.026482567929849026
1776017889626127000,1.788127197265625,-0.18989537986814975,-0.052218993667513126,-0.03718465227335691
1776017889636188000,1.79818798828125,-0.21594459788203238,-0.11017375450804828,-0.07106529456526041
1776017889646250000,1.80825,-0.1711801580041647,-0.10774287409931421,-0.11133205769769847
1776017889656311000,1.81831103515625,-0.14492694185078142,-0.1071190431125462,-0.07683101848512887
1776017889666371800,1.828371826171875,-0.21656477560698983,-0.11125760422199964,-0.024574213557876645
1776017889676433000,1.838432861328125,-0.18304127618968485,-0.09858166252225636,-0.021692849435284732
1776017889686494000,1.848493896484375,-0.0979506711423397,-0.09961670465841889,-0.0071107087880373
1776017889696555500,1.858555419921875,-0.2247287928402424,-0.14333850361555814,0.007490684548951685
1776017889706617600,1.86861767578125,-0.33872751246392724,-0.18215338743925094,-0.017221768435835838
1776017889716678700,1.8786787109375,-0.18740590113997457,-0.18525266862884163,-0.05537924779672175
1776017889726739700,1.88873974609375,-0.055818333333730694,-0.12184987151548266,-0.08164353333339094
1776017889736800800,1.89880078125,0.02126373730301857,0.010325871442258357,-0.09814462281186133
1776017889746861600,1.908861572265625,0.04126023114919662,0.1255935880884528,-0.08373579290490597
1776017889756923600,1.918923583984375,0.030979660153388974,0.13815598641112445,-0.10241755089070648
1776017889766984400,1.928984375,-0.003022562691569328,0.09730579736754298,-0.09180226804781705
1776017889777045500,1.93904541015625,-0.12677578361034392,0.03803849262371659,-0.06222180716786533
1776017889787106600,1.9491064453125,-0.15542787759900092,0.03717120826989412,-0.03588219137266278
1776017889797167600,1.959167724609375,-0.12146247963309287,0.04868599723577499,-0.03005954963378608
1776017889807228700,1.969228759765625,-0.13304828800857066,0.0828469177737832,-0.025792211045511066
1776017889817290500,1.97929052734375,-0.13271803314089775,0.10090732899084687,0.016013488624617458
1776017889827351600,1.9893515625,-0.06352583897113799,0.12135142047405242,0.028084267505444585
1776017889837412600,1.99941259765625,-0.0536830748707056,0.1405237384557724,0.03579641278535128
1776017889847473700,2.0094736328125,-0.09185352331101894,0.17931056522876024,0.06470379670932888
1776017889857534700,2.01953466796875,-0.08659107273817061,0.20341741700321433,0.07019990990757942
1776017889867596500,2.029596435546875,-0.06163958683311939,0.1857446899294853,0.05051478356551379
1776017889877657600,2.03965771484375,-0.05826981813907623,0.16339330352023243,0.04138590335547924
1776017889887718700,2.04971875,-0.08053601048290729,0.17780936688557267,0.04861801003348082
1776017889897779500,2.059779541015625,0.006583470043540001,0.16879954647794365,0.027554179216735062
1776017889907840500,2.069840576171875,0.1345411569148302,0.24133666716143487,-0.011667349179089069
1776017889917901600,2.079901611328125,0.13498013285398483,0.32911621903181076,-0.009112915455922483
1776017889927963400,2.08996337890625,0.1008136593580246,0.3559191780224442,-0.0063593424314633005
1776017889938024400,2.1000244140625,0.10086042110919952,0.34784809976965186,0.0042995603574439885
1776017889948085500,2.11008544921875,0.08197218076586722,0.3152281250633299,0.03752290778439492
1776017889958146600,2.120146484375,0.06100421153903007,0.2863565431050956,0.08398410511016845
1776017889968207600,2.13020751953125,0.13202479017972946,0.26229879116937516,0.0923082813411951
1776017889978268700,2.1402685546875,0.21802783389687536,0.24537483663633464,0.09125822429899126
1776017889988330500,2.15033056640625,0.27523674480617044,0.2676176481045782,0.06719060855638236
1776017889998391600,2.1603916015625,0.34524726962149144,0.32786519605740905,0.025859905986860394
1776017890008452600,2.17045263671875,0.278051802226901,0.30241598976328965,-0.02214696814464405
1776017890018513400,2.180513427734375,0.15857377440929413,0.24879428969100117,-0.08671458951998502
1776017890028574500,2.190574462890625,0.10580606081783771,0.12920812532380221,-0.09943312825243919
1776017890038636500,2.200636474609375,0.07194061609506607,0.23356676381230354,0.060474360712338235
1776017890048697300,2.210697265625,0.02842179236412048,0.3417616194628179,0.0737818600475788
1776017890058758400,2.22075830078125,0.035410920599102974,0.3346041489236057,0.031249508337024598
1776017890068819500,2.2308193359375,0.029009821385145185,0.18139263219982385,-0.0209024479762651
1776017890078880500,2.240880615234375,-0.022903905725479123,0.0987546810016036,-0.01723906663050875
1776017890088941600,2.250941650390625,-0.04120353252589702,0.07721051932200788,0.011706092020589857
1776017890099003600,2.261003662109375,0.022680033841729164,0.09583119477033615,0.03473722258862108
1776017890109064700,2.271064697265625,0.08557108204066753,0.128266752820462,0.03327787235947326
1776017890119125500,2.28112548828125,0.1016150388687849,0.16688348372355102,0.013910397131834179
1776017890129186600,2.2911865234375,0.1016933648020029,0.18813465380594133,0.02385210982840508
1776017890139247600,2.30124755859375,0.1309995387852192,0.1852693275026977,0.021069876965042204
1776017890149308400,2.311308349609375,0.1290992581218481,0.10140943329408764,0.016504541810881346
1776017890159370800,2.321370849609375,0.12435995464026928,0.08137976783066987,0.03985272070514038
1776017890169431600,2.331431640625,0.09404255778789519,0.10111673395782708,0.06625930078933015
1776017890179492400,2.341492431640625,0.07199731471836567,0.08048296512141823,0.09014653673004358
1776017890189553400,2.351553466796875,0.08760463369488716,0.035919162382185454,0.03877126387767493
1776017890199614500,2.361614501953125,0.08040157044827938,0.03749401048347354,-0.008641863878071308
1776017890209676500,2.371676513671875,0.16320669490695,0.08182225090116262,-0.02405187018420547
1776017890219737600,2.381737548828125,0.2485556586295366,0.13426277836486697,-0.08713223041016607
1776017890229798700,2.391798583984375,0.15534546001255511,0.12662833796367048,-0.12352580537106841
1776017890239859500,2.401859375,-0.13208499593436718,0.06790916862189769,-0.10301767220832407
1776017890249920500,2.41192041015625,-0.4164525571793318,-0.08641717747598886,-0.02147829336915165
1776017890259981600,2.421981689453125,-0.5080266790270805,-0.25811317604780193,0.07389375945683568
1776017890270043600,2.432043701171875,-0.39236148749589916,-0.2821988389037549,0.20642043474409727
1776017890280104700,2.442104736328125,-0.18863456615209578,-0.16368439542129634,0.19013554529957472
1776017890290165800,2.452165771484375,0.024604864424467087,-0.021318682360649106,0.12400986256096512
1776017890300226600,2.4622265625,0.06793313401937484,0.10511179494336247,0.07132873127441852
1776017890310287400,2.472287353515625,-0.008425298517942428,0.14592764332592487,0.041530499457940455
1776017890320348400,2.482348388671875,-0.0316191271007061,0.059077188999205825,0.03915566008538007
1776017890330410500,2.492410400390625,-0.048746787512302395,-0.012607991030067205,0.04814896774962544
1776017890340471600,2.502471435546875,-0.07007716031074523,-0.020569179167598484,0.08039689427316188
1776017890350532600,2.51253271484375,-0.06903846491277217,-0.016627894195914268,0.06365089012291282
1776017890360593700,2.52259375,-0.09554185643494129,-0.016862871995568275,0.050777233893983066
1776017890370654500,2.532654541015625,-0.16193945145010946,-0.03649623161777854,0.046214529088325795
1776017890380715500,2.542715576171875,-0.1996609870791435,-0.06442264168038964,0.06367149451952427
1776017890390777600,2.552777587890625,-0.19284312375783919,-0.03833236100375652,0.06087101361341774
1776017890400838700,2.562838623046875,-0.16124796205461026,-0.022367899152636525,0.032357378247380254
1776017890410899700,2.572899658203125,-0.17230419359803198,0.008128653658926486,0.048938802953064436
1776017890420960800,2.582960693359375,-0.1767699408352375,0.004824351416528224,0.05444609513245523
1776017890431021600,2.593021484375,-0.10312427438795566,-0.019081424827873707,0.04513020445033908
1776017890441083600,2.603083740234375,-0.017394786915183067,-0.047871904373914004,0.018486783402971923
1776017890451144400,2.61314453125,0.0004898293435573578,-0.03791676594018936,-0.013748575899936258
1776017890461205500,2.62320556640625,-0.012673019090294836,0.01151478896588087,-0.03395217315815389
1776017890471266600,2.6332666015625,0.00041150341033935545,0.04533551776409149,-0.0445956957148388
1776017890481327600,2.64332763671875,-0.052124739512801166,0.0809080586656928,-0.048172019831649954
1776017890491388700,2.653388671875,-0.0932101986169815,0.06212108673974871,-0.004986592773534357
1776017890501450500,2.663450439453125,-0.11075111600458622,0.03948167716935277,-0.014147877415828406
1776017890511511600,2.673511474609375,-0.15194588070213794,0.022862112410366533,-0.028663747893832622
1776017890521572600,2.683572509765625,-0.1304933428287506,0.021787030524760484,-0.003046601154282689
1776017890531633700,2.693633544921875,-0.0466378325343132,0.08882248505204915,-0.040762985684163866
1776017890541694700,2.70369482421875,-0.02742810515165329,0.13019845153540371,-0.059865087973885234
1776017890551756500,2.713756591796875,-0.05876023200452327,0.12923559785261748,-0.04749291499368846
1776017890561817600,2.723817626953125,-0.13974457077682018,0.11461699765250086,-0.04993238056767731
1776017890571878700,2.733878662109375,-0.2115858181506395,0.07735548075065016,-0.06926836467850953
1776017890581939500,2.743939453125,-0.18905366834700107,0.0699080873541534,-0.1053245974438265
1776017890592000500,2.75400048828125,-0.12772738524675367,0.08494418231397867,-0.13886263684313743
1776017890602061600,2.7640615234375,-0.07810030776858329,0.14396189621090888,-0.10395327255800366
1776017890612123400,2.774123291015625,-0.08818097227811812,0.1381792211562395,-0.09068630616255104
1776017890622184400,2.784184326171875,-0.09185235426723956,0.10516922421902418,-0.06261234085541219
1776017890632245500,2.79424560546875,-0.07717500961720943,0.12316972194239496,-0.08900989738292991
1776017890642306600,2.804306640625,-0.15372750342190264,0.16046031880825756,-0.12517594719827174
1776017890652367600,2.81436767578125,-0.22351824800670145,0.18211948516964913,-0.17529848004318774
1776017890662428700,2.8244287109375,-0.17441431761980056,0.15580869361013172,-0.22859124042205511
1776017890672490500,2.834490478515625,-0.12341653631031513,0.17006079858541487,-0.2698730988811701
1776017890682551600,2.844551513671875,-0.06591302636861801,0.2575362529426813,-0.18279128348398951
1776017890692612600,2.854612548828125,-0.03637830432653427,0.2737580505557358,-0.018733524705655872
1776017890702673000,2.8646728515625,-0.01059504377245903,0.2056894535884261,0.14387779812403023
1776017890712734000,2.87473388671875,-0.029713001218438145,0.15001125937774776,0.13292721891216933
1776017890722795000,2.884794921875,-0.16211948419213293,0.10464271612688898,0.0780618754543364
1776017890732857000,2.894857177734375,-0.2371972292691469,0.10534881856963038,0.01149297899287194
1776017890742918000,2.90491796875,-0.26153087553679943,0.12890578137636183,-0.018185425836220383
1776017890752979000,2.91497900390625,-0.15554069032371043,0.13876359691545367,-0.054336497278138995
1776017890763040000,2.9250400390625,0.0008300210833549499,0.22019962497800588,-0.049614327594451606
1776017890773101000,2.93510107421875,0.1957750855565071,0.3145569478034973,0.005168196418136358
1776017890783163100,2.9451630859375,0.3435363740503788,0.3990126159481704,0.041833866318687796
1776017890793224000,2.955223876953125,0.4621645070403814,0.44878772359490393,0.02022208276297897
1776017890803285000,2.965284912109375,0.5015519300550222,0.41298122780695556,0.05985467617772519
1776017890813345800,2.975345703125,0.4977864400416612,0.3687240067988634,0.10679404894188047
1776017890823406800,2.98540673828125,0.5145183791339397,0.3662259063728153,0.09569014233183115
1776017890833468000,2.995468017578125,0.4546896411150694,0.303222922232002,0.07998148187268525
1776017890843530000,3.005530029296875,0.28827275198996066,0.23117884576246142,0.06862455034963787
1776017890853591000,3.015591064453125,0.20183833111822605,0.20453546124771235,0.03584912935327738
1776017890863652000,3.025652099609375,0.17106033101677895,0.21666677467674017,0.006744396226294338
1776017890873713000,3.035712890625,0.14119184697568415,0.23188918598890304,0.033066366766951974
1776017890883774000,3.04577392578125,0.17844985674619673,0.27247619405165313,0.02061301830932498
1776017890893835000,3.0558349609375,0.24107144035398959,0.33081030959859486,0.013798515988886356
1776017890903897000,3.06589697265625,0.25445114640891553,0.36855142671093344,0.03865056010745466
1776017890913958100,3.075958251953125,0.2880886275947094,0.3094067254334688,0.08237330891266464
1776017890924019000,3.08601904296875,0.3708674485683441,0.2616165079936385,0.12392170935347675
1776017890934080000,3.096080078125,0.3498988948196172,0.2665912276662886,0.14982337212283164
1776017890944140800,3.106140869140625,0.26916882306933404,0.24823387932926416,0.13451105403751135
1776017890954203000,3.116202880859375,0.2736930224955082,0.21292013549432157,0.13550601989161223
1776017890964264000,3.126263916015625,0.19524024802744389,0.18280322965011,0.09792623082082719
1776017890974325000,3.136324951171875,0.10137187776267528,0.14509046184942126,0.08214443206023424
1776017890984386000,3.146385986328125,0.058061728346347805,0.08299933185651898,0.07660674474257975
1776017890994447000,3.156447021484375,0.031041619473695752,0.05109159707278013,0.05846004348155111
1776017891004508000,3.1665078125,-0.005889642560482025,0.08708221725597977,0.06751125534549356
1776017891014570000,3.176570068359375,0.07546411404609679,0.09883461437001824,0.024113062319532034
1776017891024631000,3.186631103515625,0.1738976002693176,0.09406403896734118,-0.025465390243940053
1776017891034692000,3.196692138671875,0.1643430054605007,0.04951265731826424,-0.09466938444934785
1776017891044753200,3.206753173828125,-0.018808745366334916,0.0015920914970338344,-0.18082034873720257
1776017891054814000,3.21681396484375,-0.0864087019085884,-0.018377514342218636,-0.1816569456918165
1776017891064875000,3.226875,-0.0577700519233942,-0.0676290365062654,-0.20721805139519273
1776017891074936800,3.236936767578125,-0.06658230393230914,-0.12733911658152938,-0.14725319284126162
1776017891084998000,3.246997802734375,-0.07165712297856808,-0.10139920416101812,-0.12009546559620649
1776017891095059000,3.257058837890625,-0.13819091159403324,-0.14981646745800972,0.04969572226759046
1776017891105120000,3.2671201171875,-0.3057423577070236,-0.17027181098759173,0.20729118969663976
1776017891115181000,3.27718115234375,-0.2893313211321831,-0.19948168498948216,0.2508994452767074
1776017891125243000,3.287242919921875,-0.26605156783163547,-0.21172624953463673,0.20603863235227762
1776017891135304000,3.297303955078125,-0.27619185357391834,-0.15230872266516088,0.08483648415580392
1776017891145365000,3.307364990234375,-0.24535130963027477,-0.08344459140598773,-0.03572846211567521
1776017891155426000,3.317426025390625,-0.20165537576675413,-0.04278422584608197,-0.06424129376411437
1776017891165487000,3.327487060546875,-0.14981822102367878,0.01865823097974062,-0.04983418089020997
1776017891175548200,3.337548095703125,-0.13386661865413188,0.04413783241212368,-0.08018814689330757
1776017891185610000,3.34760986328125,-0.07656301519870758,0.03592427694872021,-0.08091671689618378
1776017891195671000,3.357671142578125,-0.03253273481428623,0.08660685482919216,-0.0932784050149843
1776017891205731800,3.36773193359375,0.015554127484560011,0.07097294010668992,-0.12687339876592157
1776017891215793000,3.37779296875,-0.0068313073247671125,0.05942059560939669,-0.15262922332379966
1776017891225854000,3.38785400390625,-0.09443535649776458,0.08724807534217834,-0.20713541461303828
1776017891235915000,3.3979150390625,-0.12102291917204856,0.1125325925938785,-0.21750475987084208
1776017891245976800,3.407976806640625,-0.07515607101023197,0.16357348239272831,-0.21642138508092612
1776017891256038000,3.418037841796875,-0.038158758002519604,0.18968597490116954,-0.19930819158609955
1776017891266099000,3.428098876953125,0.045993104889988895,0.21229776581227777,-0.20058175518587232
1776017891276160000,3.438159912109375,0.14759119262397288,0.2387242927059531,-0.13857380996439606
1776017891286221000,3.448220947265625,0.19277648826241492,0.21801132115349173,-0.15064933808557687
1776017891296283000,3.458282958984375,0.22796762863099573,0.18799758342280984,-0.1877266575269401
1776017891306344000,3.468343994140625,0.23265023348927497,0.18951617129221557,-0.17052103650830686
1776017891316405000,3.478405029296875,0.14140695103108883,0.2616914729259908,-0.10487137378361075
1776017891326466000,3.488466064453125,0.06390519367754459,0.2076128228664398,-0.028316614956595
1776017891336526800,3.49852685546875,0.04315291302800178,0.11181523810476064,-0.007854878218844532
1776017891346588000,3.508587890625,-0.05319909074604511,0.08051818256527185,0.020926979629322884
1776017891356650000,3.51864990234375,-0.11368892302215099,0.08045096254795789,0.018034692253917455
1776017891366710800,3.528710693359375,-0.1280225688010454,0.04675780565217137,-0.10914196377489715
1776017891376771800,3.538771728515625,-0.14679039763510227,0.035442192520201206,-0.13955602593477814
1776017891386833000,3.5488330078125,-0.20000351690649984,0.058453796403855084,-0.2112015315407887
1776017891396894000,3.55889404296875,-0.18080606448352335,0.06981310254707931,-0.22031912317182867
1776017891406955000,3.568955078125,-0.09558861818611622,0.03604746493697166,-0.15295659211464224
1776017891417017000,3.57901708984375,0.046908466169238085,0.022761136253923175,-0.0857362825397402
1776017891427078000,3.589077880859375,0.11319967820048332,0.05893909570276737,-0.002405490239150822
1776017891437139000,3.599138916015625,0.05692132613956928,0.12919190484136342,0.1155448530871421
1776017891447200000,3.609199951171875,0.0512561399847269,0.17861556870192288,0.13895787737853824
1776017891457261000,3.619260986328125,0.02544423785805702,0.1711512241706252,0.14393376609496772
1776017891467323100,3.6293232421875,-0.06064473057687282,0.052323623085767025,0.10672576947864144
1776017891477384200,3.63938427734375,-0.06559037028551101,-0.08922551289498805,0.07654723310768603
1776017891487445000,3.649445068359375,0.017206570866703987,-0.11279913457557558,0.02104238616991788
1776017891497505800,3.659505859375,0.19459727394878862,0.059859279287606475,0.1374683329405263
1776017891507566800,3.66956689453125,0.3460661847889423,0.30782939311414953,0.3364753861555829
1776017891517628000,3.6796279296875,0.3054243777990341,0.43558541993349786,0.4223391309998929
1776017891527690000,3.68968994140625,0.011717325800657272,0.4863680971875787,0.5597739635296166
1776017891537751000,3.6997509765625,0.46950259484350676,0.5574984198130667,0.9090899438947438
1776017891547812000,3.70981201171875,0.2693950330406427,0.382532313529402,0.3796801389686763
1776017891557873000,3.719872802734375,-0.5335357988148928,-0.5904055408976971,-0.36220972953401503
1776017891567934000,3.729933837890625,-0.16796996378600595,-0.8563326055668294,-0.3698566640906036
1776017891577995000,3.7399951171875,-0.013895254361629486,-0.30281477982252836,-0.02777903748117387
1776017891588057000,3.75005712890625,-0.22483400678038595,0.15822496097162364,0.07743146859630942
1776017891598118100,3.7601181640625,-0.32645372182428833,0.30555151131004094,0.2034406882809475
1776017891608179200,3.77017919921875,-0.4164361905664205,0.16083660477474332,0.2888705352200195
1776017891618240000,3.780239990234375,-0.535842322191596,0.062261956515163176,0.500038383686915
1776017891628300800,3.79030078125,-0.31203590489327904,-0.010489099179953337,0.33194406286887823
1776017891638363000,3.80036279296875,0.2959258970916271,-0.22545915294140575,-0.01106403125738725
1776017891648424000,3.810423828125,0.2805500487834215,0.1733782525703311,-0.32924053953122345
1776017891658485000,3.820485107421875,0.11297171466350554,0.42555546269789335,-0.492320941177383
1776017891668546000,3.830546142578125,0.39315819083154196,0.5160824135802686,-0.334638927976042
1776017891678607000,3.840607177734375,0.5667886645972728,0.36108649765774603,-0.15114313121819867
1776017891688668000,3.85066796875,0.24400690928399563,0.23781799151599406,-0.06674894746979698
1776017891698730000,3.86072998046875,0.02960311110317707,0.22052812628000973,-0.022463395416364072
1776017891708791000,3.870791015625,-0.06602408552765845,0.42306160005554555,0.07049019809104502
1776017891718852000,3.88085205078125,-0.19490999315977095,0.28315102506205436,0.08064590059816837
1776017891728913200,3.8909130859375,-0.21954408367872236,0.020075696562230586,0.02005114664286375
1776017891738974200,3.90097412109375,-0.21675240713357924,-0.23427082042843103,-0.030655213971994815
1776017891749035000,3.911034912109375,-0.3440314640909433,-0.26321327566578984,-0.061741074446216224
1776017891759097000,3.92109716796875,-0.2992728694319725,-0.24913389690890908,-0.17983181262388825
1776017891769158100,3.931158203125,-0.074814710226655,-0.1398047765314579,-0.23722524978723375
1776017891779219200,3.94121923828125,0.10007014751434326,0.013076046933233738,-0.30207884849710387
1776017891789280300,3.9512802734375,0.38477731597721576,0.29667686158940193,-0.3006967282226309
1776017891799341300,3.96134130859375,0.6514426317930221,0.4816220717042684,-0.3442039711136371
1776017891809403100,3.971403076171875,0.43641397971212864,0.5550605251416564,-0.24206874429564923
1776017891819464200,3.981464111328125,0.14766191977262497,0.5985317103385925,-0.15814203192852436
1776017891829525000,3.99152490234375,0.06026537587046623,0.34485461704209447,-0.0985339509230107
1776017891839586000,4.0015859375,-0.3324158450990915,0.03838876736611128,-0.013651874059811234
1776017891849647000,4.011647216796875,-0.4576502444863319,-0.20699863649085162,-0.019146964344754814
1776017891859708200,4.021708251953125,-0.4351256934672594,-0.23805486901178954,-0.12490275628007948
1776017891869770000,4.03177001953125,-0.2505056236535311,-0.16912088738679884,-0.23579729934334753
1776017891879831000,4.0418310546875,-0.09843582431077956,-0.009786211607605219,-0.24603300828412172
1776017891889892000,4.05189208984375,-0.03476794652044773,0.08819880019575357,-0.1759726895103231
1776017891899953200,4.061953125,-0.010874445235729217,0.13952654411196708,-0.05525386785138398
1776017891910014200,4.07201416015625,0.051639001822471615,0.24657515233680605,0.08163964260956272
1776017891920075300,4.0820751953125,0.0330219796359539,0.36945553594380615,0.17484140219176186
1776017891930137000,4.09213720703125,0.08755670289993285,0.39419893205612894,0.16601451886929572
1776017891940198100,4.1021982421875,0.058630468145012854,0.2690601019978523,0.09071586105059831
1776017891950259200,4.11225927734375,0.012568389672040938,0.1620503644786775,0.030718945124279706
1776017891960320000,4.122320068359375,-0.007700491374731063,0.10326090637966989,-0.05151391413807869
1776017891970381000,4.132381103515625,-0.01734510255455971,0.08866744062080979,-0.13043162097046151
1776017891980443000,4.14244287109375,-0.020054946035146713,0.05660115427449345,-0.25993679301207884
1776017891990504000,4.15250390625,-0.03114449532628059,0.09398600529506802,-0.32208975446112453
1776017892000565000,4.16256494140625,-0.022129998743534086,0.16476809900477526,-0.240482406685967
1776017892010626000,4.1726259765625,0.015913023924827574,0.2183865842066705,-0.13039946313337422
1776017892020687000,4.18268701171875,0.04807517186105251,0.27154008224532006,-0.03834585980614647
1776017892030748200,4.192748046875,0.08696165961623191,0.27887977748364207,-0.017852851147297767
1776017892040810000,4.20281005859375,0.14807634579241274,0.2388740764401853,-0.022878935681004076
1776017892050871000,4.21287109375,0.22693068679869174,0.21373992744460701,-0.026516278403205796
1776017892060932000,4.22293212890625,0.18917349533438682,0.19937223326563833,-0.02396355257993564
1776017892070993200,4.2329931640625,0.21358020683825016,0.14675912571400404,-0.09032501683579758
1776017892081054200,4.24305419921875,0.2556412329763174,0.04112067654803395,-0.1970543482447043
1776017892091115000,4.253114990234375,0.18697218589782713,0.004282499624788761,-0.29666959159839895
1776017892101177000,4.263177001953125,0.09943594126403331,0.08967983253374695,-0.2931312979370355
1776017892111238000,4.27323779296875,0.08679974705278873,0.16956702371910212,-0.2491190463996492
1776017892121299000,4.283298828125,0.1293646310597658,0.12008695349618792,-0.1528692060921341
1776017892131360000,4.293360107421875,0.16540508173406124,0.07156725273802876,-0.07859103216128423
1776017892141421000,4.303421142578125,0.23136662341952322,0.08463000179827213,-0.09911359570818021
1776017892151483100,4.313483154296875,0.2687386149585247,0.1917899614430964,-0.026835034629330037
1776017892161544200,4.323544189453125,0.29240356818437574,0.15723039697632193,-0.024101737207919357
1776017892171605000,4.33360498046875,0.5072673850923777,-0.11669891849309205,-0.1587396690281108
1776017892181666000,4.343666015625,0.6922767464846372,-0.5879042256012559,-0.29564532658457754
1776017892191727000,4.35372705078125,0.49080724867880343,-0.4473861862339079,-0.3737968530837446
1776017892201788200,4.3637880859375,0.011727262672781943,-0.13441373114287852,-0.1576610069459304
1776017892211850200,4.373850341796875,-0.4224053281038999,0.1873202686831355,0.10527600906174629
1776017892221911300,4.383911376953125,-0.264316122341156,0.45934199696555733,0.14557773390971124
1776017892231972000,4.39397216796875,0.2237427044123411,0.17451324794963002,-0.17745613300111143
1776017892242033000,4.404032958984375,1.687093839764595,0.024401596937328577,-0.11741992624402045
1776017892252094000,4.414093994140625,1.4819026910871267,-0.42305400127097964,-0.411027755651623
1776017892262155000,4.424155029296875,1.6427005712866782,-0.7197467910818756,-0.5441623337041587
1776017892272217000,4.434217041015625,1.1174638142615556,-0.8877547487907111,-0.7504129283066838
1776017892282278100,4.444278076171875,0.7586725879341364,-0.7087795529961586,-0.5815188354130834
1776017892292339200,4.454339111328125,-0.7575041286766528,-0.5349753300987183,-0.09847732536494731
1776017892302400000,4.46439990234375,-1.6889555419832467,-0.22843027770668267,0.33684812845811246
1776017892312461000,4.4744609375,-1.3240876260906458,0.1331834586955607,0.31494083255454897
1776017892322523100,4.484523193359375,-0.36521979807019234,0.30215587752237916,-0.13589929352551697
1776017892332584200,4.494584228515625,0.2702320683866739,0.21844971257075665,-0.9214609112985431
1776017892342645200,4.504645263671875,0.18825579596757888,0.05511135410815477,-1.6529785119339824
1776017892352706300,4.514706298828125,-0.550525512060523,0.1869070117071271,-1.894328330837935
1776017892362767000,4.52476708984375,-0.9784358673214912,0.7755689238078892,-1.5109676036603747
1776017892372828000,4.534827880859375,-0.9081137923389673,1.3129074759066104,-0.728183195515722
1776017892382890000,4.544889892578125,-0.528740381231904,1.655713928247243,-0.14909984362125395
1776017892392951000,4.554950927734375,-0.4924515087544918,1.4704172743462025,0.6047079147554933
1776017892403012000,4.56501220703125,0.31160511226058,0.593032820661366,0.5715747298300266
1776017892413073200,4.5750732421875,0.8008961111575364,-0.5779790439143777,0.8368108896255493
1776017892423134200,4.58513427734375,0.5437900663256645,-0.8916412348352372,1.1293844075493513
1776017892433196000,4.595196044921875,0.2305190666794777,-0.35730274133533235,0.7213067338749766
1776017892443257000,4.605257080078125,-0.02634089443683624,0.09394245841428638,0.2169689724937081
1776017892453318100,4.615318115234375,-0.1745955194056034,0.15755188401564954,-0.17400047612190245
1776017892463379200,4.625379150390625,-0.5447130263894796,0.11685951588228344,-0.327787893037498
1776017892473440300,4.635440185546875,-0.19563012412786482,-0.183243374633044,-0.1080472638733685
1776017892483501300,4.645501220703125,-0.09282032251656055,-0.5454169368751347,0.10201207536235452
1776017892493563100,4.655563232421875,-0.03767126674652099,-0.6627743192769586,0.30807080065459014
1776017892503624200,4.665624267578125,0.37869478119313715,-0.4446180366948247,0.5524050421968102
1776017892513685000,4.67568505859375,0.661036389568448,-0.06243278303742408,0.6644917907193303
1776017892523746000,4.68574609375,0.7852490446925163,-0.2640710615389049,0.7083481758415698
1776017892533807000,4.69580712890625,0.36446985648572444,-0.46714887132421135,0.8955965483322739
1776017892543869000,4.705868896484375,0.115391635286808,-0.19180413609892127,1.0769875730969012
1776017892553930000,4.715929931640625,0.4747288050591945,0.1322412094093859,0.9260723506167531
1776017892563991000,4.725990966796875,0.9060404931962489,0.19171601942405103,0.6278469444110989
1776017892574052000,4.736052001953125,1.123501925382018,0.005377601385116577,0.2471595280960202
1776017892584113200,4.746113037109375,1.03334410007298,-0.03538388646170497,-0.014010405173897742
1776017892594174200,4.75617431640625,1.0387041658014058,0.40447789561673997,0.06723550714403391
1776017892604236000,4.766236083984375,0.11219313150644301,0.43232378778904673,0.19381153039857743
1776017892614297000,4.776297119140625,-0.3789893802255392,0.11162468396872281,0.6896217019312083
1776017892624358100,4.786358154296875,0.12644903587400913,-0.11887392444461584,0.9892211729690432
1776017892634419200,4.796419189453125,0.974046107929945,-0.20452618196271358,0.9427901150532066
1776017892644480000,4.80647998046875,1.1833259872257709,-0.08715900881923734,0.7108072594314813
1776017892654542000,4.8165419921875,0.5226952558487653,0.049739159550517796,0.29775486608445645
1776017892664603000,4.826602783203125,0.2932230678737163,-0.09389372390173376,0.0740161071948707
1776017892674664000,4.836663818359375,0.4757382743626833,-0.3209082165263593,0.11845730646774172
1776017892684725000,4.84672509765625,0.33187048617601395,-0.21095161190032957,0.1242670156598091
1776017892694786000,4.8567861328125,-0.06917991921007632,0.018011749769747256,0.22726956336423754
1776017892704846600,4.8668466796875,-0.5845791728317737,0.37530765950549394,0.35604674992486834
1776017892714908700,4.87690869140625,-0.8337520865768193,0.4936821465279907,0.5898403082303703
1776017892724969700,4.8869697265625,-0.7372101131886244,0.3088290351433679,0.8081466668076813
1776017892735030500,4.897030517578125,-0.736418086028099,0.10615133059155195,0.6931251800075173
1776017892745091600,4.907091552734375,-0.8376222060084343,-0.0898010112280026,0.6010518764659762
1776017892755152400,4.91715234375,-0.4723725973218679,-0.10860128102693706,0.5128321796126664
1776017892765213400,4.92721337890625,-0.19492343716323374,-0.07533120838142932,0.21205197435766457
1776017892775275500,4.937275634765625,-0.5843646532982587,-0.07170834170915186,0.058093584789335725
1776017892785336600,4.947336669921875,-1.0784311960339545,-0.0574224075295031,0.3331625718131661
1776017892795397600,4.957397705078125,-1.2015817748844624,-0.117229847032018,0.6733801767043769
1776017892805458400,4.96745849609375,-1.1655647050857543,-0.31081538665499536,0.6857600580669939
1776017892815519500,4.97751953125,-1.098037229257822,-0.5121591757219285,0.5980982873573899
1776017892825581600,4.98758154296875,-1.0220423693358898,-0.21042685737386344,0.3440367247879505
1776017892835642600,4.997642578125,-0.4081324726015329,0.9244658652681856,0.4378256000757217
1776017892845703700,5.00770361328125,-0.36243805839717386,2.034346165598184,0.4465329304054379
1776017892855764700,5.0177646484375,0.21600655720233916,1.169743890466541,-0.3204934982456267
1776017892865825500,5.027825439453125,0.8913269081890582,-0.0896379844197072,-0.38201881104931235
1776017892875886600,5.037886474609375,0.6511497863262892,-0.27810546864289787,-0.5515199299253523
1776017892885948700,5.04794873046875,-0.702961806628108,0.1305778427744284,-2.5687439880698917
1776017892896009500,5.058009521484375,-1.1852210071921347,0.8776827790442854,-1.094195166876912
1776017892906070500,5.068070556640625,0.47852059855759144,0.8504359487436711,0.7162460894845426
1776017892916131600,5.078131591796875,1.9506793097436428,0.4342036101862788,0.11511427965015172
1776017892926192600,5.088192626953125,2.7854303442299364,0.5698131635176018,-0.627227643468976
1776017892936254500,5.09825439453125,3.0336610086888074,0.4505833748400211,-0.8369032440841198
1776017892946315500,5.1083154296875,3.0798943520754576,-0.4319146224662661,-0.28366043588891626
1776017892956376600,5.11837646484375,3.1062837618291375,1.2250654532592742,-0.41548794993087645
1776017892966437600,5.128437744140625,2.8882576814979313,1.8858748291388152,-1.274888126374781
1776017892976498700,5.138498779296875,2.0521564014464615,1.0203146687604487,-2.639770119668543
1776017892986559700,5.148559814453125,1.8829484202980995,1.6190774113759399,-2.3492627404943107
1776017892996621600,5.15862158203125,2.143606020131707,1.9505520301021635,-1.9556687885940074
1776017893006682600,5.1686826171875,1.796985124069452,1.0545919822197407,-1.5736664902880786
1776017893016743700,5.17874365234375,1.6240069767326115,0.5087764014158398,-1.6322823453858495
1776017893026804500,5.188804443359375,1.6539835973232984,1.0242027622401715,-1.7690844329699873
1776017893036865500,5.198865478515625,1.6990309457957744,1.8631489103287457,-1.973099523605406
1776017893046927400,5.20892724609375,1.9794822103798388,2.041567787414789,-1.692136802367866
1776017893056988400,5.218988525390625,1.8656939186364412,1.1874489123746752,-0.7163125788494944
1776017893067049500,5.229049560546875,2.3282073852449656,0.9112012369602918,-0.41436026107519863
1776017893077110500,5.239110595703125,2.202663773778081,0.8251515776224434,0.08155307857096195
1776017893087171600,5.249171630859375,1.372336400952935,0.7818409898146986,0.19972528448700905
1776017893097232600,5.259232666015625,0.7702987283200025,1.3606538542047142,0.014603110370039939
1776017893107294500,5.26929443359375,0.7053291202813387,2.241393901927769,-0.19522329689264295
1776017893117355500,5.27935546875,0.3941378495186567,2.7300015947356817,0.12540829464942216
1776017893127416600,5.28941650390625,0.2601525729209184,2.439698505961895,0.630407442548871
1776017893137477600,5.2994775390625,0.9325357014119624,1.9337150232002138,1.2987404188662766
1776017893147538700,5.30953857421875,1.475564720237255,2.3802871165722608,2.3522972858846187
1776017893157600800,5.319600830078125,1.7608201702326536,3.1402737097144127,3.709640115845203
1776017893167661600,5.32966162109375,1.9929209531456231,3.1709923808440563,4.309977414301038
1776017893177722400,5.339722412109375,0.028991116684675217,3.874093011420965,4.450778800654411
1776017893187783400,5.349783447265625,-2.1610276950538156,4.129878036782145,3.470103045451641
1776017893197844500,5.359844482421875,-2.6585394098073243,2.6294986087620256,2.3932693477421996
1776017893207905500,5.369905517578125,-2.664474060553312,2.133706557407975,1.5948901878416537
1776017893217967600,5.379967529296875,-2.4795672827526927,2.2160522476613522,1.5205828426152468
1776017893228028400,5.3900283203125,-2.1162398743003608,1.7729104209989308,1.9115403085321188
1776017893238089500,5.40008935546875,-1.9339149296864866,1.1773247009843588,2.3340005816936493
1776017893248150500,5.410150634765625,-1.5571499475121497,0.860086551272869,2.3321184212088584
1776017893258211600,5.420211669921875,-1.1185714832425118,0.9618354456543922,2.039190536889434
1776017893268273700,5.430273681640625,-1.3714794918626545,1.1240718342244624,1.4577327109485865
1776017893278334700,5.440334716796875,-2.3612366714045403,0.8432464756309985,1.0419324801981449
1776017893288395500,5.4503955078125,-3.328379283556342,0.7760293809264898,1.0007178417563438
1776017893298456600,5.46045654296875,-3.797980078077316,0.3454273023635149,1.6409774007558822
1776017893308517400,5.470517333984375,-3.834282394558191,0.7687970915853977,2.4174603706687687
1776017893318579700,5.480579833984375,-3.014309827008843,0.3559299916774034,3.3502024083077906
1776017893328640500,5.490640625,-2.2716963934719563,-0.42117666309177876,3.5229046613126993
1776017893338701600,5.50070166015625,-1.6951941441118716,-0.37996260917186736,3.362066449102759
1776017893348762600,5.5107626953125,-1.8594710985988376,-0.2632780114650726,2.8168688540667293
1776017893358823400,5.520823486328125,-2.4740602097690103,-0.5216226581811905,1.9549796372860668
1776017893368884500,5.530884521484375,-2.8857968443423507,-0.7750175735354423,1.5441069260656832
1776017893378946600,5.540946533203125,-3.0033114631325004,-1.178265781226754,1.4166688791543245
1776017893389007600,5.551007568359375,-2.8365140502572057,-1.6189871027439833,1.3570897319823503
1776017893399068700,5.561068603515625,-2.435274844300747,-1.7621026112586258,1.64456227350533
1776017893409129700,5.571129638671875,-1.8741583801209925,-2.2936375916451213,2.1553747838586568
1776017893419190500,5.5811904296875,-1.293038407832384,-2.609475226908922,2.660788650038838
1776017893429252600,5.591252685546875,-0.6378546898148953,-2.334721297183633,3.0384464893996714
1776017893439313700,5.601313720703125,-0.31584866811446843,-2.402303133547306,3.1499066304564476
1776017893449374700,5.611374755859375,-0.6213396814089268,-3.223964969357848,3.2803818531066176
1776017893459435500,5.621435546875,-1.7762357660293577,-4.015363184329867,3.2794121312916276
1776017893469496600,5.63149658203125,-3.082278616863489,-4.6557472464919085,2.6753794854491946
1776017893479557600,5.6415576171875,-3.609821312743425,-4.790159224069118,1.986152774184942
1776017893489619500,5.651619384765625,-2.9973966861307617,-4.832309097534417,1.2108429397046565
1776017893499680500,5.661680419921875,-2.459188803851604,-5.00498563157618,0.1250906070023775
1776017893509741600,5.671741455078125,-3.0307915907323357,-5.282294506481289,-0.26629122180640696
1776017893519802600,5.681802734375,-4.063687362515926,-6.043595689353347,-0.3582528816670179
1776017893529863700,5.69186376953125,-4.437793062353134,-6.126244161945581,-0.5049854116350412
1776017893539925500,5.701925537109375,-4.176249911856651,-5.343666382288933,-0.5925976441144943
1776017893549986600,5.711986572265625,-3.1964123610436914,-4.50122946947515,-0.16320903299450873
1776017893560047600,5.722047607421875,-1.5372633437812326,-3.701162210357189,0.36416882771253584
1776017893570108700,5.732108642578125,-0.2916343373775482,-2.8553292253643274,0.7538444371253251
1776017893580169700,5.742169677734375,0.2021978120803833,-2.6194109299898147,1.3444728269934654
1776017893590230500,5.75223046875,0.1957831957977265,-2.4568127223700285,1.6164064386010168
1776017893600292400,5.762292236328125,-0.2655004002222791,-2.2943910403609276,1.2285942849725484
1776017893610353400,5.772353515625,-0.12206802604449912,-1.7521289142549037,0.9301543592333793
1776017893620414500,5.78241455078125,0.3826631003022194,-0.00984860931932926,0.6825245832771063
1776017893630475500,5.7924755859375,0.33539749125838275,1.9013339718163011,-0.3648328445792198
1776017893640536600,5.80253662109375,-0.3489513848364353,2.954810759335756,-2.206641445237398
1776017893650598400,5.812598388671875,-1.9020622860908507,3.5851410449951886,-3.1086990062773228
1776017893660659500,5.822659423828125,-3.6603304337531326,2.2215514295995233,-2.5763351738512514
1776017893670720500,5.832720458984375,-4.457086376366019,-0.15853461144268513,-2.0348563070774075
1776017893680781600,5.842781494140625,-4.707713580572605,-0.2776531582981348,-1.4777882415056227
1776017893690842600,5.852842529296875,-3.657878364425897,0.6274871711879968,-0.9709680156588554
1776017893700903700,5.862903564453125,-2.0720675550967456,1.5848060162007809,-0.6753864019602537
1776017893710965800,5.8729658203125,-0.7387620188057422,2.7314462405860422,0.35896073767542835
1776017893721026600,5.883026611328125,-1.142954667740315,0.4396165751457214,1.3760422697335482
1776017893731087600,5.893087646484375,-1.3812836775183677,-3.722273679707944,2.9473972682088614
1776017893741148700,5.903148681640625,1.2749838418342172,-1.1373226532027125,5.1287838606804605
1776017893751209700,5.913209716796875,5.099588161334395,1.9357628956407307,6.253929461616277
1776017893761271800,5.923271728515625,6.554142826768755,-0.13588614178299904,5.057194542241096
1776017893771332900,5.933332763671875,5.616146521863341,-2.4899691420406103,2.8458897813677786
1776017893781393700,5.9433935546875,3.8078994145452976,-2.2276015234187243,0.5390566080629825
1776017893791454700,5.953454833984375,3.4698592998236415,-2.2139327712893486,-1.5730349143862723
1776017893801515800,5.963515869140625,2.938618918469548,-1.1808952529475092,-2.6859827125281095
1776017893811576800,5.973576904296875,1.0318895173504947,-0.8339721590682864,-2.160879811015725
1776017893821639000,5.983638916015625,-0.6254331612676381,-0.8559826230853795,-1.760337939673662
1776017893831699700,5.99369970703125,0.7035919212251901,-0.9017577013105154,-1.9306027363985776
1776017893841760500,6.003760498046875,2.724693843716383,0.17473025170117615,-2.257065810573101
1776017893851821600,6.013821533203125,2.761594126090407,1.3070993741497396,-2.7893706062883137
1776017893861882600,6.023882568359375,0.8953764758408069,-0.04528583340346813,-4.333246646207571
1776017893871944700,6.03394482421875,-0.2922431169256568,-0.13165478782355786,-7.119664832431077
1776017893882005800,6.044005859375,0.5212950336620211,3.5979672088205814,-8.125538157254457
1776017893892066800,6.05406689453125,-0.8262398112505673,3.3716385795682666,-7.572392818084359
1776017893902127600,6.064127685546875,-1.1793038921028376,0.7411135503679513,-7.633303506121039
1776017893912188700,6.074188720703125,-0.11194704779088496,0.11017477742135524,-7.796056612041592
1776017893922249700,6.084249755859375,1.5410238653585313,0.8375631692975759,-8.457510934761165
1776017893932311800,6.094311767578125,2.990065028068423,2.5008412491887806,-7.424983411768078
1776017893942372900,6.104372802734375,4.231795857989788,4.440724439629912,-3.8855636689841746
1776017893952434000,6.114433837890625,2.5883172880679366,7.316469845557212,4.359859343323111
1776017893962494700,6.12449462890625,0.30333792691379785,6.884848360818624,10.17265773357749
1776017893972555500,6.134555419921875,0.34227117642015215,6.523968053257465,12.096696873676777
1776017893982617600,6.14461767578125,-0.19444822086691854,3.7510306953757997,11.048196705526113
1776017893992678700,6.1546787109375,0.23974954410046337,1.2751070298224687,11.605993085372447
1776017894002739700,6.16473974609375,-1.1730731810197232,3.573466973814368,9.982586412620543
1776017894012800800,6.17480078125,-2.426924949106574,5.351685438093543,5.564555450835823
1776017894022861800,6.18486181640625,2.2868694126844407,0.3478530682057142,1.809876462085545
1776017894032923600,6.194923583984375,4.586289679384231,-4.414242090895772,-1.0198366759851574
1776017894042984700,6.204984619140625,-0.36795886764526364,-3.905671221989393,-3.0133506265878673
1776017894053045800,6.215045654296875,-3.3183202463567256,-3.5750142032563685,-4.05693759599477
1776017894063106800,6.22510693359375,-3.8245676407516,-4.192746873149275,-4.751285011273622
1776017894073168000,6.23516796875,-4.666816337516903,-4.1855923252195115,-4.733741171276569
1776017894083229000,6.24522900390625,-5.322117982825636,-3.627542262873053,-4.103568706527352
1776017894093290800,6.255290771484375,-4.285680592912435,-3.588369943913817,-3.5617370807930824
1776017894103351800,6.265351806640625,-3.059713733834028,-4.045640833693742,-3.386773020336032
1776017894113412600,6.27541259765625,-2.0731785850785673,-4.061846703085303,-3.020339462561905
1776017894123473700,6.2854736328125,-1.0274266927227378,-3.319175401881337,-2.589128019928932
1776017894133534700,6.29553466796875,-0.12757117177173494,-2.2862053958177566,-2.2825027419075368
1776017894143596500,6.305596435546875,0.8800112950570881,-1.7548656457424163,-2.0965029081732034
1776017894153657600,6.31565771484375,2.412656185257435,0.2069897225320339,-1.3031404073908923
1776017894163718700,6.32571875,2.5783488517612216,-0.2260521503984928,-0.6971107425123453
1776017894173779700,6.33577978515625,3.140547265958786,-0.9548276127189397,-0.03180295923501253
1776017894183840800,6.3458408203125,4.253586249515414,0.4546148223131895,0.6551432398766279
1776017894193902800,6.35590283203125,3.3698540342390535,3.758582133668661,1.91230252507627
1776017894203963600,6.365963623046875,2.208150096234679,10.212841275405884,4.91143816382885
1776017894214024700,6.376024658203125,1.0051077472783625,14.512172792530059,6.284112418434024
1776017894224085800,6.386085693359375,-0.4278337828934192,14.072306042015551,6.4910419352114195
1776017894234146800,6.396146728515625,-2.0133434173189104,7.581748090928793,5.637815332835912
1776017894244207600,6.40620751953125,-2.776832027232647,0.8322849366337061,3.4668823298394678
1776017894254270000,6.41627001953125,-3.277709126766026,-2.476023034274578,1.362994572111964
1776017894264330800,6.426330810546875,-3.182873372773826,-3.416995140120387,-0.16629881570339203
1776017894274391600,6.4363916015625,-2.2532389457613227,-3.251086200517416,-1.0534873089134693
1776017894284452600,6.44645263671875,-0.9680053664609789,-2.6371383098602292,-1.5848630070850251
1776017894294513700,6.456513671875,0.05020049345195293,-1.842661418095231,-1.93277102034837
1776017894304575700,6.46657568359375,0.5888245553165674,-1.1216513290792702,-2.1893089099034664
1776017894314636800,6.47663671875,1.119840772525966,-0.7605617626816034,-2.3207453788012264
1776017894324697900,6.48669775390625,1.582542309052497,-0.5729121159136294,-2.4682579532310367
1776017894334758700,6.496758544921875,1.7386749739199876,-0.52747956751585,-2.6506889885678886
1776017894344819700,6.50681982421875,1.5601976446449757,-0.7738911998540162,-2.8190266166225073
1776017894354881800,6.5168818359375,1.0966323308959602,-0.9485521857112645,-3.04101341727823
1776017894364942800,6.52694287109375,0.8064270034082234,-0.7399088507533073,-3.1693525046825406
1776017894375004000,6.53700390625,0.8388362579733133,-0.8000538151144981,-2.8899048641830682
1776017894385065000,6.54706494140625,0.9482225153654813,-1.302570206287503,-2.133244200593233
1776017894395125500,6.55712548828125,0.690136227324605,-1.7198060227990148,-1.3566001948997377
1776017894405186600,6.5671865234375,0.1255035717174411,-1.6489111163645982,-0.6017503801241517
1776017894415248600,6.57724853515625,-0.6069755674265325,-1.509552914556861,0.15822335353642702
1776017894425309700,6.587309814453125,-0.3508795764200389,-1.138028463384509,0.5037655144512653
1776017894435370800,6.597370849609375,0.36026202953234315,-0.7836275809705257,0.49991702232956886
1776017894445431800,6.607431884765625,0.2504584235109389,-0.2858399718850851,0.5121142406016588
1776017894455492600,6.61749267578125,-0.1612220969609916,0.38946927318572994,0.3807131352782249
1776017894465554700,6.6275546875,-0.3216347772352397,1.128647471576929,0.04463672184497118
1776017894475615700,6.63761572265625,-0.028881226569414137,1.5617431205213068,-0.482059294077754
1776017894485676800,6.6476767578125,0.5492004009366035,1.6323229696571826,-0.9715592595502733
1776017894495737900,6.65773779296875,0.9970493823766707,1.838134880581498,-1.4056184928297997
1776017894505799000,6.667798828125,1.00475338088274,2.273544651687145,-1.6723793779745697
1776017894515860700,6.67786083984375,0.8782324488162994,2.896754876208305,-1.8450830922842025
1776017894525921800,6.687921875,0.9153678551204502,3.6478649199336766,-1.822360680605471
1776017894535982600,6.697982666015625,0.9636655836910009,4.535556686490774,-1.769491552466154
1776017894546043600,6.708043701171875,0.9693898065567016,5.1233285178840156,-1.6532424235671759
1776017894556104700,6.718104736328125,0.5723129809767008,5.485089699932932,-1.5624682199254631
1776017894566165800,6.728165771484375,-0.17154431514143942,5.661981221321225,-1.4408306759864091
1776017894576227600,6.7382275390625,-0.750346073615551,4.619260221093893,-1.009623032745719
1776017894586288600,6.74828857421875,-0.4483703749656677,2.6088684931874275,-0.6038087739586829
1776017894596349700,6.758349609375,0.389781554005295,0.35226503942906856,-0.2950461916476488
1776017894606410800,6.76841064453125,1.2656659783907234,-1.1853244675666093,-0.03110708592534065
1776017894616471800,6.778471923828125,2.137269218325615,-1.967314802724123,0.05785889925062656
1776017894626533600,6.78853369140625,2.7763492121517657,-2.551204824247956,0.21222879222929478
1776017894636594700,6.7985947265625,2.99965703227818,-3.0586610099107023,0.5196966585546732
1776017894646655700,6.80865576171875,2.805058004763722,-3.1919454447627067,0.9413371397659182
1776017894656716800,6.818716796875,2.608289231994748,-2.9893460661441087,1.4455077278867363
1776017894666777600,6.828777587890625,2.4950422075212,-2.702600669851899,2.1534227730080486
1776017894676840000,6.83883984375,2.4466478867083787,-2.220563587605953,2.8743068975567816
1776017894686900700,6.848900634765625,2.409565671896189,-1.5655992114275692,3.551034484992921
1776017894696961500,6.85896142578125,2.355211712026596,-0.9853712195426225,4.550080594144761
1776017894707022600,6.869022705078125,2.272972404757142,-0.7928150960326195,5.719862332403659
1776017894717083400,6.87908349609375,2.0962749446362254,-0.4177051875889301,5.981394961506128
1776017894727144400,6.88914453125,1.9387977332919835,0.08262801432609558,5.691975962090492
1776017894737206500,6.89920654296875,1.6448504427969455,0.27056933751702306,5.657651083162427
1776017894747267600,6.909267578125,1.2010738253623245,0.2560036365479231,5.782272903609275
1776017894757328400,6.919328369140625,0.534484477841854,0.13625731318295,5.444042819273472
1776017894767389400,6.929389404296875,-0.3743395085930824,-0.26784780359864235,4.246577539797127
1776017894777450500,6.939450439453125,-1.2054794399101287,-0.8128431540608405,2.6641744930848477
1776017894787512600,6.9495126953125,-1.699516683486104,-1.1661544876724481,1.2727169198155401
1776017894797573600,6.95957373046875,-1.582347517132759,-1.1877619238466024,0.3114528443083167
1776017894807634700,6.969634765625,-1.0779764380037784,-1.0503928500294686,-0.25225042149424554
1776017894817695700,6.97969580078125,-0.5149661229014396,-0.7351251236081123,-0.575192043544352
1776017894827756500,6.989756591796875,0.01194002864062786,-0.46143443920016286,-0.7483607450172305
1776017894837818600,6.999818603515625,0.3821452139079571,-0.36265725410580635,-0.795859578295052
1776017894847879700,7.009879638671875,0.6156552790969609,0.012740823629498481,-0.8114861864939331
1776017894857940700,7.019940673828125,0.7590607104688882,0.5105442148059606,-0.7705839750021696
1776017894868001500,7.03000146484375,0.9757967509895562,1.1182622711628676,-0.6150035371899605
1776017894878062600,7.0400625,1.2101099492549896,1.0761205810040235,-0.6659437430933117
1776017894888124400,7.05012451171875,1.3890630793482064,1.129076510643959,-1.2003146775580942
1776017894898185500,7.060185546875,1.621536787226796,1.5138725313216448,-1.498496975274384
1776017894908246500,7.07024658203125,2.0674989320069552,1.6688684472441673,-1.3254204821296036
1776017894918307600,7.0803076171875,2.027207253628969,1.582847283348441,-1.505306363028288
1776017894928368600,7.09036865234375,1.8562433687239883,1.2719640556216238,-1.9805450173057615
1776017894938429700,7.1004296875,1.732976470017433,1.0020645801901817,-2.350911822875589
1776017894948491500,7.110491455078125,1.4024591520160437,0.45914194434881206,-2.6234265953719613
1776017894958552600,7.120552490234375,0.9368231694728135,-0.09020750966966151,-2.8174726651787756
1776017894968613600,7.130613525390625,0.3559434356808662,-0.5423386984735727,-2.5005484037220476
1776017894978674700,7.1406748046875,0.03603224910153076,-0.2215817269861698,-1.590368911024928
1776017894988735700,7.15073583984375,0.03280044583976269,0.25510756449103356,-0.657024815839529
1776017894998797600,7.160797607421875,0.10494038389921188,0.4152086945980787,0.13298545190542935
1776017895008858400,7.1708583984375,0.19563710185792296,0.3093313221096992,0.734995067487657
1776017895018919400,7.18091943359375,0.3658259107371792,0.24048458037674425,1.1659380684427916
1776017895028980500,7.19098046875,0.6385486634284258,0.15308102221190928,1.4802147380001842
1776017895039041500,7.20104150390625,0.9826403332740068,-0.10561316859424114,1.6999075824998318
1776017895049103600,7.211103515625,1.4601929635822772,-0.35074820512533184,1.8297070978455245
1776017895059164400,7.221164306640625,1.8126842129826544,-0.3591992226064205,1.915086895097792
1776017895069225500,7.2312255859375,2.0193056867241856,-0.25158991175889966,2.0385798576451837
1776017895079286500,7.24128662109375,2.1487036355316635,-0.16182137802839278,2.110681947912276
1776017895089347600,7.25134765625,2.1556090310059486,-0.20043898571431637,2.121330767698586
1776017895099408600,7.26140869140625,2.109669848260283,-0.3202940301507711,2.047769710794836
1776017895109470700,7.271470703125,2.0366601416289805,-0.5781693057894707,1.8762901314526794
1776017895119531500,7.281531494140625,1.8466303217262028,-0.7612287021577357,1.5399686572171747
1776017895129592600,7.291592529296875,1.5560896248042582,-0.683017335230112,1.1324269901156425
1776017895139653400,7.3016533203125,1.2998359590180217,-0.45157472396492954,0.6847555571995675
1776017895149714400,7.31171435546875,1.050770451170206,-0.38931671297252174,0.1985692463196814
1776017895159776500,7.321776611328125,0.7826029140979052,-0.38834991376698014,-0.23092954717651007
1776017895169837600,7.331837646484375,0.4344242671996355,-0.20934885287880897,-0.5929002803228796
1776017895179898600,7.341898681640625,-0.042389600505307316,0.11817805113494395,-0.7520256972655653
1776017895189959400,7.35195947265625,-0.4291559714078903,0.4694377129137516,-0.7097785009056329
1776017895200020500,7.3620205078125,-0.5824053359240293,0.8844991079956293,-0.4751740646086633
1776017895210082600,7.37208251953125,-0.4996702810268849,1.287288466003537,-0.2656764509089291
1776017895220143600,7.3821435546875,-0.21049736532680688,1.4210165529698133,-0.22812223467081783
1776017895230204700,7.39220458984375,0.16976210789978502,1.358113814333081,-0.3717294722251594
1776017895240265700,7.402265625,0.5993793401438743,1.1028162802278996,-0.6386591380655765
1776017895250326500,7.412326416015625,0.9058569533228874,0.9924567938894033,-0.9107609458468854
1776017895260388600,7.422388671875,1.0206254882752894,0.8583475986510515,-1.1899424827560783
1776017895270449700,7.43244970703125,0.8807831562124192,0.6121773738533258,-1.5230398803785443
1776017895280510700,7.4425107421875,0.7306126146197318,0.5978828910410404,-1.852349430025369
1776017895290571500,7.452571533203125,0.5459476096857339,0.6462374643653631,-2.1477887126438318
1776017895300632600,7.462632568359375,0.347115839972347,0.8059738528132439,-2.4104542912989855
1776017895310693400,7.472693359375,0.11797756012678146,1.1066361307770014,-2.6246798103034497
1776017895320755500,7.48275537109375,-0.02688040814101696,1.3836328709930181,-2.7763562264144417
1776017895330816500,7.49281640625,-0.08620002759397029,1.4077970059126614,-2.6902441693648695
1776017895340877600,7.502877685546875,-0.10331351334974169,1.2483347582310438,-2.375475332376361
1776017895350938600,7.512938720703125,-0.1680599801570177,1.169490938618779,-2.00781895480901
1776017895360999700,7.522999755859375,-0.511363276103884,1.1831190664768219,-1.6585136419683695
1776017895371061500,7.5330615234375,-1.1360827361442147,0.8275988246440887,-1.3896984546422957
1776017895381122600,7.54312255859375,-1.8657891957044601,0.2554495097965002,-1.1644342397511005
1776017895391183600,7.55318359375,-2.325480006107688,-0.2864110497713089,-1.0141609684363007
1776017895401244700,7.56324462890625,-2.314796261138469,-0.6161982999324799,-0.8742435253106057
1776017895411305700,7.5733056640625,-2.105246771121025,-0.7718406970649957,-0.6171370420873165
1776017895421367600,7.583367431640625,-1.9159809213280676,-1.0024123707145451,-0.13034502039924264
1776017895431428600,7.5934287109375,-1.7239388848200439,-0.9957570044785737,0.4358643830053508
1776017895441489400,7.603489501953125,-1.215402648835629,-1.0828361529946327,1.0224658554449677
1776017895451550500,7.613550537109375,-0.8807073144972324,-1.6357926915943621,1.4795572970047592
1776017895461611500,7.623611572265625,-0.5555092918224632,-1.6426988177210091,1.7394059185430406
1776017895471673600,7.633673583984375,-0.11245149018168449,-0.9986410354822873,2.066478502918035
1776017895481734400,7.643734375,-0.4434976543627679,-1.3985387637019158,2.5384908886253834
1776017895491795500,7.65379541015625,-0.46810441848337647,-0.8062631911486386,2.800141006627679
1776017895501856500,7.6638564453125,-0.40661154664456844,-0.16153496230244635,2.741248672676086
1776017895511917600,7.67391748046875,-0.22907573600336908,0.05275310054421425,2.265701098579913
1776017895521978600,7.683978515625,-0.3328171193763613,0.41021863122582436,1.302175069490075
1776017895532040700,7.694040771484375,-0.8265048919275403,-0.3241413532286882,-0.11724500806853175
1776017895542101500,7.7041015625,-1.3367013162091375,-0.03250701585114002,-1.1344324847191571
1776017895552162600,7.71416259765625,-1.0747086683794855,0.1259673898369074,-2.262178769672662
1776017895562223600,7.7242236328125,-0.9789052383989095,-0.07778115881681442,-3.0563240913957355
1776017895572284400,7.734284423828125,-1.1451327424317597,0.0049801265001296995,-3.6235277665346857
1776017895582346800,7.7443466796875,-1.199935761243105,0.1540828927308321,-3.8415556004315614
1776017895592407600,7.754407470703125,-1.1072384805843234,0.22141338468194008,-3.75670961779505
1776017895602468600,7.764468505859375,-0.7365957806825637,0.07095511218905448,-3.2637405149072407
1776017895612529400,7.774529296875,-0.31245383804440496,-0.36357261538505553,-2.6737591907709835
1776017895622590500,7.784590576171875,0.028249942928552627,-0.8553443251818418,-2.160134107214957
1776017895632652500,7.794652587890625,0.29220190813243385,-1.392635092616081,-1.6910682963535189
1776017895642713600,7.804713623046875,0.6143450732812286,-1.7926871346145867,-1.2392558181099593
1776017895652774700,7.814774658203125,0.9751868023976683,-2.1312831296533346,-0.8282533430300653
1776017895662835700,7.824835693359375,1.2884803061366081,-2.3093723363935945,-0.4119662055455148
1776017895672896500,7.834896484375,1.5706082717612384,-2.2465514308214187,0.006389116515219211
1776017895682958600,7.84495849609375,1.9047350124314426,-2.092525236713886,0.4255902417503297
1776017895693019600,7.85501953125,2.294591239108145,-1.9832120445579289,0.7230633682839572
1776017895703080700,7.865080810546875,2.6123952060088516,-1.905761725130677,0.8128020913980901
1776017895713141500,7.8751416015625,2.8531781848102806,-1.8995862513661383,0.7877876232594251
1776017895723202600,7.88520263671875,2.997374766559899,-1.7887006953269242,0.6743626118704676
1776017895733264400,7.895264404296875,2.868188999198377,-1.6840730306386946,0.572210835776478
1776017895743325400,7.905325439453125,2.547968911066651,-1.8213263691216706,0.32298706862702964
1776017895753386500,7.915386474609375,2.126123262672126,-2.0011913533627985,0.19892069010585545
1776017895763447600,7.925447509765625,1.6271780079841613,-1.8399252711296081,0.17253434909209608
1776017895773508600,7.935508544921875,1.2441966355130076,-1.5648112759202717,0.2654955413840711
1776017895783569700,7.945569580078125,0.9707321610763668,-1.270052084520459,0.5963266015097498
1776017895793631500,7.955631591796875,-0.004247720572352409,-0.9960340678542852,1.7036226575002074
1776017895803692500,7.965692626953125,-18.24043226864934,-13.604234941279888,19.660641596889494
1776017895813753600,7.975753662109375,-18.3393450628221,-18.659820879280566,29.957186406898497
1776017895823814700,7.985814697265625,10.784654490166902,3.406817444977164,7.937288791027664
1776017895833875700,7.995875732421875,17.961688977026938,4.336089760679006,1.5675520990610121
1776017895843937500,8.0059375,17.834466618692876,5.398778613179922,0.31093678454495965
1776017895853998600,8.01599853515625,14.428420158088207,6.885445157667994,-2.8482302070140837
1776017895864059400,8.026059326171875,10.786973873025179,6.944116542345285,-5.737078255620599
1776017895874120400,8.036120361328125,5.933715510964393,7.281520697250961,-8.269422312054038
1776017895884181500,8.046181396484375,-8.447986150568724,7.712515574523806,-11.858930904608965
1776017895894243600,8.05624365234375,-14.509577515339851,5.38443970670402,-11.99420797458291
1776017895904304400,8.066304443359375,-5.6425943838059895,2.8893536600410936,-9.180690184509753
1776017895914365400,8.076365478515624,-1.3965227477043867,0.568660888209939,-7.214440965190529
1776017895924426500,8.086426513671874,1.0610305638998747,-1.0775666881591082,-5.544795688354968
1776017895934487600,8.096487548828126,2.62945360057652,-2.101145765542984,-4.442791601292789
1776017895944549600,8.106549560546876,2.06414173053354,-2.1975316715866327,-3.536043544349074
1776017895954610700,8.116610595703126,-0.49009734684377904,-0.6486854420393705,-2.951134408910572
1776017895964671500,8.12667138671875,-2.4412623942777514,0.8042021669656038,-2.707470613975823
1776017895974732500,8.136732666015625,-2.0557634860277174,1.0648264490514994,-2.287186369679123
1776017895984793600,8.146793701171875,-0.33557840078324075,0.4994920749157667,-1.714572798320651
1776017895994855700,8.156855712890625,1.1829612455666065,-0.29488369456231595,-1.1426404872246085
1776017896004916700,8.166916748046875,2.7523890753716227,-1.088281558918953,-0.6947301309861242
1776017896014977500,8.1769775390625,3.718530693787336,-2.034102273839712,-0.15535561608038842
1776017896025038600,8.18703857421875,2.7012328886300323,-3.043835196700692,0.5691643076874315
1776017896035099400,8.197099365234376,0.6788701524227857,-3.663182900574803,1.387320765725523
1776017896045161500,8.207161376953126,-0.6728852327942848,-3.573709550398588,2.332924184633791
1776017896055222500,8.217222412109376,-0.9060279259756207,-3.1805782475739717,3.412975383085012
1776017896065283600,8.22728369140625,-0.8998451456874609,-2.55574831289649,4.447499925114214
1776017896075344600,8.2373447265625,-1.129602580344677,-1.8038012338250875,5.431832156997919
1776017896085405700,8.24740576171875,-1.1854133148938417,-1.1428443392336367,6.063334409046173
1776017896095466500,8.257466552734375,-0.4751408929914236,-0.7217074236303568,6.301510712480544
1776017896105528600,8.267528564453125,1.5014929422199725,-0.6343126332938671,6.019505788713693
1776017896115589600,8.277589599609374,3.378096961927414,-1.2846323985368013,5.393174217301607
1776017896125650700,8.287650634765624,3.217048321837187,-2.3667887525737283,3.8259655248507856
1776017896135711700,8.297711669921876,1.757342849510908,-2.9274206481069323,1.554713660275936
1776017896145772500,8.3077724609375,0.46369595439136024,-3.1614684734344483,-0.2349836448729038
1776017896155834600,8.317834716796876,-0.5782897172987461,-3.08725698979795,-1.5096896926790475
1776017896165895400,8.3278955078125,-0.621601035758853,-2.76033915759325,-2.04034467536062
1776017896175956500,8.33795654296875,-0.034570378121733664,-2.1786025147110224,-2.0357135084286333
1776017896186017500,8.348017578125,0.7465513575077056,-1.4348732288867234,-1.5840496448755264
1776017896196078600,8.35807861328125,1.0751987899839877,-0.7953858233034611,-0.6850070477426051
1776017896206140400,8.368140380859375,1.1065893690258264,-0.5434580578923225,0.5548676329180597
1776017896216201500,8.378201416015624,0.7277554716229439,-0.6535983485221862,1.812252251306176
1776017896226262500,8.388262451171874,0.26698446476757526,-0.7271873163461685,2.6179806049257515
1776017896236323600,8.398323486328126,-0.009844517666101456,-0.530422635230422,2.6323522446274756
1776017896246384600,8.408384521484376,0.2840472432494163,-0.24693010325431822,1.8800059371054172
1776017896256446700,8.41844677734375,0.8467787414103746,-0.20452771633267403,0.954972574147582
1776017896266507500,8.428507568359375,0.7227092941492795,-0.22267887457311153,0.3967643986299634
1776017896276568600,8.438568603515625,0.6376029070109128,-0.0008235913425683975,-0.06260989316999913
1776017896286629600,8.448629638671875,1.2330576941221951,0.24016250881552695,-0.7016518930733203
1776017896296690400,8.4586904296875,1.5923451795339583,0.1137450371235609,-0.8631804256349801
1776017896306752500,8.46875244140625,0.14656009601056574,0.36227439226806163,-0.9477537288099527
1776017896316813600,8.4788134765625,-0.036571196550130844,1.1221931808710097,-1.425994925904274
1776017896326874400,8.488874267578124,0.6157493871212005,1.2348229502290486,-1.0376420895278453
1776017896336935400,8.498935302734376,-0.13310732471942902,0.9400812944859266,0.18363924208283422
1776017896346996500,8.50899658203125,-0.7601496747493743,0.5504670598715543,1.0723720421254634
1776017896357058600,8.51905859375,-0.5328828878641129,0.27743016319721936,1.111428041228652
1776017896367119600,8.52911962890625,-0.33016894295513627,0.36192309461236,0.5055728561341762
1776017896377180700,8.5391806640625,0.5604553699225187,0.5614397047847509,-0.09064999274015426
1776017896387241700,8.54924169921875,0.43410745633542536,0.6881941533461212,-0.5506354021757841
1776017896397302500,8.559302490234375,-0.5532219115376472,0.7848015931859612,-1.1123778892993927
1776017896407364600,8.569364501953125,-0.7236901218801737,0.6471490262523293,-1.2697925568014383
1776017896417425700,8.57942578125,-1.2410884403645992,0.6467296317964791,-1.0120312629312276
1776017896427486700,8.58948681640625,-1.127923833477497,0.9556716623276471,-0.5062859728395939
1776017896437547500,8.599547607421876,-0.5881172838300466,1.4020210528597234,0.26785540238320826
1776017896447608600,8.609608642578126,-0.05689677622020244,2.1914731022000313,0.6937076560705899
1776017896457670400,8.61967041015625,0.6032920566082001,3.4720027415931223,0.18402561105191706
1776017896467731500,8.6297314453125,1.0938251645207404,3.7273961372882125,-0.43040918633937836
1776017896477792500,8.63979248046875,1.4577876560062168,3.6530952218025923,-1.008397290343046
1776017896487853600,8.649853515625,0.704254184526205,2.02350284615308,-1.237720425236225
1776017896497914600,8.65991455078125,-2.131412308990955,-1.6742413724541663,0.09817337398231028
1776017896507975700,8.6699755859375,-3.1827269500404594,-1.3534361779108643,1.549071854996681
1776017896518037500,8.68003759765625,-1.737239972680807,2.0795921053826807,1.722368566763401
1776017896528098600,8.6900986328125,-0.31340894681215287,4.129377686044574,1.1443839698910712
1776017896538159600,8.70015966796875,0.8653934255093335,3.3680779644772407,0.9412550144404173
1776017896548220700,8.710220703125,0.7399865921646356,1.2370822734631597,0.8229407697051763
1776017896558281700,8.72028173828125,-0.925470000809431,-0.20833879905343056,0.5599105955213308
1776017896568343600,8.730343505859375,-1.5482389113038777,-0.7633759433194994,0.06841185744702816
1776017896578404600,8.740404541015625,-0.9468880518913269,-0.6520300762921571,-0.10312427438795566
1776017896588465400,8.75046533203125,-0.8213456094682217,-0.1001345910526812,-0.374062445217371
1776017896598526500,8.7605263671875,-0.5750438672453164,0.24473946134224533,-0.34751579907536506
1776017896608587500,8.77058740234375,-0.29529227536320685,0.34145401481837034,0.26866087354719637
1776017896618649600,8.780649658203124,-0.5116577290058135,0.29096900533661246,0.4861117843389511
1776017896628710400,8.79071044921875,-0.38055648341178894,0.09866948693618177,0.3379927684485912
1776017896638771500,8.800771484375,-0.3488526006370783,0.08277078379765153,0.10421791484355926
1776017896648832500,8.81083251953125,-0.7536737567335366,0.05410626871883869,-0.029292729979753494
1776017896658893600,8.8208935546875,-0.9850760359883308,-0.07665069348216057,0.3075871087908745
1776017896668955600,8.83095556640625,-1.588677304676175,-0.44575829277113077,1.145923016026616
1776017896679016700,8.8410166015625,-2.0959663170784713,-0.486074667198956,1.9769599984258412
1776017896689077500,8.851077392578125,-2.1432360177755356,-0.5746447849251329,2.4550556495696303
1776017896699138600,8.861138671875,-1.9096926348388195,-0.5540290632020681,2.662245278587937
1776017896709200100,8.8712001953125,-1.4413427171617745,-0.3695839846290648,2.6626643807828425
1776017896719262200,8.88126220703125,-1.0957815592855213,-0.3059917293582111,2.452978843295574
1776017896729323300,8.8913232421875,-0.7659031237095594,-0.16504698901139198,2.1064760206550357
1776017896739384000,8.901384033203126,-0.4430412888973951,0.081024232391268,1.5816975287914274
1776017896749445000,8.911445068359376,-0.19351064775586127,0.38428112995810804,0.960502151224017
1776017896759506200,8.921506103515625,-0.06821545809209346,0.4723240820050239,0.25818741032779213
1776017896769568300,8.931568359375,0.12008534606099128,-0.28178295157924294,-0.3484972113281488
1776017896779629300,8.94162939453125,0.3196498870283365,-1.885933281327784,-0.6111375094115734
1776017896789690400,8.9516904296875,0.5688228007733822,-2.683265854784846,-0.8222457731783389
1776017896799751200,8.961751220703125,0.8195219011723994,-2.505211719357967,-0.8886217408835887
1776017896809812000,8.97181201171875,0.8741565776795148,-1.8166542856574057,-0.6569254471182823
1776017896819874300,8.981874267578124,0.9612474166333674,-1.1425414107643068,-0.30493571749925613
1776017896829935000,8.99193505859375,1.0985159526854753,-0.6832919874530285,0.09588497078418731
1776017896839996200,9.00199609375,1.1351438478589058,-0.4392741914488375,0.4749830720812082
1776017896850057200,9.01205712890625,1.0844465108007193,-0.19879589468240735,0.7297212187379598
1776017896860118300,9.0221181640625,0.9181412653565406,-0.053376054748147723,0.8270341764986514
1776017896870180000,9.03218017578125,0.7805103257328272,0.002316021857410669,0.6562222672849893
1776017896880241200,9.0422412109375,0.7185889993488788,-0.031083558919280767,0.4090764754533767
1776017896890302200,9.05230224609375,0.669153060528636,-0.11248480792939662,0.13810031070113182
1776017896900363300,9.06236328125,0.5390531009316444,-0.22565705013368278,-0.09442541962563991
1776017896910424300,9.07242431640625,0.4615986898511648,-0.3776951756965369,-0.11044365749061107
1776017896920486100,9.082486083984374,0.4580962346881628,-0.4944809322228655,0.06660860741734505
1776017896930547200,9.092547119140624,0.28312779031693935,-0.44070561249144374,0.38947278031706806
1776017896940608300,9.102608154296876,-0.11861118185520171,-0.21570965661499647,0.6309633228659629
1776017896950669300,9.11266943359375,-0.45280806515216826,-0.00421140714995563,0.7591454661428928
1776017896960730000,9.122730224609375,-0.4767945054173469,0.12826229584105311,0.8379869476675986
1776017896970792200,9.132792236328125,-0.37556232838630677,0.14302282526250928,0.9607868133842945
1776017896980853000,9.14285302734375,-0.3061725658178329,0.0818747848059982,1.036456679135561
1776017896990914000,9.1529140625,-0.28012393232584,0.06566255873888731,0.9896230317682028
1776017897000975000,9.16297509765625,-0.27003742259740826,0.10853417060747741,0.8516922324150801
1776017897011036200,9.1730361328125,-0.20535773741602897,0.08175707671046256,0.7135650337070226
1776017897021098200,9.18309814453125,-0.08362754675745963,-0.022640359418466687,0.6143196465790272
1776017897031159000,9.193158935546874,-0.006899111863970756,-0.030433534045331178,0.3919061449438333
1776017897041220000,9.20322021484375,0.017013678643107412,0.09206738525740801,0.11006897895932197
1776017897051281200,9.21328125,0.09137889153659343,0.2681595729615539,-0.15335516297817228
1776017897061342200,9.22334228515625,0.05930149927437305,0.46665969956777986,-0.38104689727723595
1776017897071404300,9.233404296875,-0.07465162861943245,0.6476777263015508,-0.6110773036569357
1776017897081465300,9.24346533203125,0.01526011297404766,0.7542880892395972,-0.621925445407629
1776017897091526100,9.253526123046875,0.1830313393175602,0.7499568551022558,-0.3613040859311819
1776017897101587200,9.263587158203125,0.1874444795846939,0.7531630307324231,0.029898294657468794
1776017897111648000,9.27364794921875,0.19191256490945816,0.7803953210510313,0.42180853125452994
1776017897121710300,9.28371044921875,0.19661913516521454,0.8921260226774961,0.632606413897872
1776017897131771100,9.293771240234374,0.2457587213873863,1.1140564900361,0.6553115821808576
1776017897141832200,9.303832275390626,0.39374446628689763,1.557303969030082,0.6517074202090501
1776017897151893200,9.313893310546876,0.25685937659442426,1.4498950030602513,0.5331184501856565
1776017897161954000,9.3239541015625,-0.1835889732003212,1.1711084568180143,0.44876083558797836
1776017897172015000,9.33401513671875,-0.05673369461297988,1.0294297031082211,0.5017348854064941
1776017897182077200,9.3440771484375,0.15759060859084129,0.8858408049281686,0.4524848245471716
1776017897192138200,9.35413818359375,0.20315058276057243,0.838815361315757,0.31260756730139255
1776017897202199300,9.36419921875,0.16370938373208044,0.7573053912341594,0.09329670785665511
1776017897212260400,9.37426025390625,0.09450257651507854,0.7166474368270486,-0.2744283510327339
1776017897222322200,9.384322265625,0.2633855634927749,0.7318067928403615,-0.5586474437177181
1776017897232383200,9.39438330078125,0.15790917302072047,0.2682964606815949,-0.6383680461645126
1776017897242444300,9.4044443359375,-0.09300620047748089,0.10930067973425611,-0.5760141735821962
1776017897252505300,9.41450537109375,-0.12174363466203213,0.002452635582815856,-0.5126917482286691
1776017897262566100,9.424566162109375,0.05394669424295425,-0.1592823245374486,-0.49682197892367835
1776017897272627200,9.434627197265625,0.3072849109739065,-0.2762914962898008,-0.6031441725701093
1776017897282689000,9.44468896484375,0.16046411820054055,-0.34876419170126316,-0.7502513810694217
1776017897292750000,9.45475,-0.14264847552478313,-0.2661068964817561,-1.04546649954319
1776017897302811100,9.46481103515625,-0.5308043280243874,-0.18700170425325632,-1.18045540022552
1776017897312872200,9.4748720703125,-0.9507418047100304,-0.06325703196711838,-1.1459195088952778
1776017897322933200,9.484933349609374,-0.704105131444335,0.08474607505914755,-0.8134791138768196
1776017897332995000,9.4949951171875,-0.489610732370615,0.3429905036706477,-0.9243664234817027
1776017897343056100,9.50505615234375,-0.3521674242734909,0.13507698082458228,-0.4934352590948343
1776017897353117200,9.5151171875,-0.28365970523655415,-0.04411135083057452,-0.36501696897447106
1776017897363178200,9.52517822265625,-0.020538930159807203,-0.10110961923045106,-0.3327092750877142
1776017897373239300,9.5352392578125,0.1597118385285139,-0.08720330461869016,-0.31679449759721756
1776017897383301400,9.54530126953125,0.10513619873225688,-0.20774234926393254,-0.04608721291422844
1776017897393362200,9.555362060546875,-0.1977753194630146,-0.22502341013895347,0.08797931222617626
1776017897403423000,9.565423095703125,-0.32561259482502936,-0.286629423496034,0.00009995324313640594
1776017897413484000,9.575484130859374,-0.2166103683143854,-0.23819246911788358,-0.04216857816576958
1776017897423545000,9.585545166015624,-0.035379356417059894,-0.14829780652336774,0.01176701016128063
1776017897433607200,9.595607177734376,0.2017570825755596,-0.0033976430816575883,0.0912801073372364
1776017897443668200,9.605668212890626,0.6264736102312803,0.1942724624412134,0.2002104376554489
1776017897453729300,9.615729248046875,0.837868874245882,0.42400995028894395,0.49334582724571224
1776017897463790000,9.6257900390625,0.4313958592891693,0.6327138197951019,0.7223369537055492
1776017897473851100,9.63585107421875,-0.20817864005565642,0.6975527871914208,0.7089467262566089
1776017897483913200,9.645913330078125,-0.3608241934597492,0.7274882720541208,0.9874772519111633
1776017897493974300,9.655974365234375,-0.3408341293543577,0.5475236633634194,0.8439052318006753
1776017897504035300,9.666035400390625,-0.12058394323289394,0.290601121872291,0.7432716051846742
1776017897514096400,9.676096435546874,0.12543839752674102,-0.21406415443029253,0.8362585164397954
1776017897524157200,9.6861572265625,0.31020576685667034,-0.7998105078779161,0.923504253694415
1776017897534219300,9.69621923828125,0.4537696036607027,-0.8845259960025549,0.9549263969182967
1776017897544280300,9.7062802734375,0.6882213336139917,-0.7774526917278766,0.9828367326289414
1776017897554341000,9.716341064453125,1.323266372835636,-0.4653881452620029,1.167396596688032
1776017897564402200,9.726402099609375,2.187728654974699,-0.10504881270974874,1.5218068314522504
1776017897574463200,9.736463134765625,2.9299744242429733,0.2579238640207797,1.7503636581480502
1776017897584525000,9.746525146484375,3.2150901735067365,0.18570888796374202,1.7345932575643062
1776017897594586000,9.756586181640625,3.637019116270542,-0.0642495501358062,1.7414567135930061
1776017897604647200,9.766647216796875,4.402396170279383,-0.34357122616805136,1.4543471601635216
1776017897614708200,9.776708251953124,4.016818059313297,-1.0854729312390088,1.3686837236642837
1776017897624769300,9.786769287109376,2.3466747698277235,-1.8769528331451117,1.4686258608847855
1776017897634831000,9.7968310546875,0.9437842406570911,-2.2409182472400366,1.476948283550143
1776017897644892200,9.80689208984375,-0.3202478529214859,-2.1642469493612646,1.2285025150358677
1776017897654953200,9.816953125,-1.9943243902027605,-2.0225040443740783,0.8002782715201378
1776017897665014300,9.82701416015625,-3.2659581909567117,-1.3264718908786772,-0.16311609401404856
1776017897675075300,9.837075439453125,-3.1293074945420023,-0.2729474648252129,-1.7553356013417243
1776017897685137200,9.84713720703125,-2.1447019986748694,0.35780272674672303,-3.5612224092692135
1776017897695198200,9.8571982421875,-1.3078010926783084,0.45933834370374677,-4.945062785533071
1776017897705259500,9.867259521484375,-0.5241781878829002,0.46494624671339985,-5.423406858479976
1776017897715320600,9.877320556640624,-0.41728082469701766,0.6104713736530393,-5.170218863874673
1776017897725381600,9.887381591796874,-1.7821464513778686,0.39368798685930667,-4.1531390853822225
1776017897735443700,9.897443603515624,-2.6876380785197016,0.520821936257556,-3.2056197498500345
1776017897745504500,9.90750439453125,-2.4014947397738693,0.9386626598596572,-2.5947055278003215
1776017897755565600,9.917565673828125,-1.8479425733685493,0.7718280567791312,-1.9834142891317605
1776017897765626600,9.927626708984375,-1.4081564868748186,0.5626141553916036,-1.4085598069787024
1776017897775687400,9.9376875,-0.9640057754307985,0.542197755632922,-0.9698480717182159
1776017897785749800,9.947749755859375,-0.5947475156247616,0.5886592817522585,-0.874219706043601
1776017897795810600,9.957810546875,-0.2773474533498287,0.41019561567641794,-0.9360469244033097
1776017897805871400,9.967871337890625,-0.1222018998235464,0.16080715948455035,-1.109488597598672
1776017897815932400,9.977932373046874,0.4481488411694765,0.04130143994241953,-1.3079355327129363
1776017897825993500,9.987993408203126,1.0663011977791785,-0.1278475775603205,-1.4292834460556507
1776017897836055600,9.9980556640625,1.6536626948058604,-0.39837307593561705,-1.2718512428969144
1776017897846116600,10.00811669921875,2.249517879411578,-0.6375309377532452,-0.9606190556019544
1776017897856177700,10.018177734375,2.4294267027944323,-0.5801380485791713,-0.42654374308288096
1776017897866238700,10.02823876953125,2.292584867721796,-0.16498853682242334,0.16095628563165665
1776017897876299500,10.038299560546875,2.105901435637474,0.517212002132088,0.5843833579987288
1776017897886361600,10.048361572265625,1.5734966866791247,0.9661112232774496,0.9965198055446147
1776017897896422700,10.058422607421875,0.9784522339344024,1.0759767886191607,1.2457546786099671
1776017897906483700,10.068483642578125,0.33279578432738777,0.9485251515738665,1.3404752817898988
1776017897916544800,10.078544677734374,-0.21527005962133405,0.5631419786579906,1.2800555921405552
1776017897926605600,10.08860546875,-0.6139566584855318,0.10194777795448899,0.9459943179219961
1776017897936667400,10.09866748046875,-0.4673579840302467,-0.24952231170460581,0.4146136513143778
1776017897946728400,10.108728515625,0.19594284333884715,-0.021770225520431993,-0.43846097536981105
1776017897956789500,10.11878955078125,1.0473229410648346,0.2114027166686952,-1.3256757720649242
1776017897966850600,10.1288505859375,1.4287000932097433,0.29300168020799755,-1.812172171807289
1776017897976911600,10.13891162109375,1.5973463488221167,0.24042671270966529,-1.8964450307309626
1776017897986973400,10.148973388671875,1.4028969589114189,-0.005068827696889639,-1.670040413632989
1776017897997034500,10.159034423828125,0.9287129282534122,-0.17833397528156636,-1.2127280227988957
1776017898007095600,10.169095458984375,0.5164017086625099,-0.17775719830691813,-0.7848854720771312
1776017898017156600,10.179156494140624,-0.0680070760384202,-0.11856398171260953,-0.39898996572494505
1776017898027217700,10.1892177734375,-0.7844657853603363,-0.13344167124032974,0.048449265870451924
1776017898037279500,10.199279541015626,-1.0933546243995427,0.07622793802544474,0.2205541375041008
1776017898047340500,10.209340576171876,-1.0183435148179532,0.0656888622239232,0.4681669623255729
1776017898057401600,10.219401611328125,-0.7719991024971008,-0.18389467814862728,0.6941963163703679
1776017898067462400,10.22946240234375,-0.5014513922899961,-0.3088862086907029,0.76797233119905
1776017898077523500,10.2395234375,-0.5080892228692769,-0.6161540954645722,0.7973334502398968
1776017898087585500,10.24958544921875,-0.7912702046781778,-1.1117040086258203,0.8958294803053141
1776017898097646600,10.259646484375,-1.1428455082774163,-1.200094897327572,1.0639397293448447
1776017898107707400,10.269707275390624,-1.5331681834220885,-1.0467939487546682,1.4275439089119433
1776017898117768400,10.2797685546875,-1.6048828818067908,-0.49773054513595993,1.5533850420206785
1776017898127829500,10.28982958984375,-1.3185188860476016,0.03244651783555746,1.4279513206690548
1776017898137890600,10.299890625,-0.8019196089863777,0.21148484199419618,1.1291133355230092
1776017898147952600,10.30995263671875,-0.3409036874592304,0.08271101643443107,0.9999263991177082
1776017898158013700,10.320013671875,-0.01755143878161907,-0.22316709648147223,1.1779735202819108
1776017898168074500,10.330074462890625,0.07136077038049697,-0.49615693914368747,1.706396506127715
1776017898178135600,10.340135498046875,-0.07582768666148185,-0.6236990309514105,2.346346853047609
1776017898188196600,10.350196533203125,-0.1978220812141895,-0.6893196502447128,2.8739152678906916
1776017898198258700,10.3602587890625,-0.4066764285743236,-0.80441434841156,3.105768798044324
1776017898208319700,10.37031982421875,-0.5693643603041768,-0.9935502882145345,3.2083459599435327
1776017898218380500,10.380380615234374,-0.4269809654563665,-0.9709234458647668,2.7820974004149437
1776017898228441600,10.390441650390626,-0.07664251017570495,-0.3615490006029606,2.155372445771098
1776017898238502400,10.40050244140625,0.37557284978032107,0.21109511202424763,1.5434101759731769
1776017898248564500,10.410564453125,0.807732094657421,0.5677651084139943,0.8858043453752994
1776017898258625500,10.42062548828125,1.0530211527064441,0.7244478083796799,0.5243243183553219
1776017898268686600,10.4306865234375,1.0288409434348345,0.5460049658961594,0.5226040704339743
1776017898278747600,10.44074755859375,0.5651566794812679,0.1717925908140838,0.7578735465109347
1776017898288808700,10.45080859375,-0.1343453420817852,-0.10008213021308184,1.179983691060543
1776017898298870500,10.46087060546875,-0.5846107370138168,-0.08577654148489236,1.7470675392121076
1776017898308931600,10.470931640625,-0.8186839890435338,0.2936307718917727,2.476875267189741
1776017898318992600,10.48099267578125,-0.6703887398034334,1.1163082144856453,2.903719454523921
1776017898329053700,10.4910537109375,-0.3033709524005651,1.9339619836986064,2.8392297389566896
1776017898339114800,10.50111474609375,0.1055818966731429,2.1917361370503903,2.251548508456349
1776017898349176600,10.511176513671876,0.42558337361812587,1.8318284739136694,1.3574345998972654
1776017898359237600,10.521237548828125,0.5687964972883462,0.9616916532695293,0.4524760567188263
1776017898369298400,10.53129833984375,0.4498603212624788,-0.07523585824817419,-0.25236615682840347
1776017898379359500,10.541359375,0.06893237418979406,-1.027905416150391,-0.6668932989031076
1776017898389420500,10.551420654296875,-0.4972556941658258,-1.7146110845044253,-0.8238374262839555
1776017898399482400,10.561482421875,-1.1335697304099797,-2.0603847160875794,-0.7723714429408312
1776017898409543400,10.57154345703125,-1.7424217592328786,-1.9813529726877808,-0.5285416437894106
1776017898419604500,10.5816044921875,-1.9610045966640113,-0.7723954083383083,-0.4012368678689003
1776017898429665500,10.59166552734375,-1.2336384166195988,1.049698438024521,-0.531715013128519
1776017898439726600,10.6017265625,0.3257818139120936,2.6152666697919367,-0.8517875094830989
1776017898449788700,10.61178857421875,2.0233862340360877,3.515793660263717,-1.1876362516403198
1776017898459849500,10.621849365234375,3.1867107589796184,3.8180622043803334,-1.610854065170884
1776017898469910500,10.63191064453125,3.549552137480676,3.472159685720503,-2.165861106559634
1776017898479971600,10.6419716796875,3.2589269771456717,2.733067704308033,-2.624265968805551
1776017898490032600,10.65203271484375,2.9729549033135174,1.7898115791782736,-3.0097552324444052
1776017898500094700,10.6620947265625,2.6887428248912095,0.8975316080480813,-3.303080007126927
1776017898510155800,10.67215576171875,2.4080948686912653,0.020611118613183498,-3.457288572064042
1776017898520216600,10.682216552734374,2.0289915066972375,-1.2664353553280234,-3.3453795181959864
1776017898530277400,10.69227734375,1.4824565255776048,-2.7584023443117736,-2.8880367322236298
1776017898540338400,10.70233837890625,0.7134229948878288,-4.057893581545352,-2.0713497622162103
1776017898550400500,10.712400390625,-0.3209522017985582,-5.042231950908899,-1.0632441482961177
1776017898560461600,10.722461669921875,-1.4747846757754683,-5.39249734095335,-0.10974398478865623
1776017898570522600,10.732522705078125,-2.1069784172192216,-4.7794165885195135,0.46095454672873015
1776017898580583700,10.742583740234375,-1.8284788712248206,-3.371667221140861,0.350850496456027
1776017898590644500,10.75264453125,-0.5693430252552032,-2.158172305622697,-0.1577116046220064
1776017898600706600,10.76270654296875,0.7750771947681904,-1.463772575634718,-0.5984627367556095
1776017898610767600,10.772767578125,1.407885560978949,-0.9904238267570733,-0.9035235419392585
1776017898620828700,10.78282861328125,1.4381205402448773,-0.5840095562502742,-1.2242203076720237
1776017898630889700,10.7928896484375,1.1062167363211513,-0.14698504342436788,-1.5254828896164894
1776017898640950500,10.802950439453125,0.7132517299741507,0.1920405752032995,-1.5503426055848597
1776017898651012600,10.8130126953125,0.28088644113093614,0.49607203733921046,-1.3462456818848847
1776017898661073400,10.823073486328125,-0.3162462160646915,0.8073314049020409,-1.1898340539455412
1776017898671134500,10.833134521484375,-1.1151607980161904,0.9967363709047437,-1.0545897171974181
1776017898681195500,10.843195556640625,-1.9273782213941215,0.7956231391906737,-0.7332973236590623
1776017898691256600,10.853256591796875,-2.2654104450702666,0.20515227797180413,-0.043753217008709905
1776017898701318400,10.863318359375,-1.9279747259825466,-0.41722354155182834,0.536966942307353
1776017898711379200,10.873379150390624,-1.4532882987603544,-0.59195291647017,0.4981675483137369
1776017898721440300,10.883440185546876,-1.0337453743502496,-0.11595628343224525,-0.018269231662154196
1776017898731501300,10.893501220703126,-0.7227431964188814,0.6344447352409363,-0.6767600284010171
1776017898741562400,10.903562255859375,-0.4650207732543349,1.2657500034123659,-1.0513695861071348
1776017898751624400,10.91362451171875,-0.30231647491157054,1.7206684848472475,-1.1265478689491748
1776017898761685200,10.923685302734375,-0.34454292074441906,2.0381451194897293,-1.006556630912423
1776017898771746300,10.933746337890625,-0.50590135743618,2.016478354343772,-0.6802607299983501
1776017898781807400,10.943807373046875,-0.590798485738039,1.6893413264304398,-0.0821872848212719
1776017898791868200,10.9538681640625,-0.7039648461908101,1.082904542055726,0.48835693291723725
1776017898801930500,10.963930419921875,-0.8060562703996896,0.4643573409095406,0.9242337370127439
1776017898811991300,10.9739912109375,-0.7235241176635027,0.0965194692954421,1.1872615731090306
1776017898822052400,10.98405224609375,-0.5206465066254139,-0.12350450685471295,1.2027046414345501
1776017898832113200,10.994113037109376,-0.25885025815069673,-0.14932166967839003,1.0896171914368866
1776017898842174200,11.00417431640625,-0.07698620904684067,-0.07815583734810352,0.9038234016686677
1776017898852236300,11.014236328125,-0.277865339744091,-0.04195873480737209,0.6796335380107164
1776017898862297300,11.02429736328125,-0.6770318310797214,0.28431276231780644,0.27091712804138657
1776017898872358400,11.0343583984375,-0.6914166225239634,0.7354583010852337,-0.03818272339999675
1776017898882419500,11.04441943359375,-0.2183019746631384,0.9089593032523989,0.01830605654120445
1776017898892480300,11.054480224609375,0.3885486512094736,0.8912626107811927,0.11722060427963733
1776017898902542300,11.064542236328125,0.6515677194774151,0.7559086761787533,0.10731880346834659
1776017898912603400,11.074603271484374,0.5320896916598081,0.5643652368426323,0.10941256087720394
1776017898922664400,11.08466455078125,0.2983154225766659,0.3957031991392374,0.06424538541734218
1776017898932725200,11.094725341796876,0.12382920876443386,0.2999379092119634,-0.14471709849238396
1776017898942786300,11.104786376953125,0.012533318358659744,0.24141835409551857,-0.4412988291442394
1776017898952847400,11.114847412109375,-0.11347907966375351,0.21180559838116167,-0.7717939353138208
1776017898962909200,11.1249091796875,-0.15618892509937285,0.2675925136633217,-1.0685258880913258
1776017898972970200,11.13497021484375,-0.013261632633209227,0.44390389707610006,-1.1749813527286053
1776017898983031300,11.14503125,0.3325990927115083,0.741370593868941,-1.0612047514230012
1776017898993092400,11.15509228515625,0.7130424711376429,1.0014861957803367,-0.8426549394786358
1776017899003154200,11.165154296875,1.0309779554635286,1.0564099183619022,-0.5525386054486036
1776017899013215200,11.17521533203125,1.1063742649704218,0.9179268919534981,-0.34166298139393325
1776017899023276300,11.1852763671875,0.9379577264606952,0.5280921464562416,-0.07091302661299705
1776017899033337300,11.19533740234375,0.5846057685777545,0.11560001734048128,0.3945060983091593
1776017899043398400,11.2053984375,0.1309711894735694,-0.07578560108542443,0.7250076342195272
1776017899053459500,11.21545947265625,-0.1190802606716752,-0.2922343490973115,1.0706383502006531
1776017899063521300,11.225521240234375,-0.1906964671179652,-0.5269599275559187,1.4618430688768624
1776017899073582300,11.235582275390625,-0.22985388076901433,-0.6297206293284893,1.827000907626748
1776017899083643100,11.24564306640625,-0.17844781091958284,-0.5335755463033914,2.030031078878045
1776017899093704200,11.2557041015625,-0.06362929934561252,-0.442334601932764,1.9088363102704284
1776017899103766300,11.265766357421874,0.1369073015242815,-0.34060105125084517,1.625895566958189
1776017899113827300,11.275827392578124,0.3666103756457567,-0.12708850282132625,1.1438163991361856
1776017899123888000,11.28588818359375,0.6063531977444887,0.05597381615638732,0.5232634111255408
1776017899133949200,11.29594921875,0.8511027420893311,0.09176599115803838,0.04665127653777599
1776017899144010200,11.30601025390625,1.041734619538486,0.050926908030360936,-0.21328443876206873
1776017899154071300,11.3160712890625,1.1148343425408005,-0.0292597044929862,-0.367148720306158
1776017899164133400,11.32613330078125,1.1686346140503883,-0.23979119128510354,-0.19636895979642868
1776017899174194400,11.3361943359375,1.174584754626453,-0.55797714324072,0.2133253552943468
1776017899184255500,11.34625537109375,1.1393933219969272,-0.7654338987626135,0.858020266392827
1776017899194316300,11.35631640625,0.9702309335559606,-0.9394161085754632,1.4903981322318314
1776017899204377300,11.36637744140625,0.5469406393110752,-1.0243968235075473,1.8788281254976986
1776017899214439400,11.376439453125,-0.10294307260215282,-1.0362136641599238,1.8551228402614592
1776017899224500500,11.38650048828125,-0.6475497160077095,-0.9616402153432368,1.4988929888546465
1776017899234561300,11.396561279296876,-0.7662742951095104,-0.6830971224680542,1.0402262608021497
1776017899244622300,11.406622314453125,-0.4875847795009613,-0.319492358379066,0.6867705502837896
1776017899254683100,11.41668310546875,-0.042459085544943806,-0.07851984835490584,0.3308452347815037
1776017899264745200,11.4267451171875,0.4038300992324948,0.10989420691430568,-0.08545651575028895
1776017899274806300,11.43680615234375,0.707980511572957,0.19519377853721379,-0.5189513931453228
1776017899284867300,11.446867431640625,0.7673726117402314,0.2570272805072367,-0.8996236118912696
1776017899294928400,11.456928466796874,0.7295780108749866,0.2886148434258997,-1.1732950070768593
1776017899304989400,11.466989501953124,0.5883151444897056,0.18794088479951024,-1.3108382684171198
1776017899315051300,11.47705126953125,0.42655017282366753,-0.013340104696899651,-1.2277473127543925
1776017899325112300,11.4871123046875,0.3304068433642387,-0.3035172290034592,-0.9691752870231867
1776017899335173400,11.49717333984375,0.21721008777320383,-0.5557204503551125,-0.578560350933671
1776017899345234400,11.507234375,0.08688041107356548,-0.7007216264858841,-0.06737666918039321
1776017899355295500,11.51729541015625,-0.03061433397233486,-0.7528276612982153,0.3899731310546398
1776017899365357300,11.527357421875,-0.03165039902180433,-0.7004742275960743,0.7085206097990274
1776017899375418400,11.53741845703125,0.06147445939928293,-0.6157137312859297,0.8514490713089704
1776017899385479200,11.547479248046875,0.15420388876199723,-0.5582200120858848,0.8124000864684582
1776017899395540200,11.557540283203124,0.181157362139225,-0.4305108931481838,0.6921510742783546
1776017899405601300,11.567601318359374,0.16126432866752147,-0.2543633219949901,0.49064475159347054
1776017899415663400,11.577663330078124,0.17467706020921467,-0.086049513207376,0.28021628678441046
1776017899425724200,11.58772412109375,0.22831541915535924,-0.03928776203244924,0.084714172950387
1776017899435785200,11.59778515625,0.2702016732484102,-0.0494144576407969,-0.049800680479407305
1776017899445846300,11.60784619140625,0.34341391671448945,-0.0820240570835769,-0.09562310497760772
1776017899455907300,11.6179072265625,0.4079501017719507,-0.25828034930825233,-0.14109773895144462
1776017899465969400,11.627969482421875,0.4061030126005411,-0.43223333302661776,-0.1308066465616226
1776017899476030500,11.638030517578125,0.36189503756165503,-0.6370883816175162,-0.055177112820744514
1776017899486091300,11.64809130859375,0.1810831278592348,-0.870325621214509,-0.02013034935891628
1776017899496152300,11.65815234375,-0.10850947455763817,-1.1011522925384343,0.14770575891435145
1776017899506213400,11.66821337890625,-0.3035433863580227,-1.3841886051796375,0.5907172371953725
1776017899516275500,11.678275390625,-0.33652795659303664,-1.7474280430875717,1.0919885967433451
1776017899526336300,11.688336181640626,-0.36519700171649455,-2.1382333871826527,1.3351999717354774
1776017899536397300,11.698397216796875,-0.4432423644274473,-2.414791882111877,1.1221569405138492
1776017899546458400,11.708458251953125,-0.5044534967154264,-2.4983576156795024,0.4418003489255905
1776017899556519200,11.718519287109375,-0.5839660093694925,-2.464273267509043,-0.27315467783510683
1776017899566581200,11.728581298828125,-0.599426028829813,-2.3301447830483317,-0.6870487827032804
1776017899576642300,11.738642333984375,-0.622434563973546,-2.122859584701061,-0.7203904958128928
1776017899586703400,11.748703369140625,-0.6952934639573097,-1.7848602403812108,-0.34582068559527396
1776017899596764400,11.758764404296874,-0.869911487455666,-1.4175326563768087,0.23859014493227004
1776017899606825500,11.768825439453124,-1.0026979096576571,-1.020131421148032,0.6983522670060396
1776017899616887300,11.77888720703125,-0.8719713425949215,-0.3997004520818591,0.9648808046996593
1776017899626948400,11.7889482421875,-0.5839885134622455,0.06647066025137902,0.7778612725287676
1776017899637009400,11.799009521484376,-0.4397106831699609,0.47535278217643495,0.09780161806046962
1776017899647070500,11.809070556640625,-0.7104223517671227,0.9388330479905008,-0.7143664132177829
1776017899657131300,11.81913134765625,-1.23227472705096,1.3251578856706618,-1.3463853826165197
1776017899667193300,11.829193359375,-1.5944646559059619,1.652742072829604,-1.7424720281153916
1776017899677254100,11.839254150390625,-1.7807769165903329,1.8356199751511215,-1.716145162203908
1776017899687315200,11.849315185546875,-1.4756421693876385,1.6365239284783601,-1.5376561424911022
1776017899697376300,11.859376220703124,-1.1721797393113373,1.1200246046602724,-1.2521253826856613
1776017899707437600,11.8694375,-0.5698597426056862,0.4596361576065421,-0.731332161065936
1776017899717499400,11.87949951171875,0.45904169884473084,-0.20313246258199213,-0.06390519367754459
1776017899727560400,11.889560546875,1.3157684182956815,-0.41171617630720136,0.2791734997332096
1776017899737621500,11.89962158203125,1.5251514657050371,-0.23810440724194049,0.23899580312371252
1776017899747682600,11.9096826171875,1.0242730509974063,0.005254267266392707,0.44951837595701216
1776017899757743600,11.91974365234375,0.662001581338793,0.1446957634434104,0.8713988034039736
1776017899767805700,11.9298056640625,0.5242980148702859,-0.005839373677968979,1.3948761495411395
1776017899777866500,11.939866455078125,0.23497663061022758,-0.17511778971403835,1.8707886114269494
1776017899787927600,11.949927490234375,0.11603723971396684,-0.33986353075653314,1.9082780918657778
1776017899797988600,11.959988525390624,0.1716466064721346,-0.3152075206667185,1.31098732149899
1776017899808049700,11.970049560546874,0.10032923684194683,-0.16488456499129533,0.5790531028866768
1776017899818111700,11.98011181640625,-0.5127598450288177,0.4270326956436038,-0.8260323059797287
1776017899828172500,11.990172607421876,-1.4720067354947328,1.0894356973901391,-3.3226942236572503
1776017899838233300,12.0002333984375,-1.9804390727132557,1.1495090578198432,-4.531707609847188
1776017899848294400,12.01029443359375,-1.496613791876286,0.8503244511932134,-3.685352062284946
1776017899858355500,12.02035546875,-0.4506913652591407,0.8267603279933333,-1.384899529927969
1776017899868417500,12.03041748046875,0.16280001380220055,0.8288529163584113,0.19339783503115177
1776017899878478600,12.040478515625,0.3251213041767478,0.9420233684644103,0.46343525762856
1776017899888539600,12.05053955078125,0.6275792333856225,0.9677207043007016,0.010410919377207756
1776017899898600700,12.0606005859375,0.9132029321715235,0.9229907512143254,-1.1059481485128402
1776017899908661500,12.07066162109375,0.7690320693850516,0.8722171340495347,-2.8570687625080344
1776017899918723600,12.0807236328125,0.4502838073715567,0.9798127086326479,-4.4802246753692625
1776017899928784600,12.09078466796875,0.39641865393221376,1.2269976634308695,-5.405792291334271
1776017899938845700,12.100845703125,0.7062278226867318,1.4115657107964157,-5.62694731734097
1776017899948906800,12.11090673828125,1.0853168638944626,1.3595920701920985,-5.128009369176626
1776017899958967600,12.120967529296875,1.3472960677206516,1.1936164950937032,-3.604391104388237
1776017899969029600,12.131029541015625,1.4804647672384976,1.088594862651825,-1.777095013207197
1776017899979090400,12.14109033203125,1.656281937393546,1.0549719945132732,-0.40749534374177454
1776017899989151500,12.1511513671875,1.586963486495614,0.7214978725329041,1.0090940404355526
1776017899999212500,12.161212646484374,1.1996690731309354,0.6257753988340496,2.2090672110795975
1776017900009273600,12.171273681640624,0.4778717792600393,0.8025313111439347,3.3463498245328664
1776017900019335400,12.18133544921875,-0.44710620024874803,0.5502250678092241,4.967766200250387
1776017900029396500,12.191396484375,-1.15478831339702,0.6609323446720838,6.696092214113474
1776017900039457500,12.20145751953125,-1.7030499721787868,0.9537108836486935,8.702114056372642
1776017900049518600,12.2115185546875,-1.8323346698701382,0.3367053589865565,10.082733717024325
1776017900059579600,12.22157958984375,-0.7221136663436889,-0.8450660922735929,8.761783804437517
1776017900069641500,12.231641357421875,0.644921851722151,-0.47433045339137314,4.126607636809349
1776017900079702500,12.24170263671875,0.8343173192441463,0.5959434474110603,0.13191665363013744
1776017900089763600,12.251763671875,0.5466754125036299,1.444529238243401,-1.9793349108636378
1776017900099824600,12.26182470703125,0.39605800392627716,2.0177868065938354,-3.407265188744664
1776017900109885400,12.271885498046874,0.5217709806106984,2.302363626675308,-4.43269018625617
1776017900119947800,12.28194775390625,0.7590776616036892,2.308319027948379,-4.86824316522479
1776017900130008600,12.292008544921876,0.9036609045833349,2.0267177165463566,-4.12013347235918
1776017900140069400,12.3020693359375,1.1046376504361628,1.5587939153268933,-2.0727163743942976
1776017900150130400,12.31213037109375,1.335424428141117,0.9330454044997691,0.2737397842466831
1776017900160191500,12.32219140625,1.4365094517864285,0.035628655003011225,2.2200907093971964
1776017900170253600,12.332253662109375,1.2141900581754743,-0.8784040059909224,3.666730948445201
1776017900180314600,12.342314697265625,0.6747878515452146,-1.4758689638808369,4.6217315796434875
1776017900190375700,12.352375732421875,-0.4583974095918238,-1.4709952203646302,4.460763603574037
1776017900200436500,12.3624365234375,-2.2152799481146035,-0.566323969694972,2.85323488343358
1776017900210497500,12.37249755859375,-2.590826640540361,0.48547085608690976,1.0502642552137373
1776017900220559600,12.3825595703125,-1.3623743943870066,1.2046589903727174,-0.21024667850136755
1776017900230620700,12.39262060546875,-0.2343745730638504,1.5887208515569566,-0.9283119462370872
1776017900240681700,12.402681640625,0.4917845692783594,1.6082354071050882,-1.1748317151248455
1776017900250742800,12.41274267578125,1.0847131989128886,1.1969485621258615,-0.8554138832867145
1776017900260803600,12.422803466796875,1.4544272396624087,0.6528972145155072,-0.2777922745078802
1776017900270865700,12.43286572265625,1.5092694214403628,0.11176818409264087,0.24493162291347978
1776017900280926500,12.442926513671875,1.285515026590228,-0.3963698463544249,0.583286210411787
1776017900290987500,12.452987548828125,0.9985150710150599,-0.654809185616672,0.6601672055184841
1776017900301048600,12.463048583984374,0.7132080369628966,-0.6800275057643651,0.41386780138313767
1776017900311109600,12.473109619140626,0.39208120924979445,-0.7164017184376716,-0.07636427775621414
1776017900321171500,12.48317138671875,-0.011508066964149475,-0.7100009114846587,-0.48423956072628493
1776017900331232500,12.493232421875,-0.30104265558347104,-0.7037175934314728,-0.6218699158281088
1776017900341293600,12.50329345703125,-0.4359183051496744,-0.7471110372170805,-0.5790688849776983
1776017900351354600,12.513354736328125,-0.37714828240349885,-0.877263311523199,-0.5446949062108993
1776017900361415700,12.523415771484375,-0.5408733020961284,-1.0821583998635411,-0.4899421562820673
1776017900371477500,12.5334775390625,-0.402474739100784,-1.2099462831258774,-0.3761620478451252
1776017900381538600,12.54353857421875,0.10094020834714174,-1.4666308876752852,-0.3493997131258249
1776017900391599600,12.553599609375,0.44512335586845875,-1.5130615071997044,-0.2913730560928583
1776017900401660400,12.563660400390624,0.7087921202167868,-1.5759116388663648,-0.1636637910246849
1776017900411721500,12.573721435546876,0.9656292849794029,-1.5715306473031638,0.10825403849184513
