time,seconds_elapsed,z,y,x
1776017887910696400,0.072696533203125,-0.986663818359375,-0.137542724609375,0.0951690673828125
1776017887920757500,0.082757568359375,-0.9864654541015625,-0.136871337890625,0.0934600830078125
1776017887930818300,0.092818359375,-0.9872283935546875,-0.1385955810546875,0.091461181640625
1776017887940879400,0.10287939453125,-0.9882049560546875,-0.1423187255859375,0.085845947265625
1776017887950940400,0.1129404296875,-0.989227294921875,-0.144195556640625,0.0791473388671875
1776017887961002200,0.123002197265625,-0.9879150390625,-0.139984130859375,0.075531005859375
1776017887971063300,0.133063232421875,-0.989776611328125,-0.1355438232421875,0.07672119140625
1776017887981124400,0.143124267578125,-0.9925537109375,-0.1333770751953125,0.081573486328125
1776017887991185400,0.153185302734375,-0.99725341796875,-0.1351776123046875,0.08343505859375
1776017888001246500,0.16324658203125,-0.99420166015625,-0.1396636962890625,0.0788116455078125
1776017888011307500,0.1733076171875,-0.990264892578125,-0.1456451416015625,0.0714111328125
1776017888021369300,0.183369384765625,-0.9926910400390625,-0.1422271728515625,0.06884765625
1776017888031430400,0.193430419921875,-0.995208740234375,-0.1370849609375,0.0706939697265625
1776017888041491500,0.203491455078125,-0.99957275390625,-0.1358642578125,0.0743408203125
1776017888051552500,0.213552490234375,-0.998382568359375,-0.14007568359375,0.0734710693359375
1776017888061613300,0.22361328125,-0.9942474365234375,-0.1400299072265625,0.0699920654296875
1776017888071675600,0.233675537109375,-0.987548828125,-0.1425018310546875,0.0644378662109375
1776017888081736400,0.243736328125,-0.98797607421875,-0.146026611328125,0.057891845703125
1776017888091797200,0.25379736328125,-0.9915618896484375,-0.140533447265625,0.053680419921875
1776017888101858300,0.2638583984375,-0.989471435546875,-0.1351470947265625,0.0559234619140625
1776017888111919400,0.27391943359375,-0.9944305419921875,-0.129119873046875,0.05352783203125
1776017888121980400,0.28398046875,-0.9972686767578125,-0.1274871826171875,0.0587310791015625
1776017888132042500,0.29404248046875,-0.9934234619140625,-0.1341400146484375,0.0659942626953125
1776017888142103600,0.304103515625,-0.9794921875,-0.1406402587890625,0.0671234130859375
1776017888152164400,0.314164306640625,-0.9715576171875,-0.1392669677734375,0.0662689208984375
1776017888162225400,0.324225341796875,-0.97100830078125,-0.1334686279296875,0.064056396484375
1776017888172286500,0.334286376953125,-0.9752349853515625,-0.1269378662109375,0.0587921142578125
1776017888182348500,0.3443486328125,-0.9824371337890625,-0.126617431640625,0.05670166015625
1776017888192409600,0.35440966796875,-0.9971771240234375,-0.1347198486328125,0.0593414306640625
1776017888202470700,0.364470703125,-1.000152587890625,-0.1413116455078125,0.0611572265625
1776017888212531500,0.374531494140625,-0.988922119140625,-0.1416473388671875,0.0649871826171875
1776017888222592300,0.38459228515625,-0.9864044189453125,-0.1392822265625,0.073150634765625
1776017888232654300,0.394654296875,-0.993438720703125,-0.1391754150390625,0.0774688720703125
1776017888242715400,0.40471533203125,-0.9944000244140625,-0.1429595947265625,0.076751708984375
1776017888252776400,0.4147763671875,-0.990264892578125,-0.146942138671875,0.0802154541015625
1776017888262837500,0.42483740234375,-0.991058349609375,-0.1427459716796875,0.0829925537109375
1776017888272898600,0.434898681640625,-0.9925689697265625,-0.1297454833984375,0.0736846923828125
1776017888282959400,0.44495947265625,-0.9815521240234375,-0.12542724609375,0.0586700439453125
1776017888293021400,0.455021484375,-0.9693756103515625,-0.1255340576171875,0.051177978515625
1776017888303082500,0.46508251953125,-0.967193603515625,-0.1263885498046875,0.050689697265625
1776017888313143600,0.4751435546875,-0.9784393310546875,-0.1287994384765625,0.054412841796875
1776017888323204600,0.48520458984375,-0.9950103759765625,-0.1338958740234375,0.0572662353515625
1776017888333265700,0.495265625,-1.0014495849609375,-0.142181396484375,0.0610809326171875
1776017888343327500,0.505327392578125,-0.9970550537109375,-0.142242431640625,0.0556793212890625
1776017888353388500,0.515388427734375,-0.9892120361328125,-0.137908935546875,0.0503692626953125
1776017888363449300,0.525449462890625,-0.986907958984375,-0.1292266845703125,0.04730224609375
1776017888373510400,0.535510498046875,-0.988555908203125,-0.1215362548828125,0.046417236328125
1776017888383571500,0.545571533203125,-0.9870758056640625,-0.1264801025390625,0.042633056640625
1776017888393633300,0.55563330078125,-0.9775848388671875,-0.1336212158203125,0.039703369140625
1776017888403694300,0.5656943359375,-0.9925079345703125,-0.1352691650390625,0.05126953125
1776017888413755400,0.57575537109375,-1.0151824951171875,-0.131927490234375,0.067138671875
1776017888423816400,0.58581640625,-0.999725341796875,-0.1343536376953125,0.0548095703125
1776017888433877500,0.59587744140625,-0.9796905517578125,-0.1378936767578125,0.0407257080078125
1776017888443938600,0.6059384765625,-0.9843902587890625,-0.1302032470703125,0.0345458984375
1776017888454000400,0.61600048828125,-1.0015106201171875,-0.1227569580078125,0.0341644287109375
1776017888464061400,0.6260615234375,-1.0054931640625,-0.12384033203125,0.034637451171875
1776017888474122500,0.63612255859375,-0.99090576171875,-0.1247711181640625,0.0321197509765625
1776017888484183600,0.64618359375,-0.973846435546875,-0.12371826171875,0.03265380859375
1776017888494244400,0.656244384765625,-0.9691162109375,-0.1186676025390625,0.0372772216796875
1776017888504306400,0.666306396484375,-0.9652099609375,-0.1177215576171875,0.0362396240234375
1776017888514367200,0.6763671875,-0.967437744140625,-0.1242828369140625,0.0362548828125
1776017888524428300,0.68642822265625,-0.9762725830078125,-0.12738037109375,0.030853271484375
1776017888534489300,0.6964892578125,-0.9759521484375,-0.1263275146484375,0.020050048828125
1776017888544550400,0.70655029296875,-0.9810333251953125,-0.1298065185546875,0.013671875
1776017888554611500,0.716611572265625,-0.9851837158203125,-0.1356658935546875,0.016693115234375
1776017888564673500,0.726673583984375,-0.98126220703125,-0.136932373046875,0.0194091796875
1776017888574734300,0.736734375,-0.982025146484375,-0.135467529296875,0.0253753662109375
1776017888584795400,0.74679541015625,-0.981964111328125,-0.1345672607421875,0.0279693603515625
1776017888594856400,0.7568564453125,-0.98626708984375,-0.1324005126953125,0.0315093994140625
1776017888604917500,0.76691748046875,-0.9867706298828125,-0.13446044921875,0.0295257568359375
1776017888614979600,0.7769794921875,-0.9828033447265625,-0.1409149169921875,0.027801513671875
1776017888625040600,0.78704052734375,-0.979522705078125,-0.1429901123046875,0.0216522216796875
1776017888635101400,0.797101318359375,-0.9801788330078125,-0.1428985595703125,0.0196533203125
1776017888645162200,0.807162353515625,-0.9825897216796875,-0.1390228271484375,0.0200653076171875
1776017888655223300,0.817223388671875,-0.98577880859375,-0.138519287109375,0.0179443359375
1776017888665284400,0.827284423828125,-0.9888763427734375,-0.1370849609375,0.0158233642578125
1776017888675346400,0.837346435546875,-0.993988037109375,-0.137481689453125,0.0162506103515625
1776017888685407500,0.847407470703125,-0.993743896484375,-0.1403045654296875,0.01690673828125
1776017888695468000,0.857468017578125,-0.98931884765625,-0.13433837890625,0.0125885009765625
1776017888705529000,0.867529052734375,-0.9874114990234375,-0.1267852783203125,0.014251708984375
1776017888715590000,0.87758984375,-0.9906005859375,-0.1250152587890625,0.018218994140625
1776017888725652000,0.88765185546875,-0.990020751953125,-0.1309356689453125,0.0208587646484375
1776017888735713000,0.897713134765625,-0.9902801513671875,-0.1359100341796875,0.0227508544921875
1776017888745774000,0.907774169921875,-0.99273681640625,-0.1376190185546875,0.0264129638671875
1776017888755835000,0.9178349609375,-0.9888763427734375,-0.1374053955078125,0.0242156982421875
1776017888765896000,0.92789599609375,-0.986968994140625,-0.134796142578125,0.0171051025390625
1776017888775957800,0.937957763671875,-0.98931884765625,-0.1342926025390625,0.0104827880859375
1776017888786018800,0.948018798828125,-0.9930267333984375,-0.13909912109375,0.0111846923828125
1776017888796079900,0.958079833984375,-0.995941162109375,-0.1402435302734375,0.0149078369140625
1776017888806141000,0.968140869140625,-1.00103759765625,-0.142120361328125,0.021209716796875
1776017888816202000,0.978201904296875,-1.0012359619140625,-0.139495849609375,0.0294647216796875
1776017888826263000,0.988262939453125,-0.9943389892578125,-0.13665771484375,0.033935546875
1776017888836324900,0.998324951171875,-0.98626708984375,-0.1383819580078125,0.029144287109375
1776017888846386000,1.008385986328125,-0.979339599609375,-0.13555908203125,0.0256195068359375
1776017888856447000,1.018447021484375,-0.973968505859375,-0.131927490234375,0.0240325927734375
1776017888866508000,1.028508056640625,-0.9756927490234375,-0.132537841796875,0.021942138671875
1776017888876569000,1.038569091796875,-0.977783203125,-0.135009765625,0.0198974609375
1776017888886631000,1.048630859375,-0.98468017578125,-0.1343994140625,0.0205078125
1776017888896692000,1.05869189453125,-0.988128662109375,-0.1343994140625,0.0225982666015625
1776017888906752800,1.068752685546875,-0.9922637939453125,-0.133270263671875,0.02593994140625
1776017888916813800,1.078813720703125,-0.999359130859375,-0.13140869140625,0.0242156982421875
1776017888926875000,1.088875,-0.9956207275390625,-0.1327667236328125,0.0236968994140625
1776017888936936000,1.09893603515625,-0.9940338134765625,-0.13616943359375,0.0210113525390625
1776017888946997800,1.108997802734375,-0.994171142578125,-0.1354827880859375,0.0205841064453125
1776017888957058800,1.119058837890625,-0.9925689697265625,-0.1367034912109375,0.021514892578125
1776017888967120000,1.129119873046875,-0.985992431640625,-0.135498046875,0.0272216796875
1776017888977181000,1.139180908203125,-0.9852294921875,-0.1390380859375,0.033935546875
1776017888987242000,1.149241943359375,-0.9752197265625,-0.134613037109375,0.0358123779296875
1776017888997304000,1.159303955078125,-0.967254638671875,-0.1303863525390625,0.0317230224609375
1776017889007364900,1.16936474609375,-0.972442626953125,-0.125244140625,0.028839111328125
1776017889017426000,1.179426025390625,-0.9854736328125,-0.1261444091796875,0.0309295654296875
1776017889027487000,1.189487060546875,-0.9923858642578125,-0.132415771484375,0.0297393798828125
1776017889037547800,1.1995478515625,-1.0005340576171875,-0.1372528076171875,0.03271484375
1776017889047608800,1.20960888671875,-1.0106048583984375,-0.1408233642578125,0.037384033203125
1776017889057671000,1.2196708984375,-1.0097503662109375,-0.1393890380859375,0.0362701416015625
1776017889067732000,1.22973193359375,-1.0055694580078125,-0.133209228515625,0.0349578857421875
1776017889077792800,1.239792724609375,-0.9999847412109375,-0.1282806396484375,0.0341949462890625
1776017889087853800,1.249853759765625,-0.9925537109375,-0.12896728515625,0.0329437255859375
1776017889097915000,1.259914794921875,-0.9792022705078125,-0.1312255859375,0.0340728759765625
1776017889107977000,1.26997705078125,-0.9718780517578125,-0.134765625,0.0315093994140625
1776017889118038000,1.2800380859375,-0.97198486328125,-0.1324920654296875,0.0270233154296875
1776017889128099000,1.29009912109375,-0.9771881103515625,-0.1285247802734375,0.0260772705078125
1776017889138159900,1.300159912109375,-0.9809722900390625,-0.1263580322265625,0.0240020751953125
1776017889148221000,1.310220947265625,-0.98687744140625,-0.126678466796875,0.0252227783203125
1776017889158282000,1.320281982421875,-0.9881134033203125,-0.1303253173828125,0.0255126953125
1776017889168344000,1.330343994140625,-0.9853363037109375,-0.1349029541015625,0.027923583984375
1776017889178405000,1.340405029296875,-0.98907470703125,-0.133575439453125,0.0280609130859375
1776017889188466000,1.3504658203125,-0.9848175048828125,-0.129852294921875,0.0264892578125
1776017889198527000,1.36052685546875,-0.982269287109375,-0.1265716552734375,0.0260009765625
1776017889208587800,1.370587890625,-0.9829254150390625,-0.1290435791015625,0.024078369140625
1776017889218649900,1.38064990234375,-0.98162841796875,-0.1300506591796875,0.0225677490234375
1776017889228711000,1.3907109375,-0.98358154296875,-0.1321563720703125,0.0216522216796875
1776017889238772000,1.40077197265625,-0.9929656982421875,-0.1299591064453125,0.0265655517578125
1776017889248833000,1.4108330078125,-1.0029144287109375,-0.1315155029296875,0.0318450927734375
1776017889258894000,1.42089404296875,-1.0016021728515625,-0.13861083984375,0.0325775146484375
1776017889268955000,1.430954833984375,-1.0045928955078125,-0.14404296875,0.036163330078125
1776017889279017000,1.441016845703125,-1.00634765625,-0.1422882080078125,0.03631591796875
1776017889289078000,1.451078125,-0.9994659423828125,-0.1368865966796875,0.0358734130859375
1776017889299139000,1.46113916015625,-0.98956298828125,-0.131805419921875,0.035614013671875
1776017889309200100,1.4712001953125,-0.9832916259765625,-0.1303863525390625,0.03173828125
1776017889319261000,1.481260986328125,-0.98388671875,-0.129974365234375,0.031524658203125
1776017889329322000,1.491322021484375,-0.9869232177734375,-0.1269989013671875,0.0314178466796875
1776017889339383800,1.5013837890625,-0.9915771484375,-0.1295166015625,0.034149169921875
1776017889349444900,1.51144482421875,-0.99554443359375,-0.13665771484375,0.033599853515625
1776017889359506000,1.521505859375,-0.9999542236328125,-0.141265869140625,0.03497314453125
1776017889369567000,1.53156689453125,-0.9962310791015625,-0.1438446044921875,0.0340728759765625
1776017889379628000,1.5416279296875,-1.00006103515625,-0.1452178955078125,0.0341644287109375
1776017889389689900,1.55168994140625,-0.9998931884765625,-0.142608642578125,0.0358734130859375
1776017889399751000,1.5617509765625,-0.9761962890625,-0.1423187255859375,0.0274200439453125
1776017889409812000,1.57181201171875,-0.9646453857421875,-0.1401214599609375,0.016937255859375
1776017889419873000,1.581873046875,-0.955657958984375,-0.1343994140625,0.010772705078125
1776017889429934000,1.59193408203125,-0.9472503662109375,-0.1309051513671875,0.01336669921875
1776017889439995100,1.6019951171875,-0.9668731689453125,-0.129241943359375,0.0199127197265625
1776017889450057000,1.612056884765625,-0.9871978759765625,-0.1315460205078125,0.0244293212890625
1776017889460117800,1.62211767578125,-0.9720001220703125,-0.1428680419921875,0.0319976806640625
1776017889470178800,1.6321787109375,-0.956451416015625,-0.1493072509765625,0.0354461669921875
1776017889480239900,1.642239990234375,-0.9489898681640625,-0.1422271728515625,0.0392303466796875
1776017889490301000,1.652301025390625,-0.94781494140625,-0.13165283203125,0.0504150390625
1776017889500362800,1.66236279296875,-0.9513092041015625,-0.1290435791015625,0.0624237060546875
1776017889510423800,1.672423828125,-0.9759674072265625,-0.1293182373046875,0.0717315673828125
1776017889520484900,1.68248486328125,-0.98895263671875,-0.1375579833984375,0.0756683349609375
1776017889530546000,1.6925458984375,-0.98828125,-0.15216064453125,0.057708740234375
1776017889540607000,1.70260693359375,-0.9926605224609375,-0.1603240966796875,0.03472900390625
1776017889550668000,1.71266796875,-1.002838134765625,-0.159912109375,0.0197601318359375
1776017889560729900,1.722729736328125,-1.009002685546875,-0.163848876953125,0.0129241943359375
1776017889570791000,1.732791015625,-1.0018157958984375,-0.1641082763671875,0.01519775390625
1776017889580852000,1.74285205078125,-0.992279052734375,-0.1573944091796875,0.024078369140625
1776017889590912800,1.752912841796875,-0.9936676025390625,-0.149505615234375,0.033294677734375
1776017889600973800,1.762973876953125,-1.0008087158203125,-0.144134521484375,0.0376434326171875
1776017889611035000,1.773034912109375,-1.0042724609375,-0.1474609375,0.0389556884765625
1776017889621097000,1.783096923828125,-1.0084991455078125,-0.1565399169921875,0.037628173828125
1776017889631157800,1.79315771484375,-1.0099639892578125,-0.1597900390625,0.0337371826171875
1776017889641218800,1.80321875,-1.00408935546875,-0.1575775146484375,0.0321197509765625
1776017889651280000,1.81327978515625,-1.0045318603515625,-0.1569366455078125,0.037811279296875
1776017889661341000,1.8233408203125,-1.0106353759765625,-0.15576171875,0.0408172607421875
1776017889671403000,1.833403076171875,-1.0038299560546875,-0.1546173095703125,0.04095458984375
1776017889681464000,1.843464111328125,-0.9987335205078125,-0.1543121337890625,0.0423736572265625
1776017889691524900,1.85352490234375,-1.0165863037109375,-0.1609039306640625,0.0428009033203125
1776017889701586400,1.86358642578125,-1.0210113525390625,-0.1630706787109375,0.0364837646484375
1776017889711647500,1.8736474609375,-1.004302978515625,-0.1635894775390625,0.0331573486328125
1776017889721708500,1.88370849609375,-0.99139404296875,-0.155029296875,0.0287628173828125
1776017889731770600,1.8937705078125,-0.9853057861328125,-0.1414337158203125,0.0276336669921875
1776017889741831400,1.90383154296875,-0.985382080078125,-0.132049560546875,0.0277557373046875
1776017889751892500,1.913892578125,-0.985260009765625,-0.13299560546875,0.0258331298828125
1776017889761953500,1.92395361328125,-0.9916839599609375,-0.1393280029296875,0.0270843505859375
1776017889772014600,1.9340146484375,-1.00384521484375,-0.1431427001953125,0.0298309326171875
1776017889782076700,1.94407666015625,-1.003021240234375,-0.143646240234375,0.0317840576171875
1776017889792137700,1.9541376953125,-1.0009307861328125,-0.14215087890625,0.0318756103515625
1776017889802198500,1.964198486328125,-1.0023345947265625,-0.1393890380859375,0.0329437255859375
1776017889812259600,1.974259521484375,-0.99993896484375,-0.1375732421875,0.0376739501953125
1776017889822320400,1.9843203125,-0.994415283203125,-0.1367950439453125,0.0372314453125
1776017889832381400,1.99438134765625,-0.9942626953125,-0.1339263916015625,0.039215087890625
1776017889842443500,2.004443603515625,-0.9987335205078125,-0.130462646484375,0.0413360595703125
1776017889852504600,2.014504638671875,-0.9958038330078125,-0.128570556640625,0.040924072265625
1776017889862565600,2.024565673828125,-0.9942474365234375,-0.1316070556640625,0.0382843017578125
1776017889872626400,2.03462646484375,-0.9949493408203125,-0.132415771484375,0.0377349853515625
1776017889882687500,2.0446875,-0.9951019287109375,-0.1324005126953125,0.0373077392578125
1776017889892748500,2.05474853515625,-0.9836883544921875,-0.13153076171875,0.0341644287109375
1776017889902810600,2.064810546875,-0.972076416015625,-0.124755859375,0.0304107666015625
1776017889912871700,2.07487158203125,-0.9750823974609375,-0.1172637939453125,0.0310516357421875
1776017889922932700,2.0849326171875,-0.9776763916015625,-0.11737060546875,0.0328521728515625
1776017889932993500,2.09499365234375,-0.9770660400390625,-0.1192779541015625,0.034576416015625
1776017889943054600,2.1050546875,-0.9796905517578125,-0.124420166015625,0.038055419921875
1776017889953116700,2.11511669921875,-0.9807586669921875,-0.1258087158203125,0.0426177978515625
1776017889963177500,2.125177490234375,-0.9705657958984375,-0.12860107421875,0.042633056640625
1776017889973238500,2.135238525390625,-0.9649810791015625,-0.128753662109375,0.0408935546875
1776017889983299600,2.145299560546875,-0.95733642578125,-0.1240081787109375,0.0373992919921875
1776017889993360600,2.155360595703125,-0.9522552490234375,-0.119110107421875,0.03192138671875
1776017890003421400,2.16542138671875,-0.9627227783203125,-0.123016357421875,0.0263824462890625
1776017890013483500,2.1754833984375,-0.9732818603515625,-0.1307830810546875,0.01910400390625
1776017890023544600,2.185544677734375,-0.978363037109375,-0.1378936767578125,0.0232696533203125
1776017890033605600,2.195605712890625,-0.9824676513671875,-0.1238250732421875,0.036956787109375
1776017890043666700,2.205666748046875,-0.9854278564453125,-0.1136322021484375,0.0355072021484375
1776017890053727700,2.215727783203125,-0.984405517578125,-0.118316650390625,0.03009033203125
1776017890063788500,2.22578857421875,-0.9859466552734375,-0.1331634521484375,0.0264892578125
1776017890073850600,2.2358505859375,-0.992156982421875,-0.139373779296875,0.0273284912109375
1776017890083911700,2.24591162109375,-0.9915313720703125,-0.1407928466796875,0.0306396484375
1776017890093972500,2.255972412109375,-0.984832763671875,-0.1377410888671875,0.031982421875
1776017890104033500,2.266033447265625,-0.9797515869140625,-0.1336669921875,0.030426025390625
1776017890114094600,2.276094482421875,-0.9791717529296875,-0.1292572021484375,0.0300445556640625
1776017890124156400,2.286156494140625,-0.97698974609375,-0.1277618408203125,0.0301055908203125
1776017890134217500,2.296217529296875,-0.9756317138671875,-0.128875732421875,0.030792236328125
1776017890144278500,2.306278564453125,-0.9762725830078125,-0.1362762451171875,0.0322418212890625
1776017890154339600,2.316339599609375,-0.977264404296875,-0.13531494140625,0.034393310546875
1776017890164400600,2.326400634765625,-0.97967529296875,-0.13336181640625,0.038604736328125
1776017890174461700,2.336461669921875,-0.9824676513671875,-0.1350860595703125,0.0400543212890625
1776017890184523500,2.3465234375,-0.9802093505859375,-0.1372833251953125,0.0344390869140625
1776017890194584600,2.35658447265625,-0.980316162109375,-0.1345672607421875,0.0335845947265625
1776017890204645600,2.366645751953125,-0.9697265625,-0.126922607421875,0.035552978515625
1776017890214706700,2.376706787109375,-0.96533203125,-0.1210174560546875,0.03143310546875
1776017890224767500,2.386767578125,-0.9802703857421875,-0.119873046875,0.03179931640625
1776017890234828500,2.39682861328125,-1.011688232421875,-0.1270904541015625,0.0387420654296875
1776017890244890400,2.406890380859375,-1.0384979248046875,-0.1445465087890625,0.04705810546875
1776017890254951400,2.416951416015625,-1.04022216796875,-0.16015625,0.0588531494140625
1776017890265012500,2.427012451171875,-1.0264434814453125,-0.1596221923828125,0.0686187744140625
1776017890275073500,2.437073486328125,-1.002655029296875,-0.1468353271484375,0.0626220703125
1776017890285134600,2.447134521484375,-0.983795166015625,-0.1333770751953125,0.056365966796875
1776017890295196400,2.457196533203125,-0.9850006103515625,-0.1224517822265625,0.051025390625
1776017890305257500,2.467257568359375,-0.992889404296875,-0.1223297119140625,0.0487823486328125
1776017890315318500,2.477318603515625,-0.9936676025390625,-0.129638671875,0.0496978759765625
1776017890325379600,2.487379638671875,-0.9948577880859375,-0.1356658935546875,0.052154541015625
1776017890335440600,2.497440673828125,-0.998382568359375,-0.1349029541015625,0.0545654296875
1776017890345501700,2.507501708984375,-0.9972991943359375,-0.132843017578125,0.0528717041015625
1776017890355563500,2.5175634765625,-1.001739501953125,-0.1339263916015625,0.052215576171875
1776017890365624600,2.52762451171875,-1.0081787109375,-0.1369476318359375,0.0523529052734375
1776017890375685400,2.537685302734375,-1.0108642578125,-0.1394195556640625,0.0528106689453125
1776017890385746400,2.547746337890625,-1.00872802734375,-0.136871337890625,0.051666259765625
1776017890395807500,2.557807373046875,-1.0066680908203125,-0.1353759765625,0.049591064453125
1776017890405868500,2.56786865234375,-1.0079498291015625,-0.1331329345703125,0.051544189453125
1776017890415930600,2.5779306640625,-1.00665283203125,-0.133209228515625,0.0515594482421875
1776017890425991400,2.587991455078125,-0.997467041015625,-0.136810302734375,0.05078125
1776017890436052500,2.598052490234375,-0.990814208984375,-0.138824462890625,0.0484161376953125
1776017890446113500,2.608113525390625,-0.990692138671875,-0.1368865966796875,0.0463104248046875
1776017890456174600,2.618174560546875,-0.9907379150390625,-0.131500244140625,0.0438079833984375
1776017890466236700,2.628236572265625,-0.9902496337890625,-0.1297760009765625,0.043121337890625
1776017890476297700,2.638297607421875,-0.9962615966796875,-0.128265380859375,0.0437164306640625
1776017890486358500,2.648358642578125,-0.99884033203125,-0.13067626953125,0.046661376953125
1776017890496419600,2.658419677734375,-1.00177001953125,-0.1338958740234375,0.042816162109375
1776017890506480400,2.66848046875,-1.0053863525390625,-0.1363677978515625,0.0436859130859375
1776017890516541400,2.67854150390625,-1.0005645751953125,-0.1341400146484375,0.04388427734375
1776017890526603500,2.688603515625,-0.9929351806640625,-0.1273651123046875,0.039276123046875
1776017890536664600,2.69866455078125,-0.992950439453125,-0.1244964599609375,0.0381317138671875
1776017890546725600,2.7087255859375,-0.99713134765625,-0.12457275390625,0.0391082763671875
1776017890556786400,2.718786376953125,-1.006500244140625,-0.126556396484375,0.037506103515625
1776017890566847500,2.728847412109375,-1.0109710693359375,-0.1289215087890625,0.0323486328125
1776017890576908500,2.738908447265625,-1.007232666015625,-0.1291656494140625,0.0280914306640625
1776017890586970600,2.748970703125,-1.0016021728515625,-0.1272735595703125,0.0248565673828125
1776017890597031700,2.75903173828125,-0.9970855712890625,-0.12249755859375,0.0271453857421875
1776017890607092700,2.7690927734375,-0.999114990234375,-0.1248626708984375,0.0276031494140625
1776017890617153500,2.779153564453125,-0.997833251953125,-0.12823486328125,0.0290069580078125
1776017890627214600,2.789214599609375,-0.9983978271484375,-0.1276092529296875,0.025482177734375
1776017890637275400,2.799275390625,-1.0079345703125,-0.1253814697265625,0.0214080810546875
1776017890647337700,2.809337646484375,-1.0115814208984375,-0.126708984375,0.0157470703125
1776017890657398500,2.8193984375,-1.00592041015625,-0.1309051513671875,0.0099639892578125
1776017890667459600,2.82945947265625,-0.9987030029296875,-0.13043212890625,0.00909423828125
1776017890677520600,2.839520751953125,-0.9945068359375,-0.123565673828125,0.0203857421875
1776017890687581400,2.84958154296875,-0.9896240234375,-0.1282196044921875,0.040435791015625
1776017890697643000,2.85964306640625,-0.9876708984375,-0.135986328125,0.0534820556640625
1776017890707704000,2.8697041015625,-0.99273681640625,-0.14404296875,0.0525665283203125
1776017890717765000,2.87976513671875,-1.005340576171875,-0.1502532958984375,0.047943115234375
1776017890727826000,2.889825927734375,-1.0117645263671875,-0.15020751953125,0.0440673828125
1776017890737887000,2.899886962890625,-1.0103759765625,-0.150390625,0.0425567626953125
1776017890747948000,2.909947998046875,-0.997650146484375,-0.1497802734375,0.0414886474609375
1776017890758009900,2.920009765625,-0.979339599609375,-0.1427154541015625,0.0450286865234375
1776017890768071000,2.93007080078125,-0.9600677490234375,-0.1341094970703125,0.05291748046875
1776017890778132000,2.940132080078125,-0.9460601806640625,-0.12823486328125,0.054595947265625
1776017890788193000,2.950193115234375,-0.9343414306640625,-0.125244140625,0.0546417236328125
1776017890798254000,2.960254150390625,-0.9332427978515625,-0.13067626953125,0.0583038330078125
1776017890808315100,2.970315185546875,-0.932220458984375,-0.1339263916015625,0.0627288818359375
1776017890818377000,2.980376953125,-0.93218994140625,-0.135833740234375,0.0608367919921875
1776017890828438000,2.99043798828125,-0.941253662109375,-0.1429901123046875,0.05853271484375
1776017890838499000,3.0004990234375,-0.9573974609375,-0.1492767333984375,0.0572052001953125
1776017890848560000,3.01056005859375,-0.9644012451171875,-0.149261474609375,0.0524139404296875
1776017890858621000,3.020620849609375,-0.96734619140625,-0.1500396728515625,0.0495452880859375
1776017890868682800,3.030682861328125,-0.9698638916015625,-0.14678955078125,0.05084228515625
1776017890878743800,3.040743896484375,-0.963104248046875,-0.1430816650390625,0.05035400390625
1776017890888804900,3.050804931640625,-0.9595184326171875,-0.136749267578125,0.0495452880859375
1776017890898866000,3.060865966796875,-0.9571990966796875,-0.13507080078125,0.0518646240234375
1776017890908927000,3.070927001953125,-0.9530792236328125,-0.141510009765625,0.0570220947265625
1776017890918988000,3.080988037109375,-0.944976806640625,-0.144012451171875,0.06097412109375
1776017890929049900,3.0910498046875,-0.9506378173828125,-0.1436309814453125,0.0626068115234375
1776017890939111000,3.10111083984375,-0.956512451171875,-0.1452178955078125,0.0606689453125
1776017890949172000,3.111171875,-0.9571380615234375,-0.14788818359375,0.0601654052734375
1776017890959233000,3.12123291015625,-0.9674072265625,-0.1495361328125,0.05633544921875
1776017890969294000,3.131294189453125,-0.9751434326171875,-0.1543121337890625,0.055328369140625
1776017890979355000,3.14135498046875,-0.9794921875,-0.1592559814453125,0.0556488037109375
1776017890989417000,3.1514169921875,-0.9839630126953125,-0.159759521484375,0.05462646484375
1776017890999477800,3.161477783203125,-0.9846954345703125,-0.154876708984375,0.05462646484375
1776017891009538800,3.171538818359375,-0.9746856689453125,-0.153289794921875,0.0501251220703125
1776017891019600000,3.181599853515625,-0.966064453125,-0.154693603515625,0.0459747314453125
1776017891029661000,3.191660888671875,-0.972503662109375,-0.1571502685546875,0.03839111328125
1776017891039722000,3.201721923828125,-0.990692138671875,-0.161712646484375,0.0318450927734375
1776017891049784000,3.2117841796875,-0.9952239990234375,-0.16131591796875,0.0339508056640625
1776017891059844900,3.221844970703125,-0.9914703369140625,-0.1676483154296875,0.033843994140625
1776017891069906000,3.231906005859375,-0.993316650390625,-0.1684112548828125,0.045562744140625
1776017891079967000,3.241967041015625,-0.9931640625,-0.1672210693359375,0.0494537353515625
1776017891090028000,3.252028076171875,-1.0041961669921875,-0.1717376708984375,0.0746917724609375
1776017891100090000,3.262090087890625,-1.0186004638671875,-0.174407958984375,0.08697509765625
1776017891110151200,3.272151123046875,-1.0132598876953125,-0.176605224609375,0.0908203125
1776017891120212000,3.2822119140625,-1.013885498046875,-0.17681884765625,0.08355712890625
1776017891130272800,3.292272705078125,-1.0130462646484375,-0.1705322265625,0.0705718994140625
1776017891140333800,3.302333740234375,-1.00933837890625,-0.16339111328125,0.057708740234375
1776017891150395000,3.312394775390625,-1.0046234130859375,-0.159515380859375,0.0554351806640625
1776017891160457000,3.32245703125,-1.0006103515625,-0.15283203125,0.05322265625
1776017891170518000,3.33251806640625,-0.9981689453125,-0.15106201171875,0.04833984375
1776017891180579000,3.3425791015625,-0.9926605224609375,-0.149627685546875,0.0462799072265625
1776017891190639900,3.352639892578125,-0.9884490966796875,-0.1463470458984375,0.04150390625
1776017891200701000,3.362700927734375,-0.9841766357421875,-0.1483917236328125,0.0374603271484375
1776017891210763000,3.372762939453125,-0.989013671875,-0.1494293212890625,0.032501220703125
1776017891220824000,3.382823974609375,-0.9985198974609375,-0.148284912109375,0.0260467529296875
1776017891230885000,3.392885009765625,-0.9978485107421875,-0.145538330078125,0.0251922607421875
1776017891240946200,3.4029462890625,-0.99298095703125,-0.142120361328125,0.0244293212890625
1776017891251007000,3.413007080078125,-0.98822021484375,-0.14117431640625,0.025482177734375
1776017891261067800,3.42306787109375,-0.97857666015625,-0.13824462890625,0.02679443359375
1776017891271130000,3.433130126953125,-0.96923828125,-0.1372833251953125,0.032928466796875
1776017891281191000,3.44319091796875,-0.9650115966796875,-0.140106201171875,0.029144287109375
1776017891291252000,3.453251953125,-0.961669921875,-0.142974853515625,0.0263671875
1776017891301313000,3.46331298828125,-0.9638214111328125,-0.139739990234375,0.029815673828125
1776017891311373800,3.473373779296875,-0.9742431640625,-0.1357421875,0.036712646484375
1776017891321435000,3.483434814453125,-0.979339599609375,-0.143829345703125,0.0444488525390625
1776017891331497000,3.4934970703125,-0.9825592041015625,-0.153411865234375,0.0443115234375
1776017891341558000,3.50355810546875,-0.993438720703125,-0.1560211181640625,0.0483856201171875
1776017891351619000,3.513619140625,-0.998199462890625,-0.1566925048828125,0.04388427734375
1776017891361680100,3.52368017578125,-0.9981689453125,-0.1596221923828125,0.0336456298828125
1776017891371741200,3.5337412109375,-1.002044677734375,-0.1620635986328125,0.03021240234375
1776017891381803000,3.543802978515625,-1.0056304931640625,-0.1583709716796875,0.022979736328125
1776017891391864000,3.553864013671875,-1.0017852783203125,-0.1586761474609375,0.0255279541015625
1776017891401925000,3.563925048828125,-0.991363525390625,-0.16229248046875,0.0320281982421875
1776017891411986000,3.57398583984375,-0.977630615234375,-0.1625518798828125,0.038787841796875
1776017891422047000,3.584046875,-0.9734954833984375,-0.157684326171875,0.0504608154296875
1776017891432108000,3.59410791015625,-0.9809722900390625,-0.1500091552734375,0.06005859375
1776017891442169900,3.604169921875,-0.97833251953125,-0.1469573974609375,0.061279296875
1776017891452231000,3.61423095703125,-0.985504150390625,-0.1509552001953125,0.0610809326171875
1776017891462292000,3.6242919921875,-0.9910736083984375,-0.165283203125,0.0576324462890625
1776017891472353000,3.63435302734375,-0.99066162109375,-0.179473876953125,0.053558349609375
1776017891482414000,3.6444140625,-0.9790802001953125,-0.17694091796875,0.0523223876953125
1776017891492475100,3.65447509765625,-0.9593048095703125,-0.156951904296875,0.072601318359375
1776017891502537000,3.664536865234375,-0.9466094970703125,-0.1340789794921875,0.0904693603515625
1776017891512598000,3.674597900390625,-0.9608306884765625,-0.1229248046875,0.1026611328125
1776017891522659000,3.6846591796875,-0.9847412109375,-0.11822509765625,0.1194915771484375
1776017891532720000,3.69472021484375,-0.92169189453125,-0.1001129150390625,0.1551513671875
1776017891542781000,3.704781005859375,-0.987396240234375,-0.1398468017578125,0.0753326416015625
1776017891552843000,3.714843017578125,-1.0392303466796875,-0.230133056640625,0.0123748779296875
1776017891562903800,3.72490380859375,-0.9929962158203125,-0.22711181640625,0.0259857177734375
1776017891572964900,3.73496484375,-0.9934234619140625,-0.1655120849609375,0.0496978759765625
1776017891583026000,3.74502587890625,-1.015045166015625,-0.1286773681640625,0.0531463623046875
1776017891593087000,3.7550869140625,-1.02044677734375,-0.12353515625,0.05877685546875
1776017891603148000,3.76514794921875,-1.033935546875,-0.15069580078125,0.05810546875
1776017891613209900,3.7752099609375,-1.0401763916015625,-0.148193359375,0.082733154296875
1776017891623271000,3.78527099609375,-1.0086669921875,-0.1684722900390625,0.037628173828125
1776017891633332000,3.79533203125,-0.951202392578125,-0.184478759765625,0.01373291015625
1776017891643393000,3.80539306640625,-0.9596405029296875,-0.12823486328125,-0.0230560302734375
1776017891653454000,3.8154541015625,-0.9777679443359375,-0.111358642578125,-0.0262298583984375
1776017891663515100,3.82551513671875,-0.9349517822265625,-0.1012115478515625,-0.0061187744140625
1776017891673577000,3.835576904296875,-0.9384613037109375,-0.120574951171875,0.0160369873046875
1776017891683637800,3.8456376953125,-0.9703369140625,-0.1250762939453125,0.0222320556640625
1776017891693698800,3.85569873046875,-0.987579345703125,-0.11712646484375,0.0340728759765625
1776017891703760100,3.865760009765625,-0.9998779296875,-0.10284423828125,0.039520263671875
1776017891713821200,3.8758212890625,-1.0088348388671875,-0.12213134765625,0.038604736328125
1776017891723883300,3.88588330078125,-1.012420654296875,-0.151947021484375,0.0294189453125
1776017891733944000,3.895944091796875,-1.011962890625,-0.17510986328125,0.0225372314453125
1776017891744005000,3.906005126953125,-1.0254364013671875,-0.176788330078125,0.012725830078125
1776017891754066000,3.91606591796875,-1.0129547119140625,-0.1775360107421875,-0.000823974609375
1776017891764127000,3.926126953125,-0.9896240234375,-0.166595458984375,-0.0062713623046875
1776017891774188000,3.93618798828125,-0.9723358154296875,-0.14892578125,-0.0106964111328125
1776017891784250000,3.94625,-0.93896484375,-0.1218109130859375,-0.0076904296875
1776017891794311200,3.956311279296875,-0.919219970703125,-0.107696533203125,-0.0046234130859375
1776017891804372000,3.9663720703125,-0.9531402587890625,-0.102752685546875,0.0113525390625
1776017891814433000,3.97643310546875,-0.9725494384765625,-0.103424072265625,0.0222625732421875
1776017891824494000,3.986494140625,-0.9876251220703125,-0.1369476318359375,0.0310821533203125
1776017891834555100,3.99655517578125,-1.026641845703125,-0.16796875,0.038818359375
1776017891844617200,4.0066171875,-1.0327911376953125,-0.189544677734375,0.0343475341796875
1776017891854678300,4.01667822265625,-1.026458740234375,-0.18951416015625,0.0221099853515625
1776017891864739000,4.026739013671875,-1.0062103271484375,-0.1796112060546875,0.01043701171875
1776017891874800000,4.036800048828125,-0.992401123046875,-0.16534423828125,0.010009765625
1776017891884861000,4.04686083984375,-0.9880828857421875,-0.1616058349609375,0.0160064697265625
1776017891894923300,4.05692333984375,-0.9836578369140625,-0.15716552734375,0.0248870849609375
1776017891904984000,4.066984130859375,-0.9801483154296875,-0.1472320556640625,0.03607177734375
1776017891915045000,4.077045166015625,-0.9788818359375,-0.135986328125,0.04095458984375
1776017891925106200,4.087106201171875,-0.975250244140625,-0.139373779296875,0.0366058349609375
1776017891935167000,4.0971669921875,-0.978424072265625,-0.1522064208984375,0.0260162353515625
1776017891945228000,4.10722802734375,-0.983917236328125,-0.160552978515625,0.0210723876953125
1776017891955290000,4.1172900390625,-0.98553466796875,-0.1642303466796875,0.0114898681640625
1776017891965351200,4.12735107421875,-0.9872283935546875,-0.16656494140625,0.0017547607421875
1776017891975412200,4.137412109375,-0.9869232177734375,-0.1679840087890625,-0.01275634765625
1776017891985473300,4.147473388671875,-0.988189697265625,-0.1639404296875,-0.016387939453125
1776017891995534000,4.1575341796875,-0.9862060546875,-0.1566162109375,-0.0066070556640625
1776017892005595100,4.16759521484375,-0.981109619140625,-0.1544342041015625,0.002410888671875
1776017892015657200,4.1776572265625,-0.977294921875,-0.1497039794921875,0.0090484619140625
1776017892025718300,4.18771826171875,-0.974395751953125,-0.151092529296875,0.009979248046875
1776017892035779000,4.197779052734375,-0.96673583984375,-0.155120849609375,0.009918212890625
1776017892045840100,4.207840087890625,-0.9606781005859375,-0.1565704345703125,0.0114288330078125
1776017892055901000,4.21790087890625,-0.965057373046875,-0.1590728759765625,0.013397216796875
1776017892065963000,4.227962890625,-0.96075439453125,-0.165679931640625,0.00726318359375
1776017892076024000,4.238024169921875,-0.958404541015625,-0.1761322021484375,-0.0028533935546875
1776017892086085000,4.248085205078125,-0.9669036865234375,-0.1770782470703125,-0.0087432861328125
1776017892096146200,4.258146240234375,-0.9745025634765625,-0.1680755615234375,-0.004302978515625
1776017892106207200,4.268207275390625,-0.9728240966796875,-0.16448974609375,-0.0002593994140625
1776017892116268000,4.27826806640625,-0.9690399169921875,-0.1738128662109375,0.0137481689453125
1776017892126330000,4.288330078125,-0.9642486572265625,-0.1782989501953125,0.0175933837890625
1776017892136391200,4.29839111328125,-0.957244873046875,-0.175811767578125,0.01953125
1776017892146452200,4.3084521484375,-0.955322265625,-0.1683502197265625,0.0266265869140625
1776017892156513300,4.31851318359375,-0.948028564453125,-0.177398681640625,0.025482177734375
1776017892166574000,4.328573974609375,-0.921051025390625,-0.2180328369140625,0.0131072998046875
1776017892176635100,4.33863525390625,-0.9120330810546875,-0.254791259765625,0.0025634765625
1776017892186697000,4.348697021484375,-0.939544677734375,-0.2337799072265625,0.006134033203125
1776017892196758000,4.358758056640625,-0.9921875,-0.2052001953125,0.0342254638671875
1776017892206819000,4.368819091796875,-1.023681640625,-0.1691741943359375,0.0644683837890625
1776017892216880000,4.378880126953125,-0.9963836669921875,-0.1592559814453125,0.0546722412109375
1776017892226941200,4.388941162109375,-0.93011474609375,-0.1942596435546875,0.0371246337890625
1776017892237003000,4.3990029296875,-0.7796478271484375,-0.20574951171875,0.04974365234375
1776017892247064000,4.40906396484375,-0.834716796875,-0.2651214599609375,0.0289459228515625
1776017892257125000,4.419125,-0.8163604736328125,-0.28643798828125,0.0245513916015625
1776017892267186200,4.429186279296875,-0.8632049560546875,-0.2974700927734375,0.0252227783203125
1776017892277247200,4.439247314453125,-0.9257354736328125,-0.27459716796875,0.0613861083984375
1776017892287308300,4.449308349609375,-1.0862274169921875,-0.2548828125,0.120269775390625
1776017892297370000,4.4593701171875,-1.1446533203125,-0.2147674560546875,0.165069580078125
1776017892307431000,4.469430908203125,-1.0843505859375,-0.1804962158203125,0.150299072265625
1776017892317492000,4.479491943359375,-0.98602294921875,-0.1662750244140625,0.1022491455078125
1776017892327553000,4.489552978515625,-0.9367828369140625,-0.177978515625,0.0217132568359375
1776017892337614000,4.499614013671875,-0.9694061279296875,-0.188079833984375,-0.0379638671875
1776017892347676200,4.50967626953125,-1.0430450439453125,-0.15777587890625,-0.0432891845703125
1776017892357737000,4.519737060546875,-1.0741424560546875,-0.08917236328125,0.0126190185546875
1776017892367798000,4.529798095703125,-1.0533905029296875,-0.0352325439453125,0.09600830078125
1776017892377859000,4.539859130859375,-1.0272369384765625,-0.008758544921875,0.167144775390625
1776017892387920100,4.549920166015625,-1.0066680908203125,-0.0383148193359375,0.2246246337890625
1776017892397981200,4.559981201171875,-0.9212188720703125,-0.1377410888671875,0.2198944091796875
1776017892408043300,4.570043212890625,-0.8924560546875,-0.240966796875,0.2606353759765625
1776017892418104000,4.58010400390625,-0.9295501708984375,-0.234527587890625,0.27337646484375
1776017892428165000,4.5901650390625,-0.9586334228515625,-0.1693572998046875,0.220184326171875
1776017892438226000,4.600225830078125,-0.9815521240234375,-0.128936767578125,0.1760101318359375
1776017892448287000,4.610286865234375,-1.004974365234375,-0.1208648681640625,0.133392333984375
1776017892458348000,4.62034814453125,-1.032989501953125,-0.1315765380859375,0.133544921875
1776017892468410000,4.63041015625,-0.9857940673828125,-0.1666412353515625,0.1554718017578125
1776017892478471200,4.64047119140625,-0.990203857421875,-0.204559326171875,0.1743011474609375
1776017892488532000,4.650531982421875,-0.9720611572265625,-0.210601806640625,0.194915771484375
1776017892498593000,4.660593017578125,-0.9269256591796875,-0.185516357421875,0.2138671875
1776017892508654000,4.670654052734375,-0.90484619140625,-0.158355712890625,0.222259521484375
1776017892518716200,4.680716064453125,-0.9011993408203125,-0.1930084228515625,0.22491455078125
1776017892528777200,4.690777099609375,-0.9511260986328125,-0.20159912109375,0.246429443359375
1776017892538838300,4.70083837890625,-0.959930419921875,-0.1654052734375,0.2564544677734375
1776017892548899000,4.710899169921875,-0.9183807373046875,-0.13946533203125,0.23394775390625
1776017892558960000,4.720960205078125,-0.8743133544921875,-0.131744384765625,0.2044830322265625
1776017892569021000,4.73102099609375,-0.8675537109375,-0.15411376953125,0.16278076171875
1776017892579083300,4.741083251953125,-0.8699798583984375,-0.1334075927734375,0.15069580078125
1776017892589144000,4.75114404296875,-0.88739013671875,-0.085296630859375,0.159393310546875
1776017892599205000,4.761205078125,-0.994384765625,-0.0893707275390625,0.1810455322265625
1776017892609266000,4.771265869140625,-1.0126953125,-0.1170196533203125,0.232879638671875
1776017892619327000,4.781326904296875,-0.9485931396484375,-0.1300201416015625,0.2552337646484375
1776017892629389000,4.79138916015625,-0.8660888671875,-0.1295623779296875,0.249908447265625
1776017892639450000,4.8014501953125,-0.8728485107421875,-0.107391357421875,0.2249908447265625
1776017892649511200,4.81151123046875,-0.9417266845703125,-0.0917205810546875,0.1894378662109375
1776017892659572200,4.821572265625,-0.946075439453125,-0.109588623046875,0.1855010986328125
1776017892669633000,4.831633056640625,-0.9286041259765625,-0.115203857421875,0.2006072998046875
1776017892679694000,4.841694091796875,-0.9526214599609375,-0.0905609130859375,0.212554931640625
1776017892689756200,4.851756103515625,-0.994873046875,-0.05291748046875,0.2364044189453125
1776017892699816400,4.86181640625,-1.04534912109375,-0.0103302001953125,0.25732421875
1776017892709877500,4.87187744140625,-1.0571441650390625,-0.00018310546875,0.2899169921875
1776017892719938600,4.8819384765625,-1.0471649169921875,-0.0159912109375,0.3055877685546875
1776017892729999600,4.89199951171875,-1.052337646484375,-0.0339813232421875,0.28912353515625
1776017892740061400,4.9020615234375,-1.0561065673828125,-0.0471343994140625,0.280181884765625
1776017892750122500,4.91212255859375,-1.010650634765625,-0.0442352294921875,0.2632293701171875
1776017892760183600,4.92218359375,-1.0021820068359375,-0.0418243408203125,0.2255401611328125
1776017892770244600,4.93224462890625,-1.052490234375,-0.0419464111328125,0.2113189697265625
1776017892780305700,4.9423056640625,-1.0965576171875,-0.0439605712890625,0.2392425537109375
1776017892790366700,4.95236669921875,-1.1052398681640625,-0.0518798828125,0.2555694580078125
1776017892800428500,4.962428466796875,-1.0991668701171875,-0.076751708984375,0.2466583251953125
1776017892810489600,4.972489501953125,-1.0980224609375,-0.0833892822265625,0.2271728515625
1776017892820550400,4.98255029296875,-1.07501220703125,-0.03143310546875,0.199737548828125
1776017892830611500,4.992611572265625,-1.0231475830078125,0.1103363037109375,0.2211151123046875
1776017892840672500,5.002672607421875,-1.016754150390625,0.18182373046875,0.1908416748046875
1776017892850734600,5.012734619140625,-0.94073486328125,0.06170654296875,0.1252899169921875
1776017892860795400,5.02279541015625,-0.892974853515625,-0.0413665771484375,0.1319122314453125
1776017892870856400,5.0328564453125,-0.9366607666015625,-0.039459228515625,0.08758544921875
1776017892880917500,5.04291748046875,-1.09564208984375,0.013275146484375,-0.098785400390625
1776017892890978600,5.052978515625,-1.0720672607421875,0.0721282958984375,0.1435699462890625
1776017892901039600,5.06303955078125,-0.8899688720703125,0.0471343994140625,0.246673583984375
1776017892911101700,5.073101806640625,-0.75933837890625,0.0174407958984375,0.1669769287109375
1776017892921162500,5.08316259765625,-0.6875152587890625,0.03662109375,0.103485107421875
1776017892931223600,5.0932236328125,-0.671661376953125,0.014617919921875,0.1133270263671875
1776017892941284600,5.10328466796875,-0.66864013671875,-0.0316314697265625,0.17108154296875
1776017892951345400,5.113345458984375,-0.6583404541015625,0.1863555908203125,0.1600189208984375
1776017892961406500,5.123406494140625,-0.699676513671875,0.2018280029296875,0.0501556396484375
1776017892971468500,5.133468505859375,-0.77423095703125,0.160675048828125,-0.035369873046875
1776017892981529600,5.143529541015625,-0.7657623291015625,0.254486083984375,0.0188751220703125
1776017892991590400,5.15359033203125,-0.7440643310546875,0.27166748046875,0.07208251953125
1776017893001651500,5.1636513671875,-0.786712646484375,0.1856842041015625,0.1156463623046875
1776017893011712500,5.17371240234375,-0.7821807861328125,0.1756134033203125,0.110931396484375
1776017893021774600,5.183774658203125,-0.7795562744140625,0.26214599609375,0.1145172119140625
1776017893031835600,5.193835693359375,-0.7526397705078125,0.36102294921875,0.0996856689453125
1776017893041896700,5.203896728515625,-0.7331695556640625,0.35919189453125,0.1923370361328125
1776017893051957500,5.21395751953125,-0.714385986328125,0.2993316650390625,0.2890167236328125
1776017893062018600,5.2240185546875,-0.653350830078125,0.306304931640625,0.3574066162109375
1776017893072080600,5.23408056640625,-0.66876220703125,0.322845458984375,0.430419921875
1776017893082141700,5.2441416015625,-0.7368621826171875,0.3599853515625,0.459991455078125
1776017893092202800,5.25420263671875,-0.76007080078125,0.4600830078125,0.4565582275390625
1776017893102263600,5.264263671875,-0.7418365478515625,0.5785675048828125,0.467926025390625
1776017893112324400,5.274324462890625,-0.756866455078125,0.635986328125,0.52880859375
1776017893122385400,5.284385498046875,-0.721099853515625,0.617767333984375,0.6035003662109375
1776017893132447500,5.294447509765625,-0.61309814453125,0.6101226806640625,0.7028045654296875
1776017893142508500,5.304508544921875,-0.539520263671875,0.7004852294921875,0.84796142578125
1776017893152569600,5.314569580078125,-0.4634552001953125,0.7873687744140625,1.005340576171875
1776017893162630700,5.324630615234375,-0.4256591796875,0.79779052734375,1.073089599609375
1776017893172691500,5.33469140625,-0.6392974853515625,0.9362945556640625,1.0955963134765625
1776017893182753500,5.34475341796875,-0.7574615478515625,0.91436767578125,0.992950439453125
1776017893192814600,5.354814697265625,-0.7469940185546875,0.7965240478515625,0.9046783447265625
1776017893202875600,5.364875732421875,-0.7046661376953125,0.7970733642578125,0.8450775146484375
1776017893212936700,5.374936767578125,-0.6437835693359375,0.8121185302734375,0.8600006103515625
1776017893222997800,5.384997802734375,-0.589447021484375,0.7730560302734375,0.9062652587890625
1776017893233058600,5.39505859375,-0.53961181640625,0.72930908203125,0.9461212158203125
1776017893243120600,5.40512060546875,-0.4716949462890625,0.7124481201171875,0.9382171630859375
1776017893253181400,5.415181396484375,-0.41064453125,0.7465057373046875,0.9063568115234375
1776017893263242500,5.425242431640625,-0.4306640625,0.7536468505859375,0.8471832275390625
1776017893273303600,5.435303466796875,-0.5064849853515625,0.74102783203125,0.8170166015625
1776017893283364600,5.445364501953125,-0.5698699951171875,0.7346038818359375,0.827423095703125
1776017893293426400,5.455426513671875,-0.5750732421875,0.7079620361328125,0.9048919677734375
1776017893303487500,5.465487548828125,-0.5398712158203125,0.757171630859375,0.9931640625
1776017893313548500,5.475548583984375,-0.429534912109375,0.686676025390625,1.074920654296875
1776017893323609600,5.485609619140625,-0.337554931640625,0.62982177734375,1.081451416015625
1776017893333670700,5.495670654296875,-0.2697601318359375,0.645904541015625,1.0629119873046875
1776017893343731700,5.505731689453125,-0.278717041015625,0.6485443115234375,0.994598388671875
1776017893353793500,5.51579345703125,-0.31365966796875,0.6206512451171875,0.91326904296875
1776017893363854600,5.5258544921875,-0.3248138427734375,0.5947723388671875,0.885498046875
1776017893373915600,5.53591552734375,-0.3087921142578125,0.5481719970703125,0.8713836669921875
1776017893383976400,5.5459765625,-0.26873779296875,0.51312255859375,0.873748779296875
1776017893394037500,5.55603759765625,-0.20721435546875,0.49346923828125,0.9105987548828125
1776017893404099600,5.566099609375,-0.1384124755859375,0.4311065673828125,0.965179443359375
1776017893414160400,5.576160400390625,-0.0655364990234375,0.4156341552734375,1.01800537109375
1776017893424221400,5.586221435546875,0.010650634765625,0.4418792724609375,1.0504302978515625
1776017893434282500,5.596282470703125,0.0438079833984375,0.406585693359375,1.063995361328125
1776017893444343600,5.606343505859375,0.0036773681640625,0.310516357421875,1.0821685791015625
1776017893454404600,5.616404541015625,-0.1165618896484375,0.2247467041015625,1.0750579833984375
1776017893464466700,5.626466796875,-0.23126220703125,0.1606292724609375,1.0117340087890625
1776017893474527500,5.636527587890625,-0.2493133544921875,0.146636962890625,0.9512481689453125
1776017893484588500,5.646588623046875,-0.171905517578125,0.1283111572265625,0.8667144775390625
1776017893494649600,5.656649658203125,-0.1397247314453125,0.1046295166015625,0.77288818359375
1776017893504710700,5.666710693359375,-0.2255096435546875,0.05438232421875,0.7552947998046875
1776017893514772700,5.676772705078125,-0.3275909423828125,-0.0247802734375,0.7496490478515625
1776017893524833500,5.68683349609375,-0.3598175048828125,-0.01275634765625,0.740203857421875
1776017893534894600,5.69689453125,-0.3299102783203125,0.0731048583984375,0.7454681396484375
1776017893544955400,5.706955322265625,-0.220794677734375,0.1489105224609375,0.8036956787109375
1776017893555016400,5.717016357421875,-0.05645751953125,0.2344818115234375,0.8540191650390625
1776017893565078500,5.72707861328125,0.0393524169921875,0.306121826171875,0.898040771484375
1776017893575139600,5.7371396484375,0.0737152099609375,0.31561279296875,0.96466064453125
1776017893585200600,5.74720068359375,0.04339599609375,0.3297882080078125,0.976593017578125
1776017893595261700,5.75726171875,-0.010101318359375,0.3383331298828125,0.93707275390625
1776017893605322500,5.767322509765625,0.0111541748046875,0.4149169921875,0.919830322265625
1776017893615383600,5.777383544921875,0.0402679443359375,0.6113739013671875,0.885101318359375
1776017893625445600,5.787445556640625,0.0117645263671875,0.773468017578125,0.7545623779296875
1776017893635506700,5.797506591796875,-0.09075927734375,0.8749847412109375,0.571746826171875
1776017893645567700,5.807567626953125,-0.2809295654296875,0.8970794677734375,0.5274505615234375
1776017893655628500,5.817628662109375,-0.4553375244140625,0.69744873046875,0.5942535400390625
1776017893665689300,5.827689453125,-0.538421630859375,0.4863739013671875,0.64984130859375
1776017893675751400,5.83775146484375,-0.55621337890625,0.519622802734375,0.710662841796875
1776017893685812500,5.8478125,-0.4331817626953125,0.5996246337890625,0.759796142578125
1776017893695873500,5.85787353515625,-0.2847442626953125,0.707244873046875,0.8015594482421875
1776017893705934800,5.867934814453125,-0.1904754638671875,0.7659912109375,0.924102783203125
1776017893715996000,5.877995849609375,-0.2664794921875,0.43304443359375,1.0238037109375
1776017893726056700,5.888056640625,-0.245574951171875,0.0761566162109375,1.21905517578125
1776017893736118800,5.898118896484375,0.085906982421875,0.5106353759765625,1.4312896728515625
1776017893746179800,5.908179931640625,0.430145263671875,0.6355743408203125,1.4999847412109375
1776017893756241000,5.918240966796875,0.4924468994140625,0.36749267578125,1.33563232421875
1776017893766301700,5.9283017578125,0.3354034423828125,0.184112548828125,1.1037750244140625
1776017893776362800,5.93836279296875,0.1649932861328125,0.22052001953125,0.872039794921875
1776017893786424600,5.948424560546875,0.129913330078125,0.2197113037109375,0.669708251953125
1776017893796485600,5.958485595703125,0.0264434814453125,0.35003662109375,0.5905303955078125
1776017893806546700,5.968546630859375,-0.208404541015625,0.344635009765625,0.6626129150390625
1776017893816607700,5.978607666015625,-0.3266143798828125,0.3620758056640625,0.67108154296875
1776017893826668800,5.988668701171875,-0.14801025390625,0.367340087890625,0.643646240234375
1776017893836729900,5.998729736328125,0.0229034423828125,0.526947021484375,0.6026153564453125
1776017893846791700,6.008791748046875,-0.0173187255859375,0.6013641357421875,0.524749755859375
1776017893856852700,6.018852783203125,-0.237457275390625,0.439361572265625,0.3197174072265625
1776017893866913800,6.028913818359375,-0.27593994140625,0.5942840576171875,0.037200927734375
1776017893876974800,6.038974853515625,-0.231292724609375,0.9494476318359375,-0.020355224609375
1776017893887035600,6.04903564453125,-0.3888092041015625,0.8393096923828125,0.0130157470703125
1776017893897097700,6.05909765625,-0.362091064453125,0.6319427490234375,-0.0228271484375
1776017893907158500,6.069158447265625,-0.2542266845703125,0.652801513671875,-0.08697509765625
1776017893917219600,6.079219482421875,-0.0726165771484375,0.7867889404296875,-0.1671600341796875
1776017893927280600,6.08928076171875,0.0510101318359375,1.00439453125,-0.0377349853515625
1776017893937341700,6.099341796875,0.133331298828125,1.2539215087890625,0.3797149658203125
1776017893947402800,6.10940283203125,-0.1333465576171875,1.5239105224609375,1.2291717529296875
1776017893957464600,6.119464599609375,-0.2970428466796875,1.46380615234375,1.65911865234375
1776017893967525600,6.129525634765625,-0.2755279541015625,1.4361419677734375,1.7447052001953125
1776017893977586700,6.139586669921875,-0.3484344482421875,1.0948333740234375,1.6098785400390625
1776017893987647700,6.149647705078125,-0.269805908203125,0.96002197265625,1.678466796875
1776017893997708800,6.159708740234375,-0.46868896484375,1.2808380126953125,1.3900299072265625
1776017894007771000,6.16977099609375,-0.50250244140625,1.33740234375,0.9209747314453125
1776017894017831700,6.179831787109375,0.1669464111328125,0.6934356689453125,0.583404541015625
1776017894027892700,6.189892822265625,0.136993408203125,0.3973388671875,0.300506591796875
1776017894037953500,6.19995361328125,-0.34991455078125,0.4861297607421875,0.1247100830078125
1776017894048014600,6.2100146484375,-0.561004638671875,0.490081787109375,0.0216522216796875
1776017894058076700,6.22007666015625,-0.591949462890625,0.43499755859375,-0.0467376708984375
1776017894068137700,6.2301376953125,-0.6939239501953125,0.472137451171875,-0.03436279296875
1776017894078198800,6.24019873046875,-0.706878662109375,0.523101806640625,0.0203094482421875
1776017894088259600,6.250259521484375,-0.5751800537109375,0.5228729248046875,0.051025390625
1776017894098320600,6.260320556640625,-0.4498748779296875,0.480865478515625,0.05718994140625
1776017894108381700,6.270381591796875,-0.3455047607421875,0.50604248046875,0.0931243896484375
1776017894118443800,6.28044384765625,-0.23638916015625,0.60369873046875,0.1293487548828125
1776017894128504800,6.2905048828125,-0.1515045166015625,0.686309814453125,0.14654541015625
1776017894138566000,6.30056591796875,-0.03082275390625,0.775054931640625,0.175201416015625
1776017894148626700,6.310626708984375,0.10809326171875,0.9676513671875,0.2628936767578125
1776017894158687700,6.320687744140625,0.093475341796875,0.8341827392578125,0.314849853515625
1776017894168749800,6.330749755859375,0.2049407958984375,0.850830078125,0.414520263671875
1776017894178811000,6.340810791015625,0.2623138427734375,0.9853363037109375,0.471588134765625
1776017894188871700,6.35087158203125,0.1472930908203125,1.43817138671875,0.6897125244140625
1776017894198932700,6.3609326171875,0.02947998046875,2.068511962890625,0.984832763671875
1776017894208993800,6.370993896484375,-0.1079864501953125,2.405914306640625,1.0974273681640625
1776017894219054600,6.3810546875,-0.271759033203125,2.1918792724609375,1.102569580078125
1776017894229116700,6.39111669921875,-0.4313201904296875,1.443817138671875,0.97430419921875
1776017894239177700,6.401177734375,-0.503204345703125,0.8431854248046875,0.7422027587890625
1776017894249238800,6.41123876953125,-0.5553436279296875,0.5762939453125,0.535491943359375
1776017894259299800,6.4212998046875,-0.52984619140625,0.5204925537109375,0.394287109375
1776017894269361000,6.43136083984375,-0.427520751953125,0.5517425537109375,0.3102264404296875
1776017894279422700,6.441422607421875,-0.303741455078125,0.622894287109375,0.2564239501953125
1776017894289483800,6.45148388671875,-0.2178955078125,0.707244873046875,0.217193603515625
1776017894299544800,6.461544921875,-0.1703033447265625,0.77557373046875,0.187896728515625
1776017894309606000,6.47160595703125,-0.113525390625,0.8051300048828125,0.1719970703125
1776017894319666700,6.481666748046875,-0.0740814208984375,0.827239990234375,0.1484222412109375
1776017894329728800,6.491728759765625,-0.0628662109375,0.8255462646484375,0.1280975341796875
1776017894339789600,6.50178955078125,-0.088043212890625,0.80047607421875,0.1046905517578125
1776017894349850600,6.5118505859375,-0.1332855224609375,0.79486083984375,0.0791778564453125
1776017894359911700,6.52191162109375,-0.1482086181640625,0.8218231201171875,0.0684814453125
1776017894369972700,6.53197265625,-0.136749267578125,0.80267333984375,0.106964111328125
1776017894380034600,6.54203466796875,-0.1254425048828125,0.7517852783203125,0.183868408203125
1776017894390095600,6.552095703125,-0.1542816162109375,0.72491455078125,0.2552490234375
1776017894400156700,6.56215673828125,-0.2127838134765625,0.7435455322265625,0.326507568359375
1776017894410217700,6.5722177734375,-0.2625579833984375,0.7646636962890625,0.391998291015625
1776017894420278800,6.58227880859375,-0.1982421875,0.8097381591796875,0.408447265625
1776017894430339800,6.59233984375,-0.1338043212890625,0.849365234375,0.4034423828125
1776017894440402000,6.60240185546875,-0.1554107666015625,0.907806396484375,0.3996429443359375
1776017894450462700,6.612462646484375,-0.191497802734375,0.98236083984375,0.38031005859375
1776017894460523800,6.622523681640625,-0.196533203125,1.054290771484375,0.3382568359375
1776017894470584600,6.63258447265625,-0.155303955078125,1.0868988037109375,0.2830963134765625
1776017894480645600,6.642645751953125,-0.0944671630859375,1.093170166015625,0.2337646484375
1776017894490707700,6.652707763671875,-0.055877685546875,1.12127685546875,0.19439697265625
1776017894500768800,6.662768798828125,-0.058349609375,1.1707000732421875,0.168914794921875
1776017894510829600,6.67282958984375,-0.061614990234375,1.2408294677734375,0.1549530029296875
1776017894520890600,6.682890625,-0.0468902587890625,1.3232574462890625,0.157012939453125
1776017894530951700,6.69295166015625,-0.03314208984375,1.4141845703125,0.159454345703125
1776017894541013800,6.703013671875,-0.0314788818359375,1.467254638671875,0.1643218994140625
1776017894551074800,6.71307470703125,-0.0793304443359375,1.5089111328125,0.164154052734375
1776017894561135900,6.723135986328125,-0.1577606201171875,1.506500244140625,0.175872802734375
1776017894571196700,6.73319677734375,-0.2035369873046875,1.369110107421875,0.217071533203125
1776017894581257700,6.7432578125,-0.1569061279296875,1.1498565673828125,0.2525787353515625
1776017894591318500,6.753318603515625,-0.075836181640625,0.9293975830078125,0.2823333740234375
1776017894601380900,6.763380859375,0.010101318359375,0.79638671875,0.3048553466796875
1776017894611441700,6.773441650390625,0.0931549072265625,0.7268218994140625,0.3119964599609375
1776017894621502700,6.783502685546875,0.1535186767578125,0.6686553955078125,0.328369140625
1776017894631563800,6.793563720703125,0.1655426025390625,0.625091552734375,0.359344482421875
1776017894641624600,6.80362451171875,0.1472015380859375,0.6254119873046875,0.397430419921875
1776017894651686700,6.813686767578125,0.1340179443359375,0.652130126953125,0.44708251953125
1776017894661747700,6.823747802734375,0.12982177734375,0.6876678466796875,0.5142822265625
1776017894671808800,6.833808837890625,0.1316070556640625,0.745635986328125,0.5787506103515625
1776017894681869800,6.843869873046875,0.1343841552734375,0.8151397705078125,0.6451568603515625
1776017894691931000,6.853930908203125,0.1360931396484375,0.8682708740234375,0.7573089599609375
1776017894701992400,6.863992431640625,0.1351470947265625,0.884429931640625,0.860595703125
1776017894712053500,6.874053466796875,0.125244140625,0.9345245361328125,0.8635711669921875
1776017894722114600,6.884114501953125,0.1162567138671875,0.978057861328125,0.8374786376953125
1776017894732175600,6.894175537109375,0.0887603759765625,0.990692138671875,0.843170166015625
1776017894742236700,6.904236572265625,0.0442047119140625,0.98699951171875,0.84967041015625
1776017894752297700,6.914297607421875,-0.0262451171875,0.9698944091796875,0.795989990234375
1776017894762359600,6.924359619140625,-0.119110107421875,0.9218292236328125,0.657012939453125
1776017894772420600,6.934420654296875,-0.196075439453125,0.867950439453125,0.4983367919921875
1776017894782481700,6.944481689453125,-0.2301025390625,0.8395233154296875,0.3662261962890625
1776017894792542500,6.95454248046875,-0.201263427734375,0.8439178466796875,0.281280517578125
1776017894802603500,6.964603515625,-0.1431884765625,0.8614501953125,0.2302703857421875
1776017894812665300,6.974665283203125,-0.0811309814453125,0.8974151611328125,0.200775146484375
1776017894822726400,6.984726318359375,-0.026611328125,0.919158935546875,0.1857757568359375
1776017894832787500,6.994787353515625,0.0118408203125,0.933441162109375,0.1803741455078125
1776017894842848500,7.0048486328125,0.03582763671875,0.9772186279296875,0.1766357421875
1776017894852909600,7.01490966796875,0.0531158447265625,1.0365753173828125,0.181671142578125
1776017894862971600,7.0249716796875,0.0797271728515625,1.085296630859375,0.1929779052734375
1776017894873032400,7.035032470703125,0.10235595703125,1.07421875,0.1724395751953125
1776017894883093500,7.045093505859375,0.1207275390625,1.0959625244140625,0.1092681884765625
1776017894893154600,7.055154541015625,0.153778076171875,1.12890625,0.089324951171875
1776017894903215600,7.065215576171875,0.1959228515625,1.1465911865234375,0.0964202880859375
1776017894913276700,7.075276611328125,0.1824188232421875,1.125213623046875,0.0627288818359375
1776017894923338800,7.0853388671875,0.17144775390625,1.099853515625,0.009521484375
1776017894933399600,7.095399658203125,0.155670166015625,1.06524658203125,-0.0251007080078125
1776017894943460400,7.10546044921875,0.11663818359375,1.0079498291015625,-0.05181884765625
1776017894953521400,7.115521484375,0.063568115234375,0.9501800537109375,-0.06317138671875
1776017894963582500,7.12558251953125,0.0067138671875,0.920074462890625,-0.0088958740234375
1776017894973644500,7.13564453125,-0.01824951171875,0.9653167724609375,0.0884552001953125
1776017894983705600,7.14570556640625,-0.01708984375,1.0074005126953125,0.1803436279296875
1776017894993766700,7.1557666015625,-0.01214599609375,1.0151824951171875,0.2549896240234375
1776017895003827500,7.165827392578125,-0.00433349609375,1.0031280517578125,0.3104400634765625
1776017895013888500,7.175888427734375,0.014434814453125,0.9979705810546875,0.35052490234375
1776017895023950600,7.18595068359375,0.041595458984375,0.985137939453125,0.378021240234375
1776017895034011600,7.19601171875,0.0774383544921875,0.9559173583984375,0.3970184326171875
1776017895044072700,7.20607275390625,0.12066650390625,0.9382781982421875,0.4065093994140625
1776017895054133800,7.2161337890625,0.14697265625,0.9388580322265625,0.4141845703125
1776017895064194600,7.226194580078125,0.162750244140625,0.953826904296875,0.425018310546875
1776017895074256600,7.236256591796875,0.1686553955078125,0.9588165283203125,0.43023681640625
1776017895084317400,7.2463173828125,0.164581298828125,0.9534454345703125,0.4285125732421875
1776017895094378500,7.25637841796875,0.1578826904296875,0.9378509521484375,0.417694091796875
1776017895104439600,7.266439453125,0.147674560546875,0.9100799560546875,0.3978271484375
1776017895114500600,7.27650048828125,0.124847412109375,0.8961029052734375,0.3630218505859375
1776017895124561700,7.286561767578125,0.09454345703125,0.910797119140625,0.323944091796875
1776017895134623500,7.29662353515625,0.0680694580078125,0.9313507080078125,0.279052734375
1776017895144684500,7.3066845703125,0.0404205322265625,0.9323577880859375,0.232452392578125
1776017895154745600,7.31674560546875,0.011199951171875,0.935882568359375,0.193023681640625
1776017895164806700,7.326806640625,-0.0306396484375,0.9576568603515625,0.1646270751953125
1776017895174867700,7.33686767578125,-0.081939697265625,0.9912872314453125,0.155670166015625
1776017895184929500,7.346929443359375,-0.1204681396484375,1.026763916015625,0.1693572998046875
1776017895194990600,7.356990478515625,-0.13372802734375,1.0689849853515625,0.1976776123046875
1776017895205051600,7.3670517578125,-0.125030517578125,1.1040802001953125,0.216644287109375
1776017895215112400,7.377112548828125,-0.0966796875,1.1118011474609375,0.216400146484375
1776017895225173500,7.387173583984375,-0.060150146484375,1.0986175537109375,0.1960906982421875
1776017895235235300,7.3972353515625,-0.0219879150390625,1.07476806640625,0.1670989990234375
1776017895245296400,7.40729638671875,0.002593994140625,1.06573486328125,0.13812255859375
1776017895255357400,7.417357421875,0.0054168701171875,1.047821044921875,0.1049346923828125
1776017895265418500,7.42741845703125,-0.01519775390625,1.02777099609375,0.066650390625
1776017895275479600,7.4374794921875,-0.0318450927734375,1.029937744140625,0.03118896484375
1776017895285541600,7.447541748046875,-0.0543975830078125,1.037322998046875,-0.00152587890625
1776017895295602700,7.457602783203125,-0.080047607421875,1.0571441650390625,-0.0297698974609375
1776017895305663500,7.46766357421875,-0.10577392578125,1.090423583984375,-0.0510406494140625
1776017895315724500,7.477724609375,-0.124298095703125,1.112457275390625,-0.064239501953125
1776017895325785600,7.48778564453125,-0.135009765625,1.10845947265625,-0.048065185546875
1776017895335846700,7.4978466796875,-0.1414794921875,1.0906219482421875,-0.01434326171875
1776017895345908700,7.50790869140625,-0.1602020263671875,1.086883544921875,0.0220947265625
1776017895355969800,7.5179697265625,-0.208984375,1.081939697265625,0.0538482666015625
1776017895366030300,7.5280302734375,-0.2849578857421875,1.0357513427734375,0.0779571533203125
1776017895376091400,7.53809130859375,-0.364227294921875,0.9762115478515625,0.0962677001953125
1776017895386152400,7.54815234375,-0.40740966796875,0.92230224609375,0.1079254150390625
1776017895396214500,7.558214599609375,-0.410369873046875,0.895050048828125,0.1229095458984375
1776017895406275600,7.568275634765625,-0.3974456787109375,0.876983642578125,0.1500396728515625
1776017895416336600,7.578336669921875,-0.39056396484375,0.8523101806640625,0.201904296875
1776017895426397400,7.5883974609375,-0.3745880126953125,0.8590240478515625,0.2588348388671875
1776017895436458500,7.59845849609375,-0.3260345458984375,0.83514404296875,0.3153076171875
1776017895446520600,7.6085205078125,-0.3044586181640625,0.77374267578125,0.357147216796875
1776017895456581600,7.61858154296875,-0.266448974609375,0.8122406005859375,0.383392333984375
1776017895466642700,7.628642578125,-0.244384765625,0.83795166015625,0.4232635498046875
1776017895476703700,7.638703857421875,-0.2840423583984375,0.8173065185546875,0.47137451171875
1776017895486764500,7.6487646484375,-0.2865447998046875,0.89056396484375,0.49090576171875
1776017895496826600,7.65882666015625,-0.2820281982421875,0.9311981201171875,0.4748382568359375
1776017895506887700,7.6688876953125,-0.2730255126953125,0.9708099365234375,0.419097900390625
1776017895516948500,7.678948486328125,-0.2947540283203125,0.9692535400390625,0.300201416015625
1776017895527009500,7.689009521484375,-0.361419677734375,0.9065399169921875,0.17083740234375
1776017895537070600,7.699070556640625,-0.3951873779296875,0.95184326171875,0.063385009765625
1776017895547131600,7.709131591796875,-0.368408203125,0.947265625,-0.0452728271484375
1776017895557193500,7.719193359375,-0.3725738525390625,0.93316650390625,-0.120208740234375
1776017895567254500,7.729254638671875,-0.3933258056640625,0.9432373046875,-0.1719512939453125
1776017895577315600,7.739315673828125,-0.3983612060546875,0.95648193359375,-0.1864471435546875
1776017895587376600,7.749376708984375,-0.3861541748046875,0.95892333984375,-0.1685333251953125
1776017895597437700,7.759437744140625,-0.3475189208984375,0.9342498779296875,-0.1113739013671875
1776017895607499500,7.76949951171875,-0.309783935546875,0.8867340087890625,-0.054901123046875
1776017895617560600,7.779560546875,-0.28021240234375,0.8355865478515625,-0.005950927734375
1776017895627621600,7.78962158203125,-0.2572784423828125,0.7805633544921875,0.038238525390625
1776017895637682700,7.7996826171875,-0.226165771484375,0.7432403564453125,0.078887939453125
1776017895647743500,7.809743408203125,-0.1922607421875,0.7103729248046875,0.11627197265625
1776017895657805600,7.8198056640625,-0.1630706787109375,0.70062255859375,0.1542816162109375
1776017895667866400,7.829866455078125,-0.134979248046875,0.7103118896484375,0.1922760009765625
1776017895677927400,7.839927490234375,-0.100494384765625,0.7265167236328125,0.22607421875
1776017895687988500,7.849988525390625,-0.0623321533203125,0.7384490966796875,0.242828369140625
1776017895698049500,7.860049560546875,-0.03118896484375,0.746246337890625,0.238983154296875
1776017895708111600,7.870111572265625,-0.0087738037109375,0.749114990234375,0.225128173828125
1776017895718172700,7.880172607421875,0.00286865234375,0.764007568359375,0.2076568603515625
1776017895728233500,7.8902333984375,-0.016387939453125,0.7711029052734375,0.1894683837890625
1776017895738294500,7.90029443359375,-0.048370361328125,0.753265380859375,0.159393310546875
1776017895748355600,7.91035546875,-0.0915679931640625,0.742156982421875,0.149200439453125
1776017895758417700,7.920417724609375,-0.139007568359375,0.76971435546875,0.1447906494140625
1776017895768478700,7.930478759765625,-0.1685791015625,0.7954864501953125,0.162139892578125
1776017895778539800,7.940539794921875,-0.1918182373046875,0.8302001953125,0.197296142578125
1776017895788600300,7.950600341796875,-0.398040771484375,0.8428497314453125,0.376800537109375
1776017895798661400,7.960661376953125,-2.7138214111328125,-1.1071624755859375,2.8151702880859375
1776017895808722400,7.970722412109375,-1.143829345703125,-0.21875,2.456298828125
1776017895818784500,7.980784423828125,1.2295379638671875,1.4668426513671875,0.4193115234375
1776017895828845600,7.990845458984375,1.6854705810546875,1.4103240966796875,0.0702056884765625
1776017895838906600,8.00090673828125,1.524383544921875,1.576446533203125,-0.1034698486328125
1776017895848967700,8.0109677734375,1.1244049072265625,1.6783294677734375,-0.4177398681640625
1776017895859028500,8.021028564453125,0.73602294921875,1.669189453125,-0.6739501953125
1776017895869090600,8.031090576171875,0.0444488525390625,1.71942138671875,-0.9505157470703125
1776017895879151600,8.041151611328125,-1.551422119140625,1.701934814453125,-1.3053131103515625
1776017895889212700,8.051212646484375,-1.6083526611328125,1.419586181640625,-1.204833984375
1776017895899273700,8.061273681640625,-0.7445220947265625,1.178436279296875,-0.955902099609375
1776017895909334800,8.071334716796875,-0.4093170166015625,0.945770263671875,-0.77392578125
1776017895919396600,8.081396728515625,-0.1736602783203125,0.7984771728515625,-0.6148681640625
1776017895929457700,8.091457763671874,-0.0669708251953125,0.704986572265625,-0.49359130859375
1776017895939518500,8.1015185546875,-0.198455810546875,0.73675537109375,-0.379486083984375
1776017895949579500,8.11157958984375,-0.47845458984375,0.9113922119140625,-0.30682373046875
1776017895959640600,8.121640625,-0.63079833984375,1.0307769775390625,-0.2570953369140625
1776017895969702400,8.131702392578125,-0.53668212890625,1.029052734375,-0.1897430419921875
1776017895979763500,8.141763427734375,-0.3630523681640625,0.9583740234375,-0.109222412109375
1776017895989824500,8.151824462890625,-0.2153778076171875,0.8745269775390625,-0.0329742431640625
1776017895999885600,8.161885498046875,-0.0578155517578125,0.787628173828125,0.03778076171875
1776017896009946600,8.171946533203124,-0.011138916015625,0.6812591552734375,0.123046875
1776017896020008400,8.182008544921874,-0.1674041748046875,0.5739898681640625,0.2272186279296875
1776017896030069500,8.192069580078124,-0.38629150390625,0.5179901123046875,0.3404998779296875
1776017896040130600,8.202130615234376,-0.5094451904296875,0.5251617431640625,0.469879150390625
1776017896050191600,8.212191650390626,-0.5316619873046875,0.5554656982421875,0.6103057861328125
1776017896060252700,8.222252685546875,-0.548309326171875,0.61065673828125,0.7451629638671875
1776017896070313500,8.2323134765625,-0.5802154541015625,0.6735687255859375,0.8643035888671875
1776017896080375600,8.24237548828125,-0.5836181640625,0.72296142578125,0.937469482421875
1776017896090436400,8.252436279296875,-0.4914398193359375,0.748077392578125,0.9605712890625
1776017896100497400,8.262497314453125,-0.2851715087890625,0.7332763671875,0.926239013671875
1776017896110558500,8.272558349609374,-0.1454925537109375,0.63250732421875,0.85736083984375
1776017896120619500,8.28261962890625,-0.2333526611328125,0.520843505859375,0.6681671142578125
1776017896130681600,8.292681640625,-0.3933868408203125,0.460418701171875,0.4546051025390625
1776017896140742700,8.30274267578125,-0.536163330078125,0.431121826171875,0.2933807373046875
1776017896150803500,8.312803466796876,-0.6256866455078125,0.434295654296875,0.19525146484375
1776017896160864500,8.322864501953125,-0.6156463623046875,0.4625091552734375,0.170928955078125
1776017896170925600,8.332925537109375,-0.5494232177734375,0.515777587890625,0.1982421875
1776017896180987600,8.342987548828125,-0.483428955078125,0.580352783203125,0.2705230712890625
1776017896191048700,8.353048583984375,-0.4660797119140625,0.623199462890625,0.3857574462890625
1776017896201109800,8.36310986328125,-0.479248046875,0.625213623046875,0.5281829833984375
1776017896211170600,8.373170654296874,-0.53192138671875,0.5970611572265625,0.6607666015625
1776017896221231400,8.3832314453125,-0.5830841064453125,0.5836944580078125,0.73394775390625
1776017896231293700,8.393293701171874,-0.6083831787109375,0.5970306396484375,0.7207489013671875
1776017896241354500,8.4033544921875,-0.5711517333984375,0.6081695556640625,0.6385040283203125
1776017896251415600,8.41341552734375,-0.5331268310546875,0.5951080322265625,0.558013916015625
1776017896261476600,8.4234765625,-0.56439208984375,0.5850677490234375,0.51654052734375
1776017896271537700,8.43353759765625,-0.5637664794921875,0.600982666015625,0.4715423583984375
1776017896281599500,8.443599609375,-0.4940185546875,0.6044158935546875,0.42010498046875
1776017896291660500,8.45366064453125,-0.5046844482421875,0.5774688720703125,0.4262847900390625
1776017896301721600,8.4637216796875,-0.67041015625,0.610992431640625,0.40948486328125
1776017896311782700,8.47378271484375,-0.6307525634765625,0.6653594970703125,0.3794097900390625
1776017896321843700,8.48384375,-0.60968017578125,0.64520263671875,0.4580230712890625
1776017896331905500,8.493905517578124,-0.69976806640625,0.597991943359375,0.5918121337890625
1776017896341966600,8.503966552734376,-0.74920654296875,0.5451507568359375,0.6700897216796875
1776017896352027600,8.514027587890626,-0.7196197509765625,0.51239013671875,0.656890869140625
1776017896362088400,8.52408837890625,-0.701171875,0.5167694091796875,0.5922698974609375
1776017896372149500,8.5341494140625,-0.6101837158203125,0.51971435546875,0.544342041015625
1776017896382211300,8.54421142578125,-0.679229736328125,0.5206298828125,0.49505615234375
1776017896392272400,8.5542724609375,-0.76080322265625,0.512237548828125,0.4501495361328125
1776017896402333400,8.56433349609375,-0.78338623046875,0.4822540283203125,0.45123291015625
1776017896412394500,8.57439453125,-0.83868408203125,0.4811859130859375,0.487518310546875
1776017896422455600,8.58445556640625,-0.8071441650390625,0.502166748046875,0.55267333984375
1776017896432517600,8.594517578125,-0.758636474609375,0.5399932861328125,0.6346588134765625
1776017896442578400,8.604578369140626,-0.706756591796875,0.626556396484375,0.657562255859375
1776017896452639500,8.614639404296875,-0.64385986328125,0.729888916015625,0.5921173095703125
1776017896462700500,8.624700439453125,-0.6047210693359375,0.722991943359375,0.53936767578125
1776017896472761600,8.63476171875,-0.5789337158203125,0.6912841796875,0.478729248046875
1776017896482823700,8.64482373046875,-0.7243194580078125,0.43316650390625,0.4944915771484375
1776017896492884700,8.654884765625,-1.008453369140625,0.0872650146484375,0.659942626953125
1776017896502945500,8.664945556640625,-1.0380706787109375,0.23687744140625,0.7906341552734375
1776017896513006300,8.67500634765625,-0.8672027587890625,0.5712890625,0.776275634765625
1776017896523067400,8.6850673828125,-0.740966796875,0.70068359375,0.7251434326171875
1776017896533128400,8.69512841796875,-0.6378326416015625,0.546478271484375,0.7114105224609375
1776017896543190500,8.7051904296875,-0.705596923828125,0.32666015625,0.69940185546875
1776017896553251600,8.71525146484375,-0.8804473876953125,0.1914825439453125,0.66357421875
1776017896563312600,8.725312744140625,-0.892974853515625,0.1439056396484375,0.62255859375
1776017896573373400,8.73537353515625,-0.840728759765625,0.1615753173828125,0.60858154296875
1776017896583434500,8.7454345703125,-0.832916259765625,0.2063446044921875,0.5824432373046875
1776017896593496600,8.75549658203125,-0.802459716796875,0.22320556640625,0.6063079833984375
1776017896603557600,8.7655576171875,-0.785369873046875,0.2190399169921875,0.6710052490234375
1776017896613618700,8.77561865234375,-0.809722900390625,0.20050048828125,0.6790313720703125
1776017896623679700,8.7856796875,-0.787872314453125,0.1707916259765625,0.6652679443359375
1776017896633740500,8.795740478515626,-0.79833984375,0.1639251708984375,0.6417388916015625
1776017896643802600,8.805802734375,-0.8397979736328125,0.146575927734375,0.6408233642578125
1776017896653863700,8.81586376953125,-0.863525390625,0.118865966796875,0.6912841796875
1776017896663924500,8.825924560546875,-0.9351348876953125,0.0770263671875,0.7852935791015625
1776017896673985500,8.835985595703125,-0.972015380859375,0.0716552734375,0.8615264892578125
1776017896684046600,8.846046630859375,-0.9705657958984375,0.053009033203125,0.9043121337890625
1776017896694108400,8.8561083984375,-0.9374847412109375,0.0607147216796875,0.9215545654296875
1776017896704170200,8.866170166015625,-0.8907928466796875,0.0718536376953125,0.9161529541015625
1776017896714231300,8.876231201171874,-0.8592681884765625,0.0751953125,0.889404296875
1776017896724292400,8.886292236328124,-0.8259124755859375,0.09027099609375,0.8492584228515625
1776017896734353200,8.896353271484376,-0.7958831787109375,0.11273193359375,0.7904510498046875
1776017896744415200,8.906415283203126,-0.77545166015625,0.14080810546875,0.723846435546875
1776017896754476000,8.91647607421875,-0.764617919921875,0.131591796875,0.6504974365234375
1776017896764537000,8.926537109375,-0.74542236328125,0.0212249755859375,0.594970703125
1776017896774598100,8.93659814453125,-0.7269287109375,-0.1367034912109375,0.572021484375
1776017896784659200,8.9466591796875,-0.6984710693359375,-0.1905975341796875,0.549896240234375
1776017896794721000,8.956720947265625,-0.6786956787109375,-0.155914306640625,0.55303955078125
1776017896804782000,8.966781982421875,-0.6725311279296875,-0.0849456787109375,0.5805206298828125
1776017896814843100,8.976843017578124,-0.6617431640625,-0.020538330078125,0.6197662353515625
1776017896824904200,8.986904296875,-0.650421142578125,0.015960693359375,0.6610870361328125
1776017896834965200,8.99696533203125,-0.6485595703125,0.036773681640625,0.6966400146484375
1776017896845027300,9.00702734375,-0.6583404541015625,0.0581512451171875,0.7189483642578125
1776017896855088000,9.017088134765626,-0.6778717041015625,0.067626953125,0.7205810546875
1776017896865149200,9.027149169921875,-0.6900634765625,0.068817138671875,0.6976470947265625
1776017896875210200,9.037210205078125,-0.69781494140625,0.06146240234375,0.6693115234375
1776017896885271000,9.04727099609375,-0.7062225341796875,0.049896240234375,0.6391754150390625
1776017896895333400,9.05733349609375,-0.723052978515625,0.03460693359375,0.6183013916015625
1776017896905394200,9.067394287109375,-0.7297821044921875,0.0163726806640625,0.6185760498046875
1776017896915455000,9.077455078125,-0.7339019775390625,0.0054931640625,0.6407318115234375
1776017896925516000,9.08751611328125,-0.7590789794921875,0.0130767822265625,0.67120361328125
1776017896935577000,9.0975771484375,-0.8033294677734375,0.035919189453125,0.6909332275390625
1776017896945639200,9.10763916015625,-0.8321075439453125,0.0542144775390625,0.7001800537109375
1776017896955700200,9.1177001953125,-0.8295135498046875,0.06365966796875,0.708526611328125
1776017896965761300,9.12776123046875,-0.8198699951171875,0.0611724853515625,0.7196197509765625
1776017896975822300,9.137822265625,-0.814422607421875,0.05462646484375,0.7235107421875
1776017896985883100,9.147883056640625,-0.813140869140625,0.0552978515625,0.714874267578125
1776017896995945200,9.1579453125,-0.812896728515625,0.059295654296875,0.69964599609375
1776017897006006300,9.16800634765625,-0.803985595703125,0.0541229248046875,0.686737060546875
1776017897016067300,9.1780673828125,-0.7923736572265625,0.0435638427734375,0.6739654541015625
1776017897026128400,9.18812841796875,-0.7860260009765625,0.0475616455078125,0.6496124267578125
1776017897036189200,9.198189208984376,-0.7827606201171875,0.0621795654296875,0.61962890625
1776017897046251300,9.208251220703126,-0.7747650146484375,0.0810546875,0.59552001953125
1776017897056312000,9.21831201171875,-0.7826385498046875,0.10113525390625,0.5714263916015625
1776017897066373000,9.228373046875,-0.793853759765625,0.1185760498046875,0.552764892578125
1776017897076434200,9.23843408203125,-0.7769317626953125,0.1262664794921875,0.55987548828125
1776017897086495200,9.2484951171875,-0.7639007568359375,0.1244354248046875,0.5921630859375
1776017897096557000,9.25855712890625,-0.764495849609375,0.1255950927734375,0.6341400146484375
1776017897106618000,9.2686181640625,-0.7623748779296875,0.128814697265625,0.671478271484375
1776017897116679200,9.27867919921875,-0.7605133056640625,0.141510009765625,0.689056396484375
1776017897126740200,9.288740234375,-0.7516326904296875,0.166778564453125,0.6909027099609375
1776017897136801300,9.29880126953125,-0.7366180419921875,0.210205078125,0.6904296875
1776017897146862300,9.3088623046875,-0.7657928466796875,0.1790008544921875,0.6764068603515625
1776017897156924200,9.318924072265625,-0.8001861572265625,0.156890869140625,0.6721649169921875
1776017897166985200,9.328985107421875,-0.7780609130859375,0.1392364501953125,0.67828369140625
1776017897177046300,9.33904638671875,-0.7615966796875,0.128753662109375,0.6643524169921875
1776017897187107000,9.349107177734375,-0.7551727294921875,0.1212921142578125,0.6601104736328125
1776017897197169200,9.359169189453125,-0.7633514404296875,0.1105194091796875,0.6273956298828125
1776017897207230200,9.369230224609375,-0.76239013671875,0.113372802734375,0.596099853515625
1776017897217291000,9.379291015625,-0.7457122802734375,0.093353271484375,0.5702667236328125
1776017897227352000,9.38935205078125,-0.7645721435546875,0.0493927001953125,0.56988525390625
1776017897237413000,9.3994130859375,-0.7855682373046875,0.0361480712890625,0.5771331787109375
1776017897247474200,9.40947412109375,-0.7824859619140625,0.021942138671875,0.5829010009765625
1776017897257536300,9.419536376953126,-0.7586212158203125,0.004425048828125,0.584228515625
1776017897267597300,9.429597412109375,-0.7377166748046875,-0.0076904296875,0.5720367431640625
1776017897277658000,9.439658203125,-0.76019287109375,-0.01348876953125,0.557891845703125
1776017897287719200,9.44971923828125,-0.7899169921875,-0.00537109375,0.5245361328125
1776017897297780200,9.4597802734375,-0.83331298828125,0.00115966796875,0.5233154296875
1776017897307842300,9.46984228515625,-0.858917236328125,0.010772705078125,0.5368804931640625
1776017897317903400,9.4799033203125,-0.8207550048828125,0.0302581787109375,0.572540283203125
1776017897327964200,9.489964111328124,-0.798980712890625,0.0446929931640625,0.56719970703125
1776017897338025200,9.500025146484376,-0.783782958984375,0.01690673828125,0.62103271484375
1776017897348086000,9.5100859375,-0.7695159912109375,0.0007781982421875,0.6291961669921875
1776017897358148000,9.520148193359375,-0.737396240234375,-0.0064544677734375,0.6356353759765625
1776017897368209200,9.530209228515625,-0.719696044921875,-0.012725830078125,0.6488494873046875
1776017897378270200,9.540270263671875,-0.730682373046875,-0.0257720947265625,0.6805419921875
1776017897388331300,9.550331298828125,-0.7568359375,-0.035186767578125,0.69073486328125
1776017897398392300,9.560392333984375,-0.7602691650390625,-0.0416717529296875,0.6830291748046875
1776017897408454100,9.5704541015625,-0.7430267333984375,-0.039764404296875,0.685455322265625
1776017897418515200,9.58051513671875,-0.7216949462890625,-0.031158447265625,0.6927337646484375
1776017897428576300,9.590576171875,-0.69134521484375,-0.017974853515625,0.7054443359375
1776017897438637300,9.60063720703125,-0.6428985595703125,0.00091552734375,0.7199554443359375
1776017897448698400,9.610698486328126,-0.6328582763671875,0.02008056640625,0.7620391845703125
1776017897458760200,9.62076025390625,-0.6847381591796875,0.03460693359375,0.771484375
1776017897468821200,9.6308212890625,-0.73443603515625,0.0316925048828125,0.791015625
1776017897478882000,9.640882080078125,-0.741485595703125,0.0282135009765625,0.80828857421875
1776017897488943000,9.650943115234375,-0.7332000732421875,0.002166748046875,0.790679931640625
1776017897499004200,9.661004150390625,-0.707000732421875,-0.0286865234375,0.788330078125
1776017897509066000,9.67106591796875,-0.681427001953125,-0.092498779296875,0.8020172119140625
1776017897519127000,9.681126953125,-0.663604736328125,-0.1445770263671875,0.8079681396484375
1776017897529188000,9.69118798828125,-0.647796630859375,-0.145660400390625,0.81011962890625
1776017897539249200,9.701249267578126,-0.616546630859375,-0.1355133056640625,0.8182373046875
1776017897549310200,9.711310302734375,-0.544891357421875,-0.09857177734375,0.832733154296875
1776017897559372300,9.721372314453125,-0.4527740478515625,-0.0665130615234375,0.8825531005859375
1776017897569433000,9.73143310546875,-0.3935699462890625,-0.03607177734375,0.8826904296875
1776017897579494100,9.741494140625,-0.3636322021484375,-0.05706787109375,0.8917694091796875
1776017897589555200,9.75155517578125,-0.310333251953125,-0.083221435546875,0.8834686279296875
1776017897599616300,9.7616162109375,-0.239471435546875,-0.125457763671875,0.8561553955078125
1776017897609678300,9.77167822265625,-0.3250579833984375,-0.2139892578125,0.855010986328125
1776017897619739400,9.781739501953124,-0.5001373291015625,-0.2955169677734375,0.86083984375
1776017897629800200,9.79180029296875,-0.6333465576171875,-0.3256683349609375,0.8551483154296875
1776017897639861000,9.801861083984376,-0.779998779296875,-0.3193206787109375,0.8172149658203125
1776017897649922000,9.811922119140625,-0.960205078125,-0.29278564453125,0.756988525390625
1776017897659984100,9.821984130859375,-1.0673980712890625,-0.20330810546875,0.6312408447265625
1776017897670045200,9.832045166015625,-1.026214599609375,-0.09332275390625,0.4535369873046875
1776017897680106200,9.842106201171875,-0.9308013916015625,-0.0429534912109375,0.2662506103515625
1776017897690167300,9.852167236328125,-0.8499755859375,-0.035980224609375,0.1446380615234375
1776017897700228000,9.86222802734375,-0.7774200439453125,-0.0321044921875,0.1156158447265625
1776017897710290700,9.872290771484375,-0.8033905029296875,-0.023101806640625,0.1635589599609375
1776017897720351500,9.8823515625,-0.9517974853515625,-0.0516204833984375,0.2797088623046875
1776017897730412500,9.89241259765625,-1.002777099609375,-0.0206298828125,0.368743896484375
1776017897740473600,9.9024736328125,-0.95703125,0.010711669921875,0.4324188232421875
1776017897750534700,9.91253466796875,-0.8958587646484375,-0.018096923828125,0.500152587890625
1776017897760596500,9.922596435546875,-0.8480987548828125,-0.036102294921875,0.563446044921875
1776017897770657500,9.932657470703125,-0.796173095703125,-0.036376953125,0.605499267578125
1776017897780718600,9.942718505859375,-0.7518157958984375,-0.0396270751953125,0.6176300048828125
1776017897790779600,9.952779541015625,-0.715728759765625,-0.0657806396484375,0.6157073974609375
1776017897800840700,9.9628408203125,-0.685943603515625,-0.091217041015625,0.605926513671875
1776017897810902500,9.972902587890625,-0.6114044189453125,-0.1026611328125,0.5917816162109375
1776017897820963600,9.982963623046874,-0.5420684814453125,-0.12506103515625,0.59490966796875
1776017897831024600,9.993024658203124,-0.47222900390625,-0.158050537109375,0.6229705810546875
1776017897841085700,10.003085693359376,-0.40740966796875,-0.180145263671875,0.667144775390625
1776017897851146500,10.013146484375,-0.392608642578125,-0.169830322265625,0.733489990234375
1776017897861208600,10.02320849609375,-0.3960418701171875,-0.127105712890625,0.7973175048828125
1776017897871269400,10.033269287109375,-0.4130859375,-0.0635833740234375,0.8444671630859375
1776017897881330400,10.043330322265625,-0.46234130859375,-0.0429840087890625,0.8925018310546875
1776017897891391500,10.0533916015625,-0.51617431640625,-0.0413360595703125,0.9148406982421875
1776017897901452500,10.06345263671875,-0.569854736328125,-0.0722808837890625,0.9305267333984375
1776017897911514600,10.0735146484375,-0.6145172119140625,-0.1161651611328125,0.921966552734375
1776017897921575400,10.083575439453124,-0.63592529296875,-0.16302490234375,0.8905487060546875
1776017897931636500,10.093636474609376,-0.60040283203125,-0.182861328125,0.8336029052734375
1776017897941697500,10.103697509765626,-0.51483154296875,-0.14727783203125,0.74688720703125
1776017897951758600,10.113758544921875,-0.4272613525390625,-0.1270294189453125,0.6698760986328125
1776017897961820700,10.123820556640625,-0.3889007568359375,-0.11749267578125,0.638519287109375
1776017897971881700,10.1338818359375,-0.3662109375,-0.1257476806640625,0.6459503173828125
1776017897981942500,10.143942626953125,-0.386260986328125,-0.1470794677734375,0.6832275390625
1776017897992003300,10.15400341796875,-0.4223175048828125,-0.1592254638671875,0.740570068359375
1776017898002064400,10.164064453125,-0.4532318115234375,-0.1526336669921875,0.7881927490234375
1776017898012126500,10.17412646484375,-0.509124755859375,-0.1482086181640625,0.8371124267578125
1776017898022187500,10.1841875,-0.5655059814453125,-0.1386871337890625,0.8814849853515625
1776017898032248600,10.19424853515625,-0.5775146484375,-0.1192474365234375,0.9045257568359375
1776017898042309600,10.2043095703125,-0.5591888427734375,-0.1231536865234375,0.9322662353515625
1776017898052370400,10.214370361328125,-0.524078369140625,-0.1498260498046875,0.957794189453125
1776017898062431500,10.224431396484375,-0.5000457763671875,-0.15997314453125,0.9612274169921875
1776017898072493600,10.23449365234375,-0.5021514892578125,-0.2009429931640625,0.97064208984375
1776017898082554600,10.2445546875,-0.52978515625,-0.2433319091796875,0.9835205078125
1776017898092615700,10.25461572265625,-0.5625457763671875,-0.2452545166015625,1.0087432861328125
1776017898102676700,10.2646767578125,-0.5913238525390625,-0.217529296875,1.0474853515625
1776017898112738600,10.274738525390624,-0.5841217041015625,-0.156005859375,1.05517578125
1776017898122799600,10.284799560546874,-0.54217529296875,-0.11004638671875,1.038848876953125
1776017898132860700,10.294860595703126,-0.4844970703125,-0.1039276123046875,1.010345458984375
1776017898142921500,10.30492138671875,-0.4362335205078125,-0.128265380859375,1.00439453125
1776017898152982500,10.314982421875,-0.4001617431640625,-0.169189453125,1.0364837646484375
1776017898163043600,10.325043701171875,-0.39178466796875,-0.1992034912109375,1.0950469970703125
1776017898173105400,10.33510546875,-0.3991851806640625,-0.2187957763671875,1.164520263671875
1776017898183166500,10.34516650390625,-0.4043731689453125,-0.2327880859375,1.21148681640625
1776017898193227500,10.3552275390625,-0.4209136962890625,-0.254364013671875,1.233917236328125
1776017898203288600,10.36528857421875,-0.425201416015625,-0.2788848876953125,1.2361297607421875
1776017898213349600,10.375349609375,-0.39801025390625,-0.2704620361328125,1.18121337890625
1776017898223411500,10.385411376953124,-0.354156494140625,-0.2108612060546875,1.120391845703125
1776017898233472500,10.395472412109376,-0.3014984130859375,-0.1683349609375,1.054779052734375
1776017898243533600,10.405533447265626,-0.2552337646484375,-0.1453094482421875,0.990814208984375
1776017898253594600,10.4155947265625,-0.2286376953125,-0.1488037109375,0.9658355712890625
1776017898263655700,10.42565576171875,-0.2324676513671875,-0.18426513671875,0.971923828125
1776017898273717800,10.4357177734375,-0.28253173828125,-0.234649658203125,1.0027313232421875
1776017898283778600,10.445778564453125,-0.3403778076171875,-0.2660369873046875,1.04632568359375
1776017898293839400,10.45583935546875,-0.3759307861328125,-0.26922607421875,1.111083984375
1776017898303900400,10.465900390625,-0.3869781494140625,-0.22845458984375,1.1790618896484375
1776017898313961500,10.47596142578125,-0.3639984130859375,-0.149993896484375,1.2079315185546875
1776017898324023600,10.4860234375,-0.3218231201171875,-0.0921783447265625,1.1840057373046875
1776017898334084600,10.496084716796876,-0.2800140380859375,-0.095306396484375,1.1084136962890625
1776017898344145700,10.506145751953126,-0.2455596923828125,-0.1621856689453125,1.011474609375
1776017898354206500,10.51620654296875,-0.2303466796875,-0.2743988037109375,0.9186248779296875
1776017898364267500,10.526267578125,-0.2403411865234375,-0.394775390625,0.8511505126953125
1776017898374329600,10.53632958984375,-0.2759552001953125,-0.50042724609375,0.8132476806640625
1776017898384390700,10.546390625,-0.32891845703125,-0.5712890625,0.799468994140625
1776017898394451700,10.55645166015625,-0.389617919921875,-0.6087493896484375,0.8085174560546875
1776017898404512800,10.5665126953125,-0.4426422119140625,-0.5843353271484375,0.8321075439453125
1776017898414573600,10.576573486328124,-0.44708251953125,-0.4410858154296875,0.835205078125
1776017898424635600,10.5866357421875,-0.3509368896484375,-0.2601165771484375,0.8118743896484375
1776017898434696700,10.59669677734375,-0.18951416015625,-0.1207275390625,0.7731475830078125
1776017898444757500,10.606757568359376,-0.03436279296875,-0.04913330078125,0.733367919921875
1776017898454818600,10.616818603515625,0.058807373046875,-0.0385284423828125,0.6817779541015625
1776017898464879600,10.626879638671875,0.0688323974609375,-0.088714599609375,0.624237060546875
1776017898474941400,10.63694140625,0.0333709716796875,-0.1719512939453125,0.5775146484375
1776017898485002500,10.64700244140625,0.0057525634765625,-0.2713775634765625,0.5401763916015625
1776017898495063600,10.6570634765625,-0.022308349609375,-0.3571624755859375,0.5127716064453125
1776017898505124600,10.66712451171875,-0.0508270263671875,-0.4557647705078125,0.503265380859375
1776017898515185700,10.677185546875,-0.0929412841796875,-0.592529296875,0.5244598388671875
1776017898525247500,10.68724755859375,-0.1500701904296875,-0.7440643310546875,0.5821990966796875
1776017898535308500,10.69730859375,-0.2322845458984375,-0.863922119140625,0.6761016845703125
1776017898545369600,10.70736962890625,-0.343017578125,-0.9469146728515625,0.7819366455078125
1776017898555430700,10.7174306640625,-0.45574951171875,-0.956756591796875,0.8759307861328125
1776017898565491700,10.72749169921875,-0.5075531005859375,-0.8599090576171875,0.91632080078125
1776017898575553500,10.737553466796875,-0.4639739990234375,-0.7066802978515625,0.8904876708984375
1776017898585614300,10.7476142578125,-0.3336334228515625,-0.588226318359375,0.835235595703125
1776017898595675400,10.75767529296875,-0.2226104736328125,-0.5177001953125,0.79644775390625
1776017898605736400,10.767736328125,-0.183135986328125,-0.463470458984375,0.765960693359375
1776017898615797500,10.777797607421874,-0.199005126953125,-0.41375732421875,0.7330169677734375
1776017898625859600,10.787859619140624,-0.2430877685546875,-0.3615264892578125,0.7076568603515625
1776017898635920600,10.797920654296876,-0.2883453369140625,-0.3234405517578125,0.7142486572265625
1776017898645981400,10.8079814453125,-0.3375701904296875,-0.2863311767578125,0.7374420166015625
1776017898656042500,10.81804248046875,-0.4046478271484375,-0.248779296875,0.7545013427734375
1776017898666103600,10.828103515625,-0.4909210205078125,-0.22955322265625,0.7717437744140625
1776017898676165600,10.83816552734375,-0.569305419921875,-0.254241943359375,0.8168792724609375
1776017898686226700,10.848226806640625,-0.5900421142578125,-0.312408447265625,0.891937255859375
1776017898696287700,10.858287841796875,-0.5511627197265625,-0.3603363037109375,0.9370574951171875
1776017898706348500,10.8683486328125,-0.5088348388671875,-0.3545989990234375,0.9195098876953125
1776017898716409000,10.8784091796875,-0.4705047607421875,-0.287261962890625,0.860107421875
1776017898726471400,10.888471435546874,-0.4429931640625,-0.204833984375,0.7988433837890625
1776017898736532200,10.8985322265625,-0.4196014404296875,-0.1405181884765625,0.77044677734375
1776017898746593300,10.90859326171875,-0.4061126708984375,-0.0926971435546875,0.7698822021484375
1776017898756654300,10.918654296875,-0.4144439697265625,-0.0627899169921875,0.7885284423828125
1776017898766715400,10.92871533203125,-0.42706298828125,-0.070831298828125,0.831329345703125
1776017898776777200,10.938777099609375,-0.4332275390625,-0.10821533203125,0.8967132568359375
1776017898786838300,10.94883837890625,-0.4434356689453125,-0.17059326171875,0.9540557861328125
1776017898796899300,10.9588994140625,-0.4493408203125,-0.2247314453125,0.995758056640625
1776017898806960400,10.96896044921875,-0.435577392578125,-0.255096435546875,1.0178375244140625
1776017898817021400,10.979021484375,-0.4134521484375,-0.2704620361328125,1.015350341796875
1776017898827083300,10.989083251953126,-0.3856964111328125,-0.2666473388671875,1.0021820068359375
1776017898837144300,10.999144287109376,-0.3738861083984375,-0.2592010498046875,0.9839019775390625
1776017898847205400,11.009205322265625,-0.4033050537109375,-0.2497100830078125,0.957763671875
1776017898857266400,11.019266357421875,-0.4380035400390625,-0.207366943359375,0.9142608642578125
1776017898867327200,11.0293271484375,-0.42620849609375,-0.1645050048828125,0.8924560546875
1776017898877389300,11.039389404296875,-0.3683929443359375,-0.153106689453125,0.904541015625
1776017898887450000,11.0494501953125,-0.311370849609375,-0.1559295654296875,0.91156005859375
1776017898897511200,11.05951123046875,-0.2942047119140625,-0.1719818115234375,0.9107513427734375
1776017898907572200,11.069572265625,-0.3098602294921875,-0.190032958984375,0.9127655029296875
1776017898917633300,11.07963330078125,-0.331787109375,-0.206634521484375,0.9044036865234375
1776017898927695400,11.0896953125,-0.345977783203125,-0.21307373046875,0.8804931640625
1776017898937756400,11.09975634765625,-0.3575592041015625,-0.217254638671875,0.8498687744140625
1776017898947817200,11.109817138671875,-0.369384765625,-0.2176513671875,0.815948486328125
1776017898957878300,11.119878173828125,-0.369476318359375,-0.206878662109375,0.790557861328125
1776017898967939300,11.129939208984375,-0.3493194580078125,-0.1830902099609375,0.7867584228515625
1776017898978001400,11.14000146484375,-0.312591552734375,-0.1476898193359375,0.8012542724609375
1776017898988062500,11.1500625,-0.276641845703125,-0.1212310791015625,0.8270416259765625
1776017898998123500,11.16012353515625,-0.2503662109375,-0.1177215576171875,0.8563232421875
1776017899008184300,11.170184326171874,-0.2548675537109375,-0.1301727294921875,0.873992919921875
1776017899018245000,11.1802451171875,-0.2765960693359375,-0.1742706298828125,0.911590576171875
1776017899028307200,11.19030712890625,-0.32080078125,-0.2047882080078125,0.955169677734375
1776017899038368300,11.2003681640625,-0.3643341064453125,-0.22161865234375,0.9883270263671875
1776017899048429300,11.21042919921875,-0.383453369140625,-0.2422027587890625,1.02569580078125
1776017899058490400,11.220490478515625,-0.3868408203125,-0.2656097412109375,1.0662078857421875
1776017899068551400,11.230551513671875,-0.387359619140625,-0.2717437744140625,1.1005401611328125
1776017899078612200,11.2406123046875,-0.3768157958984375,-0.26214599609375,1.1151885986328125
1776017899088674300,11.25067431640625,-0.3620758056640625,-0.2557525634765625,1.095672607421875
1776017899098735400,11.2607353515625,-0.3368072509765625,-0.2447662353515625,1.0651702880859375
1776017899108796400,11.27079638671875,-0.3133392333984375,-0.2215423583984375,1.0106353759765625
1776017899118857500,11.280857421875,-0.2873992919921875,-0.2100830078125,0.94854736328125
1776017899128918500,11.29091845703125,-0.262054443359375,-0.2086639404296875,0.9059295654296875
1776017899138980400,11.30098046875,-0.24578857421875,-0.2143707275390625,0.882415771484375
1776017899149041400,11.31104150390625,-0.2403411865234375,-0.2238616943359375,0.872772216796875
1776017899159102200,11.321102294921875,-0.2371368408203125,-0.2503662109375,0.8960723876953125
1776017899169163300,11.331163330078125,-0.2396392822265625,-0.280975341796875,0.9448089599609375
1776017899179224300,11.341224365234375,-0.246856689453125,-0.301025390625,1.010284423828125
1776017899189286100,11.3512861328125,-0.270843505859375,-0.317962646484375,1.0721435546875
1776017899199347200,11.36134716796875,-0.3228759765625,-0.3237152099609375,1.100921630859375
1776017899209408300,11.371408203125,-0.392364501953125,-0.3227691650390625,1.08770751953125
1776017899219469300,11.38146923828125,-0.443603515625,-0.310791015625,1.0435638427734375
1776017899229530400,11.3915302734375,-0.4486846923828125,-0.27838134765625,0.9973907470703125
1776017899239592200,11.40159228515625,-0.4189605712890625,-0.2432708740234375,0.9601287841796875
1776017899249653200,11.4116533203125,-0.3767547607421875,-0.2210235595703125,0.920257568359375
1776017899259714300,11.42171435546875,-0.3367156982421875,-0.2054443359375,0.87579345703125
1776017899269775400,11.431775390625,-0.3141326904296875,-0.19781494140625,0.8320770263671875
1776017899279836400,11.44183642578125,-0.3120269775390625,-0.1930999755859375,0.7940826416015625
1776017899289898500,11.4518984375,-0.3167877197265625,-0.191619873046875,0.77056884765625
1776017899299959300,11.461959228515624,-0.3325653076171875,-0.204986572265625,0.7611236572265625
1776017899310020000,11.47202001953125,-0.3458251953125,-0.2276611328125,0.775970458984375
1776017899320081200,11.4820810546875,-0.3539276123046875,-0.2578887939453125,0.806671142578125
1776017899330142200,11.49214208984375,-0.3638916015625,-0.2805633544921875,0.8500518798828125
1776017899340204300,11.502204345703126,-0.3781280517578125,-0.2935333251953125,0.90380859375
1776017899350265300,11.512265380859375,-0.3861541748046875,-0.2960357666015625,0.9468231201171875
1776017899360326400,11.522326416015625,-0.383514404296875,-0.287811279296875,0.974945068359375
1776017899370387200,11.53238720703125,-0.3729248046875,-0.2804718017578125,0.9853363037109375
1776017899380448300,11.5424482421875,-0.36602783203125,-0.273773193359375,0.9781341552734375
1776017899390510300,11.55251025390625,-0.365692138671875,-0.258148193359375,0.9632110595703125
1776017899400571400,11.5625712890625,-0.368988037109375,-0.2382965087890625,0.9406585693359375
1776017899410632400,11.572632568359374,-0.36846923828125,-0.2245025634765625,0.9187469482421875
1776017899420693500,11.582693603515626,-0.3642578125,-0.2222900390625,0.899627685546875
1776017899430754300,11.59275439453125,-0.36114501953125,-0.2220916748046875,0.88763427734375
1776017899440816400,11.60281640625,-0.3530426025390625,-0.2295074462890625,0.88427734375
1776017899450877400,11.61287744140625,-0.347564697265625,-0.24737548828125,0.8793792724609375
1776017899460938200,11.622938232421875,-0.3489227294921875,-0.2647705078125,0.8843841552734375
1776017899470999300,11.632999267578125,-0.354522705078125,-0.288330078125,0.8900604248046875
1776017899481060400,11.643060302734375,-0.37457275390625,-0.3119354248046875,0.89678955078125
1776017899491122200,11.6531220703125,-0.3999176025390625,-0.3378143310546875,0.922088623046875
1776017899501183200,11.663183349609374,-0.410125732421875,-0.3702239990234375,0.973052978515625
1776017899511244300,11.673244384765624,-0.4064483642578125,-0.411041259765625,1.021636962890625
1776017899521305300,11.683305419921876,-0.4037017822265625,-0.4521026611328125,1.039154052734375
1776017899531366400,11.693366455078126,-0.4039154052734375,-0.4787750244140625,1.006561279296875
1776017899541428200,11.70342822265625,-0.4034271240234375,-0.485595703125,0.933380126953125
1776017899551489300,11.7134892578125,-0.404327392578125,-0.48193359375,0.867919921875
1776017899561550300,11.72355029296875,-0.400543212890625,-0.4680328369140625,0.8369293212890625
1776017899571611400,11.733611328125,-0.4005126953125,-0.44671630859375,0.84332275390625
1776017899581672200,11.743672119140625,-0.4100189208984375,-0.40997314453125,0.890228271484375
1776017899591734500,11.753734619140625,-0.4286651611328125,-0.378662109375,0.948944091796875
1776017899601795000,11.763795166015624,-0.4357757568359375,-0.3346710205078125,0.9896392822265625
1776017899611856100,11.773856201171874,-0.415191650390625,-0.278167724609375,1.007476806640625
1776017899621917200,11.783917236328126,-0.3873291015625,-0.23931884765625,0.973114013671875
1776017899631978200,11.793978271484375,-0.3792572021484375,-0.1996307373046875,0.894775390625
1776017899642040300,11.804040283203125,-0.41485595703125,-0.1565704345703125,0.8160552978515625
1776017899652101400,11.814101318359375,-0.458526611328125,-0.125,0.7571868896484375
1776017899662162200,11.824162109375,-0.483612060546875,-0.0966339111328125,0.7286834716796875
1776017899672223200,11.83422314453125,-0.478668212890625,-0.0880889892578125,0.74273681640625
1776017899682284300,11.8442841796875,-0.43194580078125,-0.12066650390625,0.7649688720703125
1776017899692346400,11.854346435546875,-0.3870849609375,-0.1774749755859375,0.8036041259765625
1776017899702407400,11.864407470703124,-0.300750732421875,-0.2498779296875,0.864227294921875
1776017899712468700,11.87446875,-0.1895904541015625,-0.3115081787109375,0.9322662353515625
1776017899722529500,11.884529541015626,-0.1080780029296875,-0.3216400146484375,0.952117919921875
1776017899732590600,11.894590576171876,-0.10430908203125,-0.308807373046875,0.9506683349609375
1776017899742652700,11.904652587890626,-0.1587677001953125,-0.289276123046875,0.9765777587890625
1776017899752713500,11.91471337890625,-0.18426513671875,-0.2938079833984375,1.0228424072265625
1776017899762774500,11.9247744140625,-0.1982574462890625,-0.317962646484375,1.0717010498046875
1776017899772835600,11.934835693359375,-0.222625732421875,-0.3451690673828125,1.1151580810546875
1776017899782896600,11.944896728515625,-0.2233428955078125,-0.3626861572265625,1.099029541015625
1776017899792958500,11.95495849609375,-0.2109527587890625,-0.3553619384765625,1.031524658203125
1776017899803019500,11.96501953125,-0.223876953125,-0.3306121826171875,0.9573822021484375
1776017899813080600,11.97508056640625,-0.2923126220703125,-0.25445556640625,0.7735748291015625
1776017899823141600,11.9851416015625,-0.384246826171875,-0.199737548828125,0.53717041015625
1776017899833202700,11.99520263671875,-0.4123992919921875,-0.2086334228515625,0.4608917236328125
1776017899843264500,12.005264404296875,-0.3406524658203125,-0.2345733642578125,0.6009521484375
1776017899853325600,12.01532568359375,-0.2378082275390625,-0.2373199462890625,0.8345947265625
1776017899863386600,12.02538671875,-0.194427490234375,-0.232421875,0.958953857421875
1776017899873447700,12.03544775390625,-0.178314208984375,-0.2241363525390625,0.9628448486328125
1776017899883508500,12.045508544921875,-0.14190673828125,-0.22235107421875,0.903533935546875
1776017899893570600,12.055570556640625,-0.12158203125,-0.2298583984375,0.76812744140625
1776017899903631400,12.06563134765625,-0.14453125,-0.2332916259765625,0.583892822265625
1776017899913692400,12.0756923828125,-0.1745452880859375,-0.2220916748046875,0.431549072265625
1776017899923753500,12.08575341796875,-0.172576904296875,-0.1994171142578125,0.3561553955078125
1776017899933814500,12.095814453125,-0.1373138427734375,-0.1899566650390625,0.3458251953125
1776017899943876600,12.105876708984376,-0.100341796875,-0.206878662109375,0.4222564697265625
1776017899953937400,12.1159375,-0.0731658935546875,-0.230377197265625,0.5917510986328125
1776017899963998500,12.12599853515625,-0.05413818359375,-0.2460784912109375,0.7708282470703125
1776017899974059500,12.1360595703125,-0.022735595703125,-0.260894775390625,0.900848388671875
1776017899984120600,12.14612060546875,-0.024383544921875,-0.31427001953125,1.0497589111328125
1776017899994182700,12.1561826171875,-0.054901123046875,-0.311492919921875,1.155731201171875
1776017900004243700,12.16624365234375,-0.12139892578125,-0.32232666015625,1.286163330078125
1776017900014304500,12.176304443359374,-0.2012786865234375,-0.353912353515625,1.4530181884765625
1776017900024365600,12.186365478515626,-0.26568603515625,-0.3372344970703125,1.6298370361328125
1776017900034426400,12.19642626953125,-0.3242340087890625,-0.322723388671875,1.83746337890625
1776017900044488700,12.20648876953125,-0.3203277587890625,-0.40802001953125,1.9294281005859375
1776017900054549500,12.216549560546875,-0.1836395263671875,-0.505218505859375,1.69561767578125
1776017900064610600,12.226610595703125,-0.0760955810546875,-0.4283294677734375,1.19708251953125
1776017900074671600,12.236671630859375,-0.082916259765625,-0.324676513671875,0.8447418212890625
1776017900084732400,12.246732421875,-0.1159820556640625,-0.2448883056640625,0.655242919921875
1776017900094794500,12.25679443359375,-0.1275177001953125,-0.1945648193359375,0.5185546875
1776017900104855600,12.26685546875,-0.109405517578125,-0.173736572265625,0.4254302978515625
1776017900114916600,12.27691650390625,-0.0854949951171875,-0.1813812255859375,0.40521240234375
1776017900124977700,12.286977783203126,-0.0698394775390625,-0.216033935546875,0.5182037353515625
1776017900135038700,12.297038818359376,-0.044891357421875,-0.267608642578125,0.7458343505859375
1776017900145100500,12.3071005859375,-0.02032470703125,-0.3378753662109375,0.9793853759765625
1776017900155161600,12.31716162109375,-0.01458740234375,-0.434906005859375,1.1642608642578125
1776017900165222700,12.32722265625,-0.04150390625,-0.5213623046875,1.300994873046875
1776017900175283700,12.33728369140625,-0.1031494140625,-0.5726776123046875,1.37921142578125
1776017900185344500,12.347344482421875,-0.2421875,-0.5503082275390625,1.3205718994140625
1776017900195406600,12.357406494140625,-0.4140777587890625,-0.447906494140625,1.13519287109375
1776017900205467400,12.36746728515625,-0.40802001953125,-0.349578857421875,0.9606475830078125
1776017900215528400,12.377528564453126,-0.28167724609375,-0.2878265380859375,0.8446502685546875
1776017900225589500,12.387589599609376,-0.1882781982421875,-0.259521484375,0.7802581787109375
1776017900235650600,12.397650634765625,-0.1249542236328125,-0.270172119140625,0.767730712890625
1776017900245712600,12.407712646484375,-0.07421875,-0.320831298828125,0.8087158203125
1776017900255773400,12.4177734375,-0.0460662841796875,-0.3770751953125,0.8671417236328125
1776017900265834500,12.42783447265625,-0.049560546875,-0.4334564208984375,0.916656494140625
1776017900275895600,12.4378955078125,-0.0742645263671875,-0.481353759765625,0.9447174072265625
1776017900285956600,12.44795654296875,-0.10064697265625,-0.5014801025390625,0.9440765380859375
1776017900296018700,12.458018798828125,-0.1266326904296875,-0.5033416748046875,0.9106292724609375
1776017900306079700,12.468079833984374,-0.1588287353515625,-0.5086669921875,0.8615264892578125
1776017900316140500,12.478140625,-0.195556640625,-0.50543212890625,0.8265533447265625
1776017900326201600,12.48820166015625,-0.220733642578125,-0.5066375732421875,0.81866455078125
1776017900336262400,12.498262451171875,-0.228790283203125,-0.51165771484375,0.8247833251953125
1776017900346324500,12.508324462890625,-0.2265625,-0.5309295654296875,0.8260498046875
1776017900356385500,12.518385498046875,-0.2468414306640625,-0.54766845703125,0.834197998046875
1776017900366446600,12.528446533203125,-0.22125244140625,-0.5652008056640625,0.8419647216796875
1776017900376507600,12.538507568359375,-0.1747283935546875,-0.5877227783203125,0.843353271484375
1776017900386568400,12.548568359375,-0.1475677490234375,-0.5919189453125,0.85040283203125
1776017900396630500,12.558630615234375,-0.1226959228515625,-0.5979461669921875,0.8650360107421875
1776017900406691600,12.568691650390624,-0.101959228515625,-0.5956573486328125,0.8956146240234375
1776017900416752600,12.578752685546876,-0.0958099365234375,-0.589141845703125,0.9207000732421875
1776017900426813700,12.588813720703126,-0.110809326171875,-0.586822509765625,0.926605224609375
1776017900436874800,12.598874755859375,-0.14324951171875,-0.594696044921875,0.901641845703125
1776017900446936600,12.6089365234375,-0.1879425048828125,-0.593414306640625,0.84454345703125
1776017900456997600,12.61899755859375,-0.2207183837890625,-0.57861328125,0.7813873291015625
1776017900467058700,12.62905859375,-0.23687744140625,-0.5722808837890625,0.737091064453125
1776017900477119500,12.639119384765625,-0.2329254150390625,-0.580108642578125,0.72747802734375
1776017900487180500,12.6491806640625,-0.190460205078125,-0.6038055419921875,0.7473297119140625
1776017900497242400,12.659242431640624,-0.1428680419921875,-0.6255340576171875,0.772491455078125
1776017900507303400,12.669303466796874,-0.113189697265625,-0.6375732421875,0.7901153564453125
1776017900517364500,12.679364501953126,-0.101165771484375,-0.6418609619140625,0.788818359375
1776017900527425500,12.689425537109376,-0.10626220703125,-0.628509521484375,0.7681121826171875
1776017900537486600,12.699486572265625,-0.1182098388671875,-0.6041717529296875,0.737152099609375
1776017900547548400,12.70954833984375,-0.1419219970703125,-0.576568603515625,0.7038726806640625
1776017900557609500,12.719609375,-0.2257080078125,-0.524200439453125,0.684661865234375
1776017900567670500,12.72967041015625,-0.4202423095703125,-0.4484100341796875,0.7315521240234375
1776017900577731600,12.739731689453125,-0.62335205078125,-0.3656158447265625,0.865570068359375
1776017900587792600,12.749792724609375,-0.6526031494140625,-0.2813720703125,1.03875732421875
1776017900597854700,12.759854736328125,-0.50830078125,-0.227203369140625,1.190460205078125
1776017900607915500,12.76991552734375,-0.34423828125,-0.2583160400390625,1.2616424560546875
1776017900617976600,12.7799765625,-0.1954803466796875,-0.393157958984375,1.21868896484375
1776017900628037400,12.790037353515626,-0.1130828857421875,-0.5645599365234375,1.0904693603515625
1776017900638098400,12.800098388671875,-0.1214447021484375,-0.6771392822265625,0.9442596435546875
1776017900648160500,12.810160400390625,-0.183685302734375,-0.6354217529296875,0.859130859375
1776017900658221600,12.8202216796875,-0.3446807861328125,-0.41510009765625,0.8056640625
1776017900668282600,12.83028271484375,-0.4444732666015625,-0.230621337890625,0.7511138916015625
1776017900678343400,12.840343505859375,-0.3497314453125,-0.2352142333984375,0.7228546142578125
1776017900688404500,12.850404541015624,-0.2171630859375,-0.2565765380859375,0.7103118896484375
1776017900698466600,12.860466552734374,-0.136688232421875,-0.247100830078125,0.723846435546875
1776017900708527400,12.87052734375,-0.1397705078125,-0.23944091796875,0.76007080078125
1776017900718588400,12.88058837890625,-0.2061920166015625,-0.2106170654296875,0.786163330078125
1776017900728649500,12.8906494140625,-0.2937774658203125,-0.186431884765625,0.78106689453125
1776017900738710500,12.90071044921875,-0.343048095703125,-0.179779052734375,0.7217254638671875
1776017900748772400,12.9107724609375,-0.3157806396484375,-0.2078399658203125,0.611907958984375
1776017900758833400,12.92083349609375,-0.2309112548828125,-0.2636260986328125,0.5498199462890625
1776017900768894500,12.93089453125,-0.1671142578125,-0.308746337890625,0.5527801513671875
1776017900778955500,12.94095556640625,-0.1576385498046875,-0.3025665283203125,0.614471435546875
1776017900789016300,12.951016357421874,-0.1651458740234375,-0.2808837890625,0.770050048828125
1776017900799078400,12.961078369140624,-0.203277587890625,-0.282318115234375,0.978057861328125
1776017900809139200,12.97113916015625,-0.253082275390625,-0.279571533203125,1.1703948974609375
1776017900819200300,12.9812001953125,-0.291961669921875,-0.2444000244140625,1.3193511962890625
1776017900829261300,12.99126123046875,-0.3035430908203125,-0.1911468505859375,1.3762664794921875
1776017900839322400,13.001322265625,-0.28515625,-0.1696929931640625,1.3029937744140625
1776017900849384200,13.01138427734375,-0.2259521484375,-0.208740234375,1.1581268310546875
1776017900859445200,13.0214453125,-0.169952392578125,-0.2653045654296875,0.994476318359375
1776017900869506300,13.03150634765625,-0.148468017578125,-0.296356201171875,0.8513641357421875
1776017900879567400,13.0415673828125,-0.1443939208984375,-0.2969970703125,0.7478179931640625
1776017900889628400,13.05162841796875,-0.1240386962890625,-0.27435302734375,0.6748046875
