time,seconds_elapsed,z,y,x
1776017887925787400,0.087787353515625,-38.50299072265625,8.90441608428955,25.96160125732422
1776017887935849500,0.097849365234375,-38.574798583984375,8.850483894348145,25.890945434570312
1776017887945910500,0.10791064453125,-38.3084716796875,8.605806350708008,25.817325592041016
1776017887955971600,0.1179716796875,-38.35223388671875,8.071704864501953,25.658687591552734
1776017887966032400,0.128032470703125,-38.73272705078125,7.665996551513672,25.696517944335938
1776017887976093400,0.138093505859375,-38.276275634765625,7.58048152923584,25.50345230102539
1776017887986155500,0.148155517578125,-38.058380126953125,7.573226451873779,25.734752655029297
1776017887996216600,0.158216552734375,-38.185760498046875,7.659526348114014,25.71764373779297
1776017888006277400,0.16827734375,-37.904052734375,7.333445072174072,25.719261169433594
1776017888016338400,0.17833837890625,-38.353912353515625,7.367187976837158,25.511432647705078
1776017888026399500,0.1883994140625,-38.566009521484375,7.377261161804199,25.403934478759766
1776017888036460300,0.198460205078125,-38.574432373046875,7.4290642738342285,25.291358947753906
1776017888046522400,0.2085224609375,-38.835357666015625,7.515984535217285,25.19134521484375
1776017888056583400,0.21858349609375,-38.15283203125,7.46121072769165,25.159881591796875
1776017888066644500,0.22864453125,-38.221954345703125,7.27716588973999,25.12960433959961
1776017888076705500,0.23870556640625,-38.212860107421875,7.4213714599609375,25.145233154296875
1776017888086766600,0.2487666015625,-38.38885498046875,7.364519119262695,25.116016387939453
1776017888096828400,0.258828369140625,-38.6370849609375,7.3401947021484375,25.20315170288086
1776017888106889500,0.268889404296875,-38.792266845703125,7.560335636138916,25.247848510742188
1776017888116950500,0.278950439453125,-38.725189208984375,7.454326629638672,25.16484832763672
1776017888127011600,0.289011474609375,-38.42919921875,7.497805595397949,24.934326171875
1776017888137072400,0.299072265625,-38.37469482421875,7.4139556884765625,24.78919219970703
1776017888147133400,0.309133544921875,-38.5960693359375,7.465302467346191,24.83049774169922
1776017888157195300,0.3191953125,-38.336639404296875,7.628592014312744,24.905197143554688
1776017888167256300,0.32925634765625,-38.726348876953125,7.737800121307373,24.863296508789062
1776017888177317400,0.3393173828125,-38.679046630859375,7.676816463470459,25.00054931640625
1776017888187378400,0.34937841796875,-38.58050537109375,7.654351234436035,25.036357879638672
1776017888197439500,0.359439453125,-38.627960205078125,7.626245498657227,24.927837371826172
1776017888207501300,0.369501220703125,-38.622100830078125,7.566176891326904,24.921428680419922
1776017888217562400,0.379562255859375,-38.534698486328125,7.5531086921691895,24.969032287597656
1776017888227623400,0.38962353515625,-38.6844482421875,7.290767669677734,25.07071304321289
1776017888237684500,0.3996845703125,-38.42333984375,7.357879638671875,24.831993103027344
1776017888247745500,0.40974560546875,-38.111724853515625,7.431658744812012,24.66891860961914
1776017888257806600,0.419806640625,-38.2667236328125,7.5994553565979,24.710872650146484
1776017888267868400,0.429868408203125,-38.712677001953125,7.503175258636475,24.848236083984375
1776017888277929500,0.439929443359375,-38.27880859375,7.245631217956543,24.67230987548828
1776017888287990300,0.449990234375,-38.619781494140625,7.383970737457275,24.55294418334961
1776017888298051300,0.46005126953125,-38.84228515625,7.3954315185546875,24.55404281616211
1776017888308112400,0.4701123046875,-39.00982666015625,7.428253650665283,24.539443969726562
1776017888318174500,0.480174560546875,-39.19403076171875,7.351686477661133,24.333999633789062
1776017888328235300,0.4902353515625,-39.12969970703125,7.568212509155273,24.315765380859375
1776017888338296300,0.50029638671875,-38.7841796875,7.672290325164795,24.297706604003906
1776017888348357400,0.510357421875,-38.671905517578125,7.515772342681885,24.09131622314453
1776017888358418400,0.52041845703125,-38.571807861328125,7.533916473388672,24.213191986083984
1776017888368480500,0.53048046875,-38.500396728515625,7.52054500579834,24.20874786376953
1776017888378541600,0.54054150390625,-38.640167236328125,7.369897365570068,24.37384033203125
1776017888388602400,0.550602294921875,-39.068634033203125,7.4925079345703125,24.443008422851562
1776017888398663400,0.560663330078125,-38.523895263671875,7.022932529449463,24.17015838623047
1776017888408724500,0.570724365234375,-38.782684326171875,7.002715110778809,24.18289566040039
1776017888418785300,0.580785400390625,-38.951568603515625,7.172588348388672,24.268360137939453
1776017888428847600,0.59084765625,-39.010589599609375,7.098109245300293,24.106937408447266
1776017888438908400,0.600908447265625,-39.042144775390625,7.0646748542785645,23.965065002441406
1776017888448969500,0.610969482421875,-39.3050537109375,7.1684889793396,23.985260009765625
1776017888459030300,0.6210302734375,-39.048492431640625,7.036336898803711,23.821109771728516
1776017888469091300,0.63109130859375,-39.078643798828125,7.078237056732178,23.823623657226562
1776017888479153400,0.6411533203125,-38.983734130859375,6.846321105957031,23.711971282958984
1776017888489214500,0.65121435546875,-39.072418212890625,6.929264068603516,23.920059204101562
1776017888499275500,0.661275634765625,-39.531951904296875,6.963186264038086,23.898048400878906
1776017888509336600,0.671336669921875,-39.387451171875,6.99288272857666,23.574478149414062
1776017888519397400,0.6813974609375,-39.420562744140625,6.917630672454834,23.63715362548828
1776017888529458400,0.69145849609375,-39.452880859375,6.776792049407959,23.73508071899414
1776017888539520500,0.7015205078125,-39.546630859375,6.846042633056641,23.651817321777344
1776017888549581600,0.71158154296875,-39.55462646484375,6.874746799468994,23.511001586914062
1776017888559642600,0.721642578125,-40.00244140625,6.579517364501953,23.633594512939453
1776017888569703400,0.731703369140625,-39.6807861328125,6.961179256439209,23.617069244384766
1776017888579764500,0.741764404296875,-39.44366455078125,7.045047283172607,23.552486419677734
1776017888589826300,0.751826416015625,-39.42767333984375,6.922816276550293,23.467971801757812
1776017888599887400,0.761887451171875,-39.68914794921875,6.9042277336120605,23.55886459350586
1776017888609948400,0.771948486328125,-39.633331298828125,6.842031955718994,23.613136291503906
1776017888620009500,0.782009521484375,-39.573089599609375,6.820018768310547,23.64349365234375
1776017888630070500,0.792070556640625,-39.475250244140625,7.07262659072876,23.751205444335938
1776017888640132400,0.80213232421875,-39.898468017578125,7.033472537994385,23.86056900024414
1776017888650193400,0.812193359375,-39.96197509765625,7.01325798034668,23.67394256591797
1776017888660254500,0.82225439453125,-39.356475830078125,6.776718616485596,23.741458892822266
1776017888670315500,0.8323154296875,-39.542633056640625,6.813514232635498,23.622631072998047
1776017888680376600,0.84237646484375,-39.546051025390625,6.820362091064453,23.641632080078125
1776017888690437400,0.852437255859375,-39.1624755859375,6.928752899169922,23.588977813720703
1776017888700499000,0.8624990234375,-39.20172119140625,6.713730335235596,23.49773406982422
1776017888710559700,0.872559814453125,-39.30267333984375,6.939950942993164,23.617233276367188
1776017888720620800,0.882620849609375,-39.516204833984375,7.066414833068848,23.87955093383789
1776017888730681900,0.892681884765625,-39.342071533203125,6.877942085266113,23.97686004638672
1776017888740743000,0.902742919921875,-39.48162841796875,7.150099754333496,23.911548614501953
1776017888750805000,0.912804931640625,-39.20965576171875,7.070979118347168,23.879653930664062
1776017888760866000,0.922865966796875,-39.513397216796875,7.074255466461182,23.97565460205078
1776017888770926800,0.9329267578125,-39.85247802734375,7.110970497131348,23.675682067871094
1776017888780988000,0.94298779296875,-40.07476806640625,6.943292617797852,23.84658432006836
1776017888791049000,0.953049072265625,-39.7633056640625,7.11501407623291,23.788158416748047
1776017888801110000,0.963110107421875,-39.694000244140625,6.98286771774292,23.859764099121094
1776017888811172000,0.973172119140625,-39.540679931640625,6.8845648765563965,23.91827392578125
1776017888821233200,0.983233154296875,-40.000823974609375,7.084818363189697,23.99103546142578
1776017888831293700,0.993293701171875,-39.440032958984375,6.983759880065918,23.861854553222656
1776017888841354800,1.003354736328125,-39.56427001953125,7.244260311126709,23.845230102539062
1776017888851415800,1.013415771484375,-39.4356689453125,7.353976726531982,23.819625854492188
1776017888861478000,1.023477783203125,-39.514312744140625,7.259396076202393,23.71945571899414
1776017888871539000,1.0335390625,-39.453643798828125,7.232193946838379,23.628604888916016
1776017888881600000,1.04360009765625,-39.20806884765625,7.069335460662842,23.700172424316406
1776017888891661000,1.0536611328125,-39.65484619140625,7.239208221435547,23.680282592773438
1776017888901721900,1.063721923828125,-39.76849365234375,7.347659111022949,23.785888671875
1776017888911783000,1.073782958984375,-39.919586181640625,7.120536804199219,23.762741088867188
1776017888921845000,1.083844970703125,-39.62115478515625,7.030068397521973,23.590774536132812
1776017888931906000,1.093906005859375,-39.99993896484375,7.154120445251465,23.48590087890625
1776017888941967000,1.103967041015625,-40.36126708984375,7.311500549316406,23.641883850097656
1776017888952028200,1.114028076171875,-40.240936279296875,7.2843122482299805,23.68962860107422
1776017888962088700,1.124088623046875,-40.173858642578125,7.110585689544678,23.869884490966797
1776017888972151000,1.134151123046875,-39.322052001953125,7.060388088226318,23.765701293945312
1776017888982211800,1.1442119140625,-39.913787841796875,7.169506549835205,23.797012329101562
1776017888992273000,1.15427294921875,-39.239166259765625,7.095943927764893,23.854305267333984
1776017889002334000,1.164333984375,-39.4820556640625,6.936657905578613,23.96361541748047
1776017889012395000,1.17439501953125,-39.66156005859375,7.161178112030029,23.866069793701172
1776017889022455800,1.184455810546875,-39.4476318359375,7.123810768127441,23.957271575927734
1776017889032518000,1.194517822265625,-39.668365478515625,7.54566764831543,23.67397689819336
1776017889042579000,1.204578857421875,-40.0372314453125,7.448241710662842,24.01317596435547
1776017889052640000,1.214639892578125,-40.024261474609375,7.296027183532715,23.98660659790039
1776017889062701000,1.224701171875,-39.70465087890625,7.265837669372559,23.925861358642578
1776017889072762000,1.23476220703125,-39.699859619140625,7.330502510070801,23.83133316040039
1776017889082824000,1.244823974609375,-39.6575927734375,7.09929084777832,23.84024429321289
1776017889092885000,1.254885009765625,-39.453948974609375,7.256030082702637,23.93759536743164
1776017889102946000,1.264946044921875,-39.803070068359375,7.397737503051758,23.703765869140625
1776017889113006800,1.2750068359375,-39.267608642578125,7.512897968292236,23.763534545898438
1776017889123068000,1.28506787109375,-39.311248779296875,7.449089050292969,23.554214477539062
1776017889133129000,1.29512890625,-39.072021484375,7.4802141189575195,23.750411987304688
1776017889143190800,1.305190673828125,-39.043426513671875,7.620490074157715,23.82468032836914
1776017889153251800,1.315251953125,-39.6055908203125,7.435315132141113,23.552928924560547
1776017889163313000,1.32531298828125,-39.144622802734375,7.621771335601807,23.526607513427734
1776017889173374000,1.3353740234375,-39.497589111328125,7.439500331878662,23.66619873046875
1776017889183435000,1.34543505859375,-39.701507568359375,7.587856292724609,23.822891235351562
1776017889193496800,1.355496826171875,-39.5184326171875,7.471077919006348,23.654964447021484
1776017889203558000,1.365557861328125,-39.392730712890625,7.522909641265869,23.567611694335938
1776017889213619000,1.375618896484375,-39.648223876953125,7.658359527587891,23.718551635742188
1776017889223680000,1.385679931640625,-39.46917724609375,7.588634490966797,23.791976928710938
1776017889233741000,1.395740966796875,-39.529876708984375,7.9602155685424805,23.843154907226562
1776017889243801900,1.4058017578125,-39.690185546875,7.774841785430908,23.643856048583984
1776017889253864000,1.415864013671875,-39.62774658203125,7.614319801330566,23.965557098388672
1776017889263924700,1.4259248046875,-39.418670654296875,7.653352737426758,23.92125701904297
1776017889273985800,1.43598583984375,-39.249755859375,7.736310958862305,23.930709838867188
1776017889284046800,1.446046875,-39.2891845703125,7.802297592163086,23.911361694335938
1776017889294108000,1.45610791015625,-39.2103271484375,7.891562461853027,23.78900909423828
1776017889304170000,1.466169921875,-39.563262939453125,7.835589408874512,23.87302017211914
1776017889314231000,1.47623095703125,-39.209503173828125,7.592158794403076,23.958919525146484
1776017889324291800,1.486291748046875,-39.20660400390625,7.602257251739502,23.91474151611328
1776017889334353000,1.496352783203125,-39.70977783203125,7.7219977378845215,23.97467041015625
1776017889344414000,1.5064140625,-39.592498779296875,7.543597221374512,24.169090270996094
1776017889354475000,1.51647509765625,-39.4171142578125,7.78037166595459,24.044845581054688
1776017889364537000,1.526537109375,-39.3387451171875,7.835326671600342,23.937286376953125
1776017889374598100,1.53659814453125,-39.453277587890625,7.7195611000061035,24.16025161743164
1776017889384659000,1.546658935546875,-39.53167724609375,7.650611877441406,24.007671356201172
1776017889394719700,1.5567197265625,-39.548828125,7.684269428253174,23.997234344482422
1776017889404780800,1.56678076171875,-39.552886962890625,7.710953712463379,24.14470672607422
1776017889414843000,1.5768427734375,-39.503387451171875,7.708473205566406,23.929092407226562
1776017889424904000,1.586904052734375,-39.7608642578125,7.273594379425049,23.93359375
1776017889434965000,1.596965087890625,-40.080230712890625,7.313138008117676,23.91376495361328
1776017889445026000,1.607026123046875,-39.637664794921875,7.189165115356445,24.09619140625
1776017889455086800,1.6170869140625,-39.787139892578125,6.75383186340332,24.178905487060547
1776017889465148000,1.62714794921875,-39.55242919921875,6.868697643280029,24.017005920410156
1776017889475210000,1.6372099609375,-40.0113525390625,6.931746482849121,23.903263092041016
1776017889485271000,1.64727099609375,-39.845977783203125,7.100287914276123,24.01449966430664
1776017889495332000,1.65733203125,-40.09588623046875,6.913180828094482,23.969757080078125
1776017889505393200,1.66739306640625,-40.07806396484375,6.675950050354004,24.31032943725586
1776017889515453700,1.67745361328125,-39.83837890625,7.058126926422119,24.287914276123047
1776017889525514800,1.6875146484375,-39.973602294921875,7.021650314331055,24.189319610595703
1776017889535576800,1.697576904296875,-40.055755615234375,7.006924152374268,24.2108154296875
1776017889545638000,1.707637939453125,-39.852386474609375,7.028036117553711,24.105709075927734
1776017889555699000,1.717698974609375,-39.569091796875,7.287972450256348,23.900257110595703
1776017889565760000,1.727760009765625,-39.709197998046875,7.123875141143799,24.042396545410156
1776017889575820800,1.73782080078125,-39.355133056640625,7.121435642242432,24.12955093383789
1776017889585883000,1.7478828125,-39.551025390625,7.1794257164001465,24.28127670288086
1776017889595944000,1.75794384765625,-39.573394775390625,7.2526936531066895,24.268600463867188
1776017889606005000,1.7680048828125,-39.3892822265625,7.146833419799805,24.255508422851562
1776017889616066000,1.778066162109375,-39.498016357421875,7.260511875152588,24.10158920288086
1776017889626127000,1.788127197265625,-39.716705322265625,7.267518997192383,24.236495971679688
1776017889636188000,1.79818798828125,-39.503875732421875,7.701436996459961,23.98337173461914
1776017889646250000,1.80825,-39.560211181640625,7.748358726501465,24.072296142578125
1776017889656311000,1.81831103515625,-39.880126953125,7.681327819824219,24.290271759033203
1776017889666371800,1.828371826171875,-39.4422607421875,7.42248010635376,24.213119506835938
1776017889676433000,1.838432861328125,-39.4632568359375,7.45424747467041,24.27635955810547
1776017889686494000,1.848493896484375,-39.79022216796875,7.726091384887695,24.317501068115234
1776017889696555500,1.858555419921875,-39.56756591796875,7.745485782623291,24.284957885742188
1776017889706617600,1.86861767578125,-39.896148681640625,7.867981433868408,24.19255828857422
1776017889716678700,1.8786787109375,-39.91192626953125,7.5767621994018555,23.98912811279297
1776017889726739700,1.88873974609375,-39.848358154296875,7.794384956359863,23.915706634521484
1776017889736800800,1.89880078125,-39.540496826171875,7.845602989196777,23.978939056396484
1776017889746861600,1.908861572265625,-39.353302001953125,7.676638603210449,23.998149871826172
1776017889756923600,1.918923583984375,-39.38348388671875,7.815911769866943,23.837738037109375
1776017889766984400,1.928984375,-39.526397705078125,8.02447509765625,23.911338806152344
1776017889777045500,1.93904541015625,-39.93701171875,8.122673034667969,23.62464141845703
1776017889787106600,1.9491064453125,-39.788604736328125,7.765723705291748,23.652084350585938
1776017889797167600,1.959167724609375,-39.7080078125,7.941496849060059,23.54849624633789
1776017889807228700,1.969228759765625,-39.72509765625,8.13773250579834,23.55225372314453
1776017889817290500,1.97929052734375,-40.004425048828125,7.957109451293945,23.531108856201172
1776017889827351600,1.9893515625,-39.800048828125,7.871306419372559,23.68560028076172
1776017889837412600,1.99941259765625,-40.31890869140625,8.112909317016602,23.725223541259766
1776017889847473700,2.0094736328125,-40.01959228515625,7.980129241943359,23.600631713867188
1776017889857534700,2.01953466796875,-39.66217041015625,7.9096999168396,23.485027313232422
1776017889867596500,2.029596435546875,-39.737823486328125,8.11109733581543,23.681076049804688
1776017889877657600,2.03965771484375,-39.711029052734375,7.95117712020874,23.459671020507812
1776017889887718700,2.04971875,-39.60113525390625,8.086519241333008,23.48571014404297
1776017889897779500,2.059779541015625,-39.729705810546875,8.08688735961914,23.411720275878906
1776017889907840500,2.069840576171875,-39.686492919921875,8.066917419433594,23.53934097290039
1776017889917901600,2.079901611328125,-39.75067138671875,7.862016677856445,23.600540161132812
1776017889927963400,2.08996337890625,-39.463134765625,7.632089614868164,23.41183090209961
1776017889938024400,2.1000244140625,-39.782623291015625,7.843141555786133,23.47223663330078
1776017889948085500,2.11008544921875,-39.56182861328125,7.649510383605957,23.331127166748047
1776017889958146600,2.120146484375,-39.5030517578125,7.502597332000732,23.432456970214844
1776017889968207600,2.13020751953125,-39.514495849609375,7.849623203277588,23.23711395263672
1776017889978268700,2.1402685546875,-39.549896240234375,7.5972442626953125,23.109024047851562
1776017889988330500,2.15033056640625,-39.8140869140625,7.878350734710693,23.431194305419922
1776017889998391600,2.1603916015625,-39.970367431640625,7.830104351043701,23.43653106689453
1776017890008452600,2.17045263671875,-40.059234619140625,7.756280422210693,23.40365219116211
1776017890018513400,2.180513427734375,-40.10675048828125,8.047696113586426,23.31692123413086
1776017890028574500,2.190574462890625,-40.386688232421875,7.94099235534668,23.393985748291016
1776017890038636500,2.200636474609375,-40.2564697265625,7.698394775390625,23.164588928222656
1776017890048697300,2.210697265625,-39.845123291015625,7.838040828704834,23.16131591796875
1776017890058758400,2.22075830078125,-39.755950927734375,8.097655296325684,23.139324188232422
1776017890068819500,2.2308193359375,-39.5960693359375,8.211736679077148,23.131877899169922
1776017890078880500,2.240880615234375,-39.836090087890625,8.36149787902832,23.030868530273438
1776017890088941600,2.250941650390625,-39.92572021484375,8.1017484664917,23.20549774169922
1776017890099003600,2.261003662109375,-40.299163818359375,8.224342346191406,23.229351043701172
1776017890109064700,2.271064697265625,-40.413787841796875,8.287418365478516,23.051876068115234
1776017890119125500,2.28112548828125,-39.927215576171875,8.266521453857422,23.12967300415039
1776017890129186600,2.2911865234375,-39.906951904296875,7.979246139526367,23.217700958251953
1776017890139247600,2.30124755859375,-40.011688232421875,8.170886993408203,23.300750732421875
1776017890149308400,2.311308349609375,-39.52825927734375,8.06069564819336,23.385440826416016
1776017890159370800,2.321370849609375,-39.65423583984375,8.141529083251953,23.45577621459961
1776017890169431600,2.331431640625,-39.851318359375,8.16769027709961,23.288867950439453
1776017890179492400,2.341492431640625,-39.912322998046875,8.051980972290039,23.516250610351562
1776017890189553400,2.351553466796875,-39.92840576171875,8.079950332641602,23.46697998046875
1776017890199614500,2.361614501953125,-39.491851806640625,8.365743637084961,23.537654876708984
1776017890209676500,2.371676513671875,-39.433197021484375,8.326494216918945,23.634475708007812
1776017890219737600,2.381737548828125,-39.260986328125,8.347787857055664,23.56792449951172
1776017890229798700,2.391798583984375,-39.453521728515625,8.49917221069336,23.790184020996094
1776017890239859500,2.401859375,-39.776947021484375,8.792529106140137,23.748046875
1776017890249920500,2.41192041015625,-39.1583251953125,8.653117179870605,23.983139038085938
1776017890259981600,2.421981689453125,-38.887237548828125,8.77362060546875,23.982959747314453
1776017890270043600,2.432043701171875,-39.039764404296875,8.773017883300781,23.946372985839844
1776017890280104700,2.442104736328125,-39.449432373046875,8.805191040039062,24.035675048828125
1776017890290165800,2.452165771484375,-39.636260986328125,8.753839492797852,23.82839584350586
1776017890300226600,2.4622265625,-39.403717041015625,8.671982765197754,23.822052001953125
1776017890310287400,2.472287353515625,-39.11663818359375,8.703723907470703,23.899330139160156
1776017890320348400,2.482348388671875,-39.216949462890625,8.608880996704102,23.7239990234375
1776017890330410500,2.492410400390625,-39.166748046875,8.923471450805664,23.757091522216797
1776017890340471600,2.502471435546875,-39.304534912109375,9.224088668823242,23.956993103027344
1776017890350532600,2.51253271484375,-39.24774169921875,9.029576301574707,24.087535858154297
1776017890360593700,2.52259375,-39.07757568359375,8.95634651184082,24.220478057861328
1776017890370654500,2.532654541015625,-39.1865234375,8.916641235351562,23.943336486816406
1776017890380715500,2.542715576171875,-39.70379638671875,9.03628921508789,23.768638610839844
1776017890390777600,2.552777587890625,-39.865325927734375,8.952067375183105,23.837791442871094
1776017890400838700,2.562838623046875,-39.472320556640625,9.027247428894043,23.603599548339844
1776017890410899700,2.572899658203125,-39.491943359375,8.84996223449707,23.761444091796875
1776017890420960800,2.582960693359375,-39.53857421875,8.78045654296875,23.824424743652344
1776017890431021600,2.593021484375,-38.709075927734375,8.908073425292969,24.071266174316406
1776017890441083600,2.603083740234375,-39.08013916015625,8.844502449035645,23.680648803710938
1776017890451144400,2.61314453125,-39.098419189453125,8.810188293457031,23.89600372314453
1776017890461205500,2.62320556640625,-38.9625244140625,9.04900074005127,23.81103515625
1776017890471266600,2.6332666015625,-39.268310546875,8.956853866577148,23.888687133789062
1776017890481327600,2.64332763671875,-39.25469970703125,8.852021217346191,24.002033233642578
1776017890491388700,2.653388671875,-39.0948486328125,8.789349555969238,24.050121307373047
1776017890501450500,2.663450439453125,-39.176666259765625,8.804293632507324,24.209514617919922
1776017890511511600,2.673511474609375,-38.95513916015625,8.734830856323242,23.897106170654297
1776017890521572600,2.683572509765625,-39.241607666015625,8.715192794799805,23.94229507446289
1776017890531633700,2.693633544921875,-39.32232666015625,8.933675765991211,23.850177764892578
1776017890541694700,2.70369482421875,-39.25042724609375,8.84378719329834,23.8812255859375
1776017890551756500,2.713756591796875,-39.140838623046875,8.699209213256836,23.811565399169922
1776017890561817600,2.723817626953125,-39.2720947265625,8.804171562194824,23.71218490600586
1776017890571878700,2.733878662109375,-39.454986572265625,8.972186088562012,23.822532653808594
1776017890581939500,2.743939453125,-39.734375,8.757857322692871,23.763442993164062
1776017890592000500,2.75400048828125,-39.4764404296875,8.768051147460938,23.709041595458984
1776017890602061600,2.7640615234375,-39.649139404296875,8.957365036010742,23.49758529663086
1776017890612123400,2.774123291015625,-39.59649658203125,8.780525207519531,23.727081298828125
1776017890622184400,2.784184326171875,-39.358062744140625,8.758991241455078,23.546371459960938
1776017890632245500,2.79424560546875,-39.506103515625,8.820629119873047,23.570358276367188
1776017890642306600,2.804306640625,-39.645538330078125,8.670381546020508,23.431480407714844
1776017890652367600,2.81436767578125,-39.809844970703125,8.484719276428223,23.29995346069336
1776017890662428700,2.8244287109375,-39.872711181640625,8.328983306884766,23.523082733154297
1776017890672490500,2.834490478515625,-39.812774658203125,8.236148834228516,23.56454849243164
1776017890682551600,2.844551513671875,-39.496734619140625,8.176215171813965,23.392166137695312
1776017890692612600,2.854612548828125,-39.823272705078125,8.361747741699219,23.339885711669922
1776017890702673000,2.8646728515625,-39.66094970703125,8.144283294677734,23.36968231201172
1776017890712734000,2.87473388671875,-39.665924072265625,8.000738143920898,23.537647247314453
1776017890722795000,2.884794921875,-39.8377685546875,7.974762916564941,23.534549713134766
1776017890732857000,2.894857177734375,-39.359466552734375,7.8910346031188965,23.868343353271484
1776017890742918000,2.90491796875,-39.7510986328125,7.812155246734619,23.458282470703125
1776017890752979000,2.91497900390625,-39.530059814453125,7.757907390594482,23.712902069091797
1776017890763040000,2.9250400390625,-39.521575927734375,7.6784892082214355,23.81863021850586
1776017890773101000,2.93510107421875,-39.526702880859375,7.4511237144470215,23.907657623291016
1776017890783163100,2.9451630859375,-39.540130615234375,7.585695743560791,24.090972900390625
1776017890793224000,2.955223876953125,-39.559661865234375,7.482590675354004,23.93832778930664
1776017890803285000,2.965284912109375,-39.8577880859375,7.345297336578369,23.859638214111328
1776017890813345800,2.975345703125,-39.91583251953125,7.519848346710205,23.915103912353516
1776017890823406800,2.98540673828125,-39.47503662109375,7.551603317260742,24.01199722290039
1776017890833468000,2.995468017578125,-39.268646240234375,7.476304054260254,23.976947784423828
1776017890843530000,3.005530029296875,-39.187103271484375,7.5532917976379395,24.092323303222656
1776017890853591000,3.015591064453125,-39.742828369140625,7.631180286407471,23.86850357055664
1776017890863652000,3.025652099609375,-39.557098388671875,7.784427642822266,23.98348617553711
1776017890873713000,3.035712890625,-39.7384033203125,7.582968235015869,24.00472640991211
1776017890883774000,3.04577392578125,-39.221099853515625,7.4914093017578125,23.884723663330078
1776017890893835000,3.0558349609375,-39.321624755859375,7.2711334228515625,23.786800384521484
1776017890903897000,3.06589697265625,-39.7772216796875,7.332610130310059,23.822307586669922
1776017890913958100,3.075958251953125,-39.051483154296875,7.301989555358887,23.77774429321289
1776017890924019000,3.08601904296875,-38.736785888671875,7.347417831420898,24.010299682617188
1776017890934080000,3.096080078125,-38.81451416015625,7.3445844650268555,24.033172607421875
1776017890944140800,3.106140869140625,-39.37860107421875,7.70805549621582,23.957630157470703
1776017890954203000,3.116202880859375,-39.82855224609375,7.514991760253906,24.01543426513672
1776017890964264000,3.126263916015625,-39.976043701171875,7.29881477355957,23.963363647460938
1776017890974325000,3.136324951171875,-39.6710205078125,7.516116142272949,23.91254425048828
1776017890984386000,3.146385986328125,-39.882171630859375,7.739780902862549,23.878040313720703
1776017890994447000,3.156447021484375,-39.713958740234375,7.684410095214844,23.980937957763672
1776017891004508000,3.1665078125,-39.554656982421875,7.761709690093994,24.082378387451172
1776017891014570000,3.176570068359375,-39.679412841796875,7.840473175048828,23.942466735839844
1776017891024631000,3.186631103515625,-39.602294921875,7.729146957397461,24.03668212890625
1776017891034692000,3.196692138671875,-38.873504638671875,7.840058326721191,24.071945190429688
1776017891044753200,3.206753173828125,-38.7698974609375,7.961004734039307,24.14072036743164
1776017891054814000,3.21681396484375,-39.071319580078125,8.23108196258545,24.1025390625
1776017891064875000,3.226875,-39.104339599609375,8.256719589233398,24.129592895507812
1776017891074936800,3.236936767578125,-38.711639404296875,8.268186569213867,24.09408950805664
1776017891084998000,3.246997802734375,-39.1412353515625,8.353145599365234,24.141063690185547
1776017891095059000,3.257058837890625,-38.93463134765625,7.9456305503845215,24.277271270751953
1776017891105120000,3.2671201171875,-39.0245361328125,8.109336853027344,24.21834945678711
1776017891115181000,3.27718115234375,-38.713287353515625,8.283832550048828,24.432037353515625
1776017891125243000,3.287242919921875,-38.55712890625,8.219085693359375,24.28736114501953
1776017891135304000,3.297303955078125,-38.7896728515625,8.30882453918457,24.336833953857422
1776017891145365000,3.307364990234375,-38.9561767578125,8.166486740112305,24.402732849121094
1776017891155426000,3.317426025390625,-39.082183837890625,8.270166397094727,24.449703216552734
1776017891165487000,3.327487060546875,-39.245849609375,8.40777587890625,24.216217041015625
1776017891175548200,3.337548095703125,-39.206451416015625,8.307106018066406,23.99549102783203
1776017891185610000,3.34760986328125,-39.022247314453125,8.102577209472656,24.026798248291016
1776017891195671000,3.357671142578125,-38.860809326171875,8.218344688415527,23.868236541748047
1776017891205731800,3.36773193359375,-39.092742919921875,8.210947036743164,23.777042388916016
1776017891215793000,3.37779296875,-39.260223388671875,8.354090690612793,23.736099243164062
1776017891225854000,3.38785400390625,-39.6087646484375,8.106287956237793,23.59280014038086
1776017891235915000,3.3979150390625,-39.5526123046875,7.871617317199707,23.8148193359375
1776017891245976800,3.407976806640625,-39.343536376953125,8.184737205505371,23.698341369628906
1776017891256038000,3.418037841796875,-39.428192138671875,8.189899444580078,23.863304138183594
1776017891266099000,3.428098876953125,-39.23626708984375,8.038806915283203,23.776042938232422
1776017891276160000,3.438159912109375,-39.333984375,8.021554946899414,23.85882568359375
1776017891286221000,3.448220947265625,-39.0909423828125,8.198843002319336,23.598114013671875
1776017891296283000,3.458282958984375,-39.448944091796875,8.129913330078125,23.661663055419922
1776017891306344000,3.468343994140625,-39.42059326171875,8.148447036743164,23.735843658447266
1776017891316405000,3.478405029296875,-39.618072509765625,8.098966598510742,23.582149505615234
1776017891326466000,3.488466064453125,-39.729034423828125,7.882840156555176,23.556514739990234
1776017891336526800,3.49852685546875,-39.5751953125,7.800162315368652,23.610271453857422
1776017891346588000,3.508587890625,-39.738861083984375,7.764383792877197,23.727420806884766
1776017891356650000,3.51864990234375,-39.617462158203125,7.758665561676025,23.573387145996094
1776017891366710800,3.528710693359375,-39.5645751953125,7.919445991516113,23.72426986694336
1776017891376771800,3.538771728515625,-39.11090087890625,7.6923604011535645,23.741241455078125
1776017891386833000,3.5488330078125,-39.0628662109375,7.741234302520752,23.62506866455078
1776017891396894000,3.55889404296875,-39.26983642578125,7.57302188873291,23.728900909423828
1776017891406955000,3.568955078125,-39.2950439453125,7.849570274353027,23.881771087646484
1776017891417017000,3.57901708984375,-39.51153564453125,7.8454155921936035,23.758056640625
1776017891427078000,3.589077880859375,-39.2685546875,7.714125156402588,23.771697998046875
1776017891437139000,3.599138916015625,-39.507843017578125,8.087276458740234,23.92040252685547
1776017891447200000,3.609199951171875,-39.42181396484375,7.83271598815918,23.548309326171875
1776017891457261000,3.619260986328125,-39.57196044921875,7.86553955078125,23.853057861328125
1776017891467323100,3.6293232421875,-39.27020263671875,7.959338665008545,23.886672973632812
1776017891477384200,3.63938427734375,-39.181121826171875,7.993271827697754,23.952838897705078
1776017891487445000,3.649445068359375,-39.71746826171875,7.862757682800293,23.981998443603516
1776017891497505800,3.659505859375,-39.432220458984375,7.7098588943481445,23.91427993774414
1776017891507566800,3.66956689453125,-39.3021240234375,7.67912483215332,24.062599182128906
1776017891517628000,3.6796279296875,-39.1390380859375,7.516145706176758,24.00534439086914
1776017891527690000,3.68968994140625,-39.274444580078125,7.492880344390869,24.095687866210938
1776017891537751000,3.6997509765625,-39.138275146484375,7.850820064544678,24.265621185302734
1776017891547812000,3.70981201171875,-38.970550537109375,7.905361652374268,24.198802947998047
1776017891557873000,3.719872802734375,-39.14849853515625,8.138734817504883,24.369579315185547
1776017891567934000,3.729933837890625,-39.186737060546875,8.294021606445312,24.174999237060547
1776017891577995000,3.7399951171875,-39.481719970703125,8.34182071685791,24.11151885986328
1776017891588057000,3.75005712890625,-39.444976806640625,8.429282188415527,23.84283447265625
1776017891598118100,3.7601181640625,-39.705535888671875,8.392204284667969,23.494510650634766
1776017891608179200,3.77017919921875,-39.893524169921875,8.540970802307129,23.127552032470703
1776017891618240000,3.780239990234375,-40.212646484375,8.294408798217773,22.950672149658203
1776017891628300800,3.79030078125,-39.978729248046875,8.054523468017578,22.83477020263672
1776017891638363000,3.80036279296875,-39.8701171875,8.261726379394531,22.75725555419922
1776017891648424000,3.810423828125,-40.266143798828125,8.141140937805176,22.595470428466797
1776017891658485000,3.820485107421875,-40.166168212890625,7.975937843322754,22.800674438476562
1776017891668546000,3.830546142578125,-39.672119140625,8.140089988708496,22.909347534179688
1776017891678607000,3.840607177734375,-39.56201171875,8.279627799987793,23.05010223388672
1776017891688668000,3.85066796875,-39.798919677734375,8.31916618347168,23.100860595703125
1776017891698730000,3.86072998046875,-39.428802490234375,8.41806411743164,23.14800262451172
1776017891708791000,3.870791015625,-39.467193603515625,8.726611137390137,23.402812957763672
1776017891718852000,3.88085205078125,-39.32830810546875,8.875598907470703,23.079696655273438
1776017891728913200,3.8909130859375,-39.613525390625,8.847453117370605,22.82137680053711
1776017891738974200,3.90097412109375,-40.089080810546875,8.758478164672852,22.815895080566406
1776017891749035000,3.911034912109375,-39.9595947265625,8.348115921020508,22.716854095458984
1776017891759097000,3.92109716796875,-40.021759033203125,8.536991119384766,22.573360443115234
1776017891769158100,3.931158203125,-40.29144287109375,8.310163497924805,22.63660430908203
1776017891779219200,3.94121923828125,-40.25048828125,8.50694465637207,22.633068084716797
1776017891789280300,3.9512802734375,-40.1181640625,8.469477653503418,22.639812469482422
1776017891799341300,3.96134130859375,-40.629913330078125,8.504443168640137,22.990615844726562
1776017891809403100,3.971403076171875,-39.9547119140625,8.400955200195312,23.120445251464844
1776017891819464200,3.981464111328125,-39.964813232421875,8.261064529418945,23.190994262695312
1776017891829525000,3.99152490234375,-39.601776123046875,8.10452651977539,23.361431121826172
1776017891839586000,4.0015859375,-39.398406982421875,8.053586959838867,23.254287719726562
1776017891849647000,4.011647216796875,-39.591339111328125,7.9519805908203125,23.255123138427734
1776017891859708200,4.021708251953125,-39.592681884765625,7.813214302062988,23.409984588623047
1776017891869770000,4.03177001953125,-39.8123779296875,7.942820072174072,23.412723541259766
1776017891879831000,4.0418310546875,-39.994049072265625,7.7825422286987305,23.146137237548828
1776017891889892000,4.05189208984375,-39.666412353515625,7.8260111808776855,22.973251342773438
1776017891899953200,4.061953125,-39.8040771484375,7.620848655700684,22.822887420654297
1776017891910014200,4.07201416015625,-39.890960693359375,7.516686916351318,22.750316619873047
1776017891920075300,4.0820751953125,-40.411773681640625,7.489955902099609,22.817928314208984
1776017891930137000,4.09213720703125,-40.2908935546875,7.4655375480651855,22.66577911376953
1776017891940198100,4.1021982421875,-40.1253662109375,7.36503791809082,22.843753814697266
1776017891950259200,4.11225927734375,-40.090301513671875,7.288043975830078,22.58118438720703
1776017891960320000,4.122320068359375,-40.081787109375,7.631259918212891,22.55536651611328
1776017891970381000,4.132381103515625,-40.068695068359375,7.566163063049316,22.58574676513672
1776017891980443000,4.14244287109375,-40.15411376953125,7.727924346923828,22.605255126953125
1776017891990504000,4.15250390625,-40.111358642578125,7.311823844909668,22.76848602294922
1776017892000565000,4.16256494140625,-40.552154541015625,7.430078029632568,22.78858184814453
1776017892010626000,4.1726259765625,-40.83978271484375,7.497704982757568,22.627471923828125
1776017892020687000,4.18268701171875,-40.449615478515625,7.461881160736084,22.408676147460938
1776017892030748200,4.192748046875,-40.513153076171875,7.3327226638793945,22.380409240722656
1776017892040810000,4.20281005859375,-40.62310791015625,6.870064735412598,22.36496353149414
1776017892050871000,4.21287109375,-40.46832275390625,7.5347747802734375,22.756786346435547
1776017892060932000,4.22293212890625,-40.319610595703125,7.357879161834717,22.885177612304688
1776017892070993200,4.2329931640625,-40.599639892578125,7.329561233520508,22.83441162109375
1776017892081054200,4.24305419921875,-40.6220703125,7.133572101593018,22.817081451416016
1776017892091115000,4.253114990234375,-40.43194580078125,7.258353233337402,22.880168914794922
1776017892101177000,4.263177001953125,-40.21966552734375,7.152766704559326,23.113788604736328
1776017892111238000,4.27323779296875,-40.18743896484375,7.014767646789551,23.217330932617188
1776017892121299000,4.283298828125,-40.397979736328125,6.892454147338867,23.188026428222656
1776017892131360000,4.293360107421875,-40.608306884765625,6.927493572235107,23.125041961669922
1776017892141421000,4.303421142578125,-40.48370361328125,6.674445629119873,23.149383544921875
1776017892151483100,4.313483154296875,-40.364288330078125,6.491147994995117,23.114055633544922
1776017892161544200,4.323544189453125,-40.0157470703125,6.392619609832764,23.243167877197266
1776017892171605000,4.33360498046875,-40.332427978515625,6.417388916015625,23.40744400024414
1776017892181666000,4.343666015625,-40.244415283203125,6.030338764190674,23.51073455810547
1776017892191727000,4.35372705078125,-40.0614013671875,6.170091152191162,23.567485809326172
1776017892201788200,4.3637880859375,-39.770599365234375,5.804129600524902,23.91131591796875
1776017892211850200,4.373850341796875,-40.22674560546875,5.982119083404541,24.053829193115234
1776017892221911300,4.383911376953125,-40.293914794921875,5.559786319732666,24.570568084716797
1776017892231972000,4.39397216796875,-39.89019775390625,5.418573379516602,24.660991668701172
1776017892242033000,4.404032958984375,-39.75213623046875,5.0749616622924805,24.76941680908203
1776017892252094000,4.414093994140625,-39.543212890625,4.681495666503906,25.320152282714844
1776017892262155000,4.424155029296875,-39.409515380859375,4.532190322875977,25.99419403076172
1776017892272217000,4.434217041015625,-38.378173828125,4.319199562072754,26.530845642089844
1776017892282278100,4.444278076171875,-37.892486572265625,4.009084701538086,27.2054443359375
1776017892292339200,4.454339111328125,-37.6663818359375,4.107507705688477,27.569629669189453
1776017892302400000,4.46439990234375,-37.22503662109375,4.209137916564941,27.860107421875
1776017892312461000,4.4744609375,-37.363372802734375,3.6420822143554688,28.239532470703125
1776017892322523100,4.484523193359375,-37.0499267578125,3.2997817993164062,28.607852935791016
1776017892332584200,4.494584228515625,-36.55633544921875,3.1768598556518555,29.114784240722656
1776017892342645200,4.504645263671875,-36.49041748046875,2.831294059753418,29.388381958007812
1776017892352706300,4.514706298828125,-36.137664794921875,2.762514114379883,29.28958511352539
1776017892362767000,4.52476708984375,-36.101043701171875,2.3737049102783203,29.466785430908203
1776017892372828000,4.534827880859375,-35.672882080078125,2.599881172180176,30.036544799804688
1776017892382890000,4.544889892578125,-35.953643798828125,2.4601240158081055,30.225814819335938
1776017892392951000,4.554950927734375,-35.27435302734375,2.441732406616211,30.2498779296875
1776017892403012000,4.56501220703125,-34.935546875,2.078878402709961,30.309661865234375
1776017892413073200,4.5750732421875,-35.03192138671875,2.0243358612060547,30.864646911621094
1776017892423134200,4.58513427734375,-34.617279052734375,2.1307878494262695,30.850845336914062
1776017892433196000,4.595196044921875,-34.65966796875,2.0147342681884766,31.18035888671875
1776017892443257000,4.605257080078125,-34.68017578125,1.8473501205444336,31.14331817626953
1776017892453318100,4.615318115234375,-34.95037841796875,1.8690929412841797,31.19347381591797
1776017892463379200,4.625379150390625,-34.9603271484375,1.5635862350463867,31.04566192626953
1776017892473440300,4.635440185546875,-34.805633544921875,1.2194442749023438,31.159080505371094
1776017892483501300,4.645501220703125,-34.49359130859375,1.0157337188720703,31.152015686035156
1776017892493563100,4.655563232421875,-34.53521728515625,0.7511920928955078,31.13507080078125
1776017892503624200,4.665624267578125,-34.311492919921875,0.08149242401123047,30.840606689453125
1776017892513685000,4.67568505859375,-34.465179443359375,-0.23783206939697266,31.084259033203125
1776017892523746000,4.68574609375,-34.392608642578125,-0.6113405227661133,31.012374877929688
1776017892533807000,4.69580712890625,-34.451446533203125,-1.1474838256835938,31.040328979492188
1776017892543869000,4.705868896484375,-34.88189697265625,-1.2864952087402344,30.923683166503906
1776017892553930000,4.715929931640625,-34.57586669921875,-1.4731416702270508,30.80950164794922
1776017892563991000,4.725990966796875,-34.037109375,-1.4790401458740234,30.89324188232422
1776017892574052000,4.736052001953125,-34.467071533203125,-1.6660614013671875,30.949066162109375
1776017892584113200,4.746113037109375,-34.528778076171875,-1.4971818923950195,31.034011840820312
1776017892594174200,4.75617431640625,-34.62841796875,-1.3777704238891602,31.159080505371094
1776017892604236000,4.766236083984375,-34.342529296875,-1.622732162475586,31.31169891357422
1776017892614297000,4.776297119140625,-34.23419189453125,-1.4571237564086914,31.35474395751953
1776017892624358100,4.786358154296875,-34.13543701171875,-1.7796707153320312,31.075881958007812
1776017892634419200,4.796419189453125,-34.52423095703125,-1.4491205215454102,31.076171875
1776017892644480000,4.80647998046875,-34.1949462890625,-1.6459321975708008,31.33472442626953
1776017892654542000,4.8165419921875,-33.68365478515625,-1.7463197708129883,31.65050506591797
1776017892664603000,4.826602783203125,-33.548675537109375,-1.510603904724121,31.711647033691406
1776017892674664000,4.836663818359375,-33.12493896484375,-1.3494758605957031,31.993141174316406
1776017892684725000,4.84672509765625,-33.01995849609375,-1.4249591827392578,32.52368927001953
1776017892694786000,4.8567861328125,-32.90679931640625,-1.2929086685180664,32.8580322265625
1776017892704846600,4.8668466796875,-32.21209716796875,-1.3054523468017578,33.123374938964844
1776017892714908700,4.87690869140625,-31.96307373046875,-0.9542093276977539,33.67573547363281
1776017892724969700,4.8869697265625,-31.643402099609375,-0.7848711013793945,33.75975799560547
1776017892735030500,4.897030517578125,-31.533203125,-0.8050537109375,33.547882080078125
1776017892745091600,4.907091552734375,-31.6153564453125,-0.7803096771240234,33.42669677734375
1776017892755152400,4.91715234375,-31.56982421875,-0.6834173202514648,33.524375915527344
1776017892765213400,4.92721337890625,-31.904693603515625,-0.718836784362793,33.32849884033203
1776017892775275500,4.937275634765625,-31.987579345703125,-0.9735345840454102,33.23835754394531
1776017892785336600,4.947336669921875,-32.036407470703125,-1.4059133529663086,32.96000671386719
1776017892795397600,4.957397705078125,-32.6224365234375,-1.5103931427001953,32.73112487792969
1776017892805458400,4.96745849609375,-32.7574462890625,-1.6387224197387695,32.19636535644531
1776017892815519500,4.97751953125,-33.178802490234375,-1.7697134017944336,31.8231201171875
1776017892825581600,4.98758154296875,-33.55279541015625,-2.0379114151000977,31.782913208007812
1776017892835642600,4.997642578125,-34.0760498046875,-2.215662956237793,31.73828125
1776017892845703700,5.00770361328125,-33.83660888671875,-2.1131887435913086,31.712318420410156
1776017892855764700,5.0177646484375,-34.16168212890625,-2.1988821029663086,31.60926055908203
1776017892865825500,5.027825439453125,-34.047515869140625,-2.0708179473876953,31.659027099609375
1776017892875886600,5.037886474609375,-33.609771728515625,-1.9600763320922852,31.852149963378906
1776017892885948700,5.04794873046875,-33.5052490234375,-2.254815101623535,31.78130340576172
1776017892896009500,5.058009521484375,-33.10247802734375,-2.476602554321289,31.826553344726562
1776017892906070500,5.068070556640625,-33.49444580078125,-2.5860958099365234,31.844322204589844
1776017892916131600,5.078131591796875,-33.405731201171875,-3.048222541809082,31.825843811035156
1776017892926192600,5.088192626953125,-33.36761474609375,-3.201547622680664,31.882606506347656
1776017892936254500,5.09825439453125,-33.31640625,-3.240555763244629,32.05705261230469
1776017892946315500,5.1083154296875,-33.5782470703125,-3.3194570541381836,32.291595458984375
1776017892956376600,5.11837646484375,-33.1968994140625,-2.914586067199707,32.51715087890625
1776017892966437600,5.128437744140625,-32.687255859375,-2.531597137451172,33.02123260498047
1776017892976498700,5.138498779296875,-32.3114013671875,-2.3901853561401367,33.38616180419922
1776017892986559700,5.148559814453125,-31.725982666015625,-1.950150489807129,33.652618408203125
1776017892996621600,5.15862158203125,-31.526519775390625,-1.6184043884277344,33.93567657470703
1776017893006682600,5.1686826171875,-31.10906982421875,-1.359492301940918,34.312400817871094
1776017893016743700,5.17874365234375,-31.089996337890625,-0.5995807647705078,34.73614501953125
1776017893026804500,5.188804443359375,-30.804840087890625,-0.41124820709228516,34.853309631347656
1776017893036865500,5.198865478515625,-30.33551025390625,0.27507686614990234,35.11114501953125
1776017893046927400,5.20892724609375,-29.8048095703125,0.5744733810424805,35.480125427246094
1776017893056988400,5.218988525390625,-28.502227783203125,1.1832923889160156,35.99321746826172
1776017893067049500,5.229049560546875,-27.21026611328125,1.7256488800048828,36.78681945800781
1776017893077110500,5.239110595703125,-26.239837646484375,2.344287872314453,37.85797119140625
1776017893087171600,5.249171630859375,-25.0291748046875,3.38082218170166,38.70074462890625
1776017893097232600,5.259232666015625,-23.62060546875,3.98215389251709,39.182090759277344
1776017893107294500,5.26929443359375,-22.63873291015625,4.706652641296387,39.71778106689453
1776017893117355500,5.27935546875,-21.1759033203125,5.38532829284668,40.432212829589844
1776017893127416600,5.28941650390625,-19.62078857421875,5.989287376403809,40.77288818359375
1776017893137477600,5.2994775390625,-18.494781494140625,6.7235283851623535,41.31517028808594
1776017893147538700,5.30953857421875,-16.99560546875,7.477983474731445,41.728607177734375
1776017893157600800,5.319600830078125,-15.3372802734375,8.151671409606934,42.34851837158203
1776017893167661600,5.32966162109375,-12.8812255859375,8.49885368347168,42.92705535888672
1776017893177722400,5.339722412109375,-10.5609130859375,9.077411651611328,43.41315460205078
1776017893187783400,5.349783447265625,-8.018585205078125,9.589192390441895,43.72864532470703
1776017893197844500,5.359844482421875,-4.13238525390625,10.38259220123291,44.17713928222656
1776017893207905500,5.369905517578125,-2.526947021484375,10.753377914428711,44.030357360839844
1776017893217967600,5.379967529296875,-1.170318603515625,11.193243026733398,44.19435119628906
1776017893228028400,5.3900283203125,-0.229583740234375,11.266024589538574,44.027122497558594
1776017893238089500,5.40008935546875,0.036346435546875,11.294882774353027,44.049903869628906
1776017893248150500,5.410150634765625,0.38818359375,11.393152236938477,44.09886932373047
1776017893258211600,5.420211669921875,1.15960693359375,11.320104598999023,44.0107421875
1776017893268273700,5.430273681640625,1.9716796875,11.113142013549805,43.86907196044922
1776017893278334700,5.440334716796875,2.812744140625,11.020606994628906,43.90229034423828
1776017893288395500,5.4503955078125,3.702301025390625,11.010425567626953,43.905128479003906
1776017893298456600,5.46045654296875,4.101104736328125,11.012385368347168,43.76530456542969
1776017893308517400,5.470517333984375,4.90618896484375,10.975971221923828,43.83570861816406
1776017893318579700,5.480579833984375,5.3822021484375,10.812520980834961,43.682952880859375
1776017893328640500,5.490640625,5.780731201171875,10.739432334899902,43.83171844482422
1776017893338701600,5.50070166015625,6.5792236328125,10.216789245605469,43.89104461669922
1776017893348762600,5.5107626953125,7.707794189453125,10.224008560180664,43.70954132080078
1776017893358823400,5.520823486328125,9.10491943359375,9.758628845214844,43.857940673828125
1776017893368884500,5.530884521484375,9.389862060546875,9.75172233581543,43.629005432128906
1776017893378946600,5.540946533203125,10.11114501953125,9.683988571166992,43.369415283203125
1776017893389007600,5.551007568359375,11.053009033203125,9.292420387268066,43.36322021484375
1776017893399068700,5.561068603515625,11.546966552734375,9.529786109924316,43.291473388671875
1776017893409129700,5.571129638671875,11.9879150390625,9.35903549194336,43.24090576171875
1776017893419190500,5.5811904296875,12.020965576171875,8.925671577453613,43.326751708984375
1776017893429252600,5.591252685546875,12.03582763671875,8.602852821350098,43.553260803222656
1776017893439313700,5.601313720703125,12.58197021484375,8.199804306030273,43.532249450683594
1776017893449374700,5.611374755859375,12.585296630859375,7.768900394439697,43.42500305175781
1776017893459435500,5.621435546875,12.42724609375,7.402779579162598,43.552276611328125
1776017893469496600,5.63149658203125,12.515869140625,6.790220260620117,43.46595764160156
1776017893479557600,5.6415576171875,12.235931396484375,6.265007495880127,43.82926940917969
1776017893489619500,5.651619384765625,12.397216796875,5.617550373077393,43.920806884765625
1776017893499680500,5.661680419921875,12.440093994140625,5.15032434463501,44.05967712402344
1776017893509741600,5.671741455078125,12.06903076171875,4.612942695617676,44.46214294433594
1776017893519802600,5.681802734375,11.813201904296875,4.057799339294434,44.374725341796875
1776017893529863700,5.69186376953125,11.20965576171875,3.918455123901367,44.786659240722656
1776017893539925500,5.701925537109375,10.84100341796875,3.6221399307250977,44.75810241699219
1776017893549986600,5.711986572265625,10.6502685546875,3.5984878540039062,44.903648376464844
1776017893560047600,5.722047607421875,10.386260986328125,3.497507095336914,45.041419982910156
1776017893570108700,5.732108642578125,9.954345703125,3.513916015625,45.030296325683594
1776017893580169700,5.742169677734375,10.1519775390625,3.299250602722168,44.868141174316406
1776017893590230500,5.75223046875,9.70257568359375,3.1186141967773438,44.98601531982422
1776017893600292400,5.762292236328125,8.99566650390625,3.0350446701049805,45.372886657714844
1776017893610353400,5.772353515625,8.391845703125,2.608645439147949,45.45977020263672
1776017893620414500,5.78241455078125,7.904937744140625,2.4243688583374023,45.504852294921875
1776017893630475500,5.7924755859375,7.74273681640625,1.962855339050293,45.405738830566406
1776017893640536600,5.80253662109375,7.0740966796875,1.87030029296875,45.46612548828125
1776017893650598400,5.812598388671875,7.06976318359375,2.0307416915893555,45.62739562988281
1776017893660659500,5.822659423828125,6.642608642578125,2.139324188232422,45.76850891113281
1776017893670720500,5.832720458984375,5.76123046875,1.9254474639892578,45.72919464111328
1776017893680781600,5.842781494140625,4.9742431640625,1.6872787475585938,45.96600341796875
1776017893690842600,5.852842529296875,4.636962890625,1.1401395797729492,45.976280212402344
1776017893700903700,5.862903564453125,4.192840576171875,0.8755102157592773,46.0548095703125
1776017893710965800,5.8729658203125,3.910003662109375,0.39839839935302734,46.08948516845703
1776017893721026600,5.883026611328125,3.8455810546875,0.3564739227294922,45.95819091796875
1776017893731087600,5.893087646484375,3.66912841796875,0.02937602996826172,45.854087829589844
1776017893741148700,5.903148681640625,3.469940185546875,-0.42119693756103516,46.068336486816406
1776017893751209700,5.913209716796875,2.913818359375,-0.9190607070922852,46.124900817871094
1776017893761271800,5.923271728515625,2.078155517578125,-1.5566492080688477,46.003868103027344
1776017893771332900,5.933332763671875,1.039398193359375,-2.4975814819335938,46.17024230957031
1776017893781393700,5.9433935546875,-0.3167724609375,-3.100468635559082,46.269073486328125
1776017893791454700,5.953454833984375,-1.62347412109375,-3.28926944732666,46.167945861816406
1776017893801515800,5.963515869140625,-3.221923828125,-3.4768457412719727,46.075660705566406
1776017893811576800,5.973576904296875,-4.318634033203125,-3.769608497619629,46.027748107910156
1776017893821639000,5.983638916015625,-5.6761474609375,-3.746565818786621,45.62709045410156
1776017893831699700,5.99369970703125,-6.651641845703125,-3.4019289016723633,45.72743225097656
1776017893841760500,6.003760498046875,-7.685089111328125,-3.0179738998413086,45.62464141845703
1776017893851821600,6.013821533203125,-7.8111572265625,-2.135483741760254,45.673248291015625
1776017893861882600,6.023882568359375,-8.106475830078125,-1.5996084213256836,45.710365295410156
1776017893871944700,6.03394482421875,-9.146820068359375,-0.7903213500976562,45.713584899902344
1776017893882005800,6.044005859375,-9.90240478515625,0.12555599212646484,45.496009826660156
1776017893892066800,6.05406689453125,-10.742279052734375,1.3144969940185547,45.210548400878906
1776017893902127600,6.064127685546875,-11.17864990234375,2.683394432067871,44.71766662597656
1776017893912188700,6.074188720703125,-12.293914794921875,4.838089942932129,44.3153076171875
1776017893922249700,6.084249755859375,-12.75128173828125,6.792159080505371,43.663734436035156
1776017893932311800,6.094311767578125,-14.40252685546875,8.865509033203125,42.58690643310547
1776017893942372900,6.104372802734375,-15.267822265625,10.633941650390625,41.47615051269531
1776017893952434000,6.114433837890625,-16.798248291015625,12.436508178710938,40.75718688964844
1776017893962494700,6.12449462890625,-18.032684326171875,14.378057479858398,39.69646453857422
1776017893972555500,6.134555419921875,-18.63189697265625,15.709977149963379,38.752655029296875
1776017893982617600,6.14461767578125,-18.1005859375,16.947792053222656,37.971641540527344
1776017893992678700,6.1546787109375,-17.88671875,18.090688705444336,37.729042053222656
1776017894002739700,6.16473974609375,-17.733001708984375,18.902931213378906,37.61235046386719
1776017894012800800,6.17480078125,-17.399261474609375,19.713315963745117,37.447509765625
1776017894022861800,6.18486181640625,-16.083526611328125,20.414077758789062,37.80340576171875
1776017894032923600,6.194923583984375,-14.601898193359375,20.980342864990234,38.37333679199219
1776017894042984700,6.204984619140625,-12.704803466796875,21.55615234375,38.693824768066406
1776017894053045800,6.215045654296875,-12.485504150390625,22.115726470947266,38.487396240234375
1776017894063106800,6.22510693359375,-11.797393798828125,22.494691848754883,38.552406311035156
1776017894073168000,6.23516796875,-11.39434814453125,22.97452163696289,38.47557067871094
1776017894083229000,6.24522900390625,-12.031829833984375,23.468990325927734,38.05560302734375
1776017894093290800,6.255290771484375,-12.634796142578125,24.140182495117188,37.187164306640625
1776017894103351800,6.265351806640625,-12.411956787109375,24.774944305419922,36.55821228027344
1776017894113412600,6.27541259765625,-13.178070068359375,25.240894317626953,36.165077209472656
1776017894123473700,6.2854736328125,-13.055755615234375,25.78878402709961,35.79478454589844
1776017894133534700,6.29553466796875,-13.6502685546875,25.863143920898438,35.45179748535156
1776017894143596500,6.305596435546875,-14.087127685546875,25.966407775878906,34.978912353515625
1776017894153657600,6.31565771484375,-14.470245361328125,25.917343139648438,34.588661193847656
1776017894163718700,6.32571875,-14.9293212890625,25.803913116455078,34.631202697753906
1776017894173779700,6.33577978515625,-15.099029541015625,25.45014190673828,34.617523193359375
1776017894183840800,6.3458408203125,-14.75048828125,25.344249725341797,34.79578399658203
1776017894193902800,6.35590283203125,-14.691619873046875,24.948360443115234,35.4638671875
1776017894203963600,6.365963623046875,-14.5296630859375,24.321269989013672,35.86473846435547
1776017894214024700,6.376024658203125,-14.296539306640625,23.553592681884766,36.31031799316406
1776017894224085800,6.386085693359375,-14.4676513671875,23.054977416992188,36.53203582763672
1776017894234146800,6.396146728515625,-14.575103759765625,22.630779266357422,36.77104949951172
1776017894244207600,6.40620751953125,-15.016265869140625,22.242172241210938,36.578643798828125
1776017894254270000,6.41627001953125,-15.65289306640625,22.367408752441406,36.714027404785156
1776017894264330800,6.426330810546875,-16.024322509765625,22.347774505615234,36.651580810546875
1776017894274391600,6.4363916015625,-16.598358154296875,22.330080032348633,36.43042755126953
1776017894284452600,6.44645263671875,-17.4921875,22.743453979492188,36.05028533935547
1776017894294513700,6.456513671875,-17.825653076171875,22.669082641601562,35.633216857910156
1776017894304575700,6.46657568359375,-18.513946533203125,22.763439178466797,35.38490295410156
1776017894314636800,6.47663671875,-19.178497314453125,23.023414611816406,35.30928039550781
1776017894324697900,6.48669775390625,-19.249786376953125,23.248855590820312,35.06427764892578
1776017894334758700,6.496758544921875,-19.246429443359375,23.29723358154297,34.956298828125
1776017894344819700,6.50681982421875,-19.27740478515625,23.566850662231445,34.51709747314453
1776017894354881800,6.5168818359375,-19.63775634765625,23.815502166748047,34.294410705566406
1776017894364942800,6.52694287109375,-19.499481201171875,24.033843994140625,34.0537109375
1776017894375004000,6.53700390625,-19.399078369140625,24.190452575683594,33.89043426513672
1776017894385065000,6.54706494140625,-19.154083251953125,24.490449905395508,33.597625732421875
1776017894395125500,6.55712548828125,-19.294464111328125,24.707324981689453,33.57478332519531
1776017894405186600,6.5671865234375,-19.381011962890625,25.203310012817383,33.22013854980469
1776017894415248600,6.57724853515625,-19.482940673828125,25.791852951049805,32.907691955566406
1776017894425309700,6.587309814453125,-19.07733154296875,26.22031593322754,32.70005798339844
1776017894435370800,6.597370849609375,-18.838775634765625,26.666410446166992,32.49659729003906
1776017894445431800,6.607431884765625,-18.89080810546875,26.896747589111328,32.158905029296875
1776017894455492600,6.61749267578125,-18.869354248046875,27.411115646362305,32.02522277832031
1776017894465554700,6.6275546875,-19.341156005859375,27.681045532226562,31.75617218017578
1776017894475615700,6.63761572265625,-19.223358154296875,27.39190101623535,31.337684631347656
1776017894485676800,6.6476767578125,-19.292266845703125,27.652904510498047,31.352272033691406
1776017894495737900,6.65773779296875,-19.3768310546875,27.723827362060547,31.40984344482422
1776017894505799000,6.667798828125,-19.577239990234375,27.658222198486328,31.180419921875
1776017894515860700,6.67786083984375,-19.502105712890625,27.804229736328125,31.085403442382812
1776017894525921800,6.687921875,-19.015625,27.748632431030273,31.187644958496094
1776017894535982600,6.697982666015625,-18.3424072265625,28.062942504882812,31.664947509765625
1776017894546043600,6.708043701171875,-17.7899169921875,28.378957748413086,31.558578491210938
1776017894556104700,6.718104736328125,-17.404754638671875,28.67451286315918,31.509765625
1776017894566165800,6.728165771484375,-16.9102783203125,29.148921966552734,31.255897521972656
1776017894576227600,6.7382275390625,-16.604339599609375,29.656810760498047,30.895668029785156
1776017894586288600,6.74828857421875,-16.66650390625,29.737873077392578,30.8671875
1776017894596349700,6.758349609375,-17.44091796875,29.852561950683594,30.57843017578125
1776017894606410800,6.76841064453125,-17.999359130859375,29.520587921142578,30.706382751464844
1776017894616471800,6.778471923828125,-17.612823486328125,29.698776245117188,30.716697692871094
1776017894626533600,6.78853369140625,-17.280364990234375,29.845996856689453,30.62420654296875
1776017894636594700,6.7985947265625,-17.603973388671875,29.951690673828125,30.654754638671875
1776017894646655700,6.80865576171875,-17.362762451171875,30.115253448486328,30.551895141601562
1776017894656716800,6.818716796875,-17.6868896484375,30.036632537841797,30.181900024414062
1776017894666777600,6.828777587890625,-17.964263916015625,30.310821533203125,29.957290649414062
1776017894676840000,6.83883984375,-17.837799072265625,30.599143981933594,29.416431427001953
1776017894686900700,6.848900634765625,-18.097076416015625,31.038997650146484,28.893329620361328
1776017894696961500,6.85896142578125,-18.46600341796875,31.4033203125,28.297592163085938
1776017894707022600,6.869022705078125,-18.23858642578125,31.62802505493164,27.973304748535156
1776017894717083400,6.87908349609375,-18.171356201171875,31.772777557373047,27.67197036743164
1776017894727144400,6.88914453125,-18.14642333984375,31.930877685546875,27.527690887451172
1776017894737206500,6.89920654296875,-17.68597412109375,32.048431396484375,27.57770538330078
1776017894747267600,6.909267578125,-17.634185791015625,32.21318435668945,27.50735092163086
1776017894757328400,6.919328369140625,-17.424591064453125,32.36265182495117,27.591716766357422
1776017894767389400,6.929389404296875,-17.939117431640625,32.353145599365234,27.485183715820312
1776017894777450500,6.939450439453125,-18.280120849609375,32.426456451416016,27.180294036865234
1776017894787512600,6.9495126953125,-18.322357177734375,32.706787109375,27.072158813476562
1776017894797573600,6.95957373046875,-18.240814208984375,32.66628646850586,27.04346466064453
1776017894807634700,6.969634765625,-18.551116943359375,32.89952850341797,26.681774139404297
1776017894817695700,6.97969580078125,-18.71307373046875,33.034725189208984,26.30950164794922
1776017894827756500,6.989756591796875,-18.679901123046875,33.48344802856445,25.830299377441406
1776017894837818600,6.999818603515625,-18.62188720703125,33.380340576171875,25.465267181396484
1776017894847879700,7.009879638671875,-18.73614501953125,33.85328674316406,25.072006225585938
1776017894857940700,7.019940673828125,-18.830535888671875,34.10439682006836,24.48955535888672
1776017894868001500,7.03000146484375,-19.548797607421875,34.25421905517578,24.20193099975586
1776017894878062600,7.0400625,-19.455810546875,34.4757194519043,23.71396255493164
1776017894888124400,7.05012451171875,-19.5513916015625,34.54484176635742,23.452430725097656
1776017894898185500,7.060185546875,-20.03143310546875,34.681697845458984,23.322856903076172
1776017894908246500,7.07024658203125,-20.28070068359375,34.80771255493164,22.93213653564453
1776017894918307600,7.0803076171875,-20.063018798828125,35.07926559448242,22.818359375
1776017894928368600,7.09036865234375,-19.219482421875,35.257164001464844,22.858184814453125
1776017894938429700,7.1004296875,-18.9696044921875,35.29069137573242,22.770328521728516
1776017894948491500,7.110491455078125,-19.12042236328125,35.40864944458008,22.86206817626953
1776017894958552600,7.120552490234375,-18.79437255859375,35.52106857299805,23.019641876220703
1776017894968613600,7.130613525390625,-19.1607666015625,35.0772590637207,23.118030548095703
1776017894978674700,7.1406748046875,-19.44647216796875,35.148033142089844,23.148609161376953
1776017894988735700,7.15073583984375,-19.361846923828125,35.07377624511719,23.198627471923828
1776017894998797600,7.160797607421875,-19.87078857421875,35.30540084838867,23.116836547851562
1776017895008858400,7.1708583984375,-20.06219482421875,35.16236877441406,22.85901641845703
1776017895018919400,7.18091943359375,-20.05157470703125,34.9219970703125,22.755084991455078
1776017895028980500,7.19098046875,-19.85101318359375,34.99552536010742,22.523231506347656
1776017895039041500,7.20104150390625,-20.21142578125,34.882850646972656,22.37755584716797
1776017895049103600,7.211103515625,-20.302337646484375,34.77296447753906,22.576236724853516
1776017895059164400,7.221164306640625,-20.57330322265625,34.62709045410156,22.433631896972656
1776017895069225500,7.2312255859375,-20.700408935546875,34.42505645751953,22.19422149658203
1776017895079286500,7.24128662109375,-21.285858154296875,34.44675064086914,22.148365020751953
1776017895089347600,7.25134765625,-21.11553955078125,34.54319763183594,21.848045349121094
1776017895099408600,7.26140869140625,-21.30706787109375,34.66135025024414,21.763816833496094
1776017895109470700,7.271470703125,-21.541351318359375,34.64043045043945,21.84499740600586
1776017895119531500,7.281531494140625,-21.35003662109375,34.5315055847168,21.847877502441406
1776017895129592600,7.291592529296875,-21.181976318359375,34.52336502075195,21.957931518554688
1776017895139653400,7.3016533203125,-21.187042236328125,34.538326263427734,22.11505126953125
1776017895149714400,7.31171435546875,-21.40032958984375,34.5634765625,22.122478485107422
1776017895159776500,7.321776611328125,-20.8934326171875,34.27517318725586,22.27063751220703
1776017895169837600,7.331837646484375,-21.347625732421875,34.25778579711914,22.35513687133789
1776017895179898600,7.341898681640625,-21.71868896484375,34.209205627441406,22.562400817871094
1776017895189959400,7.35195947265625,-21.63958740234375,33.80408477783203,22.706165313720703
1776017895200020500,7.3620205078125,-21.78533935546875,33.52517318725586,22.989273071289062
1776017895210082600,7.37208251953125,-21.724822998046875,33.467430114746094,23.002803802490234
1776017895220143600,7.3821435546875,-21.970703125,33.152462005615234,22.951595306396484
1776017895230204700,7.39220458984375,-21.98907470703125,33.047996520996094,22.948928833007812
1776017895240265700,7.402265625,-21.845733642578125,33.04735565185547,22.678359985351562
1776017895250326500,7.412326416015625,-22.16851806640625,32.88758087158203,22.62957000732422
1776017895260388600,7.422388671875,-22.17620849609375,33.10199737548828,22.491199493408203
1776017895270449700,7.43244970703125,-22.85986328125,32.85158920288086,22.38275146484375
1776017895280510700,7.4425107421875,-23.085540771484375,32.99630355834961,22.21139907836914
1776017895290571500,7.452571533203125,-23.5352783203125,32.98330307006836,22.13391876220703
1776017895300632600,7.462632568359375,-23.50823974609375,32.84221267700195,21.906341552734375
1776017895310693400,7.472693359375,-23.448028564453125,32.75173568725586,21.68523406982422
1776017895320755500,7.48275537109375,-23.482879638671875,32.61480712890625,21.536174774169922
1776017895330816500,7.49281640625,-23.620147705078125,32.482154846191406,21.619003295898438
1776017895340877600,7.502877685546875,-24.026336669921875,32.30959701538086,21.61052703857422
1776017895350938600,7.512938720703125,-24.290008544921875,32.16128158569336,21.752971649169922
1776017895360999700,7.522999755859375,-23.971466064453125,32.12184143066406,21.811412811279297
1776017895371061500,7.5330615234375,-24.5250244140625,31.85161590576172,21.896053314208984
1776017895381122600,7.54312255859375,-24.30438232421875,31.902019500732422,22.070552825927734
1776017895391183600,7.55318359375,-24.433624267578125,31.738346099853516,22.190471649169922
1776017895401244700,7.56324462890625,-25.130279541015625,31.571533203125,22.010738372802734
1776017895411305700,7.5733056640625,-24.94390869140625,31.1693115234375,21.798297882080078
1776017895421367600,7.583367431640625,-25.229217529296875,30.989261627197266,21.769405364990234
1776017895431428600,7.5934287109375,-25.934173583984375,30.878490447998047,21.96588897705078
1776017895441489400,7.603489501953125,-26.383880615234375,30.862781524658203,22.092601776123047
1776017895451550500,7.613550537109375,-26.485931396484375,30.572509765625,22.211177825927734
1776017895461611500,7.623611572265625,-26.79937744140625,30.329265594482422,22.42940902709961
1776017895471673600,7.633673583984375,-26.326446533203125,29.794349670410156,22.249324798583984
1776017895481734400,7.643734375,-26.66375732421875,29.764705657958984,22.282855987548828
1776017895491795500,7.65379541015625,-26.360198974609375,29.53049087524414,22.401885986328125
1776017895501856500,7.6638564453125,-26.982513427734375,29.388141632080078,22.389556884765625
1776017895511917600,7.67391748046875,-27.3638916015625,29.478946685791016,22.547908782958984
1776017895521978600,7.683978515625,-26.831939697265625,29.093551635742188,22.759033203125
1776017895532040700,7.694040771484375,-26.899383544921875,29.058609008789062,22.893489837646484
1776017895542101500,7.7041015625,-26.875091552734375,28.919055938720703,23.1793212890625
1776017895552162600,7.71416259765625,-27.0623779296875,28.832759857177734,23.233165740966797
1776017895562223600,7.7242236328125,-26.72186279296875,28.88705825805664,23.393978118896484
1776017895572284400,7.734284423828125,-26.67572021484375,28.79920196533203,23.448196411132812
1776017895582346800,7.7443466796875,-26.66925048828125,28.917251586914062,23.593265533447266
1776017895592407600,7.754407470703125,-26.803070068359375,28.550296783447266,23.857467651367188
1776017895602468600,7.764468505859375,-26.701385498046875,28.457069396972656,24.178359985351562
1776017895612529400,7.774529296875,-26.1337890625,28.31745719909668,24.301979064941406
1776017895622590500,7.784590576171875,-26.3583984375,28.483173370361328,24.654762268066406
1776017895632652500,7.794652587890625,-26.152008056640625,28.411373138427734,24.72182846069336
1776017895642713600,7.804713623046875,-26.099151611328125,28.668598175048828,24.482166290283203
1776017895652774700,7.814774658203125,-25.942169189453125,28.46544647216797,24.470531463623047
1776017895662835700,7.824835693359375,-26.152923583984375,28.598100662231445,24.44228744506836
1776017895672896500,7.834896484375,-26.103118896484375,28.368087768554688,24.333332061767578
1776017895682958600,7.84495849609375,-26.335174560546875,28.54208755493164,24.040393829345703
1776017895693019600,7.85501953125,-26.911285400390625,28.62877655029297,23.723068237304688
1776017895703080700,7.865080810546875,-27.003082275390625,28.808292388916016,23.295516967773438
1776017895713141500,7.8751416015625,-27.26324462890625,29.00525665283203,22.776607513427734
1776017895723202600,7.88520263671875,-27.4542236328125,29.235794067382812,22.208919525146484
1776017895733264400,7.895264404296875,-27.787567138671875,29.374797821044922,22.103458404541016
1776017895743325400,7.905325439453125,-27.45330810546875,29.38324737548828,21.84012222290039
1776017895753386500,7.915386474609375,-27.22149658203125,29.561237335205078,21.71871566772461
1776017895763447600,7.925447509765625,-27.212738037109375,29.560436248779297,21.694534301757812
1776017895773508600,7.935508544921875,-27.0006103515625,29.78997802734375,21.78577423095703
1776017895783569700,7.945569580078125,-26.835784912109375,30.091190338134766,21.619075775146484
1776017895793631500,7.955631591796875,-26.57757568359375,30.23074722290039,21.366355895996094
1776017895803692500,7.965692626953125,-26.36602783203125,31.870140075683594,18.964454650878906
1776017895813753600,7.975753662109375,-26.101806640625,34.0196647644043,15.668937683105469
1776017895823814700,7.985814697265625,-25.99603271484375,35.02518081665039,12.7427978515625
1776017895833875700,7.995875732421875,-26.1754150390625,35.78619384765625,11.216529846191406
1776017895843937500,8.0059375,-26.855072021484375,35.544673919677734,10.846500396728516
1776017895853998600,8.01599853515625,-27.459503173828125,34.74154281616211,11.645488739013672
1776017895864059400,8.026059326171875,-27.74072265625,33.746070861816406,12.890182495117188
1776017895874120400,8.036120361328125,-28.2391357421875,33.01352310180664,13.90201187133789
1776017895884181500,8.046181396484375,-28.560577392578125,32.37468338012695,14.130855560302734
1776017895894243600,8.05624365234375,-29.8438720703125,31.764572143554688,13.179405212402344
1776017895904304400,8.066304443359375,-31.119903564453125,31.06914520263672,11.770793914794922
1776017895914365400,8.076365478515624,-31.82733154296875,30.94078826904297,10.276325225830078
1776017895924426500,8.086426513671874,-32.220428466796875,30.590694427490234,9.083831787109375
1776017895934487600,8.096487548828126,-32.581207275390625,30.48330307006836,9.356769561767578
1776017895944549600,8.106549560546876,-32.42999267578125,30.217227935791016,10.354244232177734
1776017895954610700,8.116610595703126,-32.10125732421875,29.808364868164062,12.050270080566406
1776017895964671500,8.12667138671875,-31.794769287109375,29.40438461303711,13.545738220214844
1776017895974732500,8.136732666015625,-31.33624267578125,28.815738677978516,15.110023498535156
1776017895984793600,8.146793701171875,-31.415435791015625,28.469654083251953,16.299015045166016
1776017895994855700,8.156855712890625,-31.008453369140625,28.205230712890625,17.123992919921875
1776017896004916700,8.166916748046875,-30.728515625,27.48513412475586,17.984264373779297
1776017896014977500,8.1769775390625,-30.5718994140625,26.950021743774414,18.972835540771484
1776017896025038600,8.18703857421875,-30.134033203125,26.380985260009766,20.047412872314453
1776017896035099400,8.197099365234376,-30.227081298828125,25.20101547241211,21.007923126220703
1776017896045161500,8.207161376953126,-30.558837890625,24.24270248413086,22.12859344482422
1776017896055222500,8.217222412109376,-30.7803955078125,22.95693016052246,23.039676666259766
1776017896065283600,8.22728369140625,-31.021881103515625,21.865097045898438,23.707794189453125
1776017896075344600,8.2373447265625,-31.69842529296875,20.44464111328125,24.745986938476562
1776017896085405700,8.24740576171875,-31.50408935546875,19.185161590576172,25.38607406616211
1776017896095466500,8.257466552734375,-31.88629150390625,18.126354217529297,26.062076568603516
1776017896105528600,8.267528564453125,-32.20343017578125,17.25865364074707,26.387615203857422
1776017896115589600,8.277589599609374,-32.738525390625,16.36692237854004,26.317718505859375
1776017896125650700,8.287650634765624,-32.849395751953125,15.699007987976074,26.150794982910156
1776017896135711700,8.297711669921876,-32.82562255859375,14.56579303741455,26.204326629638672
1776017896145772500,8.3077724609375,-33.458648681640625,13.796772003173828,26.426715850830078
1776017896155834600,8.317834716796876,-33.82391357421875,12.993361473083496,26.782207489013672
1776017896165895400,8.3278955078125,-33.2490234375,12.156026840209961,26.750995635986328
1776017896175956500,8.33795654296875,-33.66815185546875,11.316045761108398,27.125221252441406
1776017896186017500,8.348017578125,-33.172119140625,10.43397331237793,27.508625030517578
1776017896196078600,8.35807861328125,-33.44305419921875,9.805026054382324,27.841400146484375
1776017896206140400,8.368140380859375,-33.331268310546875,9.194141387939453,28.123943328857422
1776017896216201500,8.378201416015624,-33.510009765625,8.320693969726562,28.200767517089844
1776017896226262500,8.388262451171874,-33.41094970703125,7.54298210144043,28.409404754638672
1776017896236323600,8.398323486328126,-33.4923095703125,6.75990104675293,28.60617446899414
1776017896246384600,8.408384521484376,-33.6092529296875,5.34420108795166,28.830089569091797
1776017896256446700,8.41844677734375,-33.648529052734375,4.600824356079102,29.051822662353516
1776017896266507500,8.428507568359375,-33.926483154296875,4.006712913513184,29.081802368164062
1776017896276568600,8.438568603515625,-33.955291748046875,3.2699689865112305,28.949352264404297
1776017896286629600,8.448629638671875,-34.017852783203125,2.5260677337646484,29.06728744506836
1776017896296690400,8.4586904296875,-33.905426025390625,2.18752384185791,29.049850463867188
1776017896306752500,8.46875244140625,-33.73394775390625,1.1959724426269531,29.157695770263672
1776017896316813600,8.4788134765625,-33.528167724609375,0.6836366653442383,29.106334686279297
1776017896326874400,8.488874267578124,-33.7340087890625,-0.36795520782470703,29.218624114990234
1776017896336935400,8.498935302734376,-33.640380859375,-0.8839750289916992,29.331676483154297
1776017896346996500,8.50899658203125,-33.23876953125,-1.614964485168457,29.16077423095703
1776017896357058600,8.51905859375,-33.352081298828125,-2.305694580078125,29.329010009765625
1776017896367119600,8.52911962890625,-33.515899658203125,-2.91018009185791,29.010028839111328
1776017896377180700,8.5391806640625,-33.38446044921875,-3.584916114807129,29.009159088134766
1776017896387241700,8.54924169921875,-32.921905517578125,-4.033432960510254,28.67566680908203
1776017896397302500,8.559302490234375,-32.86578369140625,-4.50180721282959,28.918079376220703
1776017896407364600,8.569364501953125,-33.272247314453125,-5.0802202224731445,28.92055892944336
1776017896417425700,8.57942578125,-33.5548095703125,-5.620396614074707,29.40351104736328
1776017896427486700,8.58948681640625,-33.265106201171875,-5.945385932922363,29.299468994140625
1776017896437547500,8.599547607421876,-33.1575927734375,-6.444764137268066,29.611724853515625
1776017896447608600,8.609608642578126,-32.959503173828125,-7.585474967956543,29.340728759765625
1776017896457670400,8.61967041015625,-32.89190673828125,-8.119250297546387,28.885974884033203
1776017896467731500,8.6297314453125,-32.608184814453125,-8.94348430633545,28.676204681396484
1776017896477792500,8.63979248046875,-32.7041015625,-9.552716255187988,28.47887420654297
1776017896487853600,8.649853515625,-32.42529296875,-9.95296573638916,28.325416564941406
1776017896497914600,8.65991455078125,-32.29071044921875,-10.734251976013184,28.204456329345703
1776017896507975700,8.6699755859375,-31.72772216796875,-11.204493522644043,28.229827880859375
1776017896518037500,8.68003759765625,-31.210174560546875,-11.554814338684082,28.24938201904297
1776017896528098600,8.6900986328125,-31.31988525390625,-12.165770530700684,28.080829620361328
1776017896538159600,8.70015966796875,-31.40362548828125,-12.924521446228027,27.911907196044922
1776017896548220700,8.710220703125,-31.063995361328125,-13.358920097351074,27.88223648071289
1776017896558281700,8.72028173828125,-30.973541259765625,-13.743849754333496,27.759674072265625
1776017896568343600,8.730343505859375,-30.801788330078125,-14.193198204040527,27.500709533691406
1776017896578404600,8.740404541015625,-30.87139892578125,-14.739758491516113,27.474533081054688
1776017896588465400,8.75046533203125,-30.300811767578125,-15.24924373626709,27.534740447998047
1776017896598526500,8.7605263671875,-30.430908203125,-15.594557762145996,27.408428192138672
1776017896608587500,8.77058740234375,-30.11761474609375,-16.14029312133789,27.484291076660156
1776017896618649600,8.780649658203124,-29.97381591796875,-16.413639068603516,27.248146057128906
1776017896628710400,8.79071044921875,-29.809539794921875,-16.943382263183594,27.143287658691406
1776017896638771500,8.800771484375,-29.8349609375,-17.368896484375,27.296756744384766
1776017896648832500,8.81083251953125,-29.70697021484375,-17.78390121459961,27.128719329833984
1776017896658893600,8.8208935546875,-29.448974609375,-18.333580017089844,26.931095123291016
1776017896668955600,8.83095556640625,-29.279876708984375,-18.690452575683594,26.710289001464844
1776017896679016700,8.8410166015625,-29.124420166015625,-18.9835205078125,26.747589111328125
1776017896689077500,8.851077392578125,-29.05572509765625,-19.178546905517578,26.818035125732422
1776017896699138600,8.861138671875,-28.82464599609375,-19.657737731933594,26.493141174316406
1776017896709200100,8.8712001953125,-28.758148193359375,-19.746917724609375,26.644840240478516
1776017896719262200,8.88126220703125,-28.6693115234375,-19.95459747314453,26.549667358398438
1776017896729323300,8.8913232421875,-28.70538330078125,-20.035274505615234,26.759063720703125
1776017896739384000,8.901384033203126,-28.493621826171875,-20.105918884277344,26.420902252197266
1776017896749445000,8.911445068359376,-28.426544189453125,-20.400100708007812,26.565128326416016
1776017896759506200,8.921506103515625,-28.191802978515625,-20.581363677978516,26.371971130371094
1776017896769568300,8.931568359375,-28.18499755859375,-20.800140380859375,26.248916625976562
1776017896779629300,8.94162939453125,-28.232666015625,-20.88707733154297,26.19721221923828
1776017896789690400,8.9516904296875,-28.51873779296875,-20.91897201538086,26.255786895751953
1776017896799751200,8.961751220703125,-28.426483154296875,-20.96057891845703,26.315040588378906
1776017896809812000,8.97181201171875,-28.1517333984375,-20.93303680419922,26.48019790649414
1776017896819874300,8.981874267578124,-28.910125732421875,-21.04266357421875,26.540630340576172
1776017896829935000,8.99193505859375,-29.11651611328125,-21.184608459472656,26.430583953857422
1776017896839996200,9.00199609375,-28.962554931640625,-21.2142333984375,26.452468872070312
1776017896850057200,9.01205712890625,-28.771453857421875,-21.475433349609375,26.49427032470703
1776017896860118300,9.0221181640625,-28.568206787109375,-21.456844329833984,26.388397216796875
1776017896870180000,9.03218017578125,-28.34747314453125,-21.537113189697266,26.20846176147461
1776017896880241200,9.0422412109375,-28.53546142578125,-21.662689208984375,26.141468048095703
1776017896890302200,9.05230224609375,-28.44921875,-21.759254455566406,26.20980453491211
1776017896900363300,9.06236328125,-28.408966064453125,-21.785919189453125,25.905376434326172
1776017896910424300,9.07242431640625,-28.254730224609375,-21.911052703857422,25.873783111572266
1776017896920486100,9.082486083984374,-28.672576904296875,-21.970333099365234,25.858688354492188
1776017896930547200,9.092547119140624,-28.51275634765625,-22.101417541503906,25.701457977294922
1776017896940608300,9.102608154296876,-28.28631591796875,-22.09231185913086,25.563980102539062
1776017896950669300,9.11266943359375,-28.170135498046875,-22.215503692626953,25.45123291015625
1776017896960730000,9.122730224609375,-27.98822021484375,-22.48012924194336,25.469097137451172
1776017896970792200,9.132792236328125,-28.16583251953125,-22.35189437866211,25.305561065673828
1776017896980853000,9.14285302734375,-27.89093017578125,-22.111255645751953,25.258319854736328
1776017896990914000,9.1529140625,-28.1099853515625,-22.17053985595703,25.280418395996094
1776017897000975000,9.16297509765625,-28.5654296875,-22.248050689697266,25.12926483154297
1776017897011036200,9.1730361328125,-28.367340087890625,-22.22940444946289,25.153804779052734
1776017897021098200,9.18309814453125,-28.60211181640625,-22.195781707763672,25.298538208007812
1776017897031159000,9.193158935546874,-28.790618896484375,-22.335567474365234,25.463298797607422
1776017897041220000,9.20322021484375,-29.108245849609375,-22.122177124023438,25.325897216796875
1776017897051281200,9.21328125,-28.888824462890625,-22.36229705810547,25.510501861572266
1776017897061342200,9.22334228515625,-28.998077392578125,-22.045730590820312,25.488792419433594
1776017897071404300,9.233404296875,-28.766326904296875,-22.180187225341797,25.528045654296875
1776017897081465300,9.24346533203125,-28.6475830078125,-22.30523681640625,25.461746215820312
1776017897091526100,9.253526123046875,-28.349151611328125,-22.233642578125,25.513309478759766
1776017897101587200,9.263587158203125,-28.240509033203125,-22.266239166259766,25.52762222290039
1776017897111648000,9.27364794921875,-28.49267578125,-22.404163360595703,25.561466217041016
1776017897121710300,9.28371044921875,-28.36322021484375,-22.12744140625,25.52703857421875
1776017897131771100,9.293771240234374,-28.148529052734375,-22.318748474121094,25.799137115478516
1776017897141832200,9.303832275390626,-28.06195068359375,-22.356765747070312,25.59967041015625
1776017897151893200,9.313893310546876,-27.8265380859375,-22.60451889038086,25.527828216552734
1776017897161954000,9.3239541015625,-27.776885986328125,-23.001571655273438,25.501483917236328
1776017897172015000,9.33401513671875,-27.887115478515625,-23.003482818603516,25.679855346679688
1776017897182077200,9.3440771484375,-27.66607666015625,-22.998069763183594,25.502674102783203
1776017897192138200,9.35413818359375,-27.85736083984375,-22.90973663330078,25.57941436767578
1776017897202199300,9.36419921875,-27.764739990234375,-23.031383514404297,25.49435806274414
1776017897212260400,9.37426025390625,-27.491790771484375,-23.16748809814453,25.731651306152344
1776017897222322200,9.384322265625,-27.710968017578125,-23.21334457397461,25.56936264038086
1776017897232383200,9.39438330078125,-26.889373779296875,-23.630962371826172,25.69281005859375
1776017897242444300,9.4044443359375,-27.03912353515625,-23.728851318359375,25.575481414794922
1776017897252505300,9.41450537109375,-27.20233154296875,-23.819007873535156,25.547794342041016
1776017897262566100,9.424566162109375,-27.005706787109375,-23.804092407226562,25.740604400634766
1776017897272627200,9.434627197265625,-27.058685302734375,-23.786170959472656,25.60760498046875
1776017897282689000,9.44468896484375,-27.17071533203125,-23.970813751220703,25.59160614013672
1776017897292750000,9.45475,-26.864715576171875,-24.130733489990234,25.70360565185547
1776017897302811100,9.46481103515625,-26.7574462890625,-24.29108428955078,25.826148986816406
1776017897312872200,9.4748720703125,-26.46173095703125,-24.134830474853516,25.81414031982422
1776017897322933200,9.484933349609374,-26.36138916015625,-24.124862670898438,25.846996307373047
1776017897332995000,9.4949951171875,-26.48931884765625,-24.213523864746094,25.82155990600586
1776017897343056100,9.50505615234375,-26.119232177734375,-24.29076385498047,25.876441955566406
1776017897353117200,9.5151171875,-26.388885498046875,-24.489574432373047,25.87963104248047
1776017897363178200,9.52517822265625,-26.436614990234375,-24.808109283447266,26.030315399169922
1776017897373239300,9.5352392578125,-26.302978515625,-24.925323486328125,25.88756561279297
1776017897383301400,9.54530126953125,-25.72674560546875,-25.11606216430664,25.642261505126953
1776017897393362200,9.555362060546875,-25.3897705078125,-25.28331756591797,25.725696563720703
1776017897403423000,9.565423095703125,-25.0517578125,-25.471309661865234,25.883338928222656
1776017897413484000,9.575484130859374,-25.104949951171875,-25.773807525634766,25.750186920166016
1776017897423545000,9.585545166015624,-24.871673583984375,-25.818790435791016,25.718402862548828
1776017897433607200,9.595607177734376,-24.77337646484375,-25.93454360961914,25.652496337890625
1776017897443668200,9.605668212890626,-24.59393310546875,-25.897930145263672,25.582530975341797
1776017897453729300,9.615729248046875,-24.777618408203125,-26.134387969970703,25.756221771240234
1776017897463790000,9.6257900390625,-24.43255615234375,-26.382858276367188,25.733612060546875
1776017897473851100,9.63585107421875,-24.140045166015625,-26.904949188232422,25.747817993164062
1776017897483913200,9.645913330078125,-24.40234375,-26.85103988647461,25.72592544555664
1776017897493974300,9.655974365234375,-24.10614013671875,-26.95270538330078,25.405784606933594
1776017897504035300,9.666035400390625,-23.48052978515625,-27.375171661376953,25.67292022705078
1776017897514096400,9.676096435546874,-23.535125732421875,-27.44603729248047,25.576934814453125
1776017897524157200,9.6861572265625,-23.465362548828125,-27.652992248535156,25.296836853027344
1776017897534219300,9.69621923828125,-23.328460693359375,-27.633331298828125,25.224517822265625
1776017897544280300,9.7062802734375,-23.481353759765625,-27.92043685913086,25.124435424804688
1776017897554341000,9.716341064453125,-23.2501220703125,-28.116352081298828,24.864826202392578
1776017897564402200,9.726402099609375,-23.646575927734375,-28.212871551513672,24.760154724121094
1776017897574463200,9.736463134765625,-24.25323486328125,-28.318008422851562,24.417556762695312
1776017897584525000,9.746525146484375,-24.229949951171875,-28.747119903564453,24.063358306884766
1776017897594586000,9.756586181640625,-24.415771484375,-28.534683227539062,23.85912322998047
1776017897604647200,9.766647216796875,-24.613677978515625,-28.775634765625,23.55854034423828
1776017897614708200,9.776708251953124,-24.97454833984375,-28.807632446289062,23.34613800048828
1776017897624769300,9.786769287109376,-24.71112060546875,-28.898162841796875,22.982471466064453
1776017897634831000,9.7968310546875,-24.666595458984375,-29.000316619873047,22.45056915283203
1776017897644892200,9.80689208984375,-24.660675048828125,-29.382186889648438,22.23401641845703
1776017897654953200,9.816953125,-24.968353271484375,-29.593948364257812,21.739978790283203
1776017897665014300,9.82701416015625,-25.36663818359375,-29.390968322753906,21.51190185546875
1776017897675075300,9.837075439453125,-25.611602783203125,-29.38064956665039,21.156208038330078
1776017897685137200,9.84713720703125,-26.197509765625,-28.900455474853516,20.972309112548828
1776017897695198200,9.8571982421875,-26.6768798828125,-29.017879486083984,20.85335922241211
1776017897705259500,9.867259521484375,-26.82659912109375,-29.14850616455078,20.697181701660156
1776017897715320600,9.877320556640624,-27.00360107421875,-29.11126708984375,20.5364990234375
1776017897725381600,9.887381591796874,-26.99273681640625,-29.227176666259766,20.729400634765625
1776017897735443700,9.897443603515624,-27.0263671875,-29.206653594970703,20.779598236083984
1776017897745504500,9.90750439453125,-26.58831787109375,-29.126113891601562,20.963726043701172
1776017897755565600,9.917565673828125,-26.189361572265625,-29.26447296142578,21.14236068725586
1776017897765626600,9.927626708984375,-25.8497314453125,-29.383365631103516,21.416839599609375
1776017897775687400,9.9376875,-25.73931884765625,-29.31302261352539,21.553653717041016
1776017897785749800,9.947749755859375,-25.171417236328125,-29.438785552978516,21.803741455078125
1776017897795810600,9.957810546875,-24.682952880859375,-29.646625518798828,22.06389617919922
1776017897805871400,9.967871337890625,-24.29071044921875,-29.445423126220703,22.202091217041016
1776017897815932400,9.977932373046874,-23.91839599609375,-29.689678192138672,22.689876556396484
1776017897825993500,9.987993408203126,-23.342071533203125,-29.731983184814453,22.97461700439453
1776017897836055600,9.9980556640625,-22.771240234375,-29.888988494873047,23.0546875
1776017897846116600,10.00811669921875,-22.406524658203125,-30.25499725341797,23.278480529785156
1776017897856177700,10.018177734375,-22.3670654296875,-30.275798797607422,23.558212280273438
1776017897866238700,10.02823876953125,-21.750579833984375,-30.62185287475586,23.782333374023438
1776017897876299500,10.038299560546875,-21.308319091796875,-30.681568145751953,23.838764190673828
1776017897886361600,10.048361572265625,-20.92596435546875,-31.050800323486328,23.56283187866211
1776017897896422700,10.058422607421875,-20.662933349609375,-31.39624786376953,23.504375457763672
1776017897906483700,10.068483642578125,-20.338409423828125,-31.552398681640625,23.50521469116211
1776017897916544800,10.078544677734374,-20.09014892578125,-31.8350830078125,23.600914001464844
1776017897926605600,10.08860546875,-19.80560302734375,-31.964744567871094,23.730113983154297
1776017897936667400,10.09866748046875,-19.150543212890625,-31.790882110595703,24.10971450805664
1776017897946728400,10.108728515625,-19.183013916015625,-31.432083129882812,24.264671325683594
1776017897956789500,10.11878955078125,-18.367431640625,-31.52285385131836,24.625194549560547
1776017897966850600,10.1288505859375,-18.249786376953125,-31.20444107055664,24.92966079711914
1776017897976911600,10.13891162109375,-18.472503662109375,-31.318405151367188,25.282283782958984
1776017897986973400,10.148973388671875,-18.083648681640625,-31.030399322509766,25.552223205566406
1776017897997034500,10.159034423828125,-18.08282470703125,-30.810855865478516,25.868209838867188
1776017898007095600,10.169095458984375,-17.53662109375,-30.41008758544922,26.10675048828125
1776017898017156600,10.179156494140624,-17.045867919921875,-30.308250427246094,26.116920471191406
1776017898027217700,10.1892177734375,-17.34503173828125,-30.552494049072266,26.21310043334961
1776017898037279500,10.199279541015626,-17.18011474609375,-30.03628921508789,26.633102416992188
1776017898047340500,10.209340576171876,-17.22320556640625,-30.16887664794922,26.614757537841797
1776017898057401600,10.219401611328125,-16.6671142578125,-30.229217529296875,27.05744171142578
1776017898067462400,10.22946240234375,-16.168243408203125,-30.09676742553711,27.03622055053711
1776017898077523500,10.2395234375,-16.491180419921875,-30.075366973876953,27.08795928955078
1776017898087585500,10.24958544921875,-16.5338134765625,-29.900371551513672,27.236984252929688
1776017898097646600,10.259646484375,-16.18463134765625,-30.244186401367188,27.30984115600586
1776017898107707400,10.269707275390624,-15.6669921875,-30.189327239990234,27.392459869384766
1776017898117768400,10.2797685546875,-15.289520263671875,-30.102344512939453,27.418148040771484
1776017898127829500,10.28982958984375,-15.14178466796875,-30.031455993652344,27.500396728515625
1776017898137890600,10.299890625,-15.398345947265625,-30.255756378173828,27.677143096923828
1776017898147952600,10.30995263671875,-14.922698974609375,-30.296146392822266,27.479248046875
1776017898158013700,10.320013671875,-14.541046142578125,-30.478870391845703,27.46591567993164
1776017898168074500,10.330074462890625,-14.039703369140625,-30.855571746826172,27.555461883544922
1776017898178135600,10.340135498046875,-13.78070068359375,-31.002452850341797,27.604515075683594
1776017898188196600,10.350196533203125,-13.191375732421875,-31.44219970703125,27.402023315429688
1776017898198258700,10.3602587890625,-12.62408447265625,-31.728527069091797,27.091205596923828
1776017898208319700,10.37031982421875,-11.96624755859375,-31.960411071777344,27.04291534423828
1776017898218380500,10.380380615234374,-11.918365478515625,-32.210548400878906,26.97995376586914
1776017898228441600,10.390441650390626,-11.852813720703125,-32.40283203125,26.755970001220703
1776017898238502400,10.40050244140625,-11.629974365234375,-32.55827713012695,26.71758270263672
1776017898248564500,10.410564453125,-11.35198974609375,-32.96124267578125,26.454429626464844
1776017898258625500,10.42062548828125,-11.34881591796875,-33.16105270385742,26.308517456054688
1776017898268686600,10.4306865234375,-11.286712646484375,-33.74061965942383,25.924640655517578
1776017898278747600,10.44074755859375,-10.887939453125,-33.89384841918945,25.68545150756836
1776017898288808700,10.45080859375,-9.961700439453125,-34.55351257324219,25.443309783935547
1776017898298870500,10.46087060546875,-9.4556884765625,-34.53300476074219,25.085086822509766
1776017898308931600,10.470931640625,-9.80487060546875,-35.06565475463867,25.089488983154297
1776017898318992600,10.48099267578125,-9.507232666015625,-35.27605438232422,24.722763061523438
1776017898329053700,10.4910537109375,-9.46258544921875,-35.56810760498047,24.284481048583984
1776017898339114800,10.50111474609375,-9.060394287109375,-36.07236862182617,23.77267074584961
1776017898349176600,10.511176513671876,-8.98895263671875,-36.4108772277832,23.27188491821289
1776017898359237600,10.521237548828125,-8.48077392578125,-37.37942123413086,22.81700897216797
1776017898369298400,10.53129833984375,-8.04901123046875,-37.77107238769531,22.37933349609375
1776017898379359500,10.541359375,-7.479278564453125,-38.23838806152344,21.750873565673828
1776017898389420500,10.551420654296875,-6.996368408203125,-38.62594223022461,21.460182189941406
1776017898399482400,10.561482421875,-6.501220703125,-38.78418731689453,21.201374053955078
1776017898409543400,10.57154345703125,-6.867218017578125,-39.03229522705078,20.92037582397461
1776017898419604500,10.5816044921875,-6.15826416015625,-39.27677917480469,20.664337158203125
1776017898429665500,10.59166552734375,-6.18280029296875,-39.394466400146484,20.461185455322266
1776017898439726600,10.6017265625,-6.24505615234375,-39.19107437133789,20.381534576416016
1776017898449788700,10.61178857421875,-6.2374267578125,-39.44621276855469,20.01294708251953
1776017898459849500,10.621849365234375,-6.4298095703125,-39.85887145996094,19.820201873779297
1776017898469910500,10.63191064453125,-6.764801025390625,-39.839847564697266,19.352951049804688
1776017898479971600,10.6419716796875,-6.925537109375,-39.81745910644531,19.34178924560547
1776017898490032600,10.65203271484375,-6.901123046875,-39.834556579589844,19.285003662109375
1776017898500094700,10.6620947265625,-6.805328369140625,-39.811893463134766,19.260501861572266
1776017898510155800,10.67215576171875,-6.353729248046875,-40.00962448120117,19.382381439208984
1776017898520216600,10.682216552734374,-6.677398681640625,-39.72871780395508,19.201019287109375
1776017898530277400,10.69227734375,-6.973602294921875,-40.01823043823242,19.087116241455078
1776017898540338400,10.70233837890625,-6.98345947265625,-39.5373649597168,19.186695098876953
1776017898550400500,10.712400390625,-6.82623291015625,-39.58903503417969,19.229400634765625
1776017898560461600,10.722461669921875,-7.029632568359375,-39.5352668762207,19.446754455566406
1776017898570522600,10.732522705078125,-7.462799072265625,-39.3054084777832,19.508769989013672
1776017898580583700,10.742583740234375,-8.004547119140625,-39.18748474121094,19.662639617919922
1776017898590644500,10.75264453125,-8.668121337890625,-38.894874572753906,19.826923370361328
1776017898600706600,10.76270654296875,-8.89044189453125,-38.62480926513672,20.11819839477539
1776017898610767600,10.772767578125,-9.45428466796875,-38.449363708496094,20.085189819335938
1776017898620828700,10.78282861328125,-10.1005859375,-38.06710433959961,20.49469757080078
1776017898630889700,10.7928896484375,-10.85015869140625,-38.13597869873047,20.709514617919922
1776017898640950500,10.802950439453125,-11.43701171875,-37.696868896484375,20.685375213623047
1776017898651012600,10.8130126953125,-11.912811279296875,-37.52798080444336,20.73328399658203
1776017898661073400,10.823073486328125,-12.0880126953125,-37.2259635925293,20.788005828857422
1776017898671134500,10.833134521484375,-12.31463623046875,-36.851985931396484,21.06650161743164
1776017898681195500,10.843195556640625,-12.616363525390625,-36.6886100769043,21.193153381347656
1776017898691256600,10.853256591796875,-12.562103271484375,-36.585426330566406,21.349361419677734
1776017898701318400,10.863318359375,-13.03778076171875,-36.33988952636719,21.593429565429688
1776017898711379200,10.873379150390624,-13.451751708984375,-36.11582946777344,21.944557189941406
1776017898721440300,10.883440185546876,-13.53057861328125,-35.77463150024414,21.994400024414062
1776017898731501300,10.893501220703126,-13.558990478515625,-35.58966064453125,22.090335845947266
1776017898741562400,10.903562255859375,-13.794097900390625,-35.52985382080078,22.539737701416016
1776017898751624400,10.91362451171875,-13.7628173828125,-35.18801498413086,22.66710662841797
1776017898761685200,10.923685302734375,-13.452362060546875,-35.13643264770508,22.833641052246094
1776017898771746300,10.933746337890625,-13.6953125,-35.083587646484375,22.87893295288086
1776017898781807400,10.943807373046875,-13.631866455078125,-35.0526008605957,23.076671600341797
1776017898791868200,10.9538681640625,-13.596343994140625,-34.69186019897461,23.41284942626953
1776017898801930500,10.963930419921875,-13.416961669921875,-34.53511047363281,23.374893188476562
1776017898811991300,10.9739912109375,-13.27069091796875,-34.581092834472656,23.728389739990234
1776017898822052400,10.98405224609375,-13.531524658203125,-34.531715393066406,23.878101348876953
1776017898832113200,10.994113037109376,-13.038909912109375,-34.51255416870117,23.818416595458984
1776017898842174200,11.00417431640625,-12.820831298828125,-34.239341735839844,24.056053161621094
1776017898852236300,11.014236328125,-12.83673095703125,-34.17797088623047,24.204761505126953
1776017898862297300,11.02429736328125,-13.281768798828125,-34.184452056884766,24.30663299560547
1776017898872358400,11.0343583984375,-13.255859375,-34.1331901550293,24.443191528320312
1776017898882419500,11.04441943359375,-13.3741455078125,-34.01769256591797,24.623180389404297
1776017898892480300,11.054480224609375,-12.855987548828125,-33.85356903076172,24.526626586914062
1776017898902542300,11.064542236328125,-12.751739501953125,-34.269935607910156,24.721874237060547
1776017898912603400,11.074603271484374,-12.693572998046875,-34.04185485839844,24.866355895996094
1776017898922664400,11.08466455078125,-12.571624755859375,-34.08816146850586,24.916229248046875
1776017898932725200,11.094725341796876,-12.271820068359375,-34.31755447387695,24.99358367919922
1776017898942786300,11.104786376953125,-11.970611572265625,-34.42863464355469,25.08877182006836
1776017898952847400,11.114847412109375,-11.972381591796875,-34.181793212890625,25.18905258178711
1776017898962909200,11.1249091796875,-11.579132080078125,-34.00310134887695,25.13213348388672
1776017898972970200,11.13497021484375,-11.359039306640625,-33.94484329223633,25.32874298095703
1776017898983031300,11.14503125,-11.000946044921875,-33.83015060424805,25.418506622314453
1776017898993092400,11.15509228515625,-11.0472412109375,-33.655128479003906,25.475982666015625
1776017899003154200,11.165154296875,-11.0391845703125,-33.69984817504883,25.63482666015625
1776017899013215200,11.17521533203125,-11.518218994140625,-33.52162170410156,25.71466064453125
1776017899023276300,11.1852763671875,-11.2198486328125,-33.53067398071289,25.8597412109375
1776017899033337300,11.19533740234375,-11.24566650390625,-33.16389846801758,25.952957153320312
1776017899043398400,11.2053984375,-11.0919189453125,-33.03266525268555,26.044349670410156
1776017899053459500,11.21545947265625,-11.085662841796875,-32.97088623046875,26.193614959716797
1776017899063521300,11.225521240234375,-11.04913330078125,-33.16997528076172,26.16501235961914
1776017899073582300,11.235582275390625,-11.149444580078125,-33.121395111083984,26.28636932373047
1776017899083643100,11.24564306640625,-10.67431640625,-33.10216522216797,26.43133544921875
1776017899093704200,11.2557041015625,-10.36688232421875,-33.2158317565918,26.39215087890625
1776017899103766300,11.265766357421874,-10.63214111328125,-33.34783172607422,26.506587982177734
1776017899113827300,11.275827392578124,-10.22039794921875,-33.26303482055664,26.577125549316406
1776017899123888000,11.28588818359375,-9.514190673828125,-33.29293441772461,26.477550506591797
1776017899133949200,11.29594921875,-9.678741455078125,-33.22414779663086,26.545455932617188
1776017899144010200,11.30601025390625,-9.51800537109375,-33.425750732421875,26.324848175048828
1776017899154071300,11.3160712890625,-9.489959716796875,-33.231895446777344,26.532875061035156
1776017899164133400,11.32613330078125,-9.5787353515625,-33.28786849975586,26.59689712524414
1776017899174194400,11.3361943359375,-9.56439208984375,-33.36467742919922,26.75213623046875
1776017899184255500,11.34625537109375,-9.323638916015625,-33.54173278808594,26.452640533447266
1776017899194316300,11.35631640625,-9.6015625,-33.501487731933594,26.38570785522461
1776017899204377300,11.36637744140625,-9.689422607421875,-33.63140869140625,26.551410675048828
1776017899214439400,11.376439453125,-9.423004150390625,-33.54024124145508,26.23261260986328
1776017899224500500,11.38650048828125,-9.6759033203125,-33.41563415527344,26.242839813232422
1776017899234561300,11.396561279296876,-9.991546630859375,-33.54941177368164,26.244354248046875
1776017899244622300,11.406622314453125,-9.9395751953125,-33.59555435180664,26.306865692138672
1776017899254683100,11.41668310546875,-10.25164794921875,-33.265106201171875,26.094024658203125
1776017899264745200,11.4267451171875,-10.287750244140625,-33.34969711303711,26.115219116210938
1776017899274806300,11.43680615234375,-10.434600830078125,-33.154361724853516,26.043712615966797
1776017899284867300,11.446867431640625,-10.143646240234375,-33.11602020263672,26.01376724243164
1776017899294928400,11.456928466796874,-10.5006103515625,-33.31086730957031,26.106666564941406
1776017899304989400,11.466989501953124,-10.785736083984375,-33.303524017333984,26.034317016601562
1776017899315051300,11.47705126953125,-10.317626953125,-33.418312072753906,25.989063262939453
1776017899325112300,11.4871123046875,-10.2327880859375,-33.5009880065918,25.932193756103516
1776017899335173400,11.49717333984375,-10.015289306640625,-33.40692901611328,25.976242065429688
1776017899345234400,11.507234375,-10.061126708984375,-33.5620002746582,25.988723754882812
1776017899355295500,11.51729541015625,-10.323577880859375,-33.34568786621094,26.086811065673828
1776017899365357300,11.527357421875,-10.046905517578125,-33.29426574707031,26.020565032958984
1776017899375418400,11.53741845703125,-10.760589599609375,-33.39726257324219,26.13854217529297
1776017899385479200,11.547479248046875,-10.388824462890625,-33.277713775634766,26.05327606201172
1776017899395540200,11.557540283203124,-10.064453125,-33.3787727355957,25.919872283935547
1776017899405601300,11.567601318359374,-10.261016845703125,-33.24264907836914,25.957626342773438
1776017899415663400,11.577663330078124,-10.111053466796875,-33.38164138793945,25.892234802246094
1776017899425724200,11.58772412109375,-10.357391357421875,-33.44110107421875,25.901065826416016
1776017899435785200,11.59778515625,-10.5970458984375,-33.35704040527344,25.744632720947266
1776017899445846300,11.60784619140625,-11.164947509765625,-33.401611328125,25.920066833496094
1776017899455907300,11.6179072265625,-10.97760009765625,-33.339576721191406,25.773300170898438
1776017899465969400,11.627969482421875,-11.04168701171875,-33.39706802368164,25.60406494140625
1776017899476030500,11.638030517578125,-11.14337158203125,-33.27804183959961,25.61730194091797
1776017899486091300,11.64809130859375,-11.201568603515625,-33.27862548828125,25.630489349365234
1776017899496152300,11.65815234375,-11.1971435546875,-33.228328704833984,25.62942886352539
1776017899506213400,11.66821337890625,-11.09613037109375,-33.2921257019043,25.719913482666016
1776017899516275500,11.678275390625,-11.073211669921875,-33.31502151489258,25.64861297607422
1776017899526336300,11.688336181640626,-10.787139892578125,-33.25722122192383,25.79791259765625
1776017899536397300,11.698397216796875,-10.597259521484375,-33.237300872802734,25.88272476196289
1776017899546458400,11.708458251953125,-9.7628173828125,-33.51386260986328,25.852523803710938
1776017899556519200,11.718519287109375,-9.44903564453125,-33.61769104003906,25.774173736572266
1776017899566581200,11.728581298828125,-9.52801513671875,-33.649349212646484,25.960315704345703
1776017899576642300,11.738642333984375,-9.522979736328125,-33.72221755981445,25.963211059570312
1776017899586703400,11.748703369140625,-9.194549560546875,-33.76222610473633,26.132915496826172
1776017899596764400,11.758764404296874,-9.503082275390625,-33.72371292114258,26.15945053100586
1776017899606825500,11.768825439453124,-8.932525634765625,-33.69488525390625,26.205307006835938
1776017899616887300,11.77888720703125,-9.27716064453125,-33.6981201171875,25.90313720703125
1776017899626948400,11.7889482421875,-9.104522705078125,-33.67851638793945,25.93349838256836
1776017899637009400,11.799009521484376,-9.084625244140625,-33.98508071899414,25.778522491455078
1776017899647070500,11.809070556640625,-8.802459716796875,-33.94640350341797,25.767948150634766
1776017899657131300,11.81913134765625,-8.1748046875,-34.04775619506836,25.41075897216797
1776017899667193300,11.829193359375,-7.64019775390625,-34.343727111816406,25.564926147460938
1776017899677254100,11.839254150390625,-7.383880615234375,-34.47239303588867,25.689037322998047
1776017899687315200,11.849315185546875,-7.1181640625,-34.6967658996582,25.727523803710938
1776017899697376300,11.859376220703124,-6.29541015625,-34.65452194213867,25.906421661376953
1776017899707437600,11.8694375,-5.907989501953125,-34.53887176513672,26.169174194335938
1776017899717499400,11.87949951171875,-5.680450439453125,-34.446510314941406,26.03097152709961
1776017899727560400,11.889560546875,-5.458953857421875,-34.65213394165039,26.144832611083984
1776017899737621500,11.89962158203125,-5.531341552734375,-34.73329544067383,25.943920135498047
1776017899747682600,11.9096826171875,-5.183349609375,-34.933231353759766,25.801891326904297
1776017899757743600,11.91974365234375,-5.10687255859375,-35.14413833618164,25.641586303710938
1776017899767805700,11.9298056640625,-4.9482421875,-35.40590286254883,25.284812927246094
1776017899777866500,11.939866455078125,-5.073883056640625,-35.69399642944336,25.082473754882812
1776017899787927600,11.949927490234375,-4.956268310546875,-36.01560974121094,25.086158752441406
1776017899797988600,11.959988525390624,-4.83984375,-35.99863815307617,25.074478149414062
1776017899808049700,11.970049560546874,-4.776702880859375,-35.942893981933594,25.013824462890625
1776017899818111700,11.98011181640625,-4.626007080078125,-35.964569091796875,25.307689666748047
1776017899828172500,11.990172607421876,-4.4249267578125,-35.87178421020508,25.499305725097656
1776017899838233300,12.0002333984375,-3.826019287109375,-35.828304290771484,25.371074676513672
1776017899848294400,12.01029443359375,-3.83868408203125,-35.87199401855469,25.44002914428711
1776017899858355500,12.02035546875,-3.378997802734375,-35.88484573364258,25.36798095703125
1776017899868417500,12.03041748046875,-3.501922607421875,-35.756004333496094,25.5081787109375
1776017899878478600,12.040478515625,-3.628448486328125,-35.658172607421875,25.478450775146484
1776017899888539600,12.05053955078125,-3.7784423828125,-35.62195587158203,25.56006622314453
1776017899898600700,12.0606005859375,-3.710723876953125,-35.80849838256836,25.722091674804688
1776017899908661500,12.07066162109375,-3.2432861328125,-35.739830017089844,25.887081146240234
1776017899918723600,12.0807236328125,-2.981170654296875,-35.71373748779297,25.766990661621094
1776017899928784600,12.09078466796875,-2.9886474609375,-35.78837966918945,25.750518798828125
1776017899938845700,12.100845703125,-2.91424560546875,-35.95561218261719,25.523395538330078
1776017899948906800,12.11090673828125,-2.490020751953125,-36.015716552734375,25.376129150390625
1776017899958967600,12.120967529296875,-2.46331787109375,-36.34910583496094,25.35958480834961
1776017899969029600,12.131029541015625,-2.208831787109375,-36.38817596435547,25.00078582763672
1776017899979090400,12.14109033203125,-1.563446044921875,-36.166656494140625,25.04977798461914
1776017899989151500,12.1511513671875,-1.018707275390625,-36.826454162597656,24.629131317138672
1776017899999212500,12.161212646484374,-0.713775634765625,-37.0216064453125,24.312225341796875
1776017900009273600,12.171273681640624,0.117156982421875,-36.912864685058594,24.107948303222656
1776017900019335400,12.18133544921875,0.130157470703125,-37.330204010009766,23.56173324584961
1776017900029396500,12.191396484375,0.5648193359375,-37.60487365722656,23.088237762451172
1776017900039457500,12.20145751953125,0.8455810546875,-37.69440841674805,23.03756332397461
1776017900049518600,12.2115185546875,0.66314697265625,-37.64728927612305,22.88361358642578
1776017900059579600,12.22157958984375,0.410125732421875,-37.5036506652832,23.063411712646484
1776017900069641500,12.231641357421875,0.353240966796875,-37.39338684082031,23.171730041503906
1776017900079702500,12.24170263671875,-0.025054931640625,-37.49614334106445,23.107608795166016
1776017900089763600,12.251763671875,-0.434844970703125,-37.78680419921875,23.071971893310547
1776017900099824600,12.26182470703125,-0.272796630859375,-37.58573532104492,22.90389633178711
1776017900109885400,12.271885498046874,-0.07745361328125,-37.80487823486328,22.969039916992188
1776017900119947800,12.28194775390625,-0.05072021484375,-37.66892623901367,22.83039093017578
1776017900130008600,12.292008544921876,0.0966796875,-37.587181091308594,23.00692367553711
1776017900140069400,12.3020693359375,0.17388916015625,-37.49141311645508,22.840484619140625
1776017900150130400,12.31213037109375,-0.257720947265625,-37.47324752807617,22.636577606201172
1776017900160191500,12.32219140625,0.489959716796875,-37.45941162109375,22.801025390625
1776017900170253600,12.332253662109375,0.382781982421875,-37.66050720214844,22.835983276367188
1776017900180314600,12.342314697265625,0.34759521484375,-37.52045822143555,22.806167602539062
1776017900190375700,12.352375732421875,0.608184814453125,-37.8980712890625,22.837947845458984
1776017900200436500,12.3624365234375,0.191925048828125,-37.63543701171875,22.572608947753906
1776017900210497500,12.37249755859375,0.09295654296875,-37.85336685180664,22.484996795654297
1776017900220559600,12.3825595703125,-0.46893310546875,-37.97691345214844,22.459056854248047
1776017900230620700,12.39262060546875,-0.444427490234375,-38.09942626953125,22.494487762451172
1776017900240681700,12.402681640625,-0.490997314453125,-38.03800582885742,21.975341796875
1776017900250742800,12.41274267578125,-0.402069091796875,-37.881324768066406,21.96435546875
1776017900260803600,12.422803466796875,-0.59979248046875,-38.123470306396484,21.800029754638672
1776017900270865700,12.43286572265625,-1.079864501953125,-38.240604400634766,21.78847885131836
1776017900280926500,12.442926513671875,-0.651458740234375,-38.19045639038086,21.687217712402344
1776017900290987500,12.452987548828125,-0.437835693359375,-38.29884719848633,21.409862518310547
1776017900301048600,12.463048583984374,-0.5411376953125,-38.35677719116211,21.423492431640625
1776017900311109600,12.473109619140626,-0.301422119140625,-38.26692199707031,21.572402954101562
1776017900321171500,12.48317138671875,-0.31134033203125,-38.322147369384766,21.656177520751953
1776017900331232500,12.493232421875,-0.5242919921875,-38.32863235473633,21.75054931640625
1776017900341293600,12.50329345703125,-0.44232177734375,-38.01332473754883,21.75292205810547
1776017900351354600,12.513354736328125,-0.4910888671875,-38.17656326293945,21.690460205078125
1776017900361415700,12.523415771484375,-0.30853271484375,-38.28606033325195,21.56926727294922
1776017900371477500,12.5334775390625,-0.33673095703125,-37.98339080810547,21.464508056640625
1776017900381538600,12.54353857421875,-0.485443115234375,-38.141746520996094,21.42026138305664
1776017900391599600,12.553599609375,-0.50213623046875,-38.13132858276367,21.185100555419922
1776017900401660400,12.563660400390624,-0.42193603515625,-38.102134704589844,21.341678619384766
1776017900411721500,12.573721435546876,-0.36865234375,-38.36878967285156,21.409141540527344
1776017900421783600,12.583783447265626,-0.660400390625,-38.19648361206055,21.262638092041016
1776017900431844400,12.59384423828125,-1.031585693359375,-38.0915412902832,21.286373138427734
1776017900441905400,12.603905517578125,-1.2083740234375,-38.27521514892578,21.17327117919922
1776017900451966500,12.613966552734375,-1.30206298828125,-38.464332580566406,21.096508026123047
1776017900462027500,12.624027587890625,-1.46929931640625,-38.394378662109375,21.06145477294922
1776017900472089600,12.634089599609375,-1.70111083984375,-38.43593978881836,21.06652069091797
1776017900482150700,12.644150634765625,-1.74786376953125,-38.398197174072266,21.146041870117188
1776017900492211500,12.65421142578125,-1.749664306640625,-38.45195770263672,20.86042022705078
1776017900502272500,12.6642724609375,-2.316925048828125,-38.21408462524414,20.74871826171875
1776017900512333600,12.67433349609375,-2.3717041015625,-38.3000602722168,20.971073150634766
1776017900522395600,12.684395751953126,-2.585601806640625,-38.43418884277344,21.05202865600586
1776017900532456700,12.694456787109376,-2.98095703125,-38.32819747924805,21.130905151367188
1776017900542517800,12.704517822265625,-2.571624755859375,-38.04998779296875,21.368946075439453
1776017900552578600,12.71457861328125,-2.99505615234375,-37.98031234741211,21.587779998779297
1776017900562639400,12.724639404296875,-3.015716552734375,-37.94826889038086,21.827625274658203
1776017900572701400,12.734701416015625,-3.319610595703125,-37.76639175415039,21.983375549316406
1776017900582762500,12.744762451171875,-3.178466796875,-37.680145263671875,21.84595489501953
1776017900592823600,12.754823486328124,-3.620361328125,-37.869564056396484,22.062942504882812
1776017900602884600,12.764884521484374,-3.590789794921875,-37.75339126586914,22.092758178710938
1776017900612945700,12.774945556640626,-3.52740478515625,-37.58860397338867,22.254100799560547
1776017900623007500,12.785007568359376,-4.006561279296875,-37.50675964355469,22.30188751220703
1776017900633068500,12.795068603515626,-4.034881591796875,-37.64603805541992,22.648284912109375
1776017900643129600,12.805129638671875,-4.452392578125,-37.646873474121094,22.87286376953125
1776017900653190700,12.815190673828125,-4.3399658203125,-37.65950012207031,23.361328125
1776017900663251700,12.825251708984375,-4.6732177734375,-37.251407623291016,23.456707000732422
1776017900673313500,12.8353134765625,-4.18017578125,-36.9953727722168,23.607444763183594
1776017900683374600,12.84537451171875,-4.4886474609375,-36.84477996826172,23.75725555419922
1776017900693435600,12.855435546875,-4.276641845703125,-36.73408889770508,23.794795989990234
1776017900703496400,12.865496337890624,-4.3812255859375,-36.68425750732422,23.876358032226562
1776017900713557200,12.87555712890625,-4.4044189453125,-36.82067108154297,23.957393646240234
1776017900723619600,12.88561962890625,-4.482147216796875,-36.89095687866211,23.996623992919922
1776017900733680000,12.89568017578125,-4.49444580078125,-36.72373962402344,24.081100463867188
1776017900743741200,12.9057412109375,-4.448516845703125,-36.469322204589844,24.307743072509766
1776017900753802200,12.91580224609375,-3.91827392578125,-36.58474349975586,24.228755950927734
1776017900763863300,12.92586328125,-3.814178466796875,-36.466331481933594,24.239517211914062
1776017900773925400,12.93592529296875,-3.7723388671875,-36.554378509521484,24.493942260742188
1776017900783986400,12.945986328125,-3.503143310546875,-36.5894889831543,24.45626449584961
1776017900794047200,12.956047119140624,-2.1114501953125,-36.77028274536133,24.351760864257812
1776017900804108300,12.9661083984375,-1.7271728515625,-36.90385055541992,24.46025848388672
1776017900814169300,12.97616943359375,-1.411865234375,-36.934104919433594,24.594100952148438
1776017900824231400,12.9862314453125,-1.723236083984375,-36.57223892211914,24.78583526611328
1776017900834292500,12.99629248046875,-1.3463134765625,-36.6026496887207,24.853885650634766
1776017900844353500,13.006353515625,-1.300933837890625,-36.49784469604492,24.784069061279297
1776017900854414300,13.016414306640625,-1.05255126953125,-36.36323547363281,24.87228775024414
1776017900864475100,13.02647509765625,-1.356201171875,-36.50847625732422,24.932872772216797
