time,seconds_elapsed,z,y,x
1776870447478230300,0.077230224609375,0.4822750389575958,1.585957407951355,0.21090291440486908
1776870447488268300,0.087268310546875,0.563977062702179,2.0878024101257324,0.29713261127471924
1776870447498307300,0.097307373046875,0.6108207702636719,2.6302125453948975,0.40589237213134766
1776870447508345300,0.107345458984375,0.5847806334495544,3.010389566421509,0.5572182536125183
1776870447518383400,0.11738330078125,0.5925672054290771,3.2277350425720215,0.6758823394775391
1776870447528422400,0.12742236328125,0.6255653500556946,3.2916665077209473,0.6824731230735779
1776870447538460200,0.137460205078125,0.6703011393547058,3.278059244155884,0.5665789842605591
1776870447548498400,0.14749853515625,0.7399832606315613,3.130784511566162,0.4007735252380371
1776870447558537200,0.157537109375,0.7785053849220276,3.0657386779785156,0.203230619430542
1776870447568575500,0.167575439453125,0.696516752243042,3.58296275138855,-0.19519558548927307
1776870447578614300,0.1776142578125,0.5701393485069275,4.0659403800964355,-0.4269465208053589
1776870447588652300,0.18765234375,0.5432707667350769,4.476355075836182,-0.5043736696243286
1776870447598690300,0.197690185546875,0.554995059967041,4.61676025390625,-0.4829285740852356
1776870447608729300,0.207729248046875,0.6888598799705505,4.624057292938232,-0.43277111649513245
1776870447618767400,0.217767333984375,1.1073487997055054,4.465442180633545,-0.535348653793335
1776870447628805400,0.227805419921875,1.237821340560913,4.07720947265625,-0.9515378475189209
1776870447638844200,0.23784423828125,0.9779641628265381,3.6392688751220703,-1.683911919593811
1776870447648882400,0.24788232421875,0.725949227809906,3.9650332927703857,-2.1463623046875
1776870447658920200,0.257920166015625,0.4897257685661316,4.540502071380615,-2.5839266777038574
1776870447668959500,0.26795947265625,0.4033682346343994,4.273962020874023,-2.749760627746582
1776870447678997200,0.277997314453125,0.29042038321495056,4.416342258453369,-2.70430588722229
1776870447689036300,0.288036376953125,-0.016772055998444557,4.8549957275390625,-2.399226188659668
1776870447699074300,0.29807421875,-0.4557797908782959,4.552526950836182,-1.8716871738433838
1776870447709112300,0.3081123046875,-0.5936705470085144,4.182530403137207,-1.2265872955322266
1776870447719151400,0.3181513671875,-0.6198603510856628,3.784757375717163,-0.3851144015789032
1776870447729189400,0.328189453125,-0.7826446890830994,3.429342031478882,0.3488655686378479
1776870447739227400,0.338227294921875,-0.9366350769996643,3.341756582260132,0.6300756931304932
1776870447749266400,0.348266357421875,-1.2777799367904663,3.0281827449798584,0.25678038597106934
1776870447759304200,0.35830419921875,-1.6438570022583008,2.2215840816497803,-0.4047698676586151
1776870447769343500,0.368343505859375,-1.6012266874313354,0.7883555889129639,-0.9452623724937439
1776870447779381200,0.37838134765625,-1.1673082113265991,-0.8317438364028931,-1.0457091331481934
1776870447789419500,0.38841943359375,-0.7992396950721741,-2.1621968746185303,-0.8723293542861938
1776870447799458300,0.398458251953125,-0.5731649994850159,-2.858999252319336,-0.48965147137641907
1776870447809496300,0.408496337890625,-0.20641282200813293,-2.093096971511841,0.3459464907646179
1776870447819534300,0.418534423828125,0.2567300498485565,-0.8527340292930603,0.6306554675102234
1776870447829573400,0.428573486328125,0.2819874882698059,-0.1385411024093628,0.29636162519454956
1776870447839611400,0.438611328125,-0.001916410750709474,0.11047591269016266,0.4161652624607086
1776870447849649400,0.4486494140625,-0.38219183683395386,-0.42794254422187805,0.8416808843612671
1776870447859688200,0.458688232421875,-0.8786357045173645,-0.38348692655563354,1.3318095207214355
1776870447869726500,0.4687265625,-0.7357217073440552,0.13491706550121307,1.138837218284607
1776870447879765200,0.47876513671875,-0.1855088770389557,-0.06628421694040298,0.8261200189590454
1776870447889803500,0.488803466796875,0.2095886468887329,-0.2964244782924652,0.21616345643997192
1776870447899841300,0.49884130859375,0.4344518482685089,-0.47064313292503357,-0.4122623801231384
1776870447909880300,0.50888037109375,0.5468534827232361,-0.419124037027359,-0.9802579283714294
1776870447919918300,0.51891845703125,0.427834689617157,-0.011604458093643188,-1.456086277961731
1776870447929956400,0.528956298828125,0.16298651695251465,0.539075493812561,-1.7858718633651733
1776870447939995400,0.538995361328125,-0.0718824490904808,0.8913969993591309,-1.8762534856796265
1776870447950033400,0.549033447265625,-0.31142711639404297,1.2006661891937256,-1.6614340543746948
1776870447960071400,0.559071533203125,-0.8163970708847046,1.361781358718872,-1.2145458459854126
1776870447970110500,0.5691103515625,-1.5275777578353882,1.5126004219055176,-0.7307455539703369
1776870447980148200,0.579148193359375,-2.2965877056121826,1.516471266746521,-0.294871062040329
1776870447990187500,0.5891875,-2.8139493465423584,1.4293632507324219,-0.03804538771510124
1776870448000225300,0.599225341796875,-3.021059989929199,1.2758272886276245,0.05019313097000122
1776870448010263600,0.609263671875,-3.073491334915161,1.0275295972824097,0.07133330404758453
1776870448020302300,0.61930224609375,-3.0974531173706055,0.7337592244148254,0.002445314545184374
1776870448030340400,0.62934033203125,-3.124614953994751,0.4885590374469757,-0.25078028440475464
1776870448040379400,0.63937939453125,-3.2123711109161377,0.24775680899620056,-0.6340342164039612
1776870448050417400,0.64941748046875,-3.4145989418029785,0.09827916324138641,-1.0618033409118652
1776870448060455400,0.659455322265625,-3.7214019298553467,-0.12227237969636917,-1.4398177862167358
1776870448070494500,0.669494384765625,-4.060695648193359,-0.3169337511062622,-1.7142738103866577
1776870448080532200,0.6795322265625,-4.341358184814453,-0.42122524976730347,-1.921435832977295
1776870448090570000,0.689570068359375,-4.460548400878906,-0.5169549584388733,-2.1008872985839844
1776870448100609000,0.699609130859375,-4.3419599533081055,-0.7024500370025635,-2.2384979724884033
1776870448110647000,0.70964697265625,-4.0791425704956055,-0.9295726418495178,-2.3173184394836426
1776870448120685000,0.71968505859375,-3.8834621906280518,-1.0583710670471191,-2.3707404136657715
1776870448130723800,0.729723876953125,-3.8005754947662354,-0.991732656955719,-2.459299087524414
1776870448140762000,0.73976220703125,-3.80692720413208,-0.6460626125335693,-2.563626527786255
1776870448150801000,0.74980078125,-3.927070379257202,-0.0399056039750576,-2.679893970489502
1776870448160839200,0.759839111328125,-4.105177402496338,0.5719506144523621,-2.8046722412109375
1776870448170877000,0.769876953125,-4.24884557723999,1.1151888370513916,-2.9056003093719482
1776870448180916000,0.779916015625,-4.171017646789551,1.3303169012069702,-2.992561101913452
1776870448190954000,0.7899541015625,-3.8396503925323486,1.3318082094192505,-3.2147305011749268
1776870448200992000,0.799991943359375,-3.404329538345337,1.340036392211914,-3.562574863433838
1776870448211031000,0.810031005859375,-2.9950313568115234,1.3160183429718018,-3.896002769470215
1776870448221069000,0.820069091796875,-2.673842191696167,1.2486968040466309,-4.096325397491455
1776870448231107800,0.83010791015625,-2.3084042072296143,1.1036392450332642,-4.121172904968262
1776870448241146000,0.84014599609375,-1.9291890859603882,0.8865551352500916,-4.087726593017578
1776870448251183900,0.850183837890625,-1.6264982223510742,0.6988558173179626,-4.157563209533691
1776870448261223200,0.86022314453125,-1.434714913368225,0.5895088315010071,-4.325778961181641
1776870448271261000,0.870260986328125,-1.2691024541854858,0.5805086493492126,-4.494365692138672
1776870448281299200,0.88029931640625,-1.0612595081329346,0.6445193290710449,-4.606359958648682
1776870448291338000,0.890337890625,-0.7579526901245117,0.7169359922409058,-4.640155792236328
1776870448301376000,0.9003759765625,-0.35704439878463745,0.7385619282722473,-4.570666313171387
1776870448311415000,0.9104150390625,0.11832530796527863,0.799096941947937,-4.474664688110352
1776870448321453000,0.920453125,0.6783849000930786,0.8629499673843384,-4.340908527374268
1776870448331491000,0.930490966796875,1.4338291883468628,0.760924756526947,-4.155639171600342
1776870448341530000,0.940530029296875,2.23370099067688,0.6896268725395203,-3.8869435787200928
1776870448351568000,0.95056787109375,2.8743855953216553,0.5774731636047363,-3.4802820682525635
1776870448361606100,0.960606201171875,3.3854267597198486,0.7137513756752014,-2.914296865463257
1776870448371645000,0.97064501953125,3.639503240585327,1.147202730178833,-2.2076404094696045
1776870448381683200,0.98068310546875,3.545701026916504,1.7919398546218872,-1.464367389678955
1776870448391721000,0.990720947265625,3.1907243728637695,2.303546190261841,-0.6743139624595642
1776870448401760000,1.000760009765625,2.7540671825408936,2.3343467712402344,0.14546026289463043
1776870448411798000,1.010798095703125,2.443470001220703,1.9120497703552246,0.8894715905189514
1776870448421837000,1.020837158203125,2.181835889816284,1.0655912160873413,1.4614733457565308
1776870448431875000,1.030875,1.686002492904663,-0.05998317524790764,1.76764976978302
1776870448441913000,1.0409130859375,1.0501257181167603,-0.7768232822418213,1.6739685535430908
1776870448451951900,1.050951904296875,1.0184937715530396,-1.2108639478683472,1.282665729522705
1776870448461990100,1.060990234375,1.2545019388198853,-1.778577208518982,1.0247020721435547
1776870448472029000,1.07102880859375,1.5706026554107666,-2.678083896636963,0.9117851257324219
1776870448482067200,1.081067138671875,1.8134052753448486,-3.385612964630127,0.8996824026107788
1776870448492105000,1.09110498046875,1.9095379114151,-3.550476312637329,0.8477531671524048
1776870448502144000,1.10114404296875,1.8539316654205322,-3.031458854675293,0.7867651581764221
1776870448512182000,1.11118212890625,1.7077962160110474,-1.9163084030151367,0.7025067210197449
1776870448522219800,1.1212197265625,1.6349444389343262,-0.8030935525894165,0.7280685305595398
1776870448532259000,1.131259033203125,1.8140747547149658,0.03404425457119942,0.9580937623977661
1776870448542297000,1.141297119140625,2.1844921112060547,0.4796757996082306,1.386024832725525
1776870448552336000,1.1513359375,2.4768617153167725,0.5255500674247742,1.737182855606079
1776870448562374100,1.1613740234375,2.8203775882720947,0.7992641925811768,2.0532824993133545
1776870448572412000,1.171411865234375,2.8875701427459717,0.8165222406387329,2.153735399246216
1776870448582451200,1.181451171875,2.8414416313171387,1.1424750089645386,2.06158185005188
1776870448592489000,1.191489013671875,2.9956791400909424,1.233676552772522,2.269230604171753
1776870448602528000,1.201528076171875,2.8961567878723145,0.7754302024841309,2.2959721088409424
1776870448612566000,1.21156591796875,2.547459840774536,0.2952774465084076,1.8672889471054077
1776870448622603800,1.221603759765625,2.3384628295898438,0.7365089058876038,1.706154704093933
1776870448632643000,1.23164306640625,2.1511335372924805,0.5886198282241821,1.5870301723480225
1776870448642681000,1.24168115234375,1.9796175956726074,0.03525039926171303,1.1084779500961304
1776870448652719000,1.251718994140625,1.977698802947998,-0.21681752800941467,0.6450250744819641
1776870448662758100,1.261758056640625,1.89858078956604,-0.5839247107505798,0.14368899166584015
1776870448672796000,1.2717958984375,1.4906972646713257,-0.8869404792785645,-0.30692052841186523
1776870448682835200,1.281835205078125,1.0152686834335327,-1.1029458045959473,-0.5606608986854553
1776870448692873000,1.291873046875,0.8659515976905823,-1.4768484830856323,-0.7169285416603088
1776870448702911000,1.301910888671875,0.8806538581848145,-1.968349814414978,-0.9803838729858398
1776870448712950000,1.311949951171875,0.8140884041786194,-2.1985573768615723,-1.291803002357483
1776870448722988000,1.321988037109375,0.5899490118026733,-2.2411317825317383,-1.4682151079177856
1776870448733027000,1.332027099609375,0.37499678134918213,-2.0822014808654785,-1.6138529777526855
1776870448743065000,1.342065185546875,0.37340208888053894,-1.863681674003601,-1.7090526819229126
1776870448753103000,1.35210302734375,0.49494609236717224,-1.592152714729309,-1.5492609739303589
1776870448763142100,1.36214208984375,0.6017563939094543,-1.5576101541519165,-1.1867855787277222
1776870448773180000,1.372179931640625,0.5049039125442505,-1.4973878860473633,-0.7921426296234131
1776870448783218000,1.382218017578125,0.421708881855011,-1.327053427696228,-0.5091532468795776
1776870448793257000,1.392257080078125,0.3020184338092804,-1.1028776168823242,-0.22696363925933838
1776870448803295000,1.402294921875,0.12181644886732101,-0.8106100559234619,0.05962338298559189
1776870448813334000,1.412333984375,-0.16820578277111053,-0.6603462100028992,0.3667479157447815
1776870448823372000,1.4223720703125,-0.6926115155220032,-0.5037566423416138,0.7830729484558105
1776870448833410000,1.43241015625,-1.6051223278045654,-0.19886089861392975,1.3564823865890503
1776870448843449000,1.442448974609375,-2.4421908855438232,-0.592735230922699,1.5290062427520752
1776870448853487000,1.452487060546875,-2.56632399559021,-0.5593221187591553,1.6658391952514648
1776870448863526100,1.462526123046875,-2.4483931064605713,-0.7831714749336243,1.775424599647522
1776870448873564000,1.47256396484375,-2.3209593296051025,-0.8512181639671326,1.8778736591339111
1776870448883602000,1.482601806640625,-2.3538968563079834,-0.8928478956222534,1.976712703704834
1776870448893641000,1.492640869140625,-2.70656681060791,-0.5188083052635193,2.1848819255828857
1776870448903679000,1.502678955078125,-3.0140292644500732,0.09163085371255875,2.3478431701660156
1776870448913717000,1.512717041015625,-2.9781932830810547,0.5636942386627197,2.259662628173828
1776870448923756000,1.522756103515625,-2.4927165508270264,0.488059937953949,1.944287657737732
1776870448933794000,1.5327939453125,-1.9027202129364014,0.32166779041290283,1.6597437858581543
1776870448943833000,1.5428330078125,-1.6046395301818848,0.01901017688214779,1.7152760028839111
1776870448953871000,1.55287109375,-1.568772315979004,-0.143251433968544,2.031888484954834
1776870448963908900,1.562908935546875,-1.5657520294189453,0.09595928341150284,2.314692735671997
1776870448973948000,1.572947998046875,-1.6178101301193237,0.2561790645122528,2.405567169189453
1776870448983986000,1.58298583984375,-1.4543565511703491,0.38812243938446045,2.246443271636963
1776870448994025000,1.59302490234375,-1.0157474279403687,0.49579325318336487,1.8984551429748535
1776870449004063200,1.603063232421875,-0.4498625099658966,0.6201649904251099,1.4320094585418701
1776870449014101000,1.61310107421875,-0.06521096080541611,0.7766720652580261,1.0076192617416382
1776870449024140000,1.62314013671875,0.05896931141614914,1.077867031097412,0.590412437915802
1776870449034178000,1.633177978515625,-0.14936019480228424,1.1792285442352295,0.13243260979652405
1776870449044217000,1.643217041015625,-0.4753851592540741,1.317105770111084,-0.28031793236732483
1776870449054255000,1.653255126953125,-1.28774094581604,2.0395126342773438,-0.6578742861747742
1776870449064292900,1.66329296875,-1.7897065877914429,1.0340015888214111,-1.0049033164978027
1776870449074332000,1.673331787109375,-1.6023893356323242,-0.8854531049728394,-0.9310392737388611
1776870449084370000,1.683369873046875,-1.2831251621246338,-1.6837412118911743,-0.6090604066848755
1776870449094409700,1.69340966796875,-1.1320236921310425,-2.1483359336853027,-0.40368276834487915
1776870449104447500,1.703447509765625,-1.4640398025512695,-2.0510237216949463,0.25771063566207886
1776870449114485500,1.713485595703125,-1.8820418119430542,-1.2850931882858276,0.42644771933555603
1776870449124524500,1.723524658203125,-2.2408294677734375,-0.6250308752059937,0.18189123272895813
1776870449134562600,1.7335625,-2.5900604724884033,-0.25917086005210876,-0.09245110303163528
1776870449144601600,1.7436015625,-2.847614049911499,-0.06464210897684097,-0.4330853819847107
1776870449154639400,1.753639404296875,-3.0433192253112793,0.46098706126213074,-0.6266833543777466
1776870449164677600,1.763677734375,-3.2485463619232178,1.2431193590164185,-0.7532188892364502
1776870449174716700,1.773716552734375,-3.4548451900482178,1.8797967433929443,-0.8674453496932983
1776870449184754700,1.783754638671875,-3.376091718673706,2.055767297744751,-0.7047922611236572
1776870449194793700,1.793793701171875,-2.855266809463501,1.5808894634246826,-0.25101837515830994
1776870449204831500,1.80383154296875,-2.2448058128356934,0.7312158942222595,0.233455091714859
1776870449214869500,1.813869384765625,-1.5974465608596802,0.1741930991411209,0.6093224883079529
1776870449224908500,1.823908447265625,-1.2861909866333008,0.25575560331344604,0.5941812992095947
1776870449234946600,1.833946533203125,-1.0983467102050781,0.5534171462059021,0.3723464012145996
1776870449244985600,1.843985595703125,-0.9952203631401062,0.7737564444541931,0.0992988869547844
1776870449255023400,1.8540234375,-1.0182279348373413,0.7125380635261536,-0.16950993239879608
1776870449265061600,1.8640615234375,-1.1876156330108643,0.6920290589332581,-0.5007286071777344
1776870449275100700,1.8741005859375,-1.378989338874817,0.693009614944458,-0.6807191371917725
1776870449285138700,1.884138671875,-1.5624136924743652,0.7761124968528748,-0.8388187885284424
1776870449295177700,1.894177734375,-1.7740956544876099,0.8592958450317383,-0.9814968109130859
1776870449305215500,1.904215576171875,-1.9970996379852295,0.8661814332008362,-1.1190298795700073
1776870449315253500,1.91425341796875,-2.2791502475738525,0.6642099618911743,-1.2264295816421509
1776870449325292500,1.92429248046875,-2.5249288082122803,0.22944463789463043,-1.3327773809432983
1776870449335330600,1.93433056640625,-2.772494316101074,-0.34154534339904785,-1.4388960599899292
1776870449345369600,1.94436962890625,-2.982111692428589,-0.9098168015480042,-1.5445655584335327
1776870449355407400,1.954407470703125,-3.1202151775360107,-1.3018391132354736,-1.6963670253753662
1776870449365445600,1.964445556640625,-2.820392608642578,-1.431661605834961,-1.7106860876083374
1776870449375484700,1.974484619140625,-1.7063876390457153,-1.448534369468689,-1.0911575555801392
1776870449385522700,1.984522705078125,-1.495998501777649,-1.2231509685516357,-0.6800429821014404
1776870449395561700,1.994561767578125,-2.01776385307312,-0.8906819820404053,-0.7050492763519287
1776870449405599500,2.004599609375,-2.6142446994781494,-0.7651666402816772,-0.690754234790802
1776870449415637500,2.014637451171875,-3.2913403511047363,-1.1178243160247803,-0.7719659805297852
1776870449425676500,2.024676513671875,-3.8727657794952393,-1.1315406560897827,-0.6548422574996948
1776870449435714600,2.034714599609375,-4.4036173820495605,-1.3349536657333374,-0.3505233824253082
1776870449445753600,2.044753662109375,-4.8403472900390625,-1.4332044124603271,0.10535705089569092
1776870449455791600,2.05479150390625,-5.09915828704834,-1.079610824584961,0.5816380977630615
1776870449465829600,2.06482958984375,-4.975257873535156,-0.6960368752479553,0.805833101272583
1776870449475868700,2.07486865234375,-4.636803150177002,-0.5799933671951294,0.5274065732955933
1776870449485906700,2.08490673828125,-3.788076162338257,-0.5279083251953125,0.23610015213489532
1776870449495945700,2.09494580078125,-2.666393995285034,-0.6275129318237305,0.20505434274673462
1776870449505983500,2.1049833984375,-1.5645840167999268,-0.7267734408378601,0.30519160628318787
1776870449516021500,2.115021484375,-0.5928657054901123,-0.7205935716629028,0.39617955684661865
1776870449526060500,2.125060546875,0.05115612968802452,-0.6967045068740845,0.3996083736419678
1776870449536098600,2.1350986328125,0.11851253360509872,-0.6591941714286804,0.177191823720932
1776870449546137600,2.1451376953125,-0.22466932237148285,-0.5559141039848328,-0.13345259428024292
1776870449556175600,2.155175537109375,-0.5631693601608276,-0.5116158723831177,-0.3506200611591339
1776870449566213600,2.165213623046875,-0.7153210639953613,-0.5758470892906189,-0.4540063738822937
1776870449576252700,2.175252685546875,-0.5921634435653687,-0.7604920268058777,-0.3595035672187805
1776870449586290700,2.185290771484375,-0.29072052240371704,-0.9477013349533081,-0.20385299623012543
1776870449596329700,2.195329833984375,-0.019585685804486275,-0.83198082447052,-0.06445089727640152
1776870449606367500,2.205367431640625,-0.03442322090268135,-0.37179937958717346,-0.012724051252007484
1776870449616406800,2.21540673828125,-0.20925255119800568,0.13208240270614624,-0.0012575446162372828
1776870449626444500,2.225444580078125,-0.29784607887268066,0.46463239192962646,0.03680754825472832
1776870449636482600,2.235482666015625,-0.2571830749511719,0.6389544010162354,0.07552618533372879
1776870449646521600,2.245521484375,-0.16118329763412476,0.7063645720481873,0.0892273485660553
1776870449656559600,2.2555595703125,-0.05362168326973915,0.6611270904541016,0.06233767792582512
1776870449666598700,2.2655986328125,0.014067881740629673,0.5752965807914734,-0.013911288231611252
1776870449676636700,2.27563671875,0.04090642184019089,0.4837903678417206,-0.10453546047210693
1776870449686674700,2.2856748046875,0.04611583054065704,0.4225589632987976,-0.17218880355358124
1776870449696713700,2.295713623046875,0.0773075744509697,0.3291611075401306,-0.17535743117332458
1776870449706751500,2.30575146484375,0.11588079482316971,0.2586084008216858,-0.13300172984600067
1776870449716790800,2.315790771484375,0.13415834307670593,0.20183858275413513,-0.07632513344287872
1776870449726828500,2.32582861328125,0.12735901772975922,0.1366225630044937,-0.023489346727728844
1776870449736866800,2.33586669921875,0.11100907623767853,0.07632539421319962,0.02063390612602234
1776870449746905600,2.345905517578125,0.11141813546419144,0.022538065910339355,0.04464949294924736
1776870449756943600,2.355943603515625,0.10080064833164215,-0.0028274781070649624,0.04091254621744156
1776870449766982700,2.365982666015625,0.06747011840343475,0.005163869354873896,0.027703266590833664
1776870449777020700,2.376020751953125,0.027459055185317993,0.041841987520456314,0.02100381813943386
1776870449787058700,2.38605859375,0.012446816079318523,0.07702741026878357,0.029993850737810135
1776870449797097700,2.39609765625,-0.013495835475623608,0.10567236691713333,0.04994545504450798
1776870449807135500,2.406135498046875,-0.044064927846193314,0.14409619569778442,0.07658372074365616
1776870449817174800,2.4161748046875,-0.038308773189783096,0.1542220562696457,0.07753633707761765
1776870449827212500,2.426212646484375,-0.006353769451379776,0.13072232902050018,0.06742378324270248
1776870449837250800,2.436250732421875,0.006972954608500004,0.12597151100635529,0.05790111795067787
1776870449847289600,2.44628955078125,-0.0009946906939148903,0.1498773843050003,0.05444992706179619
1776870449857327600,2.45632763671875,-0.016645289957523346,0.1745947152376175,0.05740869790315628
1776870449867366700,2.46636669921875,-0.02851899340748787,0.19376201927661896,0.06199492886662483
1776870449877404700,2.47640478515625,-0.034940674901008606,0.2004327028989792,0.06058691442012787
1776870449887443500,2.486443359375,-0.042631614953279495,0.20148465037345886,0.055516522377729416
1776870449897481700,2.496481689453125,-0.04099856689572334,0.21013246476650238,0.05637672170996666
1776870449907519500,2.50651953125,-0.03611566126346588,0.22749361395835876,0.06329987943172455
1776870449917558800,2.516558837890625,-0.02556421607732773,0.2332628220319748,0.08010708540678024
1776870449927596500,2.526596435546875,-0.01745462417602539,0.2422885298728943,0.08150497823953629
1776870449937635600,2.536635498046875,-0.006910103838890791,0.24975204467773438,0.07242892682552338
1776870449947673600,2.546673583984375,0.008070709183812141,0.25510233640670776,0.06624267250299454
1776870449957711600,2.556711669921875,0.03214967995882034,0.2548762261867523,0.06278535723686218
1776870449967750700,2.566750732421875,0.05789152905344963,0.26365506649017334,0.057909637689590454
1776870449977788700,2.57678857421875,0.08126422762870789,0.28610074520111084,0.06691671907901764
1776870449987827500,2.586827392578125,0.10611658543348312,0.3274071514606476,0.07222652435302734
1776870449997865700,2.59686572265625,0.12465990334749222,0.37483352422714233,0.08281099051237106
1776870450007903500,2.606903564453125,0.1339210420846939,0.408215194940567,0.1042073592543602
1776870450017942800,2.61694287109375,0.11993998289108276,0.4322475492954254,0.12626712024211884
1776870450027980500,2.62698046875,0.0974154993891716,0.45898357033729553,0.15587428212165833
1776870450038019600,2.63701953125,0.06734362244606018,0.4854529798030853,0.18888922035694122
1776870450048057600,2.6470576171875,0.04462845250964165,0.5293616056442261,0.22765259444713593
1776870450058096600,2.6570966796875,0.01781122200191021,0.5571924448013306,0.2564008831977844
1776870450068134700,2.667134765625,-0.008809204213321209,0.5795243382453918,0.2674279808998108
1776870450078172700,2.677172607421875,-0.04025101661682129,0.5889178514480591,0.26805436611175537
1776870450088211500,2.68721142578125,-0.07899255305528641,0.5936636328697205,0.25924062728881836
1776870450098249000,2.6972490234375,-0.11341790109872818,0.5817880630493164,0.24494130909442902
1776870450108288000,2.7072880859375,-0.13535302877426147,0.551935076713562,0.24263767898082733
1776870450118326000,2.717325927734375,-0.14042529463768005,0.5341715216636658,0.24452239274978638
1776870450128364000,2.727364013671875,-0.13764281570911407,0.487457275390625,0.23904480040073395
1776870450138402800,2.73740283203125,-0.12226945161819458,0.43216872215270996,0.21411362290382385
1776870450148441000,2.747441162109375,-0.10028399527072906,0.3482695519924164,0.16379186511039734
1776870450158480000,2.75747998046875,-0.08240193128585815,0.22434815764427185,0.11978179216384888
1776870450168518100,2.76751806640625,-0.06719368696212769,0.08833998441696167,0.07568970322608948
1776870450178557000,2.777556884765625,-0.07209017127752304,-0.05681108310818672,0.051473576575517654
1776870450188595000,2.787594970703125,-0.09413688629865646,-0.19150817394256592,0.03612391650676727
1776870450198633000,2.797633056640625,-0.1151348426938057,-0.27766355872154236,0.02640710584819317
1776870450208672000,2.807672119140625,-0.11490501463413239,-0.2794140577316284,0.007729825098067522
1776870450218710000,2.8177099609375,-0.08643528819084167,-0.19446961581707,-0.009555155411362648
1776870450228749000,2.8277490234375,-0.051598213613033295,-0.041003625839948654,-0.01918780989944935
1776870450238786800,2.837786865234375,-0.024565530940890312,0.11671969294548035,-0.009730923920869827
1776870450248825000,2.8478251953125,-0.004502606578171253,0.22393935918807983,0.004551874939352274
1776870450258863900,2.85786376953125,0.011212972924113274,0.26859578490257263,0.016765663400292397
1776870450268902100,2.867902099609375,0.026452912017703056,0.2832633852958679,0.030543528497219086
1776870450278941000,2.87794091796875,0.032096948474645615,0.30269649624824524,0.045093975961208344
1776870450288979000,2.88797900390625,0.03720835596323013,0.3308034837245941,0.06058132275938988
1776870450299018000,2.89801806640625,0.04115196317434311,0.36198484897613525,0.07162997871637344
1776870450309056000,2.908055908203125,0.03569461405277252,0.3671146333217621,0.08397719264030457
1776870450319094000,2.918093994140625,0.023695209994912148,0.3222845792770386,0.09559363126754761
1776870450329133000,2.928133056640625,0.011513377539813519,0.23546817898750305,0.10797866433858871
1776870450339170800,2.9381708984375,-0.0023241406306624413,0.1332872211933136,0.12414964288473129
1776870450349210000,2.948210205078125,-0.014325941912829876,0.056835852563381195,0.14010438323020935
1776870450359248000,2.958247802734375,-0.028961077332496643,0.007480020634829998,0.14898735284805298
1776870450369286100,2.9682861328125,-0.028811408206820488,-0.02370692789554596,0.14648078382015228
1776870450379325000,2.978324951171875,-0.018687667325139046,-0.0317014716565609,0.13259559869766235
1776870450389363000,2.988363037109375,-0.003966512158513069,-0.006234992761164904,0.11218326538801193
1776870450399402000,2.998402099609375,0.010800981894135475,0.05534714460372925,0.0969047099351883
1776870450409440000,3.00843994140625,0.026309369131922722,0.15307582914829254,0.08532528579235077
1776870450419478800,3.018478759765625,0.03880012780427933,0.2637048661708832,0.07288113236427307
1776870450429517000,3.02851708984375,0.05012575164437294,0.34462741017341614,0.062128618359565735
1776870450439554800,3.038554931640625,0.058465439826250076,0.3779153525829315,0.06516356021165848
1776870450449594000,3.048593994140625,0.061826881021261215,0.38581082224845886,0.07267820090055466
1776870450459631900,3.0586318359375,0.05324484407901764,0.3858987092971802,0.08176437020301819
1776870450469671000,3.0686708984375,0.0498754158616066,0.3803553283214569,0.08293483406305313
1776870450479709000,3.078708984375,0.05294976755976677,0.3712904453277588,0.08131483197212219
1776870450489747000,3.088746826171875,0.0631459429860115,0.35699620842933655,0.07254797220230103
1776870450499786000,3.098785888671875,0.06871674954891205,0.31694066524505615,0.057259026914834976
1776870450509824000,3.108823974609375,0.060379721224308014,0.2639898359775543,0.043057989329099655
1776870450519863000,3.118863037109375,0.04848071560263634,0.20441146194934845,0.02484755963087082
1776870450529901000,3.128901123046875,0.0448329858481884,0.13593998551368713,0.00552259711548686
1776870450539940000,3.138940185546875,0.043358124792575836,0.08597003668546677,0.0029467877466231585
1776870450549978000,3.14897802734375,0.03527623042464256,0.06276538223028183,-0.0011414308100938797
1776870450560016000,3.159015869140625,0.02316710352897644,0.05493488907814026,-0.002041046740487218
1776870450570055000,3.169054931640625,0.013351225294172764,0.03971385583281517,0.002386192325502634
1776870450580093000,3.179093017578125,0.008550078608095646,0.029293173924088478,0.008311991579830647
1776870450590132000,3.189132080078125,0.0038722362369298935,0.03889493644237518,0.009281649254262447
1776870450600170000,3.199169921875,0.004416320007294416,0.06109264865517616,0.007309312000870705
1776870450610209000,3.209208984375,0.01215546578168869,0.08065782487392426,0.006648048758506775
1776870450620247000,3.2192470703125,0.026194585487246513,0.08964759111404419,0.012635101564228535
1776870450630285000,3.22928515625,0.02965855970978737,0.09971727430820465,0.026032133027911186
1776870450640324000,3.239323974609375,0.02738368697464466,0.0986674576997757,0.03530818969011307
1776870450650362000,3.249362060546875,0.023696541786193848,0.09651588648557663,0.04376319423317909
1776870450660401200,3.259401123046875,0.02761911042034626,0.09439201653003693,0.04712623357772827
1776870450670439000,3.26943896484375,0.03634069859981537,0.09624557942152023,0.04084623232483864
1776870450680478200,3.279478271484375,0.038243792951107025,0.1078345850110054,0.03159867227077484
1776870450690516000,3.289515869140625,0.03988403454422951,0.10570432245731354,0.026640664786100388
1776870450700554000,3.299553955078125,0.038845401257276535,0.09806425124406815,0.019773971289396286
1776870450710593000,3.309593017578125,0.03526158258318901,0.08620306104421616,0.019163042306900024
1776870450720631000,3.319631103515625,0.029517145827412605,0.07565347850322723,0.02804228663444519
1776870450730670000,3.329670166015625,0.0268276184797287,0.07859254628419876,0.027833228930830956
1776870450740708000,3.3397080078125,0.023137010633945465,0.0815073773264885,0.022107167169451714
1776870450750747000,3.349746826171875,0.023123694583773613,0.07032635807991028,0.015456187538802624
1776870450760785200,3.35978515625,0.020547619089484215,0.043478235602378845,0.007665909361094236
1776870450770823000,3.369822998046875,0.02412451058626175,0.00980575941503048,-0.0006530070677399635
1776870450780862200,3.3798623046875,0.026089124381542206,-0.020793961361050606,-0.005856291390955448
1776870450790900000,3.38989990234375,0.029584789648652077,-0.02323554828763008,-0.01518960576504469
1776870450800939000,3.39993896484375,0.036263998597860336,-0.010348244570195675,-0.024654479697346687
1776870450810977000,3.40997705078125,0.03984035551548004,0.008961803279817104,-0.03759105131030083
1776870450821015000,3.42001513671875,0.04947540909051895,0.027752269059419632,-0.05222085863351822
1776870450831054000,3.43005419921875,0.057069409638643265,0.057308562099933624,-0.06487966328859329
1776870450841092000,3.440092041015625,0.061099838465452194,0.08814077824354172,-0.07148323953151703
1776870450851131000,3.450130859375,0.06353716552257538,0.11925395578145981,-0.07204996049404144
1776870450861169200,3.460169189453125,0.05705103650689125,0.13483265042304993,-0.06317736953496933
1776870450871208000,3.4702080078125,0.04765167459845543,0.1341455578804016,-0.04934491217136383
1776870450881246200,3.48024609375,0.034623757004737854,0.11757855862379074,-0.03136724233627319
1776870450891284000,3.490283935546875,0.023326095193624496,0.09761311113834381,-0.023454193025827408
1776870450901323000,3.500322998046875,0.01619042083621025,0.08864305168390274,-0.011433483101427555
1776870450911361000,3.510361083984375,0.008836900815367699,0.0823500007390976,-0.0033571808598935604
1776870450921400000,3.520400146484375,0.004314853344112635,0.07722794264554977,-0.0019001654582098126
1776870450931438000,3.53043798828125,-0.0007970841252245009,0.06637556105852127,-0.006833404768258333
1776870450941477000,3.54047705078125,-0.006851514335721731,0.05011536553502083,-0.015537148341536522
1776870450951515000,3.550514892578125,-0.004239752423018217,0.040404681116342545,-0.030300380662083626
1776870450961553200,3.56055322265625,-0.005940979812294245,0.035040274262428284,-0.043113380670547485
1776870450971592000,3.570592041015625,-0.0013848437229171395,0.039866190403699875,-0.05768406763672829
1776870450981630200,3.580630126953125,0.0059625511057674885,0.049910034984350204,-0.07740983366966248
1776870450991669000,3.5906689453125,0.015986690297722816,0.05668698251247406,-0.0982205793261528
1776870451001707000,3.60070703125,0.02587766945362091,0.06758543848991394,-0.10938667505979538
1776870451011746000,3.61074609375,0.028181569650769234,0.06786186993122101,-0.10510431230068207
1776870451021784000,3.6207841796875,0.02509177103638649,0.06871674954891205,-0.10026934742927551
1776870451031822000,3.630822021484375,0.020376378670334816,0.0663372129201889,-0.08632956445217133
1776870451041861000,3.640861083984375,0.014459366910159588,0.06988028436899185,-0.07718240469694138
1776870451051899000,3.65089892578125,0.011418303474783897,0.08322218805551529,-0.06744349002838135
1776870451061938000,3.66093798828125,0.01563648320734501,0.10455171018838882,-0.0660618394613266
1776870451071976000,3.670975830078125,0.015567242167890072,0.11806298792362213,-0.06560617685317993
1776870451082015000,3.681014892578125,0.015109710395336151,0.1175420731306076,-0.06821820139884949
1776870451092052700,3.691052734375,0.012341088615357876,0.10409338027238846,-0.06782644987106323
1776870451102090800,3.7010908203125,0.00452817277982831,0.083748959004879,-0.06772179156541824
1776870451112129800,3.7111298828125,-0.003906324505805969,0.0640474259853363,-0.07122623920440674
1776870451122167800,3.721167724609375,-0.010675814002752304,0.05100832134485245,-0.0699191614985466
1776870451132206600,3.73120654296875,-0.01877688430249691,0.03278457745909691,-0.07369978725910187
1776870451142244900,3.741244873046875,-0.02630803734064102,0.019650133326649666,-0.07616481184959412
1776870451152283600,3.75128369140625,-0.031557127833366394,0.0036421390250325203,-0.07397782057523727
1776870451162322000,3.761322021484375,-0.037102095782756805,0.0012636699248105288,-0.06949731707572937
1776870451172359700,3.771359619140625,-0.03935752436518669,0.005227252375334501,-0.060688115656375885
1776870451182398700,3.781398681640625,-0.042021218687295914,0.017044231295585632,-0.05143176391720772
1776870451192436700,3.791436767578125,-0.03705815225839615,0.027657993137836456,-0.0421418622136116
1776870451202475800,3.801475830078125,-0.03976951539516449,0.03449832275509834,-0.032221853733062744
1776870451212513800,3.811513671875,-0.03381974995136261,0.03345382958650589,-0.015896674245595932
1776870451222552800,3.821552734375,-0.02701750211417675,0.02545076422393322,-0.008930377662181854
1776870451232590600,3.831590576171875,-0.014669490046799183,0.017017599195241928,0.0003813646617345512
1776870451242628900,3.84162890625,-0.0032775523141026497,0.012985040433704853,0.0007004113867878914
1776870451252667600,3.851667724609375,0.01750921830534935,0.007262174040079117,0.004893558565527201
1776870451262706000,3.861705810546875,0.02400626614689827,0.014507836662232876,0.009218798018991947
1776870451272744700,3.87174462890625,0.02797704003751278,0.026375947520136833,0.018879149109125137
1776870451282782700,3.88178271484375,0.0313696414232254,0.04360393434762955,0.037817686796188354
1776870451292821800,3.89182177734375,0.03785230591893196,0.06085056811571121,0.04923705384135246
1776870451302859800,3.90185986328125,0.03940519690513611,0.07909508794546127,0.052686113864183426
1776870451312897800,3.911897705078125,0.04208247363567352,0.08838232606649399,0.04596216604113579
1776870451322936800,3.921936767578125,0.04596402868628502,0.08826062083244324,0.04031253606081009
1776870451332974600,3.931974609375,0.04880881682038307,0.08351752907037735,0.04339700937271118
1776870451343014000,3.942013916015625,0.044743236154317856,0.09063243120908737,0.054734885692596436
1776870451353051600,3.9520517578125,0.05006902664899826,0.11232095211744308,0.07279697805643082
1776870451363090700,3.962090576171875,0.06642536073923111,0.1404585838317871,0.08720600605010986
1776870451373128700,3.972128662109375,0.08685633540153503,0.17652976512908936,0.09746184200048447
1776870451383166700,3.982166748046875,0.10939573496580124,0.21651819348335266,0.11135315895080566
1776870451393202700,3.99220263671875,0.12609295547008514,0.26332005858421326,0.13802498579025269
1776870451403241700,4.00224169921875,0.12967117130756378,0.31924083828926086,0.16930007934570312
1776870451413279700,4.01227978515625,0.12335575371980667,0.3960277736186981,0.1897563487291336
1776870451423318500,4.022318603515625,0.12235547602176666,0.47727227210998535,0.2077348232269287
1776870451433356800,4.032356689453125,0.12843893468379974,0.557772159576416,0.21460790932178497
1776870451443395600,4.0423955078125,0.1346566081047058,0.6318680047988892,0.2211238592863083
1776870451453433900,4.052433837890625,0.14512896537780762,0.6852793097496033,0.22921320796012878
1776870451463472600,4.06247265625,0.15320846438407898,0.7146515250205994,0.2527579665184021
1776870451473510700,4.0725107421875,0.14915698766708374,0.721698522567749,0.28339603543281555
1776870451483548700,4.082548583984375,0.1327947974205017,0.7114629745483398,0.30699536204338074
1776870451493587700,4.092587646484375,0.08281072974205017,0.709654688835144,0.3134356737136841
1776870451503625700,4.102625732421875,0.04494057595729828,0.7049187421798706,0.3150165379047394
1776870451513664800,4.112664794921875,0.014696122147142887,0.6922026872634888,0.31544265151023865
1776870451523702500,4.12270263671875,-0.0011443602852523327,0.6910405158996582,0.3176852762699127
1776870451533741800,4.132741943359375,-0.010998056270182133,0.692404568195343,0.32187631726264954
1776870451543779600,4.142779541015625,-0.014396250247955322,0.7220825552940369,0.3218477964401245
1776870451553817900,4.15281787109375,-0.014443919993937016,0.7653895616531372,0.31554171442985535
1776870451563856600,4.162856689453125,-0.013072126545011997,0.8211846351623535,0.303984135389328
1776870451573894700,4.172894775390625,-0.00020639497961383313,0.8895514607429504,0.2892339527606964
1776870451583934000,4.182933837890625,0.03945286571979523,0.953473687171936,0.28303730487823486
1776870451593971700,4.1929716796875,0.0955803170800209,1.0087816715240479,0.26494723558425903
1776870451604010800,4.2030107421875,0.157429039478302,1.0019155740737915,0.2595732510089874
1776870451614048800,4.213048828125,0.2094019651412964,0.9441614151000977,0.2410685420036316
1776870451624087800,4.223087890625,0.22393456101417542,0.9032694101333618,0.2054825872182846
1776870451634125800,4.233125732421875,0.22820228338241577,0.928133487701416,0.1747419834136963
1776870451644163600,4.24316357421875,0.24674959480762482,0.9798043966293335,0.17319229245185852
1776870451654202600,4.25320263671875,0.2434035986661911,1.0560249090194702,0.17950664460659027
1776870451664241000,4.263240966796875,0.23994308710098267,1.1025654077529907,0.16665102541446686
1776870451674279700,4.27327978515625,0.2310286909341812,1.1013555526733398,0.14459766447544098
1776870451684318000,4.28331787109375,0.23312406241893768,1.0674519538879395,0.12461143732070923
1776870451694356700,4.293356689453125,0.2370956391096115,1.0388493537902832,0.09669139236211777
1776870451704394800,4.303394775390625,0.2730208933353424,0.9210044741630554,0.04027258977293968
1776870451714432800,4.313432861328125,0.30466723442077637,0.7791098952293396,0.022522086277604103
1776870451724471800,4.323471923828125,0.30479878187179565,0.6482354998588562,0.034140925854444504
1776870451734509800,4.333509765625,0.23982325196266174,0.6123542189598083,0.06508898735046387
1776870451744548900,4.343548828125,0.15657496452331543,0.5560858845710754,0.09699045866727829
1776870451754586600,4.353586669921875,0.09434780478477478,0.4408319890499115,0.03976285830140114
1776870451764625700,4.363625732421875,0.06319788098335266,0.27129116654396057,-0.03717666491866112
1776870451774663700,4.37366357421875,0.056103747338056564,0.05933629348874092,-0.163014754652977
1776870451784702700,4.38370263671875,0.0550568588078022,-0.1780991554260254,-0.309700608253479
1776870451794740700,4.39374072265625,0.04692782834172249,-0.3630234897136688,-0.46046826243400574
1776870451804778800,4.40377880859375,0.05493142455816269,-0.4566005766391754,-0.5842365622520447
1776870451814817800,4.41381787109375,0.0638149306178093,-0.4403670132160187,-0.6929395794868469
1776870451824855800,4.423855712890625,0.06709248572587967,-0.3821031451225281,-0.756436288356781
1776870451834894600,4.43389453125,0.07171253859996796,-0.32082197070121765,-0.8022088408470154
1776870451844932900,4.443932861328125,0.05415085330605507,-0.2432621866464615,-0.8357662558555603
1776870451854971600,4.4539716796875,0.029282787814736366,-0.18867191672325134,-0.8360514640808105
1776870451865009700,4.464009765625,0.0017718010349199176,-0.16651548445224762,-0.8475070595741272
1776870451875047700,4.474047607421875,-0.03966006264090538,-0.24991822242736816,-0.870000422000885
1776870451885086700,4.484086669921875,-0.07857763022184372,-0.3970853090286255,-0.9162704348564148
1776870451895124700,4.494124755859375,-0.10206591337919235,-0.5687057971954346,-0.966542661190033
1776870451905163800,4.504163818359375,-0.10535678267478943,-0.6488216519355774,-0.9834526777267456
1776870451915201500,4.514201416015625,-0.09178877621889114,-0.6763371825218201,-0.9699363112449646
1776870451925240800,4.52424072265625,-0.07035991549491882,-0.6623712778091431,-0.9448557496070862
1776870451935278600,4.534278564453125,-0.03788719326257706,-0.6559895873069763,-0.8975721001625061
1776870451945317600,4.544317626953125,0.011049721390008926,-0.6568263173103333,-0.8347779512405396
1776870451955355600,4.554355712890625,0.055750079452991486,-0.5844717025756836,-0.7891470789909363
1776870451965393700,4.5643935546875,0.043832968920469284,-0.5503299832344055,-0.7564754486083984
1776870451975432700,4.5744326171875,0.13758635520935059,-0.3691905438899994,-0.5164955854415894
1776870451985470700,4.584470703125,0.17359256744384766,-0.08701931685209274,-0.2283245176076889
1776870451995509500,4.594509521484375,0.11577533185482025,0.12447109073400497,-0.04911934211850166
1776870452005547800,4.6045478515625,0.04533259570598602,0.14001329243183136,0.050398457795381546
1776870452015586600,4.614586669921875,-0.006235791835933924,0.017907360568642616,0.08738391101360321
1776870452025624800,4.624624755859375,-0.046852193772792816,-0.1580977588891983,0.07657333463430405
1776870452035663600,4.63466357421875,-0.10410136729478836,-0.3269538879394531,0.05660868436098099
1776870452045701600,4.64470166015625,-0.16126425564289093,-0.44684621691703796,0.03868481144309044
1776870452055739600,4.65473974609375,-0.22224211692810059,-0.5745099186897278,-0.0012327772565186024
1776870452065778700,4.66477880859375,-0.28112274408340454,-0.7247276306152344,-0.06516861915588379
1776870452075816700,4.674816650390625,-0.31564050912857056,-0.8847252726554871,-0.12958382070064545
1776870452085855700,4.684855712890625,-0.3293675184249878,-1.024526834487915,-0.1788480430841446
1776870452095893500,4.6948935546875,-0.31604132056236267,-1.1188682317733765,-0.24356232583522797
1776870452105933300,4.704933349609375,-0.2853667736053467,-1.117376685142517,-0.33475375175476074
1776870452115971000,4.71497119140625,-0.240814208984375,-0.9492954611778259,-0.47581419348716736
1776870452126010000,4.725010009765625,-0.18441085517406464,-0.6147693991661072,-0.6266436576843262
1776870452136048000,4.735048095703125,-0.14011476933956146,-0.1856478899717331,-0.7177490592002869
1776870452146086100,4.745086181640625,-0.09356563538312912,0.21949267387390137,-0.6820720434188843
1776870452156125200,4.755125244140625,-0.01937902346253395,0.5595461130142212,-0.5775530934333801
1776870452166163200,4.7651630859375,0.08302058279514313,0.752558708190918,-0.45533156394958496
1776870452176202000,4.775201904296875,0.20453263819217682,0.609544038772583,-0.3350488245487213
1776870452186240300,4.785240234375,0.3186919689178467,0.12451556324958801,-0.23131844401359558
1776870452196279000,4.795279052734375,0.3337060809135437,-0.4633418321609497,-0.17132194340229034
1776870452206317300,4.8053173828125,0.27049461007118225,-0.9266181588172913,-0.131334587931633
1776870452216356000,4.815356201171875,0.20864269137382507,-1.1710928678512573,-0.10786042362451553
1776870452226394000,4.82539404296875,0.1683003306388855,-1.158862590789795,-0.11992933601140976
1776870452236432100,4.83543212890625,0.12113095074892044,-0.9027692675590515,-0.16226507723331451
1776870452246471200,4.84547119140625,0.07408807426691055,-0.4960843324661255,-0.19261951744556427
1776870452256509200,4.85550927734375,0.04603273794054985,-0.09520241618156433,-0.18194183707237244
1776870452266548200,4.86554833984375,0.04391232877969742,0.12265907227993011,-0.130644291639328
1776870452276586000,4.8755859375,-0.00815113727003336,0.13943378627300262,-0.13149011135101318
1776870452286625000,4.885625,-0.14386849105358124,0.04405667260289192,-0.18585056066513062
1776870452296663000,4.8956630859375,-0.22269566357135773,-0.04030294716358185,-0.25793805718421936
1776870452306702000,4.9057021484375,-0.20336191356182098,-0.0041313618421554565,-0.3136900067329407
1776870452316740000,4.915739990234375,-0.14631007611751556,0.09894229471683502,-0.316956102848053
1776870452326779100,4.925779052734375,-0.09561307728290558,0.13644306361675262,-0.25757959485054016
1776870452336817200,4.935817138671875,-0.06409003585577011,0.06762325018644333,-0.17197442054748535
1776870452346855200,4.945855224609375,-0.060684651136398315,-0.04692090302705765,-0.13582707941532135
1776870452356894200,4.955894287109375,-0.0684640109539032,-0.05170314013957977,-0.20004387199878693
1776870452366932200,4.96593212890625,-0.014598916284739971,0.06042606011033058,-0.30384910106658936
1776870452376971300,4.97597119140625,0.10287871211767197,0.21934087574481964,-0.4018552899360657
1776870452387009000,4.986009033203125,0.152424156665802,0.450363427400589,-0.4607260525226593
1776870452397048300,4.99604833984375,0.12504792213439941,0.5586281418800354,-0.4271785020828247
1776870452407086000,5.006086181640625,0.0641544833779335,0.5146540403366089,-0.35380759835243225
1776870452417125000,5.016125,-0.01582903042435646,0.4027796685695648,-0.33810189366340637
1776870452427163100,5.0261630859375,-0.10333224385976791,0.2761399745941162,-0.32920265197753906
1776870452437201000,5.036200927734375,-0.21617597341537476,0.192287415266037,-0.29139190912246704
1776870452447240200,5.046240234375,-0.3274649381637573,0.16596128046512604,-0.21075084805488586
1776870452457278200,5.0562783203125,-0.39658889174461365,0.1972387731075287,-0.16894188523292542
1776870452467317000,5.06631689453125,-0.42436859011650085,0.26888126134872437,-0.22209884226322174
1776870452477355300,5.076355224609375,-0.42016905546188354,0.3598844110965729,-0.3248784840106964
1776870452487394000,5.08639404296875,-0.3782181441783905,0.45766448974609375,-0.40208619832992554
1776870452497432300,5.096432373046875,-0.30886808037757874,0.5399708151817322,-0.40380579233169556
1776870452507471000,5.10647119140625,-0.23450757563114166,0.5706477761268616,-0.35289546847343445
1776870452517509000,5.116509033203125,-0.1603822112083435,0.5416086912155151,-0.3084355890750885
1776870452527548200,5.126548095703125,-0.11765898764133453,0.544244110584259,-0.28373050689697266
1776870452537586200,5.136586181640625,-0.09671162813901901,0.4940131902694702,-0.24055694043636322
1776870452547624200,5.146624267578125,-0.05896025523543358,0.3350783884525299,-0.17908106744289398
1776870452557663200,5.156663330078125,-0.03436329960823059,0.1183527410030365,-0.11486879736185074
1776870452567701000,5.166700927734375,-0.05838634446263313,-0.07930147647857666,-0.057016149163246155
1776870452577740300,5.176740234375,-0.09931407123804092,-0.18213172256946564,-0.01745462417602539
1776870452587778000,5.186778076171875,-0.11825766414403915,-0.16180434823036194,0.03977324441075325
1776870452597817000,5.196817138671875,-0.10732325911521912,-0.10076282918453217,0.09069714695215225
1776870452607855000,5.206855224609375,-0.10246245563030243,-0.11317422240972519,0.119155153632164
1776870452617894100,5.21689404296875,-0.12611106038093567,-0.1654890924692154,0.12842108309268951
1776870452627932200,5.22693212890625,-0.15266065299510956,-0.16774079203605652,0.12772414088249207
1776870452637971200,5.23697119140625,-0.17968054115772247,-0.022581208497285843,0.13369281589984894
1776870452648009000,5.247009033203125,-0.1813809722661972,0.20037996768951416,0.1962779015302658
1776870452658047200,5.257047119140625,-0.1894540786743164,0.30268263816833496,0.30028286576271057
1776870452668086000,5.2670859375,-0.22028149664402008,0.28556835651397705,0.33051374554634094
1776870452678124300,5.277124267578125,-0.269022673368454,0.19290713965892792,0.2751660645008087
1776870452688163000,5.2871630859375,-0.30717939138412476,0.1012970581650734,0.22716258466243744
1776870452698201000,5.297201171875,-0.33441367745399475,0.06992901861667633,0.224042147397995
1776870452708240100,5.307240234375,-0.3617851138114929,0.12656620144844055,0.28085508942604065
1776870452718278100,5.317278076171875,-0.357899010181427,0.23605860769748688,0.3430524170398712
1776870452728317000,5.32731689453125,-0.31802403926849365,0.293599396944046,0.40957632660865784
1776870452738355200,5.337355224609375,-0.26393550634384155,0.2981429994106293,0.5115037560462952
1776870452748394200,5.347394287109375,-0.15544284880161285,0.09465700387954712,0.6335101127624512
1776870452758432300,5.357432373046875,-0.029882265254855156,-0.18383480608463287,0.7604811191558838
1776870452768470000,5.367469970703125,0.13509656488895416,-0.3355098366737366,0.7811543941497803
1776870452778509000,5.377509033203125,0.35129037499427795,-0.7585816979408264,0.777510404586792
1776870452788547000,5.387547119140625,0.48058632016181946,-1.0486183166503906,0.7927652597427368
1776870452798586000,5.397586181640625,0.5574020147323608,-1.09722101688385,0.8795161247253418
1776870452808624000,5.4076240234375,0.6717227101325989,-1.0472265481948853,1.088834524154663
1776870452818663200,5.4176630859375,0.8253991007804871,-0.8393242359161377,1.2695437669754028
1776870452828701000,5.427700927734375,0.985901951789856,-0.4608408510684967,1.3004136085510254
1776870452838740200,5.437740234375,1.089834213256836,-0.12654143571853638,1.079432487487793
1776870452848778200,5.4477783203125,1.0639499425888062,0.09020765870809555,0.7382189035415649
1776870452858817000,5.457817138671875,1.0185574293136597,0.28483280539512634,0.3702709972858429
1776870452868855300,5.467855224609375,0.9273515939712524,0.40416237711906433,0.15912173688411713
1776870452878894000,5.47789404296875,0.6886465549468994,0.3902428448200226,0.09425193071365356
1776870452888932400,5.487932373046875,0.4180862009525299,0.37554484605789185,0.20303460955619812
1776870452898971100,5.49797119140625,0.16346056759357452,0.41800203919410706,0.24969930946826935
1776870452909009200,5.508009033203125,-0.05170740187168121,0.4596400260925293,0.15848417580127716
1776870452919047200,5.518047119140625,-0.22557666897773743,0.3091610372066498,0.05185840278863907
1776870452929086200,5.528086181640625,-0.37360793352127075,-0.07212825864553452,-0.11774900555610657
1776870452939124200,5.538124267578125,-0.4827387034893036,-0.4741899371147156,-0.36123889684677124
1776870452949163300,5.548163330078125,-0.4889204204082489,-0.6154762506484985,-0.5899767279624939
1776870452959201000,5.558200927734375,-0.39783763885498047,-0.692258358001709,-0.7120528221130371
1776870452969240000,5.568239990234375,-0.3547660708427429,-0.8450902700424194,-0.6039034724235535
1776870452979278000,5.578278076171875,-0.4109649062156677,-0.9099448919296265,-0.4173026978969574
1776870452989317000,5.588317138671875,-0.549173891544342,-0.9312216639518738,-0.3007718324661255
1776870452999355100,5.598355224609375,-0.6761060357093811,-0.8419762253761292,-0.29479995369911194
1776870453009394200,5.608394287109375,-0.6762378215789795,-0.5758350491523743,-0.25651994347572327
1776870453019432200,5.61843212890625,-0.5147488117218018,-0.0775350034236908,-0.24255165457725525
1776870453029471200,5.62847119140625,-0.23314164578914642,0.4909808933734894,-0.2615775465965271
1776870453039509000,5.638509033203125,0.07011890411376953,0.8875895142555237,-0.2742757499217987
1776870453049547300,5.64854736328125,0.2788313627243042,0.8687777519226074,-0.1925595998764038
1776870453059586000,5.6585859375,0.3339303135871887,0.4936981201171875,-0.037393976002931595
1776870453069624000,5.6686240234375,0.2415095567703247,0.011595935560762882,0.04254133626818657
1776870453079663000,5.6786630859375,0.09415765851736069,-0.2817517817020416,0.011040134355425835
1776870453089701000,5.688701171875,-0.009439041838049889,-0.40279513597488403,-0.02160436101257801
1776870453099740000,5.698739990234375,-0.05830511823296547,-0.3770391643047333,-0.04498691484332085
1776870453109778000,5.70877783203125,-0.10153914242982864,-0.26918619871139526,-0.03364637866616249
1776870453119816700,5.718816650390625,-0.1492355614900589,-0.05548642948269844,-0.059544019401073456
1776870453129855000,5.72885498046875,-0.22733356058597565,0.2150936722755432,-0.07319538295269012
1776870453139893800,5.738893798828125,-0.28971731662750244,0.4040665030479431,-0.043952811509370804
1776870453149932000,5.74893212890625,-0.3118963837623596,0.5797475576400757,-0.06102500483393669
1776870453159971000,5.75897119140625,-0.23886610567569733,0.6566963791847229,-0.12191205471754074
1776870453170008800,5.7690087890625,-0.12970766425132751,0.5280145406723022,-0.19422407448291779
1776870453180046800,5.779046875,-0.04224652424454689,0.33651384711265564,-0.2067134976387024
1776870453190086000,5.7890859375,-0.0015358449891209602,0.2524958848953247,-0.21475544571876526
1776870453200124000,5.7991240234375,0.037094637751579285,0.23562531173229218,-0.21204380691051483
1776870453210163000,5.809162841796875,0.07225928455591202,0.3024352192878723,-0.17470523715019226
1776870453220200700,5.81920068359375,0.09554596245288849,0.45509135723114014,-0.12793771922588348
1776870453230239700,5.82923974609375,0.12648656964302063,0.48214399814605713,-0.0639779195189476
1776870453240278000,5.839278076171875,0.13717755675315857,0.29608944058418274,-0.037829138338565826
1776870453250316800,5.84931689453125,0.10696080327033997,0.13550269603729248,-0.1134922057390213
1776870453260355000,5.85935498046875,0.022457372397184372,0.030649522319436073,-0.17262662947177887
1776870453270393900,5.869393798828125,-0.2837512791156769,-0.9196352958679199,0.29878830909729004
1776870453280431900,5.879431884765625,-0.9209069609642029,-1.1122647523880005,-0.13762949407100677
1776870453290471000,5.889470947265625,-1.5954867601394653,0.13494236767292023,-0.9537310004234314
1776870453300509000,5.899509033203125,-2.0167124271392822,-0.17511668801307678,-0.48122602701187134
1776870453310547700,5.909547607421875,-1.7459436655044556,-0.30735647678375244,0.3441070318222046
1776870453320586000,5.9195859375,-0.9645761847496033,0.038238730281591415,0.8393676280975342
1776870453330623700,5.929623779296875,-0.20551587641239166,0.38930514454841614,0.9993972778320312
1776870453340663000,5.9396630859375,0.1799657791852951,1.148550271987915,0.4866870939731598
1776870453350700800,5.94970068359375,0.4090050756931305,1.7935649156570435,-0.31816092133522034
1776870453360739800,5.95973974609375,0.5624399185180664,2.0207719802856445,-0.7101260423660278
1776870453370777900,5.96977783203125,0.5917988419532776,1.730605959892273,-0.6481848955154419
1776870453380817000,5.97981689453125,0.5509212017059326,1.1037434339523315,-0.41332924365997314
1776870453390855000,5.98985498046875,0.3773787021636963,0.3536158502101898,-0.1914788782596588
1776870453400894000,5.99989404296875,0.02960769273340702,-0.30604833364486694,-0.053113020956516266
1776870453410931700,6.009931640625,-0.39699795842170715,-0.65773606300354,-0.12695235013961792
1776870453420971000,6.019970947265625,-0.6328387260437012,-0.7083563804626465,-0.3071993589401245
1776870453431008800,6.0300087890625,-0.5829806327819824,-0.49634477496147156,-0.300959050655365
1776870453441047800,6.0400478515625,-0.3260369598865509,0.04156288877129555,-0.22720491886138916
1776870453451085800,6.0500859375,-0.008282963186502457,0.4966302812099457,-0.15155330300331116
1776870453461124900,6.060124755859375,0.21302571892738342,0.5645448565483093,-0.10937522351741791
1776870453471163000,6.070162841796875,0.27416524291038513,0.42808103561401367,-0.1442655622959137
1776870453481201000,6.080200927734375,0.20385858416557312,0.1585710048675537,-0.09814947098493576
1776870453491239700,6.09023974609375,0.06024736166000366,-0.10908174514770508,0.008666192181408405
1776870453501278000,6.10027783203125,-0.12221618741750717,-0.2981872260570526,0.056473396718502045
1776870453511316700,6.110316650390625,-0.25281548500061035,-0.4577827453613281,0.04171788692474365
1776870453521355000,6.12035498046875,-0.284745991230011,-0.6620272397994995,-0.04795980080962181
1776870453531394000,6.13039404296875,-0.2461559772491455,-0.8591389656066895,-0.15610384941101074
1776870453541431800,6.140431884765625,-0.18455307185649872,-0.9084252715110779,-0.2558125853538513
1776870453551471000,6.15047119140625,-0.13125255703926086,-0.8173587322235107,-0.2406323105096817
1776870453561508900,6.1605087890625,-0.10088320076465607,-0.619710385799408,-0.16558709740638733
1776870453571548000,6.1705478515625,-0.10413945466279984,-0.27720576524734497,-0.157856747508049
1776870453581586000,6.1805859375,-0.10526011139154434,0.1155143454670906,-0.18009546399116516
1776870453591625000,6.190625,-0.07868495583534241,0.3936285078525543,-0.16939009726047516
1776870453601663000,6.2006630859375,-0.025561552494764328,0.4657738208770752,-0.1219370886683464
1776870453611702000,6.210701904296875,0.032825324684381485,0.3929627239704132,-0.09814893454313278
1776870453621739800,6.22073974609375,0.04153173044323921,0.2281370311975479,-0.06168200448155403
1776870453631779000,6.230779052734375,0.019693544134497643,0.05927664041519165,-0.049013081938028336
1776870453641816800,6.24081689453125,0.003783819265663624,-0.03585653379559517,-0.08370181918144226
1776870453651855000,6.250855224609375,0.046435143798589706,-0.061647649854421616,-0.11876659840345383
1776870453661894000,6.260893798828125,0.14122077822685242,-0.04320099949836731,-0.09817902743816376
1776870453671932000,6.270931884765625,0.24883031845092773,-0.022425679489970207,-0.08066714555025101
1776870453681971000,6.280970947265625,0.3241879343986511,-0.06516755372285843,-0.0707884207367897
1776870453692009000,6.291009033203125,0.3152596950531006,-0.1613263040781021,-0.0374312624335289
1776870453702047700,6.3010478515625,0.24703508615493774,-0.27744945883750916,0.03419232368469238
1776870453712086000,6.3110859375,0.16725769639015198,-0.40594831109046936,0.1532750427722931
1776870453722124800,6.321124755859375,0.09748794138431549,-0.44479477405548096,0.23021136224269867
1776870453732163000,6.3311630859375,0.022483471781015396,-0.31256750226020813,0.20281116664409637
1776870453742204000,6.341203857421875,-0.012077967636287212,-0.13865216076374054,0.16432049870491028
1776870453752242700,6.35124267578125,0.009355684742331505,0.021946843713521957,0.1310882419347763
1776870453762281000,6.361281005859375,0.07737521827220917,0.17417313158512115,0.11780653148889542
1776870453772319700,6.37131982421875,0.15098898112773895,0.39268922805786133,0.0432012677192688
1776870453782358000,6.38135791015625,0.20089848339557648,0.6169114112854004,-0.05450558662414551
1776870453792396800,6.391396728515625,0.22392630577087402,0.8467637896537781,-0.12059352546930313
1776870453802434800,6.401434814453125,0.24913206696510315,0.9346611499786377,-0.12550200521945953
1776870453812472800,6.411472900390625,0.3078893721103668,0.963329017162323,-0.12384364753961563
1776870453822511900,6.421511962890625,0.3655814528465271,0.9708002209663391,-0.0988466888666153
1776870453832550000,6.4315498046875,0.35997894406318665,0.9575979113578796,-0.06109238415956497
1776870453842589000,6.4415888671875,0.2892725467681885,0.9093217253684998,-0.04099190607666969
1776870453852626700,6.451626708984375,0.18199776113033295,0.9314083456993103,-0.06692364066839218
1776870453862666000,6.461666015625,0.07594509422779083,1.0539745092391968,-0.10180173069238663
1776870453872703700,6.471703857421875,-0.034634143114089966,1.2196146249771118,-0.15004941821098328
1776870453882742800,6.48174267578125,-0.14724217355251312,1.321965217590332,-0.2895497977733612
1776870453892780800,6.49178076171875,-0.3131435215473175,1.338863730430603,-0.5033962726593018
1776870453902819800,6.50181982421875,-0.4916432499885559,1.1855179071426392,-0.6700587868690491
1776870453912857900,6.51185791015625,-0.6362494230270386,0.8745301365852356,-0.7349826693534851
1776870453922897000,6.52189697265625,-0.732761561870575,0.5053353309631348,-0.7320888638496399
1776870453932935000,6.531934814453125,-0.8040440082550049,0.11799028515815735,-0.6743099689483643
1776870453942974000,6.541973876953125,-0.8494551777839661,-0.2675965428352356,-0.6324528455734253
1776870453953012000,6.552011962890625,-0.8490951061248779,-0.5637749433517456,-0.6228257417678833
1776870453963050800,6.56205078125,-0.7912581562995911,-0.7344422936439514,-0.6808179616928101
1776870453973089000,6.572089111328125,-0.7099393606185913,-0.8182858228683472,-0.7527803182601929
1776870453983126800,6.582126708984375,-0.6600050926208496,-0.8557655215263367,-0.748440146446228
1776870453993166000,6.592166015625,-0.6634647846221924,-0.803730309009552,-0.652504026889801
1776870454003203800,6.602203857421875,-0.6568763852119446,-0.6772621273994446,-0.46376100182533264
1776870454013243000,6.612242919921875,-0.6226822137832642,-0.46277910470962524,-0.24763722717761993
1776870454023281000,6.622281005859375,-0.5353193283081055,-0.34314724802970886,-0.0978461354970932
1776870454033320000,6.63231982421875,-0.3899778723716736,-0.47651568055152893,-0.06438298523426056
1776870454043358000,6.64235791015625,-0.17246711254119873,-0.8892012238502502,-0.10485557466745377
1776870454053397000,6.65239697265625,0.06861181557178497,-1.3612654209136963,-0.17815056443214417
1776870454063434800,6.662434814453125,0.21229495108127594,-1.5745849609375,-0.30285388231277466
1776870454073474000,6.67247412109375,0.2058975100517273,-1.424259901046753,-0.46246591210365295
1776870454083511800,6.68251171875,0.13192874193191528,-0.9965591430664062,-0.618661105632782
1776870454093550800,6.69255078125,0.07929668575525284,-0.4321199953556061,-0.6733241081237793
1776870454103589400,6.70258935546875,0.08157528936862946,0.024745825678110123,-0.5749333500862122
1776870454113628200,6.712628173828125,0.11228366196155548,0.24283821880817413,-0.3621954917907715
1776870454123666200,6.722666259765625,0.1352957785129547,0.19386348128318787,-0.172408789396286
1776870454133705200,6.732705322265625,0.12969061732292175,-0.05536498874425888,-0.11807843297719955
1776870454143743200,6.7427431640625,0.09232620149850845,-0.3529631197452545,-0.15789403021335602
1776870454153782000,6.752781982421875,0.005918608978390694,-0.5601903200149536,-0.2074194997549057
1776870454163820300,6.7628203125,-0.11054515093564987,-0.6314003467559814,-0.209695965051651
1776870454173859000,6.772859130859375,-0.21529580652713776,-0.6305361390113831,-0.1455976814031601
1776870454183897300,6.7828974609375,-0.2743825614452362,-0.5457088947296143,-0.06273315846920013
1776870454193936100,6.79293603515625,-0.30693304538726807,-0.4209855794906616,0.0020391824655234814
1776870454203974100,6.80297412109375,-0.3288828134536743,-0.301932692527771,0.00806005671620369
1776870454214012200,6.81301220703125,-0.3359724283218384,-0.25699344277381897,-0.032580047845840454
1776870454224051200,6.82305126953125,-0.35541003942489624,-0.26297011971473694,-0.015222894959151745
1776870454234089200,6.833089111328125,-0.3967191278934479,-0.2833174467086792,0.03952663764357567
1776870454244128300,6.843128173828125,-0.45665356516838074,-0.28657159209251404,0.11409781128168106
1776870454254166000,6.853166015625,-0.5290827751159668,-0.2868650555610657,0.19063866138458252
1776870454264205300,6.863205322265625,-0.5797728300094604,-0.35434848070144653,0.21207258105278015
1776870454274243000,6.8732431640625,-0.5876035690307617,-0.4900914132595062,0.19688962399959564
1776870454284282000,6.8832822265625,-0.5660942792892456,-0.6401330828666687,0.166301891207695
1776870454294320000,6.893320068359375,-0.5272853970527649,-0.7721523642539978,0.19644461572170258
1776870454304359200,6.903359130859375,-0.4924810528755188,-0.846921443939209,0.24826733767986298
1776870454314397400,6.9133974609375,-0.4621753692626953,-0.8965513110160828,0.27687740325927734
1776870454324436200,6.923436279296875,-0.41916343569755554,-0.9357117414474487,0.26607534289360046
1776870454334474200,6.93347412109375,-0.36722061038017273,-0.9405829310417175,0.23619788885116577
1776870454344513300,6.94351318359375,-0.313734769821167,-0.9418719410896301,0.20955055952072144
1776870454354551300,6.95355126953125,-0.24756558239459991,-1.0137261152267456,0.19220273196697235
1776870454364590000,6.963590087890625,-0.21380522847175598,-1.135572910308838,0.08742358535528183
1776870454374628400,6.97362841796875,-0.2137562334537506,-1.2623023986816406,-0.1720798909664154
1776870454384667100,6.983667236328125,-0.1884215772151947,-1.3375319242477417,-0.4400343596935272
1776870454394705400,6.993705322265625,-0.069796122610569,-1.1636613607406616,-0.4777956008911133
1776870454404744200,7.003744140625,0.13352450728416443,-0.74591463804245,-0.10973422229290009
1776870454414782200,7.0137822265625,0.3693695068359375,-0.17339707911014557,0.5813656449317932
1776870454424821200,7.0238212890625,0.45895931124687195,0.2649499177932739,1.0470675230026245
1776870454434859300,7.033859375,0.4052897095680237,0.41845184564590454,1.1533162593841553
1776870454444898000,7.04389794921875,0.3413512110710144,0.2996032238006592,1.1491411924362183
1776870454454936300,7.053936279296875,0.3281690776348114,0.007577492389827967,1.1222143173217773
1776870454464975000,7.06397509765625,0.3499782383441925,-0.2505861520767212,1.0979642868041992
1776870454475013400,7.074013427734375,0.3607523441314697,-0.3429637551307678,1.1289308071136475
1776870454485052200,7.08405224609375,0.4093558192253113,-0.20899875462055206,1.2202332019805908
1776870454495090200,7.094090087890625,0.520095944404602,0.06802459061145782,1.3891162872314453
1776870454505129200,7.104129150390625,0.6773942112922668,0.35975977778434753,1.5754808187484741
1776870454515167200,7.114167236328125,0.8478364944458008,0.5938047766685486,1.7360368967056274
1776870454525206300,7.124206298828125,0.979400098323822,0.7777128219604492,1.8138880729675293
1776870454535244300,7.134244384765625,1.1186467409133911,0.9842843413352966,1.821326494216919
1776870454545282000,7.144281982421875,1.2974464893341064,1.2581955194473267,1.8318803310394287
1776870454555321300,7.1543212890625,1.5104362964630127,1.5280933380126953,1.862856149673462
1776870454565359000,7.164359130859375,1.756001591682434,1.7558714151382446,1.935257911682129
1776870454575398100,7.174398193359375,1.981576681137085,1.9070781469345093,2.0904977321624756
1776870454585436200,7.184436279296875,2.158601999282837,1.8423793315887451,2.2800679206848145
1776870454595475200,7.19447509765625,2.283029556274414,1.4065890312194824,2.5055811405181885
1776870454605513200,7.20451318359375,2.2284913063049316,0.7995403409004211,2.774451732635498
1776870454615552300,7.21455224609375,2.0350072383880615,0.24612800776958466,2.8303966522216797
1776870454625590300,7.22459033203125,1.7980729341506958,-0.18393920361995697,2.7458016872406006
1776870454635629000,7.234629150390625,1.5459932088851929,-0.18435253202915192,2.6121888160705566
1776870454645667300,7.244667236328125,1.1836265325546265,0.2251492291688919,2.4641001224517822
1776870454655706000,7.2547060546875,0.8537087440490723,0.6433017253875732,2.3583054542541504
1776870454665744400,7.264744384765625,0.6686009764671326,0.6143878102302551,2.3629696369171143
1776870454675783200,7.274783203125,0.6510435342788696,0.20510680973529816,2.359947681427002
1776870454685821200,7.2848212890625,0.7113673686981201,-0.13778050243854523,2.102311372756958
1776870454695860200,7.294860107421875,0.853355884552002,-0.06121408939361572,1.7550140619277954
1776870454705898200,7.304898193359375,0.9889624714851379,0.45411983132362366,1.3700392246246338
1776870454715937000,7.31493701171875,1.1437592506408691,0.9290224313735962,0.9035974740982056
1776870454725975300,7.324975341796875,1.274986743927002,1.1340967416763306,0.44284239411354065
1776870454736014000,7.33501416015625,1.3854339122772217,1.1014000177383423,0.06513452529907227
1776870454746052400,7.34505224609375,1.4327119588851929,0.9933119416236877,-0.17995405197143555
1776870454756091100,7.355091064453125,1.4077016115188599,0.8821353316307068,-0.27003467082977295
1776870454766129200,7.365129150390625,1.3128787279129028,0.7859441041946411,-0.24239106476306915
1776870454776168200,7.375168212890625,1.1542638540267944,0.6987082958221436,-0.11064209043979645
1776870454786206200,7.385206298828125,0.9550052881240845,0.5862908959388733,0.08378331363201141
1776870454796245200,7.395245361328125,0.7059821486473083,0.3655654489994049,0.18483935296535492
1776870454806283300,7.405283203125,0.43201744556427,0.014963769353926182,0.2339048981666565
1776870454816322300,7.415322265625,0.15538719296455383,-0.41530799865722656,0.1913268119096756
1776870454826360300,7.4253603515625,-0.07937738299369812,-0.9374156594276428,0.16555221378803253
1776870454836399400,7.4353994140625,-0.2674631178379059,-1.3493800163269043,0.20321090519428253
1776870454846437000,7.44543701171875,-0.38793015480041504,-1.3941725492477417,0.26402124762535095
1776870454856476400,7.455476318359375,-0.42531320452690125,-1.2589370012283325,0.26890310645103455
1776870454866514200,7.46551416015625,-0.3978235423564911,-1.0240256786346436,0.2063896507024765
1776870454876553200,7.47555322265625,-0.32129254937171936,-0.7441329956054688,0.13146615028381348
1776870454886591200,7.48559130859375,-0.2156289666891098,-0.49783509969711304,0.04023956507444382
1776870454896630300,7.49563037109375,-0.10369177162647247,-0.35524386167526245,-0.06162847578525543
1776870454906668300,7.505668212890625,-0.005744704511016607,-0.3822230100631714,-0.14691567420959473
1776870454916707300,7.515707275390625,0.05122057721018791,-0.5464686751365662,-0.16721296310424805
1776870454926745000,7.5257451171875,0.06327537447214127,-0.5938151478767395,-0.042273953557014465
1776870454936784400,7.535784423828125,0.07451604306697845,-0.4409049451351166,0.1316445767879486
1776870454946822100,7.545822265625,0.15984027087688446,-0.24848757684230804,0.25867602229118347
1776870454956861200,7.555861083984375,0.28050196170806885,-0.11081147193908691,0.30278250575065613
1776870454966899200,7.565899169921875,0.3559751510620117,0.10476502776145935,0.258219838142395
1776870454976938200,7.575938232421875,0.3623371720314026,0.40151333808898926,0.17835935950279236
1776870454986976300,7.585976318359375,0.3525330126285553,0.6943132281303406,0.13736478984355927
1776870454997015300,7.596015380859375,0.3991585671901703,0.9236111640930176,0.19936370849609375
1776870455007053000,7.606052978515625,0.5493597984313965,1.2487766742706299,0.3502251207828522
1776870455017092400,7.61609228515625,0.9151947498321533,1.597296118736267,0.3786469101905823
1776870455027130000,7.626130126953125,1.4519330263137817,1.7957804203033447,0.4465197026729584
1776870455037169200,7.636169189453125,1.6950069665908813,0.7861049771308899,-0.25403282046318054
1776870455047207200,7.646207275390625,1.6729098558425903,-0.40334028005599976,-1.0561295747756958
1776870455057246200,7.65624609375,1.738542914390564,0.7163216471672058,-0.9116578102111816
1776870455067284200,7.6662841796875,1.967690348625183,2.799360513687134,-0.07656215131282806
1776870455077323300,7.6763232421875,2.1538615226745605,3.8764703273773193,0.5329275727272034
1776870455087361300,7.686361328125,2.0686750411987305,3.607187032699585,1.180688500404358
1776870455097400600,7.696400634765625,1.7456756830215454,1.6288899183273315,1.7608282566070557
1776870455107438600,7.7064384765625,1.3530906438827515,-1.1067548990249634,1.935189127922058
1776870455117477600,7.7164775390625,0.8635174632072449,-2.7489750385284424,1.9196075201034546
1776870455127515600,7.726515625,0.4695512354373932,-2.9972007274627686,2.1707632541656494
1776870455137553700,7.7365537109375,0.33808961510658264,-2.2116987705230713,2.1494266986846924
1776870455147592400,7.746592529296875,0.5694009065628052,-1.0252387523651123,1.8631097078323364
1776870455157631700,7.7566318359375,1.0835778713226318,0.43108534812927246,1.6832301616668701
1776870455167669500,7.76666943359375,1.569718837738037,1.6383689641952515,1.5167330503463745
1776870455177708500,7.77670849609375,1.6534512042999268,1.6239612102508545,1.105431079864502
1776870455187746600,7.78674658203125,1.4477113485336304,1.1516385078430176,0.5788934230804443
1776870455197784600,7.79678466796875,1.2551608085632324,0.5939384698867798,0.351320743560791
1776870455207823600,7.80682373046875,1.0752531290054321,0.37933826446533203,0.5937051773071289
1776870455217861600,7.816861572265625,0.8597016930580139,0.20367030799388885,0.9684313535690308
1776870455227900400,7.826900390625,0.6469973921775818,-0.04464363306760788,1.2290924787521362
1776870455237938700,7.836938720703125,0.6329122185707092,-0.230146124958992,1.288346290588379
1776870455247977500,7.8469775390625,0.8318591117858887,-0.34168729186058044,1.2082985639572144
1776870455258015700,7.857015625,1.0398468971252441,-0.08502274751663208,1.1545733213424683
1776870455268054500,7.867054443359375,1.1053396463394165,0.17183621227741241,1.063598394393921
1776870455278092500,7.877092529296875,1.0472947359085083,0.15925702452659607,0.8881500959396362
1776870455288131800,7.8871318359375,0.9801679253578186,0.11133211851119995,0.787817656993866
1776870455298169600,7.897169677734375,0.963178813457489,0.11821239441633224,0.8366802334785461
1776870455308208600,7.907208740234375,0.9998902082443237,0.024296551942825317,0.8338530659675598
1776870455318246700,7.91724658203125,1.011902928352356,-0.053346045315265656,0.8266449570655823
1776870455328285700,7.92728564453125,0.9755494594573975,-0.028170118108391762,0.8628197312355042
1776870455338323700,7.93732373046875,0.8904715776443481,-0.10225020349025726,0.8377897143363953
1776870455348362800,7.94736279296875,0.7727484107017517,-0.2084759771823883,0.7944678068161011
1776870455358400500,7.957400390625,0.6680731177330017,-0.28884032368659973,0.8610042333602905
1776870455368439600,7.967439453125,0.6107813715934753,-0.39987602829933167,0.992161750793457
1776870455378477600,7.9774775390625,0.628157913684845,-0.4795207977294922,0.9952722787857056
1776870455388513500,7.987513427734375,0.6646738648414612,-0.4849565625190735,0.9769510626792908
1776870455398552600,7.997552490234375,0.7348316311836243,-0.31940382719039917,1.007271647453308
1776870455408590600,8.007590576171875,0.8779432773590088,0.05264057591557503,0.9861757159233093
1776870455418629600,8.017629638671876,0.88353031873703,0.057023338973522186,0.9041282534599304
1776870455428667600,8.027667724609374,0.7958361506462097,-0.10717545449733734,0.8146790862083435
1776870455438706700,8.037706787109375,0.8575456142425537,-0.33356863260269165,0.7380498051643372
1776870455448744400,8.047744384765625,0.8468817472457886,-0.3335505425930023,0.6911534070968628
1776870455458783700,8.05778369140625,0.7411201596260071,-0.2971661686897278,0.6898545622825623
1776870455468821500,8.067821533203125,0.6572191715240479,-0.3401450514793396,0.6400015354156494
1776870455478860500,8.077860595703125,0.6198704242706299,-0.28808239102363586,0.6106050610542297
1776870455488898600,8.087898681640626,0.6552659869194031,-0.08965584635734558,0.5641731023788452
1776870455498937600,8.0979375,0.6951934099197388,0.04220018535852432,0.4909617304801941
1776870455508975600,8.1079755859375,0.6815609931945801,0.08643076568841934,0.45133069157600403
1776870455519014700,8.1180146484375,0.6025095582008362,0.04379754886031151,0.4022188186645508
1776870455529052400,8.128052490234374,0.5636777281761169,-0.05997971445322037,0.3892657458782196
1776870455539091700,8.138091796875,0.47244131565093994,-0.14116671681404114,0.48245906829833984
1776870455549129500,8.14812939453125,0.2530205547809601,0.22169244289398193,0.5045427680015564
1776870455559168500,8.15816845703125,0.008447812870144844,0.19993868470191956,-0.22078004479408264
1776870455569206500,8.16820654296875,-0.1444178968667984,0.5556765198707581,-1.1584903001785278
1776870455579245600,8.17824560546875,0.11206821352243423,1.0946297645568848,-1.2118618488311768
1776870455589283600,8.18828369140625,0.3909136950969696,1.0900294780731201,-0.801053524017334
1776870455599322600,8.198322509765624,0.44159284234046936,0.35008504986763,-0.5937168598175049
1776870455609360600,8.208360595703125,0.28505757451057434,-0.25250548124313354,-0.32197803258895874
1776870455619399400,8.2183994140625,-0.13119956851005554,-0.786170482635498,0.055566854774951935
1776870455629437700,8.228437744140624,-0.6024661660194397,-1.1413248777389526,0.1949167549610138
1776870455639476500,8.2384765625,-0.8655372262001038,-1.2211562395095825,0.18393388390541077
1776870455649514800,8.2485146484375,-0.8951004147529602,-1.0802804231643677,0.2388211041688919
1776870455659553500,8.258553466796876,-0.8128023743629456,-0.816658079624176,0.19346533715724945
1776870455669591600,8.268591552734375,-0.627927303314209,-0.4706367552280426,-0.09995535761117935
1776870455679630600,8.278630615234375,-0.40493205189704895,-0.18397729098796844,-0.5326141119003296
1776870455689668600,8.288668701171876,-0.2518223822116852,0.10660500824451447,-0.890256404876709
1776870455699707400,8.298707275390624,-0.1432753950357437,0.3725903630256653,-1.0558656454086304
1776870455709745700,8.30874560546875,-0.09528417140245438,0.5173164010047913,-1.181431770324707
1776870455719784400,8.318784423828125,-0.06961582601070404,0.5101159811019897,-1.3056695461273193
1776870455729822700,8.32882275390625,-0.11953917890787125,0.5085037350654602,-1.3502322435379028
1776870455739861500,8.338861572265625,-0.20980462431907654,0.4752613306045532,-1.2929660081863403
1776870455749899500,8.3488994140625,-0.339476078748703,0.41756686568260193,-1.1850398778915405
1776870455759938600,8.3589384765625,-0.4180843234062195,0.1622546911239624,-1.1118990182876587
1776870455769976600,8.3689765625,-0.477107435464859,-0.027693413197994232,-1.0220199823379517
1776870455780015600,8.379015625,-0.5832749009132385,-0.010271811857819557,-0.9231022000312805
1776870455790053600,8.3890537109375,-0.6771867275238037,0.008296545594930649,-0.8779057264328003
1776870455800092700,8.3990927734375,-0.6920034885406494,-0.037349503487348557,-0.8469153046607971
1776870455810130700,8.409130615234375,-0.6468325257301331,-0.08476761728525162,-0.7972617149353027
1776870455820169700,8.419169677734375,-0.6101914644241333,-0.1492864191532135,-0.7437697649002075
1776870455830207500,8.42920751953125,-0.5970876216888428,-0.16207385063171387,-0.7311239838600159
1776870455840246800,8.439246826171875,-0.5522629022598267,-0.17882433533668518,-0.7612273097038269
1776870455850284500,8.449284423828125,-0.49772322177886963,-0.187670037150383,-0.8610918521881104
1776870455860323600,8.459323486328126,-0.48084864020347595,-0.058288075029850006,-0.9423297047615051
1776870455870361600,8.469361572265624,-0.5292856693267822,0.1842995285987854,-0.9834055304527283
1776870455880400600,8.479400634765625,-0.5712264776229858,0.23910552263259888,-1.0325701236724854
1776870455890438700,8.489438720703125,-0.6189090609550476,0.2307988554239273,-1.0628465414047241
1776870455900477700,8.499477783203124,-0.6458855271339417,0.21052581071853638,-1.065412998199463
1776870455910515500,8.509515380859375,-0.6548036336898804,0.23232725262641907,-1.0693308115005493
1776870455920554800,8.5195546875,-0.6828528642654419,0.2753162682056427,-1.1001521348953247
1776870455930592500,8.529592529296876,-0.7098602652549744,0.33194705843925476,-1.1110308170318604
1776870455940631600,8.539631591796875,-0.7259042263031006,0.35426008701324463,-1.1136080026626587
1776870455950669600,8.549669677734375,-0.7169511914253235,0.2900254428386688,-1.104252576828003
1776870455960708600,8.55970849609375,-0.7270938158035278,0.21631711721420288,-1.0907738208770752
1776870455970746600,8.56974658203125,-0.7659727931022644,0.196561798453331,-1.0758435726165771
1776870455980785700,8.57978564453125,-0.851179838180542,0.19206078350543976,-1.120068073272705
1776870455990823400,8.589823486328125,-0.9579629898071289,0.100662961602211,-1.200116515159607
1776870456000862700,8.59986279296875,-1.097088098526001,0.1084606945514679,-1.277440071105957
1776870456010900500,8.609900390625,-1.2846742868423462,0.18878190219402313,-1.3227695226669312
1776870456020939500,8.619939453125,-1.4686723947525024,0.12553182244300842,-1.3541537523269653
1776870456030977500,8.6299775390625,-1.662086009979248,0.0031017838045954704,-1.3732569217681885
1776870456041016600,8.6400166015625,-1.866906762123108,-0.06530683487653732,-1.400800108909607
1776870456051054600,8.6500546875,-2.094888210296631,0.00749120581895113,-1.4309026002883911
1776870456061093600,8.66009375,-2.3592331409454346,0.15483565628528595,-1.4764517545700073
1776870456071131600,8.670131591796874,-2.6201629638671875,0.32235434651374817,-1.5239063501358032
1776870456081170400,8.68017041015625,-2.812258720397949,0.46950066089630127,-1.464751958847046
1776870456091208700,8.690208740234375,-2.900162935256958,0.5550957322120667,-1.1745096445083618
1776870456101247200,8.700247314453126,-2.843892812728882,0.42215603590011597,-0.641607403755188
1776870456111285200,8.71028515625,-2.6869864463806152,-0.12044145911931992,-0.19248449802398682
1776870456121324300,8.72032421875,-2.4872870445251465,-0.92672199010849,-0.06791753321886063
1776870456131362300,8.7303623046875,-2.287680149078369,-1.5902531147003174,-0.18783754110336304
1776870456141401300,8.7404013671875,-2.1539862155914307,-1.8973160982131958,-0.42645463347435
1776870456151440100,8.750440185546875,-2.042426109313965,-1.7678170204162598,-0.6813663244247437
1776870456161478400,8.760478515625,-1.9311603307724,-1.0483338832855225,-0.8318213224411011
1776870456171517400,8.770517333984374,-1.7859771251678467,0.03664136677980423,-0.9830217361450195
1776870456181555200,8.78055517578125,-1.5510388612747192,1.0699084997177124,-1.1493337154388428
1776870456191594200,8.79059423828125,-1.206020712852478,1.916498064994812,-1.2417973279953003
1776870456201632300,8.80063232421875,-0.8034511804580688,2.595013380050659,-1.1316548585891724
1776870456211671300,8.81067138671875,-0.3334046006202698,2.8112993240356445,-0.9107882976531982
1776870456221709300,8.820709228515625,0.08177928626537323,2.1422572135925293,-0.9612549543380737
1776870456231748400,8.830748291015626,0.3790985941886902,1.0622748136520386,-0.8020114898681641
1776870456241786400,8.840786376953124,0.4629735052585602,0.2607559561729431,-0.5359422564506531
1776870456251825400,8.850825439453125,0.37292882800102234,-0.1201554387807846,-0.18717335164546967
1776870456261863200,8.86086328125,0.21761354804039001,0.05389172583818436,0.13714374601840973
1776870456271902200,8.870902099609374,0.049376603215932846,0.6777944564819336,0.3802804946899414
1776870456281940200,8.880940185546875,-0.035596076399087906,1.4540278911590576,0.5682234764099121
1776870456291979300,8.890979248046875,-0.0006151901907287538,2.1432368755340576,0.5915181636810303
1776870456302017300,8.901017333984376,0.15053917467594147,2.509005069732666,0.4046044647693634
1776870456312056300,8.911056396484375,0.35181954503059387,2.4971513748168945,0.0451299287378788
1776870456322094000,8.921093994140625,0.506213366985321,2.1593990325927734,-0.3747464418411255
1776870456332133400,8.93113330078125,0.5817286372184753,1.6278101205825806,-0.7404977679252625
1776870456342171100,8.941171142578124,0.5828192234039307,1.0983771085739136,-0.9297723770141602
1776870456352210200,8.951210205078125,0.4678364396095276,0.8366493582725525,-0.8940410017967224
1776870456362248200,8.961248291015625,0.20997293293476105,0.9381282925605774,-0.696738600730896
1776870456372287200,8.971287353515624,-0.20964084565639496,1.2086248397827148,-0.5042918920516968
1776870456382325200,8.9813251953125,-0.6217575669288635,1.1830153465270996,-0.5109495520591736
1776870456392364300,8.9913642578125,-0.9215714335441589,0.8836818337440491,-0.6689258813858032
1776870456402402000,9.001402099609376,-1.1471656560897827,0.4707467555999756,-0.8131754398345947
1776870456412441300,9.01144140625,-1.2970644235610962,-0.019714049994945526,-0.7956766486167908
1776870456422479000,9.02147900390625,-1.410290241241455,-0.33224746584892273,-0.6148805022239685
1776870456432518100,9.03151806640625,-1.4928932189941406,-0.475278377532959,-0.3735022246837616
1776870456442557400,9.041557373046874,-1.5740454196929932,-0.5814636945724487,-0.18838642537593842
1776870456452595200,9.05159521484375,-1.6594369411468506,-0.7673017382621765,-0.14247138798236847
1776870456462634200,9.06163427734375,-1.7334400415420532,-0.84333735704422,-0.20572732388973236
1776870456472672300,9.07167236328125,-1.799641728401184,-0.5395470857620239,-0.4225195646286011
1776870456482711300,9.081711181640625,-1.8502711057662964,-0.10523108392953873,-0.6528302431106567
1776870456492749300,9.091749267578125,-1.757201910018921,-0.08491648733615875,-0.7570642828941345
1776870456502788400,9.101788330078126,-1.5677099227905273,-0.5004401803016663,-0.7496777176856995
1776870456512826000,9.111826171875,-1.430111050605774,-1.083539605140686,-0.7946116328239441
1776870456522865400,9.121865478515625,-1.4579461812973022,-1.698699951171875,-0.8636996150016785
1776870456532903200,9.131903076171875,-1.624954104423523,-2.242140769958496,-0.988507091999054
1776870456542942200,9.141942138671874,-1.89109468460083,-2.563363552093506,-1.1129416227340698
1776870456552980200,9.151980224609375,-2.1791269779205322,-2.7220802307128906,-1.1032246351242065
1776870456563019300,9.162019287109375,-2.4357821941375732,-2.8381431102752686,-1.0601000785827637
1776870456573057300,9.172057373046876,-2.6343212127685547,-2.9215707778930664,-1.0821735858917236
1776870456583096300,9.182096435546875,-2.7662789821624756,-3.0498733520507812,-1.1357250213623047
1776870456593134000,9.192134033203125,-2.738036632537842,-3.273630142211914,-1.1284724473953247
1776870456603173400,9.20217333984375,-2.5832550525665283,-3.3462610244750977,-1.3294651508331299
1776870456613212400,9.21221240234375,-2.2726058959960938,-3.18623685836792,-1.8215886354446411
1776870456623250200,9.222250244140625,-1.8366162776947021,-2.703110933303833,-2.352391481399536
1776870456633289200,9.232289306640626,-1.366870641708374,-1.876065731048584,-2.627382755279541
1776870456643327200,9.2423271484375,-0.9380979537963867,-0.8076373934745789,-2.2891857624053955
1776870456653366300,9.2523662109375,-0.6092343330383301,0.19094598293304443,-1.5497738122940063
1776870456663404300,9.262404296875,-0.3601725697517395,0.7358300685882568,-0.7637059092521667
1776870456673443300,9.272443359375,-0.16089434921741486,0.7285274267196655,-0.442249059677124
1776870456683481300,9.2824814453125,-0.010603908449411392,0.5103460550308228,-0.5895982980728149
1776870456693520400,9.292520263671875,0.002624012529850006,0.5242637395858765,-0.8007656335830688
1776870456703558100,9.30255810546875,-0.036140426993370056,0.6757289171218872,-0.8391343355178833
1776870456713597200,9.31259716796875,0.0010301107540726662,0.7297335863113403,-0.689265251159668
1776870456723635200,9.32263525390625,0.09579417109489441,0.5912255048751831,-0.5025249123573303
1776870456733674200,9.33267431640625,0.17392998933792114,0.2829059958457947,-0.2615674138069153
1776870456743713300,9.34271337890625,0.16664570569992065,-0.07147498428821564,0.004603540059179068
1776870456753751300,9.352751220703125,0.0657835379242897,-0.3316271901130676,0.22139151394367218
1776870456763790300,9.362790283203125,-0.004012584686279297,-0.44900283217430115,0.3394041657447815
1776870456773828400,9.372828369140626,-0.007837150245904922,-0.3232680857181549,0.4103049635887146
1776870456783867400,9.382867431640625,0.06645519286394119,-0.1471492350101471,0.4941154420375824
1776870456793905200,9.3929052734375,0.22396358847618103,-0.07058202475309372,0.5620798468589783
1776870456803944400,9.4029443359375,0.38800179958343506,-0.038593996316194534,0.6260029077529907
1776870456813982200,9.412982177734374,0.47824913263320923,-0.03323625028133392,0.6551821231842041
1776870456824021200,9.423021240234375,0.4527296721935272,0.022704247385263443,0.5795288681983948
1776870456834059300,9.433059326171875,0.3608657717704773,0.06834922730922699,0.38008156418800354
1776870456844098300,9.443098388671874,0.23381435871124268,0.06582002341747284,0.13870568573474884
1776870456854137000,9.45313720703125,0.11834102123975754,-0.039210520684719086,-0.03398273512721062
1776870456864175400,9.46317529296875,0.02749340981245041,-0.19549094140529633,-0.15059830248355865
1776870456874214100,9.473214111328126,-0.03758892044425011,-0.3182986080646515,-0.2403324395418167
1776870456884252400,9.48325244140625,-0.08868672698736191,-0.4733566343784332,-0.38141101598739624
1776870456894291200,9.493291259765625,-0.1107344999909401,-0.5854173898696899,-0.5991742014884949
1776870456904329200,9.5033291015625,-0.07791797071695328,-0.6197817921638489,-0.8014450073242188
1776870456914368300,9.5133681640625,-0.01509852521121502,-0.537368655204773,-0.8941592574119568
1776870456924406300,9.52340625,0.0588473379611969,-0.34576672315597534,-0.7960478663444519
1776870456934445000,9.533445068359375,0.12459812313318253,-0.16731655597686768,-0.5860339403152466
1776870456944484400,9.543484375,0.1502278447151184,-0.11175129562616348,-0.41585925221443176
1776870456954522400,9.5535224609375,0.13488005101680756,-0.20442503690719604,-0.36537957191467285
1776870456964561200,9.56356103515625,0.11198113113641739,-0.41430556774139404,-0.4324164092540741
1776870456974599400,9.573599365234376,0.07957231998443604,-0.6716249585151672,-0.5415258407592773
1776870456984638200,9.58363818359375,0.015430355444550514,-0.8637790083885193,-0.6463624835014343
1776870456994676200,9.59367626953125,-0.09622479975223541,-0.935312807559967,-0.654380738735199
1776870457004715300,9.60371533203125,-0.20214751362800598,-0.7466728687286377,-0.47769811749458313
1776870457014754300,9.61375439453125,-0.30052122473716736,-0.20306096971035004,-0.2543814182281494
1776870457024792300,9.623792236328125,-0.356329083442688,0.3404603898525238,-0.07269550859928131
1776870457034831400,9.633831298828126,-0.3376677930355072,0.6851405501365662,-0.014510499313473701
1776870457044869000,9.643869140625,-0.2630646526813507,0.7755972146987915,-0.006079996936023235
1776870457054908200,9.653908203125,-0.17936043441295624,0.7256032824516296,-0.0566832534968853
1776870457064946200,9.6639462890625,-0.10759570449590683,0.6464866399765015,-0.21145418286323547
1776870457074985200,9.673985107421874,-0.044508613646030426,0.6370638012886047,-0.3850443661212921
1776870457085024300,9.684024169921875,-0.001252484624274075,0.8035262823104858,-0.4048447012901306
1776870457095062300,9.694062255859375,-0.0006849650526419282,1.0978995561599731,-0.25155287981033325
1776870457105101600,9.7041015625,-0.03416196629405022,1.370542049407959,-0.07872623950242996
1776870457115139600,9.7141396484375,-0.09833509474992752,1.4780488014221191,-0.00669438811019063
1776870457125178600,9.7241787109375,-0.1961950808763504,1.389509916305542,0.0015451660146936774
1776870457135216400,9.73421630859375,-0.30692797899246216,1.1482703685760498,0.01618403010070324
1776870457145255700,9.744255615234374,-0.3564297556877136,0.7070740461349487,0.048657551407814026
1776870457155294500,9.75429443359375,-0.34425538778305054,0.18967166543006897,0.06972715258598328
1776870457165332500,9.76433251953125,-0.321473628282547,-0.2815094292163849,0.05337986722588539
1776870457175371500,9.77437158203125,-0.27969688177108765,-0.632116973400116,-0.004703941289335489
1776870457185409500,9.784409423828125,-0.20191368460655212,-0.7963021993637085,-0.0393652506172657
1776870457195448300,9.7944482421875,-0.10086856037378311,-0.7237856388092041,-0.017071926966309547
1776870457205486600,9.804486572265626,0.05979089438915253,-0.39985206723213196,0.06868478655815125
1776870457215525400,9.814525390625,0.26187288761138916,0.09446205943822861,0.21881677210330963
1776870457225564400,9.824564453125,0.4896024465560913,0.6171596050262451,0.42234858870506287
1776870457235602400,9.8346025390625,0.7502756118774414,0.8990967869758606,0.6031346321105957
1776870457245641500,9.844641357421875,0.9818430542945862,0.9349349141120911,0.6773305535316467
1776870457255679500,9.854679443359375,1.1357979774475098,0.7963264584541321,0.7512761354446411
1776870457265718500,9.864718505859376,1.197572946548462,0.5393236875534058,0.9300834536552429
1776870457275756300,9.87475634765625,1.2016140222549438,0.20148465037345886,1.0905503034591675
1776870457285795300,9.88479541015625,1.1475409269332886,-0.043474506586790085,1.1953155994415283
1776870457295834600,9.894834716796876,1.1297273635864258,-0.1775609403848648,1.3234517574310303
1776870457305872400,9.904872314453126,1.2032153606414795,-0.22918365895748138,1.539099931716919
1776870457315911400,9.914911376953125,1.3261703252792358,-0.16111218929290771,1.7851533889770508
1776870457325949400,9.924949462890625,1.4263917207717896,-0.37218207120895386,1.8563801050186157
1776870457335988500,9.934988525390626,1.508246898651123,-0.791027307510376,1.7369717359542847
1776870457346027300,9.94502734375,1.5641075372695923,-1.0355634689331055,1.6123325824737549
1776870457356065500,9.9550654296875,1.5410869121551514,-0.9457345604896545,1.4587416648864746
1776870457366104300,9.965104248046876,1.411481499671936,-0.6115390062332153,1.2232314348220825
1776870457376142600,9.975142578125,1.2065099477767944,-0.13156042993068695,0.915438711643219
1776870457386181400,9.985181396484375,0.9497724771499634,0.4293985068798065,0.5903778076171875
1776870457396220400,9.995220458984376,0.6583022475242615,0.9396540522575378,0.3358643054962158
1776870457406258700,10.0052587890625,0.3647976815700531,1.0732970237731934,0.29668813943862915
1776870457416297500,10.01529736328125,0.04998273774981499,0.4564732611179352,0.4640081524848938
1776870457426335500,10.02533544921875,-0.135427325963974,-0.4388718903064728,0.5762321352958679
1776870457436374500,10.03537451171875,-0.18275995552539825,-0.8985247015953064,0.49024614691734314
1776870457446413600,10.04541357421875,-0.22592633962631226,-1.1220624446868896,0.23280182480812073
1776870457456451300,10.055451416015625,-0.1609944850206375,-1.5604355335235596,-0.006874683778733015
1776870457466490600,10.06549072265625,-0.1639857441186905,-2.307176113128662,-0.13588246703147888
1776870457476528400,10.0755283203125,-0.20556886494159698,-2.8437657356262207,-0.23325961828231812
1776870457486567400,10.0855673828125,-0.3052981197834015,-2.900969982147217,-0.29125848412513733
1776870457496606500,10.0956064453125,-0.4597707986831665,-2.583756446838379,-0.2962609529495239
1776870457506644500,10.10564453125,-0.6060198545455933,-2.180424928665161,-0.27902576327323914
1776870457516683500,10.11568359375,-0.6191716194152832,-1.7122091054916382,-0.22284133732318878
1776870457526721500,10.125721435546875,-0.5279208421707153,-1.0773136615753174,-0.2388157695531845
1776870457536760600,10.135760498046874,-0.37839096784591675,-0.4151468575000763,-0.23015516996383667
1776870457546799400,10.14579931640625,-0.10027280449867249,0.15360687673091888,-0.13327842950820923
1776870457556837600,10.155837646484375,0.16219769418239594,0.5953896045684814,-0.07889960706233978
1776870457566876400,10.16587646484375,0.31756436824798584,0.7345237731933594,-0.05963163822889328
1776870457576915500,10.17591552734375,0.3049689531326294,0.7410040497779846,-0.06302157789468765
1776870457586953500,10.185953369140625,0.2269655019044876,0.6710667610168457,-0.03135392814874649
1776870457596992500,10.195992431640626,0.16366882622241974,0.5097934603691101,0.09895800799131393
1776870457607030300,10.2060302734375,0.10523933917284012,0.3995758891105652,0.1807069331407547
1776870457617069600,10.216069580078125,0.043598078191280365,0.38651442527770996,0.16815385222434998
1776870457627108600,10.226108642578126,-0.011936021968722343,0.43528780341148376,0.13401639461517334
1776870457637146400,10.236146484375,-0.04808869957923889,0.47480514645576477,0.11830001324415207
1776870457647185700,10.246185546875,-0.06657610088586807,0.47019121050834656,0.13157214224338531
1776870457657223400,10.256223388671875,-0.061709437519311905,0.5156385898590088,0.0675356313586235
1776870457667262500,10.266262451171874,-0.017479125410318375,0.47966673970222473,0.01732892356812954
1776870457677301500,10.276301513671875,0.026816966012120247,0.2907484769821167,0.030227145180106163
1776870457687339500,10.286339599609375,0.023082949221134186,0.09581787139177322,0.030101975426077843
1776870457697378300,10.29637841796875,0.0034234935883432627,-0.09650097042322159,-0.00436172541230917
1776870457707417600,10.30641748046875,-0.01996997930109501,-0.22322243452072144,-0.06173500418663025
1776870457717455400,10.316455322265625,-0.052930593490600586,-0.2695696949958801,-0.09832390397787094
1776870457727494400,10.326494384765626,-0.10926177352666855,-0.2093212604522705,-0.10752086341381073
1776870457737534500,10.336534423828125,-0.1317572295665741,-0.17687997221946716,-0.06049423664808273
1776870457747573200,10.3465732421875,-0.08074331283569336,-0.18213731050491333,-0.05197504907846451
1776870457757611500,10.356611572265624,0.00427224300801754,-0.1670001745223999,-0.1213458701968193
1776870457767650300,10.366650390625,0.11770506203174591,-0.13458524644374847,-0.20794440805912018
1776870457777689300,10.376689453125,0.2264334112405777,-0.09583358466625214,-0.21540792286396027
1776870457787727400,10.386727294921876,0.2585732340812683,-0.09100420773029327,-0.10675361007452011
1776870457797766400,10.396766357421875,0.21454079449176788,-0.13781724870204926,0.002147306688129902
1776870457807804700,10.4068046875,0.18491339683532715,-0.21499885618686676,0.01799125038087368
1776870457817843500,10.416843505859376,0.18868203461170197,-0.3499140739440918,-0.03459073230624199
1776870457827882500,10.426882568359375,0.19282618165016174,-0.5213478803634644,-0.1239408552646637
1776870457837920500,10.43692041015625,0.19236837327480316,-0.6120293140411377,-0.3162098824977875
1776870457847959600,10.44695947265625,0.24377325177192688,-0.5915232300758362,-0.41213908791542053
1776870457857998300,10.456998291015625,0.32394397258758545,-0.47301867604255676,-0.3834991753101349
1776870457868036600,10.46703662109375,0.33846166729927063,-0.3691716492176056,-0.33483099937438965
1776870457878075400,10.477075439453126,0.2907543480396271,-0.2913498282432556,-0.30644968152046204
1776870457888113400,10.487113525390624,0.2328399121761322,-0.219390407204628,-0.21236419677734375
1776870457898152400,10.49715234375,0.21270588040351868,-0.11177979409694672,-0.0622926689684391
1776870457908191500,10.50719140625,0.20925122499465942,-0.030409304425120354,0.03549354523420334
1776870457918229500,10.5172294921875,0.21740049123764038,0.035994753241539,0.06470655649900436
1776870457928268500,10.5272685546875,0.2614036500453949,0.1455574631690979,0.09767729043960571
1776870457938307600,10.5373076171875,0.3026251196861267,0.20870660245418549,0.14967630803585052
1776870457948345300,10.547345458984376,0.2878299355506897,0.189782977104187,0.18562258780002594
1776870457958384600,10.557384521484375,0.21894513070583344,0.14450497925281525,0.18800905346870422
1776870457968423400,10.56742333984375,0.14746348559856415,0.10376927256584167,0.1982792615890503
1776870457978461400,10.57746142578125,0.09731563180685043,0.032277245074510574,0.2613237500190735
1776870457988500500,10.58750048828125,0.06185884028673172,-0.047751810401678085,0.290237694978714
1776870457998539500,10.59753955078125,0.0215953066945076,-0.12479386478662491,0.307721883058548
1776870458008577500,10.60757763671875,-0.03808533400297165,-0.10223129391670227,0.30140432715415955
1776870458018616300,10.6176162109375,-0.07402841746807098,0.009889914654195309,0.31745919585227966
1776870458028655600,10.627655517578125,-0.0851694867014885,0.10182090103626251,0.35548272728919983
1776870458038693400,10.637693359375,-0.0926005095243454,0.2589218318462372,0.33915063738822937
1776870458048732400,10.647732421875,-0.11842837929725647,0.4517884850502014,0.2835315763950348
1776870458058770400,10.6577705078125,-0.12205053865909576,0.5291844606399536,0.2732243537902832
1776870458068809500,10.6678095703125,-0.09990476071834564,0.504561722278595,0.25993064045906067
1776870458078848300,10.67784814453125,-0.08672451227903366,0.4194020628929138,0.21086350083351135
1776870458088886500,10.687886474609375,-0.07532591372728348,0.33324161171913147,0.13845081627368927
1776870458098925300,10.69792529296875,-0.050444263964891434,0.2741284966468811,0.10711953043937683
1776870458108964400,10.70796435546875,-0.012958409264683723,0.27449867129325867,0.08963427692651749
1776870458119002600,10.718002685546875,0.04602048918604851,0.34941232204437256,0.08202935755252838
1776870458129041400,10.72804150390625,0.12359117716550827,0.4470406174659729,0.07239484041929245
1776870458139080400,10.73808056640625,0.19447360932826996,0.4873158633708954,0.0462106391787529
1776870458149118500,10.748118408203124,0.23446470499038696,0.4725379943847656,0.006599313113838434
1776870458159157500,10.758157470703125,0.2547060549259186,0.4117409586906433,-0.002799248555675149
1776870458169196300,10.7681962890625,0.2651190161705017,0.3050384819507599,0.007124488707631826
1776870458179234600,10.778234619140624,0.24716611206531525,0.14368872344493866,0.012248942628502846
1776870458189273300,10.7882734375,0.20009607076644897,-0.023440077900886536,0.01769537292420864
1776870458199312400,10.7983125,0.14031051099300385,-0.1023266389966011,0.027307787910103798
1776870458209350700,10.8083505859375,0.10728570818901062,-0.03659609332680702,0.0798620730638504
1776870458219389400,10.818389404296875,0.09278932213783264,0.10288456827402115,0.16900846362113953
1776870458229428500,10.828428466796876,0.08272524178028107,0.17861981689929962,0.22175022959709167
1776870458239466500,10.838466552734374,0.09327588230371475,0.13416419923305511,0.23466789722442627
1776870458249505500,10.848505615234375,0.1197812631726265,0.13385926187038422,0.17159146070480347
1776870458259544300,10.85854443359375,0.16438227891921997,0.165518119931221,0.08811254799365997
1776870458269582600,10.86858251953125,0.2273806929588318,0.20937372744083405,0.010842527262866497
1776870458279621400,10.878621337890625,0.2553694546222687,0.2710599899291992,-0.018209896981716156
1776870458289660400,10.888660400390625,0.19028551876544952,0.42959585785865784,-0.07812303304672241
1776870458299698400,10.898698486328126,0.06234406679868698,0.6141955256462097,-0.13329973816871643
1776870458309737500,10.908737548828125,-0.08970565348863602,0.718940019607544,-0.19593781232833862
1776870458319776500,10.918776611328125,-0.22472338378429413,0.7869430780410767,-0.24292875826358795
1776870458329814500,10.928814453125,-0.34238263964653015,0.8927355408668518,-0.3167332112789154
1776870458339853600,10.938853515625,-0.45536965131759644,1.088032603263855,-0.43489766120910645
1776870458349892400,10.948892333984375,-0.5478870868682861,1.3236624002456665,-0.5950913429260254
1776870458359930600,10.9589306640625,-0.6061088442802429,1.4715490341186523,-0.7506386041641235
1776870458369969400,10.968969482421874,-0.6731392741203308,1.4877235889434814,-0.8883303999900818
1776870458380008400,10.979008544921875,-0.6994624733924866,1.2936166524887085,-0.9725052118301392
1776870458390046500,10.98904638671875,-0.7020233869552612,0.9928618669509888,-0.9818459749221802
1776870458400085500,10.99908544921875,-0.6883816123008728,0.6642451286315918,-0.9518433213233948
1776870458410124500,11.00912451171875,-0.6665349006652832,0.2907484769821167,-0.8635537028312683
1776870458420162600,11.01916259765625,-0.6187388896942139,-0.06287350505590439,-0.7129828333854675
1776870458430201600,11.02920166015625,-0.6213405132293701,-0.33953970670700073,-0.5776875615119934
1776870458440240400,11.039240478515625,-0.616645872592926,-0.5596851110458374,-0.4612288773059845
1776870458450278400,11.0492783203125,-0.6590287685394287,-0.6933444142341614,-0.3896167278289795
1776870458460317400,11.0593173828125,-0.703915536403656,-0.7902616262435913,-0.4030526578426361
1776870458470356500,11.0693564453125,-0.8154796361923218,-0.8189822435379028,-0.4636342525482178
1776870458480394200,11.079394287109375,-0.8861298561096191,-0.8025033473968506,-0.5959286093711853
1776870458490433500,11.08943359375,-0.9723321199417114,-0.7761164903640747,-0.7757319211959839
1776870458500472600,11.09947265625,-1.0665563344955444,-0.6986696720123291,-0.9129819273948669
1776870458510510300,11.10951025390625,-1.0766733884811401,-0.6192001104354858,-1.0672935247421265
1776870458520549600,11.119549560546876,-1.0069776773452759,-0.5115641951560974,-1.1894407272338867
1776870458530588400,11.12958837890625,-0.7746762633323669,-0.5184487700462341,-1.2300291061401367
1776870458540626400,11.13962646484375,-0.3626500964164734,-0.6557280421257019,-1.1601520776748657
1776870458550665500,11.14966552734375,0.10090530663728714,-0.7143263816833496,-0.9136706590652466
1776870458560704500,11.15970458984375,0.41548001766204834,-0.5996178984642029,-0.5375806093215942
1776870458570743600,11.16974365234375,0.5469437837600708,-0.3822017014026642,-0.16783107817173004
1776870458580781600,11.179781494140625,0.5489840507507324,-0.14529886841773987,0.06036054715514183
1776870458590820600,11.189820556640624,0.48515310883522034,0.12015650421380997,0.051063716411590576
1776870458600859400,11.199859375,0.41205307841300964,0.2828647196292877,-0.02510055899620056
1776870458610897700,11.209897705078125,0.31614625453948975,0.31577208638191223,-0.14829786121845245
1776870458620936400,11.2199365234375,0.20288920402526855,0.1548159420490265,-0.19744063913822174
1776870458630975500,11.2299755859375,0.033724941313266754,-0.1710183471441269,-0.16546832025051117
1776870458641013500,11.240013427734375,-0.17863605916500092,-0.5754536986351013,-0.045462023466825485
1776870458651052500,11.250052490234374,-0.3881914019584656,-0.8968223929405212,0.24614186584949493
1776870458661091600,11.260091552734375,-0.564264178276062,-1.0367848873138428,0.5072680115699768
1776870458671129300,11.27012939453125,-0.6691117882728577,-1.0507237911224365,0.5915037989616394
1776870458681168600,11.280168701171876,-0.6911818981170654,-0.8802887201309204,0.5417258143424988
1776870458691207400,11.29020751953125,-0.6784208416938782,-0.5952127575874329,0.4274275004863739
1776870458701246500,11.30024658203125,-0.659749448299408,-0.3934021592140198,0.3887844979763031
1776870458711284500,11.310284423828126,-0.6347194314002991,-0.3143318295478821,0.3996264934539795
1776870458721323500,11.320323486328125,-0.5867316722869873,-0.36671409010887146,0.4084852337837219
1776870458731362600,11.330362548828125,-0.510250449180603,-0.47321975231170654,0.4050700068473816
1776870458741400600,11.340400634765626,-0.4451841115951538,-0.6345143914222717,0.3800218999385834
1776870458751439600,11.350439697265625,-0.43111652135849,-0.8354277610778809,0.39600539207458496
1776870458761478400,11.360478515625,-0.47901850938796997,-0.9842217564582825,0.3896425664424896
1776870458771516700,11.3705166015625,-0.558133602142334,-1.0855894088745117,0.219259113073349
1776870458781555500,11.380555419921874,-0.5743173360824585,-1.172838807106018,-0.0529007650911808
1776870458791594500,11.390594482421875,-0.48121190071105957,-1.296732783317566,-0.22222214937210083
1776870458801633300,11.40063330078125,-0.32702818512916565,-1.3790631294250488,-0.3043234050273895
1776870458811671600,11.410671630859374,-0.17055575549602509,-1.3299522399902344,-0.30794423818588257
1776870458821710600,11.420710693359375,-0.03527170419692993,-1.12381911277771,-0.222412571310997
1776870458831749400,11.430749267578125,0.07544389367103577,-0.7707734107971191,-0.020909009501338005
1776870458841787600,11.44078759765625,0.16753892600536346,-0.365551620721817,0.2193579226732254
1776870458851826400,11.450826416015625,0.2222362607717514,0.032346222549676895,0.5460928678512573
1776870458861865500,11.460865478515625,0.2625519931316376,0.25372546911239624,0.8385180830955505
1776870458871903500,11.470903564453126,0.2782540023326874,0.2825731039047241,1.0394679307937622
1776870458881942500,11.480942626953125,0.2111031860113144,0.2538037896156311,1.148553729057312
1776870458891981300,11.490981201171875,0.09719392657279968,0.18455173075199127,1.2152214050292969
1776870458902020400,11.501020263671874,0.014339790679514408,0.06301997601985931,1.2507890462875366
1776870458912058400,11.511058349609375,-0.0021110877860337496,-0.07288192957639694,1.2778149843215942
1776870458922097400,11.521097412109375,0.020725784823298454,-0.22004234790802002,1.288638710975647
1776870458932136400,11.531136474609376,0.0727224051952362,-0.3968011438846588,1.2572873830795288
1776870458942174500,11.541174560546875,0.1325812190771103,-0.6159462928771973,1.1027917861938477
1776870458952213500,11.551213623046875,0.19241738319396973,-0.7707201242446899,0.8228829503059387
1776870458962252300,11.561252197265626,0.24266298115253448,-0.7269524335861206,0.5863577723503113
1776870458972291600,11.57129150390625,0.3115949034690857,-0.39719903469085693,0.4995570778846741
1776870458982329300,11.581329345703125,0.4817567765712738,0.15366199612617493,0.5336822867393494
1776870458992368400,11.591368408203126,0.7637543678283691,0.8259538412094116,0.7030713558197021
1776870459002407400,11.601407470703125,1.0070042610168457,1.3821483850479126,0.8748617172241211
1776870459012445400,11.611445556640625,1.2511056661605835,1.559134840965271,0.9158890843391418
1776870459022484500,11.621484375,1.4602018594741821,1.3804963827133179,0.861043393611908
1776870459032523500,11.6315234375,1.5427974462509155,0.9709166288375854,0.8295344710350037
1776870459042562600,11.6415625,1.5133745670318604,0.5907437205314636,0.9105462431907654
1776870459052600300,11.651600341796875,1.3902654647827148,0.4116900861263275,1.0999335050582886
1776870459062639400,11.661639404296874,1.1811937093734741,0.4422021806240082,1.3005131483078003
1776870459072678700,11.6716787109375,1.0632457733154297,0.706088125705719,1.6199440956115723
1776870459082717400,11.681717529296876,1.0738635063171387,1.059949278831482,1.9468159675598145
1776870459092755500,11.69175537109375,1.2012428045272827,1.4392355680465698,2.1623928546905518
1776870459102794500,11.70179443359375,1.3672809600830078,1.8815072774887085,2.299893379211426
1776870459112833500,11.71183349609375,1.4448235034942627,2.339853286743164,2.3035495281219482
1776870459122871300,11.721871337890626,1.443232536315918,2.547292470932007,2.1689043045043945
1776870459132910600,11.73191064453125,1.4456562995910645,2.457581043243408,1.8720881938934326
1776870459142949600,11.74194970703125,1.5510492324829102,2.087462902069092,1.6677167415618896
1776870459152988400,11.751988525390624,1.6452332735061646,1.329306960105896,1.7751917839050293
1776870459163026700,11.762026611328125,1.4363600015640259,0.6718500256538391,2.0116515159606934
1776870459173065500,11.7720654296875,1.0253561735153198,0.27033427357673645,2.27976131439209
1776870459183104500,11.7821044921875,0.5858637690544128,0.00518810423091054,2.445526123046875
1776870459193143600,11.7921435546875,0.20423729717731476,-0.20226654410362244,2.422287702560425
1776870459203181600,11.802181640625,-0.033365946263074875,-0.2548155188560486,2.189744472503662
1776870459213220600,11.812220703125,-0.03106044791638851,-0.18561966717243195,1.8142606019973755
1776870459223259400,11.82225927734375,0.21020889282226562,0.07464627176523209,1.4044320583343506
1776870459233297700,11.832297607421875,0.569796085357666,0.48766154050827026,0.9417499303817749
1776870459243336400,11.84233642578125,0.9378651976585388,0.849764883518219,0.460254967212677
1776870459253375500,11.85237548828125,1.2222635746002197,1.1270079612731934,0.037091441452503204
1776870459263414500,11.86241455078125,1.3826117515563965,1.3223761320114136,-0.3146660625934601
1776870459273452500,11.87245263671875,1.39212167263031,1.4487228393554688,-0.5353651642799377
1776870459283491600,11.88249169921875,1.248836874961853,1.5323892831802368,-0.6188680529594421
1776870459293530400,11.8925302734375,0.9937625527381897,1.5380586385726929,-0.6007705330848694
1776870459303569700,11.902569580078126,0.6769022941589355,1.3941885232925415,-0.5516117811203003
1776870459313607400,11.912607421875,0.36693432927131653,1.0078959465026855,-0.512565553188324
1776870459323646500,11.922646484375,0.10530991107225418,0.3790317475795746,-0.4742719829082489
1776870459333685500,11.932685546875,-0.11809761077165604,-0.3430793285369873,-0.40863651037216187
1776870459343724500,11.942724609375,-0.33361178636550903,-0.9503341317176819,-0.30232977867126465
1776870459353762600,11.952762451171875,-0.5360962152481079,-1.2294797897338867,-0.1543690711259842
1776870459363801600,11.962801513671875,-0.6006994247436523,-1.3195228576660156,-0.06483465433120728
1776870459373840600,11.972840576171874,-0.5115751028060913,-1.319825291633606,-0.015913452953100204
1776870459383879400,11.98287939453125,-0.3594881296157837,-1.2644257545471191,0.025829199701547623
1776870459393916700,11.992916748046875,-0.2428097128868103,-1.1963579654693604,0.09288493543863297
1776870459403954400,12.002954345703126,-0.18739385902881622,-1.137347936630249,0.17930717766284943
1776870459413993500,12.012993408203124,-0.1728585958480835,-1.0554519891738892,0.27976906299591064
1776870459424032500,12.023032470703125,-0.14261627197265625,-0.9105507731437683,0.40114155411720276
1776870459434071600,12.033071533203126,-0.09221967309713364,-0.6602287888526917,0.5567348599433899
1776870459444109300,12.043109375,-0.0033755565527826548,-0.38521453738212585,0.7030846476554871
1776870459454148600,12.053148681640625,0.18496586382389069,-0.22091905772686005,0.7900051474571228
1776870459464187600,12.063187744140626,0.4174582064151764,-0.12744104862213135,0.7790462374687195
1776870459474226400,12.073226318359374,0.5955906510353088,-0.011653194203972816,0.6792693138122559
1776870459484264700,12.0832646484375,0.7041749358177185,0.14341042935848236,0.5333827137947083
1776870459494303500,12.093303466796876,0.7697334289550781,0.3268212676048279,0.3907853364944458
1776870459504342500,12.103342529296874,0.8547071814537048,0.6411429643630981,0.3003782033920288
1776870459514380500,12.113380615234375,1.092077374458313,1.098730206489563,0.2334662824869156
1776870459524419600,12.123419677734375,1.5105100870132446,1.6930804252624512,0.29116660356521606
1776870459534458400,12.133458251953124,1.931208848953247,2.1559641361236572,0.44433990120887756
1776870459544497400,12.143497314453125,2.204497814178467,2.0527639389038086,0.005033907014876604
1776870459554535700,12.15353564453125,2.1481049060821533,1.4373666048049927,-0.6884761452674866
1776870459564574500,12.163574462890624,2.0195367336273193,1.5094895362854004,-0.6723126173019409
1776870459574613500,12.173613525390625,1.9783776998519897,2.1606054306030273,0.04715872183442116
1776870459584652500,12.183652587890625,2.054121494293213,2.731975555419922,0.7233531475067139
1776870459594690600,12.193690673828126,2.0278570652008057,1.8938723802566528,1.4071669578552246
1776870459604729300,12.203729248046875,1.8590651750564575,0.010468619875609875,2.066819190979004
1776870459614768400,12.213768310546875,1.5946787595748901,-1.8294390439987183,2.3868119716644287
1776870459624807700,12.2238076171875,1.294162631034851,-2.722038507461548,2.3837177753448486
1776870459634845400,12.233845458984375,1.0764638185501099,-2.6138930320739746,2.1522488594055176
1776870459644884500,12.243884521484375,1.074128270149231,-2.198512315750122,1.7298541069030762
1776870459654923500,12.253923583984376,1.1661510467529297,-1.1842470169067383,1.4665383100509644
1776870459664962600,12.263962646484375,1.0621980428695679,1.3027483224868774,1.5620135068893433
1776870459675001600,12.274001708984375,0.8887527585029602,2.617779493331909,1.408575177192688
1776870459685039600,12.28403955078125,0.8532595038414001,1.7102125883102417,0.577711284160614
1776870459695078700,12.29407861328125,0.752557635307312,0.760538637638092,-0.18196554481983185
1776870459705117400,12.304117431640625,0.5639158487319946,0.6896529793739319,-0.2050897628068924
1776870459715156500,12.314156494140626,0.49802204966545105,1.1614042520523071,0.397199809551239
1776870459725194500,12.324194580078125,0.6564183235168457,1.1873788833618164,1.0322004556655884
1776870459735233500,12.334233642578125,0.9332931041717529,0.5859686732292175,1.1921284198760986
1776870459745272300,12.344272216796876,1.0673725605010986,-0.1368558555841446,1.085057020187378
1776870459755311600,12.3543115234375,1.041994571685791,-0.40748947858810425,1.024827241897583
1776870459765349600,12.364349609375,0.9548100829124451,-0.25729385018348694,1.0595729351043701
1776870459775388400,12.374388427734376,0.9216811656951904,-0.03870078921318054,1.0366383790969849
1776870459785427500,12.384427490234375,0.9166550040245056,0.029403962194919586,1.0018119812011719
1776870459795466500,12.394466552734375,0.9096471667289734,-0.029168006032705307,1.0295045375823975
1776870459805504500,12.40450439453125,0.8816008567810059,-0.13385739922523499,1.0152913331985474
1776870459815543300,12.414543212890624,0.8811188340187073,-0.3971465528011322,0.8365473747253418
1776870459825582600,12.42458251953125,0.9103922843933105,-0.6436378359794617,0.641682505607605
1776870459835621600,12.43462158203125,0.9521975517272949,-0.42798781394958496,0.5502367615699768
1776870459845659400,12.444659423828124,1.0108851194381714,-0.1007617637515068,0.4987083375453949
1776870459855698700,12.45469873046875,0.9996822476387024,-0.05235321819782257,0.47146472334861755
1776870459865737500,12.464737548828126,0.8963150978088379,-0.08761720359325409,0.4652843177318573
1776870459875776500,12.474776611328124,0.7704772353172302,-0.12171338498592377,0.47786110639572144
1776870459885814500,12.484814453125,0.7388367652893066,-0.17200931906700134,0.49878716468811035
1776870459895853600,12.494853515625,0.7450089454650879,-0.30143362283706665,0.49797651171684265
1776870459905892600,12.504892578125,0.7541430592536926,-0.31032538414001465,0.474675714969635
1776870459915931400,12.514931396484375,0.7549340128898621,-0.2779559791088104,0.4647112190723419
