time,seconds_elapsed,z,y,x
1776870447522145300,0.121145263671875,-40.928375244140625,-2.5467872619628906,-18.180553436279297
1776870447532184300,0.131184326171875,-39.942100524902344,-2.44549560546875,-15.67061996459961
1776870447542222300,0.141222412109375,-40.68360137939453,-2.6666221618652344,-14.869579315185547
1776870447552260400,0.15126025390625,-40.278343200683594,-2.598979949951172,-12.86154556274414
1776870447562299100,0.161299072265625,-39.643821716308594,-2.4229087829589844,-10.77279281616211
1776870447572337400,0.17133740234375,-39.33465576171875,-2.1039276123046875,-8.989459991455078
1776870447582376200,0.181376220703125,-39.33465576171875,-2.1039276123046875,-8.989459991455078
1776870447592414500,0.19141455078125,-40.34051513671875,-2.0623016357421875,-8.08499526977539
1776870447602452200,0.2014521484375,-40.34374237060547,-1.8396682739257812,-6.185703277587891
1776870447612491300,0.2114912109375,-40.5638427734375,-1.5990829467773438,-4.602993011474609
1776870447622529300,0.221529296875,-41.57768249511719,-1.550872802734375,-3.5224266052246094
1776870447632567300,0.2315673828125,-40.787109375,-1.1937026977539062,-1.0227928161621094
1776870447642606300,0.2416064453125,-40.513771057128906,-0.998504638671875,0.8545455932617188
1776870447652644400,0.251644287109375,-40.450042724609375,-0.2717742919921875,2.30670166015625
1776870447662682400,0.261682373046875,-40.12812805175781,0.2852783203125,3.826892852783203
1776870447672721400,0.271721435546875,-39.53288269042969,1.2516250610351562,5.686698913574219
1776870447682759200,0.28175927734375,-38.920989990234375,2.1578521728515625,7.216503143310547
1776870447692798500,0.291798583984375,-38.69685363769531,3.0499801635742188,8.614330291748047
1776870447702836200,0.301836181640625,-37.968727111816406,3.9397354125976562,10.646812438964844
1776870447712874500,0.31187451171875,-37.27680969238281,4.747642517089844,12.477733612060547
1776870447722913300,0.321913330078125,-37.17649841308594,5.442115783691406,13.25313949584961
1776870447732951300,0.331951416015625,-36.293663024902344,5.711181640625,15.023101806640625
1776870447742989300,0.3419892578125,-36.265869140625,5.733634948730469,15.516654968261719
1776870447753028400,0.3520283203125,-34.830780029296875,5.7883758544921875,17.356952667236328
1776870447763066400,0.36206640625,-34.16822814941406,5.981422424316406,18.57815170288086
1776870447773105400,0.37210546875,-33.05830383300781,6.3975982666015625,19.614776611328125
1776870447783143200,0.38214306640625,-34.407470703125,6.668006896972656,18.444896697998047
1776870447793181400,0.392181396484375,-33.877479553222656,7.415855407714844,18.699840545654297
1776870447803220200,0.40222021484375,-34.182823181152344,7.82098388671875,17.882362365722656
1776870447813258500,0.412258544921875,-34.709716796875,8.277694702148438,17.043231964111328
1776870447823296300,0.422296142578125,-35.10790252685547,8.330596923828125,16.234046936035156
1776870447833335300,0.432335205078125,-35.919158935546875,8.013038635253906,15.191104888916016
1776870447843373300,0.442373291015625,-36.28021240234375,8.047187805175781,15.087715148925781
1776870447853411300,0.452411376953125,-36.78266143798828,7.9939422607421875,14.631111145019531
1776870447863450400,0.462450439453125,-36.78861999511719,7.822837829589844,14.632194519042969
1776870447873488400,0.47248828125,-36.583473205566406,7.620689392089844,15.094829559326172
1776870447883527200,0.482527099609375,-36.55919647216797,7.601287841796875,15.317070007324219
1776870447893565400,0.4925654296875,-37.170860290527344,7.265510559082031,15.08138656616211
1776870447903603200,0.502603271484375,-37.51936340332031,7.0056304931640625,14.913017272949219
1776870447913642500,0.512642578125,-37.658485412597656,7.161705017089844,14.841117858886719
1776870447923680300,0.52268017578125,-37.384864807128906,7.5242767333984375,14.880962371826172
1776870447933718500,0.532718505859375,-37.79438018798828,7.786537170410156,14.549652099609375
1776870447943757300,0.54275732421875,-37.001792907714844,8.378974914550781,15.211986541748047
1776870447953795300,0.55279541015625,-37.931724548339844,8.775199890136719,14.287403106689453
1776870447963833300,0.562833251953125,-37.00939178466797,9.592941284179688,15.279781341552734
1776870447973872400,0.572872314453125,-36.007957458496094,10.087333679199219,16.127079010009766
1776870447983910400,0.582910400390625,-35.73435974121094,10.89434814453125,16.071674346923828
1776870447993949400,0.592949462890625,-35.262367248535156,11.532638549804688,16.433513641357422
1776870448003987200,0.6029873046875,-35.37297058105469,11.861015319824219,16.507720947265625
1776870448014025500,0.613025390625,-34.87152862548828,12.554275512695312,16.61859130859375
1776870448024064300,0.623064208984375,-34.292236328125,13.020050048828125,16.67388916015625
1776870448034102500,0.6331025390625,-34.061676025390625,13.61163330078125,16.647666931152344
1776870448044141300,0.643141357421875,-34.418724060058594,14.202354431152344,15.962112426757812
1776870448054179300,0.653179443359375,-34.680763244628906,14.979232788085938,15.105903625488281
1776870448064217300,0.66321728515625,-34.221168518066406,16.068496704101562,14.653461456298828
1776870448074256400,0.67325634765625,-33.77876281738281,17.174232482910156,14.43111801147461
1776870448084294400,0.68329443359375,-33.74603271484375,18.42015838623047,13.257953643798828
1776870448094332000,0.693331787109375,-33.59154510498047,19.816818237304688,12.100578308105469
1776870448104371000,0.703370849609375,-33.009361267089844,21.188682556152344,11.059688568115234
1776870448114409000,0.713408935546875,-32.910400390625,22.27404022216797,9.596672058105469
1776870448124447200,0.723447265625,-32.530914306640625,23.569107055664062,8.272850036621094
1776870448134486000,0.733486083984375,-31.546371459960938,24.583694458007812,7.475242614746094
1776870448144524000,0.74352392578125,-30.82123565673828,25.868026733398438,6.354663848876953
1776870448154563000,0.75356298828125,-30.23699951171875,26.977027893066406,5.116851806640625
1776870448164601000,0.76360107421875,-29.972328186035156,27.85857391357422,3.6211509704589844
1776870448174639000,0.77363916015625,-28.909019470214844,28.94245147705078,2.7542800903320312
1776870448184678100,0.78367822265625,-28.18743896484375,29.924774169921875,1.4456100463867188
1776870448194716000,0.7937158203125,-27.254714965820312,30.97772979736328,0.4753456115722656
1776870448204754200,0.803754150390625,-26.267196655273438,31.968971252441406,-0.2723846435546875
1776870448214793000,0.81379296875,-24.785018920898438,32.902992248535156,-0.8564376831054688
1776870448224831200,0.823831298828125,-23.86090087890625,33.678985595703125,-1.8025779724121094
1776870448234870000,0.8338701171875,-22.828353881835938,34.661094665527344,-2.776844024658203
1776870448244908000,0.843907958984375,-21.050262451171875,35.688262939453125,-2.880359649658203
1776870448254946000,0.853946044921875,-19.38213348388672,36.559356689453125,-3.2710304260253906
1776870448264985000,0.863985107421875,-18.26502227783203,37.21953582763672,-3.9875755310058594
1776870448275023000,0.874023193359375,-16.436302185058594,37.94087219238281,-3.955738067626953
1776870448285061000,0.88406103515625,-15.041351318359375,38.676414489746094,-4.685955047607422
1776870448295100000,0.894099853515625,-13.184089660644531,39.338539123535156,-5.060611724853516
1776870448305138200,0.90413818359375,-11.289016723632812,40.01091766357422,-5.006595611572266
1776870448315177000,0.914177001953125,-9.709365844726562,40.399749755859375,-5.050251007080078
1776870448325215000,0.924215087890625,-8.233711242675781,40.809165954589844,-5.106563568115234
1776870448335253000,0.9342529296875,-6.508491516113281,41.60859680175781,-4.899227142333984
1776870448345292000,0.9442919921875,-4.82659912109375,41.63568115234375,-4.227809906005859
1776870448355330000,0.954330078125,-2.689788818359375,41.80500793457031,-2.744190216064453
1776870448365368000,0.9643681640625,-1.63177490234375,42.06396484375,-1.7578086853027344
1776870448375407000,0.974406982421875,-0.5403594970703125,41.958045959472656,-0.3347930908203125
1776870448385445000,0.984445068359375,-0.24417877197265625,41.76570129394531,0.43636322021484375
1776870448395483100,0.994483154296875,0.0751800537109375,41.55785369873047,1.3871498107910156
1776870448405522200,1.004522216796875,0.4686279296875,41.32914733886719,2.4888534545898438
1776870448415560000,1.014559814453125,0.28505706787109375,41.393104553222656,3.3590354919433594
1776870448425599000,1.024598876953125,0.13587188720703125,41.19773864746094,4.196445465087891
1776870448435637000,1.034636962890625,-0.3673858642578125,41.001129150390625,5.001243591308594
1776870448445675000,1.044675048828125,-1.92181396484375,40.892120361328125,4.938282012939453
1776870448455714000,1.054714111328125,-1.9059600830078125,40.92962646484375,5.983558654785156
1776870448465752000,1.064751953125,-2.59490966796875,40.77052307128906,6.231212615966797
1776870448475791000,1.074791015625,-2.5953292846679688,40.634971618652344,7.398273468017578
1776870448485829000,1.0848291015625,-2.6191253662109375,40.675445556640625,8.523052215576172
1776870448495867100,1.0948671875,-3.1823272705078125,40.541725158691406,9.416961669921875
1776870448505906200,1.10490625,-4.2550811767578125,40.21087646484375,9.894630432128906
1776870448515944000,1.11494384765625,-5.211326599121094,39.79859924316406,10.28793716430664
1776870448525982000,1.12498193359375,-5.40765380859375,39.501258850097656,11.262840270996094
1776870448536021000,1.13502099609375,-5.8655548095703125,39.43708801269531,11.986148834228516
1776870448546059000,1.14505908203125,-6.451774597167969,38.89640808105469,12.637042999267578
1776870448556098000,1.15509814453125,-7.7405242919921875,38.241920471191406,12.748600006103516
1776870448566136000,1.165135986328125,-8.392837524414062,37.82331085205078,13.692237854003906
1776870448576174000,1.175174072265625,-9.263259887695312,37.16034698486328,14.384544372558594
1776870448586213000,1.185213134765625,-9.832695007324219,36.39460754394531,15.636951446533203
1776870448596251100,1.195251220703125,-10.571632385253906,35.506439208984375,16.53765869140625
1776870448606290200,1.205290283203125,-11.031448364257812,34.909324645996094,17.734596252441406
1776870448616328000,1.215327880859375,-11.204414367675781,34.15093994140625,19.029083251953125
1776870448626366000,1.225365966796875,-11.978775024414062,33.32061767578125,19.565567016601562
1776870448636405000,1.235405029296875,-12.636100769042969,32.685264587402344,20.28411102294922
1776870448646443000,1.245443115234375,-12.653999328613281,31.771621704101562,21.352886199951172
1776870448656481000,1.25548095703125,-12.270332336425781,31.50299835205078,22.58404541015625
1776870448666520000,1.26552001953125,-12.057571411132812,31.0443115234375,23.540599822998047
1776870448676558000,1.27555810546875,-12.169174194335938,30.55463409423828,23.986560821533203
1776870448686597000,1.28559716796875,-12.116943359375,30.263771057128906,24.29471206665039
1776870448696635000,1.295634765625,-11.749122619628906,30.094161987304688,25.102325439453125
1776870448706673000,1.3056728515625,-12.644126892089844,29.87165069580078,24.65546417236328
1776870448716712000,1.3157119140625,-12.658599853515625,29.835586547851562,24.522686004638672
1776870448726750000,1.32575,-12.933761596679688,29.697128295898438,24.607284545898438
1776870448736789000,1.3357890625,-13.4046630859375,29.55023193359375,24.586639404296875
1776870448746827000,1.345826904296875,-14.126289367675781,29.68022918701172,23.707725524902344
1776870448756865000,1.355864990234375,-13.5322265625,29.943466186523438,24.344928741455078
1776870448766904000,1.365904052734375,-13.525192260742188,29.7496337890625,24.39749526977539
1776870448776942000,1.375942138671875,-13.242835998535156,29.82927703857422,24.792911529541016
1776870448786979800,1.385979736328125,-14.450057983398438,29.41962432861328,23.934768676757812
1776870448797019000,1.396018798828125,-14.32879638671875,29.64440155029297,24.396194458007812
1776870448807057000,1.406056884765625,-14.167221069335938,29.717971801757812,24.73851776123047
1776870448817096000,1.416095947265625,-14.424285888671875,29.678260803222656,24.633377075195312
1776870448827134000,1.426134033203125,-14.741195678710938,29.554962158203125,24.318119049072266
1776870448837172000,1.436171875,-14.811859130859375,29.662399291992188,24.174209594726562
1776870448847211000,1.4462109375,-15.588623046875,30.153213500976562,23.302051544189453
1776870448857249000,1.4562490234375,-16.404380798339844,30.196617126464844,22.42254638671875
1776870448867288000,1.4662880859375,-16.669334411621094,30.630477905273438,21.777278900146484
1776870448877326000,1.476326171875,-17.258644104003906,30.86974334716797,20.95174789428711
1776870448887363800,1.48636376953125,-18.221939086914062,30.936065673828125,19.744495391845703
1776870448897403000,1.49640283203125,-19.06641387939453,31.291336059570312,18.676677703857422
1776870448907441000,1.50644091796875,-20.01471710205078,31.455291748046875,17.54247283935547
1776870448917479000,1.51647900390625,-20.741409301757812,31.626113891601562,16.77756118774414
1776870448927518200,1.526518310546875,-21.586158752441406,31.517562866210938,15.840015411376953
1776870448937556000,1.536555908203125,-21.693099975585938,31.516860961914062,15.482379913330078
1776870448947595000,1.546594970703125,-22.150146484375,31.45928955078125,14.892486572265625
1776870448957633000,1.556633056640625,-22.669830322265625,31.45977020263672,14.54275894165039
1776870448967671000,1.566671142578125,-22.961807250976562,31.285629272460938,14.493675231933594
1776870448977710000,1.5767099609375,-23.66307830810547,30.940185546875,13.777851104736328
1776870448987747800,1.586747802734375,-24.324851989746094,30.55040740966797,13.345027923583984
1776870448997787000,1.596786865234375,-24.65814971923828,30.30145263671875,12.866744995117188
1776870449007825000,1.606824951171875,-24.799072265625,29.904754638671875,12.986774444580078
1776870449017863000,1.61686279296875,-25.511688232421875,29.590660095214844,12.813007354736328
1776870449027902200,1.626902099609375,-25.439308166503906,29.24254608154297,12.853282928466797
1776870449037940000,1.63693994140625,-24.85218048095703,29.33502960205078,13.499126434326172
1776870449047979000,1.64697900390625,-24.542770385742188,29.28882598876953,13.759101867675781
1776870449058017000,1.65701708984375,-23.993743896484375,29.708946228027344,13.853034973144531
1776870449068055000,1.667054931640625,-23.771896362304688,30.116653442382812,13.402664184570312
1776870449078094000,1.677093994140625,-23.098495483398438,30.39983367919922,13.057586669921875
1776870449088131800,1.6871318359375,-22.303939819335938,30.935867309570312,12.529808044433594
1776870449098171600,1.697171630859375,-22.43970489501953,31.21381378173828,11.669879913330078
1776870449108209700,1.707209716796875,-22.613258361816406,31.487342834472656,10.638290405273438
1776870449118247400,1.717247314453125,-22.51264190673828,31.71672821044922,9.702720642089844
1776870449128286700,1.72728662109375,-23.01972198486328,31.70404052734375,8.76791000366211
1776870449138324500,1.737324462890625,-23.07115936279297,31.928756713867188,7.924007415771484
1776870449148363500,1.747363525390625,-22.689537048339844,32.076385498046875,7.277301788330078
1776870449158401500,1.757401611328125,-22.564834594726562,32.62133026123047,6.26654052734375
1776870449168439600,1.767439453125,-22.03301239013672,33.04009246826172,5.443634033203125
1776870449178478600,1.777478515625,-21.493194580078125,33.42273712158203,4.612224578857422
1776870449188516600,1.7875166015625,-21.20952606201172,33.761138916015625,3.9017257690429688
1776870449198555600,1.7975556640625,-21.498687744140625,33.94409942626953,2.6958045959472656
1776870449208593700,1.80759375,-20.926673889160156,34.267906188964844,2.456707000732422
1776870449218631400,1.81763134765625,-21.01972198486328,34.213844299316406,1.8034172058105469
1776870449228670700,1.827670654296875,-20.940811157226562,34.07441711425781,1.4485816955566406
1776870449238708500,1.83770849609375,-21.10309600830078,33.87440490722656,1.2306365966796875
1776870449248747500,1.84774755859375,-21.675048828125,33.84728240966797,0.7901191711425781
1776870449258785500,1.85778564453125,-21.44518280029297,34.01141357421875,0.5519065856933594
1776870449268823600,1.867823486328125,-21.60894775390625,33.93219757080078,0.21573638916015625
1776870449278862600,1.877862548828125,-21.224044799804688,34.267539978027344,0.042446136474609375
1776870449288900600,1.887900634765625,-21.267532348632812,34.454261779785156,-0.599456787109375
1776870449298939600,1.897939697265625,-20.52165985107422,34.72509002685547,-0.8231925964355469
1776870449308977700,1.907977783203125,-20.06146240234375,34.956329345703125,-1.3537483215332031
1776870449319015400,1.918015380859375,-19.650413513183594,35.154205322265625,-2.114025115966797
1776870449329054700,1.9280546875,-19.898086547851562,35.25196838378906,-3.1463050842285156
1776870449339092500,1.938092529296875,-19.123428344726562,35.467071533203125,-4.030185699462891
1776870449349131500,1.948131591796875,-18.455734252929688,35.72087097167969,-5.222049713134766
1776870449359169500,1.95816943359375,-17.833297729492188,35.960792541503906,-6.513683319091797
1776870449369207600,1.96820751953125,-17.342681884765625,36.088844299316406,-8.019168853759766
1776870449379246600,1.97824658203125,-17.342681884765625,36.088844299316406,-8.019168853759766
1776870449389284600,1.98828466796875,-16.893753051757812,36.143760681152344,-9.308269500732422
1776870449399323600,1.99832373046875,-16.584762573242188,36.48900604248047,-10.192577362060547
1776870449409361700,2.008361572265625,-15.797554016113281,36.381858825683594,-10.872203826904297
1776870449419399400,2.0183994140625,-15.621665954589844,36.208168029785156,-12.039752960205078
1776870449429438500,2.0284384765625,-15.330665588378906,35.92997741699219,-13.397823333740234
1776870449439476500,2.0384765625,-15.338653564453125,35.46875762939453,-15.38821792602539
1776870449449515500,2.048515625,-14.9888916015625,34.77308654785156,-17.034587860107422
1776870449459553500,2.058553466796875,-14.259620666503906,34.07200622558594,-18.328304290771484
1776870449469591600,2.068591552734375,-14.383407592773438,33.16633605957031,-20.250591278076172
1776870449479630600,2.078630615234375,-14.708633422851562,32.13031005859375,-21.963924407958984
1776870449489668600,2.088668701171875,-14.699119567871094,31.10211181640625,-23.275203704833984
1776870449499707600,2.098707763671875,-14.660980224609375,30.097854614257812,-24.36880874633789
1776870449509745700,2.10874560546875,-14.525650024414062,29.5196533203125,-25.386837005615234
1776870449519783400,2.118783447265625,-14.608047485351562,29.009994506835938,-25.87081527709961
1776870449529822500,2.128822509765625,-14.36981201171875,28.828712463378906,-26.093189239501953
1776870449539860500,2.138860595703125,-14.364875793457031,28.638656616210938,-26.12900161743164
1776870449549899500,2.1488994140625,-14.547393798828125,28.546287536621094,-26.606327056884766
1776870449559937500,2.1589375,-14.185752868652344,28.51959991455078,-26.716045379638672
1776870449569975600,2.1689755859375,-14.117439270019531,28.59612274169922,-26.72915267944336
1776870449580014600,2.1790146484375,-14.280609130859375,28.342727661132812,-27.243694305419922
1776870449590052600,2.189052490234375,-13.77972412109375,28.29511260986328,-27.333202362060547
1776870449600091600,2.199091552734375,-13.724189758300781,28.140548706054688,-27.745349884033203
1776870449610129700,2.209129638671875,-13.46624755859375,28.059234619140625,-27.958133697509766
1776870449620168700,2.219168701171875,-13.106918334960938,28.2169189453125,-27.837726593017578
1776870449630206500,2.22920654296875,-13.399482727050781,28.139511108398438,-28.097492218017578
1776870449640244500,2.239244384765625,-13.144210815429688,28.032623291015625,-27.84725570678711
1776870449650283500,2.249283447265625,-13.258865356445312,28.07758331298828,-27.753032684326172
1776870449660321800,2.25932177734375,-13.466621398925781,27.993804931640625,-27.886821746826172
1776870449670360600,2.269360595703125,-14.038444519042969,27.777076721191406,-27.979000091552734
1776870449680398600,2.279398681640625,-13.777313232421875,27.961158752441406,-27.663806915283203
1776870449690436600,2.2894365234375,-13.611396789550781,27.92259979248047,-27.244586944580078
1776870449700475600,2.2994755859375,-13.591209411621094,27.799758911132812,-27.24405288696289
1776870449710513700,2.309513671875,-14.013519287109375,27.95098876953125,-27.29842758178711
1776870449720552700,2.319552734375,-14.251808166503906,28.07477569580078,-27.495960235595703
1776870449730590500,2.329590576171875,-14.206001281738281,28.115440368652344,-27.336566925048828
1776870449740628500,2.33962841796875,-13.834976196289062,28.11761474609375,-27.149555206298828
1776870449750667500,2.34966748046875,-14.358688354492188,27.992408752441406,-27.564983367919922
1776870449760705800,2.359705810546875,-14.222854614257812,27.87348175048828,-27.320056915283203
1776870449770744600,2.36974462890625,-14.209815979003906,28.06085968017578,-27.24782943725586
1776870449780782600,2.379782470703125,-14.025444030761719,27.969039916992188,-27.172962188720703
1776870449790820600,2.389820556640625,-13.943832397460938,27.845626831054688,-26.98440933227539
1776870449800859600,2.399859619140625,-14.505531311035156,27.873497009277344,-27.28897476196289
1776870449810897700,2.409897705078125,-14.801124572753906,27.873641967773438,-27.587032318115234
1776870449820936700,2.419936767578125,-14.982460021972656,27.895187377929688,-27.660884857177734
1776870449830974500,2.429974365234375,-15.138908386230469,27.916824340820312,-27.649944305419922
1776870449841012500,2.440012451171875,-14.945991516113281,28.009010314941406,-27.54166030883789
1776870449851051500,2.450051513671875,-15.126708984375,27.98084259033203,-27.68783950805664
1776870449861089800,2.46008984375,-15.362312316894531,27.794815063476562,-27.871379852294922
1776870449871128600,2.470128662109375,-15.105697631835938,27.747962951660156,-27.41311264038086
1776870449881166600,2.48016650390625,-15.411079406738281,27.784927368164062,-27.50833511352539
1776870449891205600,2.49020556640625,-15.506004333496094,27.693092346191406,-27.589244842529297
1776870449901243600,2.50024365234375,-16.181167602539062,27.77936553955078,-28.054126739501953
1776870449911281700,2.51028173828125,-15.412765502929688,27.805130004882812,-27.335399627685547
1776870449921320700,2.52032080078125,-14.957847595214844,27.81432342529297,-26.880107879638672
1776870449931358500,2.5303583984375,-15.421592712402344,27.70801544189453,-27.312389373779297
1776870449941397800,2.540397705078125,-15.701400756835938,27.682357788085938,-27.248035430908203
1776870449951435500,2.550435546875,-15.305549621582031,27.624984741210938,-26.95743179321289
1776870449961473800,2.560473876953125,-15.81671142578125,27.693740844726562,-27.246280670166016
1776870449971512600,2.5705126953125,-15.896705627441406,27.661895751953125,-27.051929473876953
1776870449981550600,2.580550537109375,-15.919837951660156,27.502410888671875,-26.713237762451172
1776870449991589600,2.590589599609375,-16.101272583007812,27.53814697265625,-26.95022201538086
1776870450001627600,2.600627685546875,-16.78992462158203,27.55461883544922,-27.214725494384766
1776870450011665700,2.610665771484375,-16.35143280029297,27.642745971679688,-26.769229888916016
1776870450021704700,2.62070458984375,-16.50263214111328,27.65240478515625,-26.59164047241211
1776870450031742500,2.630742431640625,-16.732131958007812,27.854644775390625,-26.76949691772461
1776870450041781800,2.64078173828125,-16.55071258544922,27.83734130859375,-26.476581573486328
1776870450051819500,2.650819580078125,-16.98131561279297,27.74395751953125,-26.619342803955078
1776870450061858600,2.660858642578125,-16.743507385253906,27.701431274414062,-26.26120376586914
1776870450071896600,2.670896484375,-17.122085571289062,27.591888427734375,-26.073619842529297
1776870450081934600,2.6809345703125,-17.44715118408203,27.542678833007812,-26.092510223388672
1776870450091973600,2.6909736328125,-17.725845336914062,27.487167358398438,-26.213008880615234
1776870450102011000,2.701010986328125,-18.000144958496094,27.421897888183594,-26.053577423095703
1776870450112050200,2.71105029296875,-17.721725463867188,27.594879150390625,-25.64798355102539
1776870450122088000,2.721087890625,-17.93140411376953,27.47606658935547,-25.774616241455078
1776870450132126200,2.731126220703125,-18.52825927734375,27.37652587890625,-25.90671157836914
1776870450142165000,2.7411650390625,-18.96782684326172,27.023818969726562,-26.091510772705078
1776870450152203000,2.751203125,-19.096099853515625,26.92681884765625,-26.180889129638672
1776870450162242000,2.761241943359375,-18.63115692138672,26.924331665039062,-25.708080291748047
1776870450172280000,2.771280029296875,-18.906661987304688,26.901580810546875,-25.807079315185547
1776870450182318800,2.78131884765625,-19.192222595214844,26.873001098632812,-26.101825714111328
1776870450192357000,2.791357177734375,-19.233169555664062,26.903785705566406,-26.177013397216797
1776870450202395000,2.801394775390625,-19.068023681640625,27.064613342285156,-26.182415008544922
1776870450212434200,2.81143408203125,-18.681076049804688,26.876548767089844,-26.004016876220703
1776870450222472000,2.821471923828125,-18.22362518310547,26.956466674804688,-25.555339813232422
1776870450232511000,2.831510986328125,-18.137298583984375,26.79388427734375,-25.576313018798828
1776870450242549000,2.841549072265625,-19.01392364501953,26.90186309814453,-26.194171905517578
1776870450252587000,2.8515869140625,-18.860862731933594,26.94231414794922,-26.094112396240234
1776870450262626000,2.8616259765625,-18.93335723876953,26.765243530273438,-25.91928482055664
1776870450272664000,2.8716640625,-19.012496948242188,26.725112915039062,-26.019207000732422
1776870450282702800,2.881702880859375,-19.240615844726562,26.833724975585938,-26.060100555419922
1776870450292741000,2.8917412109375,-18.761627197265625,26.762184143066406,-25.578807830810547
1776870450302780000,2.90177978515625,-18.315597534179688,26.768539428710938,-25.108226776123047
1776870450312818200,2.911818115234375,-18.455909729003906,26.751441955566406,-25.065013885498047
1776870450322856000,2.92185595703125,-19.09539794921875,26.9647216796875,-25.426929473876953
1776870450332895000,2.93189501953125,-19.000816345214844,26.797958374023438,-25.155925750732422
1776870450342933000,2.94193310546875,-19.126907348632812,26.699264526367188,-25.040470123291016
1776870450352972000,2.951971923828125,-19.461631774902344,26.610061645507812,-25.262950897216797
1776870450363010000,2.962010009765625,-19.716102600097656,26.649559020996094,-25.282024383544922
1776870450373048000,2.972048095703125,-19.209564208984375,26.6400146484375,-25.03311538696289
1776870450383086800,2.9820869140625,-19.887405395507812,26.43743896484375,-25.564823150634766
1776870450393125000,2.992125,-19.16443634033203,26.629798889160156,-25.154064178466797
1776870450403164000,3.002163818359375,-19.696937561035156,26.570472717285156,-25.35464096069336
1776870450413202000,3.012201904296875,-19.870941162109375,26.555580139160156,-25.43204116821289
1776870450423241000,3.022240966796875,-19.89507293701172,26.452957153320312,-25.640201568603516
1776870450433279000,3.032279052734375,-19.67308807373047,26.565017700195312,-25.43160629272461
1776870450443317000,3.04231689453125,-19.51757049560547,26.458389282226562,-25.090694427490234
1776870450453356000,3.05235595703125,-19.799522399902344,26.48101043701172,-25.077281951904297
1776870450463394000,3.06239404296875,-19.734298706054688,26.405685424804688,-24.804790496826172
1776870450473433000,3.07243310546875,-20.062538146972656,26.43250274658203,-25.001750946044922
1776870450483470800,3.082470947265625,-20.8245849609375,26.33277130126953,-25.240825653076172
1776870450493509000,3.092509033203125,-20.491073608398438,26.36608123779297,-24.765125274658203
1776870450503548000,3.1025478515625,-20.378067016601562,26.35418701171875,-24.443889617919922
1776870450513586000,3.1125859375,-21.26415252685547,26.48333740234375,-24.85372543334961
1776870450523625000,3.122625,-21.349388122558594,26.364715576171875,-24.88363265991211
1776870450533663000,3.1326630859375,-21.407676696777344,26.283973693847656,-24.97658920288086
1776870450543702000,3.142701904296875,-21.73809051513672,26.29125213623047,-25.083454132080078
1776870450553740000,3.152739990234375,-21.438514709472656,26.427490234375,-24.959186553955078
1776870450563778000,3.162778076171875,-21.277496337890625,26.5572509765625,-24.719173431396484
1776870450573817000,3.172817138671875,-21.61151885986328,26.412940979003906,-24.942752838134766
1776870450583854800,3.182854736328125,-21.596336364746094,26.46246337890625,-24.946727752685547
1776870450593894000,3.192893798828125,-20.896133422851562,26.508880615234375,-24.386920928955078
1776870450603932000,3.202931884765625,-21.16107940673828,26.451988220214844,-24.62380599975586
1776870450613971000,3.212970947265625,-21.322235107421875,26.46666717529297,-24.537960052490234
1776870450624009000,3.223009033203125,-21.20532989501953,26.43816375732422,-24.333934783935547
1776870450634047000,3.233046875,-21.41899871826172,26.40728759765625,-24.342334747314453
1776870450644086000,3.2430859375,-21.523345947265625,26.3114013671875,-24.48343276977539
1776870450654124000,3.2531240234375,-21.546470642089844,26.268936157226562,-24.42013168334961
1776870450664163000,3.2631630859375,-21.43860626220703,26.272262573242188,-24.503543853759766
1776870450674201000,3.273201171875,-21.530487060546875,26.431381225585938,-24.612300872802734
1776870450684240100,3.283240234375,-21.172096252441406,26.389793395996094,-24.15854263305664
1776870450694278000,3.29327783203125,-21.46509552001953,26.448501586914062,-24.272930145263672
1776870450704316000,3.30331591796875,-21.09130096435547,26.457473754882812,-24.088977813720703
1776870450714355000,3.31335498046875,-21.425933837890625,26.364646911621094,-24.20798110961914
1776870450724393200,3.323393310546875,-21.77667236328125,26.304428100585938,-24.587291717529297
1776870450734432000,3.333431884765625,-21.17369842529297,26.54784393310547,-24.197040557861328
1776870450744470000,3.343469970703125,-21.565231323242188,26.55987548828125,-24.192310333251953
1776870450754509000,3.353509033203125,-21.257522583007812,26.491592407226562,-23.997882843017578
1776870450764547000,3.363547119140625,-21.58880615234375,26.512901306152344,-24.110294342041016
1776870450774585000,3.373585205078125,-21.789512634277344,26.483169555664062,-24.20772933959961
1776870450784624000,3.3836240234375,-21.291053771972656,26.429519653320312,-23.97775650024414
1776870450794662000,3.393661865234375,-21.911476135253906,26.2896728515625,-24.340450286865234
1776870450804701200,3.403701171875,-21.969459533691406,26.481552124023438,-24.27242660522461
1776870450814739000,3.413739013671875,-21.57111358642578,26.33928680419922,-24.172405242919922
1776870450824777200,3.423777099609375,-22.670082092285156,26.16351318359375,-25.047557830810547
1776870450834816000,3.43381591796875,-21.97315216064453,26.35882568359375,-24.483646392822266
1776870450844854000,3.44385400390625,-21.817962646484375,26.456382751464844,-24.210132598876953
1776870450854893000,3.45389306640625,-22.089767456054688,26.416717529296875,-24.471973419189453
1776870450864931000,3.46393115234375,-22.015045166015625,26.57323455810547,-24.358020782470703
1776870450874969900,3.473969970703125,-21.747825622558594,26.551536560058594,-24.345073699951172
1776870450885008100,3.484008056640625,-21.556884765625,26.581146240234375,-24.121402740478516
1776870450895046000,3.4940458984375,-21.911331176757812,26.60437774658203,-24.339862823486328
1776870450905085200,3.504085205078125,-21.536903381347656,26.66228485107422,-23.996891021728516
1776870450915123000,3.514123046875,-21.795578002929688,26.634544372558594,-23.983867645263672
1776870450925162000,3.524161865234375,-22.210205078125,26.53917694091797,-24.43326187133789
1776870450935200000,3.534199951171875,-21.658546447753906,26.665565490722656,-24.265865325927734
1776870450945239000,3.544239013671875,-21.973297119140625,26.68311309814453,-24.261173248291016
1776870450955277000,3.554277099609375,-21.601524353027344,26.754844665527344,-23.875545501708984
1776870450965315000,3.564315185546875,-21.611480712890625,26.936058044433594,-23.996837615966797
1776870450975353900,3.574353759765625,-21.156784057617188,26.850364685058594,-23.62582778930664
1776870450985392000,3.58439208984375,-21.5562744140625,26.86066436767578,-24.02401351928711
1776870450995431000,3.594430908203125,-21.584190368652344,26.80987548828125,-23.820064544677734
1776870451005469200,3.60446923828125,-21.7862548828125,26.84417724609375,-24.110126495361328
1776870451015508000,3.614508056640625,-21.735000610351562,26.96319580078125,-23.99892807006836
1776870451025546000,3.6245458984375,-21.34710693359375,26.86322784423828,-23.767642974853516
1776870451035584000,3.634583984375,-21.6370849609375,26.807106018066406,-23.921894073486328
1776870451045623000,3.644623046875,-21.78460693359375,26.918663024902344,-24.100292205810547
1776870451055661000,3.6546611328125,-21.486122131347656,26.718292236328125,-23.73825454711914
1776870451065700000,3.6647001953125,-21.42729949951172,26.814353942871094,-23.628070831298828
1776870451075737900,3.67473779296875,-21.355186462402344,26.813377380371094,-23.43741226196289
1776870451085777200,3.684777099609375,-21.27105712890625,26.787765502929688,-23.49808120727539
1776870451095814700,3.694814697265625,-21.67589569091797,26.784591674804688,-23.67947006225586
1776870451105852700,3.704852783203125,-21.319015502929688,26.832542419433594,-23.39883804321289
1776870451115891700,3.7148916015625,-21.415199279785156,26.7801513671875,-23.38546371459961
1776870451125929700,3.7249296875,-21.850799560546875,26.681053161621094,-23.676868438720703
1776870451135968800,3.73496875,-21.850799560546875,26.681053161621094,-23.676868438720703
1776870451146006800,3.7450068359375,-21.812049865722656,26.633399963378906,-23.60128402709961
1776870451156045600,3.755045654296875,-22.20549774169922,26.817359924316406,-24.022632598876953
1776870451166083800,3.765083740234375,-22.000473022460938,26.88416290283203,-23.882709503173828
1776870451176121600,3.77512158203125,-21.709503173828125,26.82677459716797,-23.730464935302734
1776870451186161000,3.785160888671875,-22.037094116210938,26.862693786621094,-23.952312469482422
1776870451196198700,3.79519873046875,-22.37879180908203,27.026123046875,-24.320812225341797
1776870451206237700,3.80523779296875,-22.111122131347656,27.04193115234375,-24.163494110107422
1776870451216275700,3.815275634765625,-21.64136505126953,27.087570190429688,-23.84445571899414
1776870451226314800,3.825314697265625,-21.84442138671875,27.053268432617188,-23.991840362548828
1776870451236352800,3.835352783203125,-22.272445678710938,26.77997589111328,-24.067684173583984
1776870451246390800,3.845390869140625,-21.746826171875,26.81549835205078,-23.759517669677734
1776870451256429600,3.8554296875,-21.71057891845703,26.79071044921875,-23.71402359008789
1776870451266467800,3.8654677734375,-21.880035400390625,26.77802276611328,-23.743671417236328
1776870451276506600,3.875506591796875,-21.454063415527344,26.604843139648438,-23.350109100341797
1776870451286545000,3.885544921875,-21.20624542236328,26.74431610107422,-23.251224517822266
1776870451296583700,3.895583740234375,-21.769195556640625,26.62713623046875,-23.71633529663086
1776870451306621700,3.90562158203125,-21.59381103515625,26.605140686035156,-23.56564712524414
1776870451316659700,3.91565966796875,-21.77764892578125,26.633224487304688,-23.651371002197266
1776870451326698800,3.92569873046875,-21.531158447265625,26.742660522460938,-23.259990692138672
1776870451336736800,3.93573681640625,-22.026954650878906,26.8350830078125,-23.59262466430664
1776870451346775800,3.94577587890625,-21.964027404785156,26.63848876953125,-23.445377349853516
1776870451356813600,3.9558134765625,-22.099319458007812,26.71752166748047,-23.639995574951172
1776870451366852900,3.965852783203125,-22.34107208251953,26.833999633789062,-23.796504974365234
1776870451376890600,3.975890625,-22.291534423828125,26.676483154296875,-23.631649017333984
1776870451386929000,3.985928955078125,-22.020912170410156,26.84502410888672,-23.37894058227539
1776870451396967700,3.9959677734375,-22.091323852539062,26.942588806152344,-23.30044174194336
1776870451407005700,4.006005615234375,-22.45610809326172,26.758995056152344,-23.56784439086914
1776870451417044700,4.016044677734375,-22.652320861816406,26.816192626953125,-23.50216293334961
1776870451427082800,4.026082763671875,-23.13440704345703,26.793556213378906,-23.616680145263672
1776870451437121500,4.03612158203125,-22.9466552734375,26.897010803222656,-23.254474639892578
1776870451447159800,4.046159912109375,-23.282447814941406,26.891143798828125,-23.388675689697266
1776870451457198600,4.056198486328125,-22.81291961669922,26.763504028320312,-22.82217025756836
1776870451467236900,4.06623681640625,-23.109375,26.656723022460938,-22.606311798095703
1776870451477274600,4.076274658203125,-23.835128784179688,26.661590576171875,-22.75406265258789
1776870451487313700,4.086313720703125,-23.953277587890625,26.624526977539062,-22.513568878173828
1776870451497351700,4.0963515625,-24.11121368408203,26.71233367919922,-22.27139663696289
1776870451507390700,4.106390625,-24.27741241455078,26.612701416015625,-21.876720428466797
1776870451517428700,4.1164287109375,-24.5579833984375,26.586669921875,-21.80074691772461
1776870451527467800,4.1264677734375,-25.010040283203125,26.397201538085938,-21.885189056396484
1776870451537505500,4.136505615234375,-25.045989990234375,26.282875061035156,-21.632427215576172
1776870451547543800,4.146543701171875,-25.16998291015625,26.243362426757812,-21.250385284423828
1776870451557582600,4.15658251953125,-25.514549255371094,26.157081604003906,-21.238040924072266
1776870451567620900,4.166620849609375,-26.090911865234375,26.03173828125,-21.254894256591797
1776870451577659600,4.17665966796875,-25.733932495117188,26.21905517578125,-20.92508316040039
1776870451587697700,4.18669775390625,-26.252418518066406,25.967681884765625,-20.989681243896484
1776870451597737000,4.196737060546875,-26.495941162109375,25.97399139404297,-20.58987808227539
1776870451607774700,4.206774658203125,-26.555557250976562,25.94438934326172,-20.051097869873047
1776870451617812700,4.216812744140625,-26.916259765625,25.986358642578125,-19.790531158447266
1776870451627851800,4.226851806640625,-26.831100463867188,25.814605712890625,-19.42391586303711
1776870451637889500,4.2368896484375,-26.940841674804688,25.791542053222656,-19.330204010009766
1776870451647928800,4.2469287109375,-27.163360595703125,25.69091033935547,-18.993663787841797
1776870451657966600,4.256966552734375,-27.207015991210938,25.761215209960938,-18.501239776611328
1776870451668005600,4.267005615234375,-27.517005920410156,25.69756317138672,-18.316082000732422
1776870451678043600,4.277043701171875,-28.77044677734375,25.64240264892578,-18.616474151611328
1776870451688082700,4.287082763671875,-28.36772918701172,25.679542541503906,-17.807292938232422
1776870451698121000,4.297120849609375,-28.34857940673828,25.685867309570312,-17.49337387084961
1776870451708158700,4.30715869140625,-28.64293670654297,25.858657836914062,-17.279491424560547
1776870451718197800,4.31719775390625,-28.948326110839844,25.828201293945312,-17.075458526611328
1776870451728235800,4.32723583984375,-28.82178497314453,25.78594207763672,-16.82608413696289
1776870451738274800,4.33727490234375,-29.109603881835938,25.84137725830078,-16.63668441772461
1776870451748312800,4.347312744140625,-29.051353454589844,25.77813720703125,-16.144969940185547
1776870451758352000,4.357351806640625,-29.187759399414062,25.878433227539062,-16.004444122314453
1776870451768389600,4.3673896484375,-29.51097869873047,25.8157958984375,-16.03653335571289
1776870451778428000,4.377427978515625,-29.30438995361328,25.907264709472656,-15.902225494384766
1776870451788466700,4.387466796875,-28.888526916503906,26.05328369140625,-15.72213363647461
1776870451798504700,4.397504638671875,-29.863731384277344,26.017318725585938,-16.477909088134766
1776870451808543700,4.407543701171875,-29.42028045654297,26.083786010742188,-16.43161392211914
1776870451818581800,4.417581787109375,-29.288185119628906,26.30976104736328,-16.505382537841797
1776870451828620800,4.427620849609375,-29.135292053222656,26.221664428710938,-16.547161102294922
1776870451838658800,4.437658935546875,-28.849273681640625,26.482872009277344,-16.73605728149414
1776870451848697600,4.447697509765625,-28.57366180419922,26.82390594482422,-16.75900650024414
1776870451858735900,4.45773583984375,-28.436920166015625,26.857398986816406,-16.859378814697266
1776870451868773600,4.467773681640625,-28.250709533691406,26.99004364013672,-16.94942855834961
1776870451878812700,4.477812744140625,-27.559967041015625,27.38897705078125,-17.003948211669922
1776870451888850700,4.4878505859375,-26.93854522705078,27.80181121826172,-16.78091812133789
1776870451898889700,4.4978896484375,-26.872406005859375,27.9630126953125,-16.949535369873047
1776870451908927700,4.507927734375,-26.42504119873047,28.128753662109375,-16.983837127685547
1776870451918966800,4.517966796875,-26.06792449951172,28.202468872070312,-17.195545196533203
1776870451929004500,4.528004638671875,-25.557456970214844,28.23596954345703,-17.31717300415039
1776870451939043800,4.5380439453125,-24.898666381835938,28.506317138671875,-17.344219207763672
1776870451949081600,4.54808154296875,-24.86431121826172,28.891761779785156,-17.772144317626953
1776870451959120000,4.558119873046875,-24.824928283691406,29.02513885498047,-18.100093841552734
1776870451969158700,4.56815869140625,-24.851158142089844,29.119918823242188,-18.575809478759766
1776870451979196700,4.57819677734375,-24.196327209472656,29.25811767578125,-18.443309783935547
1776870451989235700,4.588235595703125,-24.204910278320312,29.425140380859375,-18.802486419677734
1776870451999273700,4.598273681640625,-26.292938232421875,29.352867126464844,-20.528385162353516
1776870452009312500,4.6083125,-24.182540893554688,29.39666748046875,-18.898242950439453
1776870452019350800,4.618350830078125,-25.953445434570312,29.263031005859375,-20.34310531616211
1776870452029388500,4.628388427734375,-24.59117889404297,29.25482940673828,-19.301082611083984
1776870452039427800,4.638427734375,-24.756881713867188,29.151763916015625,-19.258296966552734
1776870452049465600,4.648465576171875,-23.721458435058594,29.219520568847656,-18.728939056396484
1776870452059504600,4.658504638671875,-23.0780029296875,29.280357360839844,-18.33273696899414
1776870452069542700,4.668542724609375,-22.87413787841797,29.115135192871094,-18.52676010131836
1776870452079581700,4.678581787109375,-23.017105102539062,29.189666748046875,-18.873348236083984
1776870452089619700,4.68861962890625,-22.6414794921875,29.021942138671875,-18.94943618774414
1776870452099659300,4.6986591796875,-22.590957641601562,29.058914184570312,-19.499950408935547
1776870452109697000,4.708697021484375,-22.071861267089844,29.12755584716797,-19.610843658447266
1776870452119736300,4.718736328125,-21.463829040527344,29.171478271484375,-19.753665924072266
1776870452129774000,4.728774169921875,-21.3814697265625,29.269569396972656,-20.073322296142578
1776870452139812400,4.738812255859375,-21.123870849609375,29.399330139160156,-20.175601959228516
1776870452149851100,4.74885107421875,-21.0897216796875,29.475051879882812,-20.42245864868164
1776870452159889200,4.75888916015625,-21.042526245117188,29.41742706298828,-20.595325469970703
1776870452169928200,4.76892822265625,-20.626564025878906,29.554603576660156,-20.094463348388672
1776870452179966200,4.77896630859375,-20.605758666992188,29.517898559570312,-20.06668472290039
1776870452190005000,4.7890048828125,-20.28192901611328,29.64862060546875,-19.874286651611328
1776870452200043300,4.799043212890625,-20.279388427734375,29.747817993164062,-19.823284149169922
1776870452210081000,4.8090810546875,-19.817733764648438,29.63188934326172,-19.568172454833984
1776870452220120000,4.8191201171875,-19.71038818359375,29.601341247558594,-19.836780548095703
1776870452230158000,4.829157958984375,-19.56885528564453,29.803367614746094,-19.94686508178711
1776870452240197000,4.839197021484375,-19.445480346679688,29.91363525390625,-20.17684555053711
1776870452250235100,4.849235107421875,-18.921432495117188,29.966392517089844,-20.25815200805664
1776870452260274200,4.859274169921875,-18.879058837890625,29.754409790039062,-20.57419204711914
1776870452270312200,4.869312255859375,-19.0404052734375,29.724815368652344,-20.574771881103516
1776870452280351200,4.879351318359375,-19.247528076171875,29.657493591308594,-20.58138656616211
1776870452290389000,4.889388916015625,-19.00965118408203,29.741058349609375,-20.46761703491211
1776870452300428000,4.899427978515625,-18.52623748779297,29.836013793945312,-20.263065338134766
1776870452310466000,4.909466064453125,-17.86932373046875,29.834617614746094,-19.834362030029297
1776870452320504000,4.919504150390625,-17.54009246826172,29.828880310058594,-19.721820831298828
1776870452330543000,4.929543212890625,-18.16363525390625,29.77385711669922,-20.433422088623047
1776870452340581000,4.9395810546875,-17.82201385498047,30.001983642578125,-20.446720123291016
1776870452350620000,4.949619873046875,-17.77300262451172,29.983123779296875,-20.399150848388672
1776870452360658200,4.959658203125,-17.703170776367188,30.041259765625,-20.495967864990234
1776870452370697000,4.969697021484375,-17.64073944091797,29.910614013671875,-20.71126937866211
1776870452380735200,4.9797353515625,-17.923385620117188,29.897201538085938,-21.009532928466797
1776870452390774300,4.989774169921875,-17.713966369628906,29.999465942382812,-20.907154083251953
1776870452400812000,4.99981201171875,-17.71459197998047,30.112274169921875,-20.90573501586914
1776870452410850000,5.00985009765625,-17.610519409179688,30.3193359375,-20.753902435302734
1776870452420889000,5.01988916015625,-17.487274169921875,30.277755737304688,-20.519542694091797
1776870452430927000,5.029927001953125,-17.595291137695312,30.24785614013672,-20.530040740966797
1776870452440966100,5.039966064453125,-17.376869201660156,30.049407958984375,-20.41696548461914
1776870452451004000,5.05000390625,-17.067588806152344,30.211814880371094,-20.450923919677734
1776870452461043200,5.060043212890625,-17.127891540527344,30.077835083007812,-20.696575164794922
1776870452471081000,5.0700810546875,-16.698699951171875,30.041854858398438,-20.553966522216797
1776870452481120000,5.0801201171875,-16.691612243652344,29.986541748046875,-20.579570770263672
1776870452491158300,5.090158203125,-16.3037109375,29.77960968017578,-20.670909881591797
1776870452501197000,5.100197021484375,-16.60179901123047,29.803688049316406,-21.005664825439453
1776870452511235300,5.1102353515625,-16.189247131347656,29.849899291992188,-20.615230560302734
1776870452521274000,5.120274169921875,-16.283103942871094,29.862586975097656,-20.758594512939453
1776870452531312000,5.13031201171875,-16.509567260742188,29.74144744873047,-20.972850799560547
1776870452541350100,5.14035009765625,-16.172096252441406,29.517982482910156,-20.63760757446289
1776870452551389200,5.15038916015625,-15.8331298828125,29.42890167236328,-20.431079864501953
1776870452561427200,5.16042724609375,-15.834617614746094,29.607513427734375,-20.50748062133789
1776870452571466200,5.17046630859375,-16.061264038085938,29.523887634277344,-20.611583709716797
1776870452581504000,5.18050390625,-15.824592590332031,29.351211547851562,-20.707561492919922
1776870452591543300,5.190543212890625,-15.666290283203125,29.310691833496094,-20.713268280029297
1776870452601581000,5.2005810546875,-16.05828094482422,29.06616973876953,-21.01375961303711
1776870452611620000,5.2106201171875,-15.546493530273438,28.94318389892578,-20.81430435180664
1776870452621658000,5.220658203125,-15.128936767578125,28.9217529296875,-20.675823211669922
1776870452631697200,5.230697265625,-15.276901245117188,28.7901611328125,-21.040531158447266
1776870452641735200,5.240735107421875,-14.819252014160156,28.739227294921875,-20.713367462158203
1776870452651773200,5.250773193359375,-14.664093017578125,28.589157104492188,-20.628475189208984
1776870452661812000,5.26081201171875,-14.48565673828125,28.211944580078125,-20.425716400146484
1776870452671850200,5.270850341796875,-15.575569152832031,27.998733520507812,-21.392650604248047
1776870452681889000,5.280888916015625,-15.087448120117188,27.809364318847656,-21.043071746826172
1776870452691927300,5.29092724609375,-14.740676879882812,27.60572052001953,-20.819278717041016
1776870452701966000,5.300966064453125,-14.462638854980469,27.506332397460938,-20.755191802978516
1776870452712004000,5.311004150390625,-14.526641845703125,27.288787841796875,-20.78427505493164
1776870452722043100,5.321043212890625,-14.51220703125,27.17707061767578,-21.14480972290039
1776870452732081200,5.3310810546875,-15.083839416503906,26.91620635986328,-21.699176788330078
1776870452742120000,5.341119873046875,-14.43939208984375,26.553672790527344,-21.141193389892578
1776870452752158200,5.351158203125,-13.750686645507812,26.49657440185547,-20.731212615966797
1776870452762196000,5.361196044921875,-13.764907836914062,26.14435577392578,-20.532466888427734
1776870452772235300,5.3712353515625,-13.073776245117188,25.897506713867188,-20.085895538330078
1776870452782273000,5.38127294921875,-12.846458435058594,25.744102478027344,-19.757915496826172
1776870452792312000,5.39131201171875,-11.768699645996094,25.711524963378906,-19.06698226928711
1776870452802350000,5.40135009765625,-12.135452270507812,25.463302612304688,-19.349796295166016
1776870452812389000,5.41138916015625,-13.119575500488281,24.91278839111328,-20.139087677001953
1776870452822427100,5.42142724609375,-11.612686157226562,24.914138793945312,-18.702381134033203
1776870452832466200,5.431466064453125,-12.830024719238281,24.57489013671875,-19.269489288330078
1776870452842504000,5.44150390625,-11.844802856445312,24.46184539794922,-17.984188079833984
1776870452852543200,5.451543212890625,-11.922828674316406,24.17743682861328,-17.35806655883789
1776870452862581200,5.461581298828125,-12.515068054199219,24.122787475585938,-17.378917694091797
1776870452872620000,5.4716201171875,-12.328773498535156,23.913345336914062,-16.963397979736328
1776870452882658300,5.481658203125,-12.328773498535156,23.913345336914062,-16.963397979736328
1776870452892696000,5.491696044921875,-12.164054870605469,23.657920837402344,-16.402652740478516
1776870452902735400,5.5017353515625,-12.219192504882812,23.482200622558594,-16.006847381591797
1776870452912773000,5.511773193359375,-12.314262390136719,23.349685668945312,-15.589885711669922
1776870452922812200,5.521812255859375,-12.179801940917969,22.95630645751953,-14.98318099975586
1776870452932850200,5.53185009765625,-11.894187927246094,22.6683349609375,-14.42074203491211
1776870452942889200,5.54188916015625,-12.007438659667969,22.21668243408203,-14.330036163330078
1776870452952927200,5.55192724609375,-12.41143798828125,22.0556640625,-14.721088409423828
1776870452962966300,5.56196630859375,-13.126594543457031,21.586692810058594,-15.357913970947266
1776870452973004000,5.572004150390625,-12.884315490722656,21.07775115966797,-15.080440521240234
1776870452983043000,5.58204296875,-13.235115051269531,20.825660705566406,-15.495441436767578
1776870452993081000,5.5920810546875,-13.385589599609375,20.517822265625,-15.563129425048828
1776870453003120000,5.6021201171875,-12.850997924804688,20.231903076171875,-15.356555938720703
1776870453013158100,5.612158203125,-13.015083312988281,19.917686462402344,-15.306476593017578
1776870453023196200,5.622196044921875,-13.3331298828125,19.42823028564453,-15.641277313232422
1776870453033235200,5.632235107421875,-13.367469787597656,19.180191040039062,-15.488811492919922
1776870453043273200,5.642273193359375,-13.749031066894531,18.83880615234375,-15.449901580810547
1776870453053312000,5.65231201171875,-14.135086059570312,18.537582397460938,-15.528446197509766
1776870453063350300,5.662350341796875,-14.940498352050781,18.330421447753906,-15.53232192993164
1776870453073389000,5.67238916015625,-14.830162048339844,18.13536834716797,-14.915653228759766
1776870453083427000,5.682427001953125,-14.989669799804688,18.06749725341797,-14.920825958251953
1776870453093466000,5.692466064453125,-15.515846252441406,17.850143432617188,-15.072437286376953
1776870453103504000,5.70250390625,-15.704025268554688,17.633331298828125,-15.101428985595703
1776870453113543000,5.71254296875,-16.115440368652344,17.390060424804688,-15.195117950439453
1776870453123581000,5.722580810546875,-16.769058227539062,17.02068328857422,-15.536151885986328
1776870453133619700,5.73261962890625,-16.46154022216797,16.93218994140625,-15.073490142822266
1776870453143658000,5.742657958984375,-16.859939575195312,16.809295654296875,-15.23409652709961
1776870453153696800,5.75269677734375,-17.24494171142578,16.636459350585938,-15.290210723876953
1776870453163735000,5.762735107421875,-17.936134338378906,16.166053771972656,-15.578739166259766
1776870453173772800,5.772772705078125,-18.213890075683594,16.030364990234375,-15.456851959228516
1776870453183811800,5.782811767578125,-17.933982849121094,16.024208068847656,-14.764049530029297
1776870453193849900,5.792849853515625,-18.318321228027344,15.845291137695312,-14.68735122680664
1776870453203889000,5.802888916015625,-18.637977600097656,15.657066345214844,-14.761882781982422
1776870453213927000,5.812927001953125,-18.456085205078125,15.777671813964844,-14.372577667236328
1776870453223966000,5.822966064453125,-19.898452758789062,15.556167602539062,-15.448863983154297
1776870453234003700,5.833003662109375,-20.041275024414062,15.425308227539062,-15.008617401123047
1776870453244042800,5.843042724609375,-20.230239868164062,15.261177062988281,-14.957286834716797
1776870453254080800,5.853080810546875,-20.419410705566406,15.227836608886719,-14.590496063232422
1776870453264119800,5.863119873046875,-20.48912811279297,15.335372924804688,-14.72323226928711
1776870453274158000,5.873157958984375,-20.594497680664062,15.352775573730469,-14.59408187866211
1776870453284196900,5.88319677734375,-21.006332397460938,15.273963928222656,-14.859691619873047
1776870453294235000,5.89323486328125,-21.328651428222656,15.066543579101562,-15.294414520263672
1776870453304274000,5.90327392578125,-20.709922790527344,14.868690490722656,-15.350536346435547
1776870453314312000,5.91331201171875,-20.70354461669922,14.745399475097656,-15.808467864990234
1776870453324350000,5.923349853515625,-20.741531372070312,14.5008544921875,-16.179264068603516
1776870453334389000,5.933388916015625,-20.44561767578125,14.504066467285156,-15.825969696044922
1776870453344426800,5.9434267578125,-20.48957061767578,14.327995300292969,-15.949390411376953
1776870453354466000,5.953466064453125,-21.03912353515625,14.093986511230469,-15.88082504272461
1776870453364503800,5.96350390625,-20.651870727539062,14.343597412109375,-15.223979949951172
1776870453374542800,5.97354296875,-20.54296875,14.53985595703125,-14.72646713256836
1776870453384580900,5.983580810546875,-20.325233459472656,14.788925170898438,-14.29739761352539
1776870453394620000,5.993619873046875,-20.96623992919922,14.810951232910156,-14.517826080322266
1776870453404658000,6.003657958984375,-20.686378479003906,14.816658020019531,-14.145320892333984
1776870453414697000,6.013697021484375,-20.350296020507812,14.871170043945312,-13.964794158935547
1776870453424734700,6.023734619140625,-20.476531982421875,14.714561462402344,-14.40121078491211
1776870453434774000,6.03377392578125,-19.96318817138672,14.9566650390625,-14.43563461303711
1776870453444811800,6.043811767578125,-19.601303100585938,14.903175354003906,-14.390094757080078
1776870453454850000,6.05385009765625,-19.467697143554688,15.041999816894531,-14.610050201416016
1776870453464888800,6.063888916015625,-18.62017059326172,15.140533447265625,-14.14486312866211
1776870453474926800,6.0739267578125,-18.33588409423828,15.200569152832031,-14.303836822509766
1776870453484966000,6.0839658203125,-18.544639587402344,15.376091003417969,-14.549259185791016
1776870453495004000,6.09400390625,-18.60327911376953,15.447586059570312,-14.60219955444336
1776870453505042700,6.104042724609375,-18.14288330078125,15.514137268066406,-14.546588897705078
1776870453515081000,6.1140810546875,-17.46356201171875,15.612869262695312,-14.144390106201172
1776870453525119700,6.12411962890625,-17.2242431640625,15.774772644042969,-14.261905670166016
1776870453535158000,6.134157958984375,-16.8095703125,15.89117431640625,-14.397327423095703
1776870453545196800,6.14419677734375,-16.455078125,15.864006042480469,-14.78335952758789
1776870453555234800,6.15423486328125,-16.818763732910156,15.990409851074219,-15.471973419189453
1776870453565274000,6.164274169921875,-16.003761291503906,16.40460968017578,-15.410648345947266
1776870453575312000,6.174311767578125,-16.211288452148438,16.61711883544922,-16.025821685791016
1776870453585351000,6.184350830078125,-15.38140869140625,16.793594360351562,-15.847148895263672
1776870453595389000,6.194388916015625,-15.3681640625,17.03551483154297,-16.370227813720703
1776870453605428000,6.204427978515625,-15.146354675292969,17.174461364746094,-16.501262664794922
1776870453615466000,6.214466064453125,-16.0533447265625,17.19721221923828,-17.549358367919922
1776870453625503700,6.224503662109375,-15.572021484375,17.498512268066406,-17.40414810180664
1776870453635542800,6.234542724609375,-14.648727416992188,17.664344787597656,-16.853565216064453
1776870453645580800,6.244580810546875,-15.809364318847656,17.696670532226562,-18.274906158447266
1776870453655619800,6.254619873046875,-15.423583984375,17.95354461669922,-18.409290313720703
1776870453665658000,6.264658203125,-14.321365356445312,18.355087280273438,-17.794055938720703
1776870453675697000,6.27469677734375,-15.503623962402344,18.538368225097656,-19.041004180908203
1776870453685735000,6.28473486328125,-13.437911987304688,19.081993103027344,-17.740177154541016
1776870453695774000,6.29477392578125,-14.353736877441406,19.241798400878906,-18.742137908935547
1776870453705812000,6.30481201171875,-13.752899169921875,19.723831176757812,-18.573040008544922
1776870453715850800,6.314850830078125,-12.895439147949219,20.08368682861328,-18.05794906616211
1776870453725889000,6.324888916015625,-13.515960693359375,20.305068969726562,-19.124935150146484
1776870453735927800,6.334927734375,-12.482421875,20.776473999023438,-18.589282989501953
1776870453745966000,6.344966064453125,-12.503082275390625,21.041336059570312,-19.014278411865234
1776870453756004900,6.3550048828125,-11.569976806640625,21.45672607421875,-18.399158477783203
1776870453766043000,6.36504296875,-11.371856689453125,21.944007873535156,-18.663806915283203
1776870453776082000,6.37508203125,-11.2532958984375,22.12970733642578,-18.618701934814453
1776870453786120000,6.385119873046875,-11.620986938476562,22.53002166748047,-19.222652435302734
1776870453796158700,6.39515869140625,-11.524803161621094,22.861083984375,-19.005168914794922
1776870453806197000,6.405197021484375,-11.312553405761719,23.1805419921875,-18.977527618408203
1776870453816234800,6.41523486328125,-11.469917297363281,23.658355712890625,-19.09096908569336
1776870453826273800,6.425273681640625,-11.706291198730469,24.000091552734375,-19.106739044189453
1776870453836311800,6.435311767578125,-12.216110229492188,24.471389770507812,-19.37807846069336
1776870453846350800,6.445350830078125,-12.679229736328125,24.65666961669922,-19.387874603271484
1776870453856388900,6.455388916015625,-13.016868591308594,24.990234375,-19.55984115600586
1776870453866428000,6.465427978515625,-13.304351806640625,25.38330841064453,-19.54732894897461
1776870453876466000,6.4754658203125,-13.505332946777344,25.581260681152344,-19.26760482788086
1776870453886505000,6.4855048828125,-14.268096923828125,25.7298583984375,-19.781688690185547
1776870453896542700,6.495542724609375,-14.23529052734375,26.00444793701172,-19.548145294189453
1776870453906581800,6.505581787109375,-14.445396423339844,26.31897735595703,-19.531856536865234
1776870453916619800,6.515619873046875,-15.167594909667969,26.618896484375,-20.026172637939453
1776870453926658800,6.525658935546875,-15.526847839355469,26.826438903808594,-20.181636810302734
1776870453936696800,6.53569677734375,-15.5872802734375,26.729293823242188,-20.34970474243164
1776870453946735900,6.54573583984375,-15.982322692871094,26.740310668945312,-20.938030242919922
1776870453956774000,6.55577392578125,-15.697341918945312,27.00159454345703,-20.990489959716797
1776870453966813000,6.56581298828125,-16.071090698242188,27.01618194580078,-21.792964935302734
1776870453976851000,6.575850830078125,-16.59406280517578,26.998306274414062,-22.681652069091797
1776870453986889000,6.585888916015625,-16.465354919433594,27.063461303710938,-23.01461410522461
1776870453996928000,6.595927978515625,-16.50409698486328,27.210289001464844,-23.339427947998047
1776870454006965800,6.6059658203125,-17.462326049804688,27.093154907226562,-24.443119049072266
1776870454017005000,6.616005126953125,-17.87352752685547,27.107574462890625,-24.872333526611328
1776870454027042800,6.626042724609375,-17.261497497558594,27.14836883544922,-24.435749053955078
1776870454037081900,6.636081787109375,-17.014076232910156,27.20024871826172,-24.537105560302734
1776870454047120000,6.646119873046875,-17.25799560546875,27.0047607421875,-24.749942779541016
1776870454057159000,6.656158935546875,-17.20177459716797,27.2012939453125,-24.848888397216797
1776870454067197000,6.666197021484375,-16.971435546875,27.192604064941406,-25.16562271118164
1776870454077236000,6.676236083984375,-17.216583251953125,27.327880859375,-25.688106536865234
1776870454087273700,6.686273681640625,-17.31793212890625,27.603805541992188,-26.10665512084961
1776870454097313000,6.69631298828125,-16.967063903808594,27.746803283691406,-26.284900665283203
1776870454107351300,6.706351318359375,-14.987281799316406,27.933135986328125,-24.802257537841797
1776870454117390000,6.71639013671875,-14.560478210449219,28.051422119140625,-24.307323455810547
1776870454127428400,6.726428466796875,-15.445175170898438,28.102134704589844,-24.80643081665039
1776870454137467100,6.736467041015625,-15.790267944335938,28.186447143554688,-25.112262725830078
1776870454147505400,6.74650537109375,-15.496795654296875,28.221145629882812,-24.78988265991211
1776870454157544200,6.756544189453125,-14.851959228515625,28.32434844970703,-24.501354217529297
1776870454167582200,6.766582275390625,-15.084396362304688,28.199554443359375,-24.877506256103516
1776870454177621200,6.776621337890625,-15.658660888671875,28.275146484375,-25.56473159790039
1776870454187659300,6.7866591796875,-15.351577758789062,28.28216552734375,-25.526439666748047
1776870454197698000,6.796697998046875,-15.415519714355469,28.25096893310547,-25.708072662353516
1776870454207736300,6.806736328125,-14.91815185546875,28.255638122558594,-25.739978790283203
1776870454217774000,6.816774169921875,-15.57537841796875,28.094589233398438,-26.20560073852539
1776870454227813000,6.826813232421875,-14.373741149902344,28.370033264160156,-25.289936065673828
1776870454237851100,6.83685107421875,-14.149002075195312,28.390419006347656,-25.091938018798828
1776870454247890200,6.84689013671875,-13.431266784667969,28.49358367919922,-24.901172637939453
1776870454257928200,6.85692822265625,-13.383277893066406,28.257827758789062,-25.049793243408203
1776870454267967200,6.86696728515625,-13.503700256347656,28.022926330566406,-25.10262680053711
1776870454278005200,6.877005126953125,-13.474784851074219,28.042884826660156,-25.22092056274414
1776870454288044300,6.887044189453125,-13.397323608398438,27.787818908691406,-25.577411651611328
1776870454298082000,6.89708203125,-13.241523742675781,27.718727111816406,-25.69143295288086
1776870454308121000,6.90712109375,-12.990943908691406,27.41625213623047,-25.88382339477539
1776870454318159000,6.9171591796875,-13.024345397949219,27.33458709716797,-26.137348175048828
1776870454328198100,6.9271982421875,-12.895271301269531,27.25135040283203,-26.383914947509766
1776870454338236400,6.937236328125,-12.645523071289062,27.221580505371094,-26.518421173095703
1776870454348275200,6.947275146484375,-12.564971923828125,27.070457458496094,-26.750972747802734
1776870454358313200,6.957313232421875,-12.479545593261719,26.976226806640625,-27.00235366821289
1776870454368352300,6.967352294921875,-12.407791137695312,26.810523986816406,-27.112201690673828
1776870454378390300,6.977390380859375,-12.111610412597656,26.839630126953125,-27.21535873413086
1776870454388429000,6.987428955078125,-11.796478271484375,26.89299774169922,-27.362071990966797
1776870454398467300,6.99746728515625,-11.354240417480469,26.816787719726562,-27.602657318115234
1776870454408506000,7.007506103515625,-11.259841918945312,26.75658416748047,-27.839618682861328
1776870454418544400,7.01754443359375,-10.950065612792969,27.18590545654297,-27.64480209350586
1776870454428583200,7.027583251953125,-11.107124328613281,27.02477264404297,-27.536266326904297
1776870454438621200,7.03762109375,-11.481925964355469,27.127723693847656,-27.43979263305664
1776870454448660200,7.04766015625,-12.222457885742188,26.955772399902344,-27.483150482177734
1776870454458698200,7.0576982421875,-12.278984069824219,26.835113525390625,-27.103946685791016
1776870454468737000,7.067737060546875,-12.072029113769531,26.781166076660156,-26.783946990966797
1776870454478775300,7.077775390625,-12.145256042480469,26.654022216796875,-26.498149871826172
1776870454488814000,7.08781396484375,-12.21978759765625,26.634918212890625,-26.26346206665039
1776870454498852400,7.097852294921875,-12.594856262207031,26.621986389160156,-26.265644073486328
1776870454508891100,7.10789111328125,-13.025810241699219,26.481155395507812,-25.989238739013672
1776870454518929200,7.11792919921875,-13.010398864746094,26.564971923828125,-25.477252960205078
1776870454528968400,7.127968505859375,-13.425788879394531,26.576370239257812,-25.159648895263672
1776870454539006200,7.138006103515625,-14.113067626953125,26.562606811523438,-24.560794830322266
1776870454549044200,7.148044189453125,-15.026382446289062,26.338722229003906,-24.19625473022461
1776870454559083300,7.158083251953125,-15.905616760253906,26.339218139648438,-23.902530670166016
1776870454569121000,7.16812109375,-16.628463745117188,26.402793884277344,-23.23563003540039
1776870454579160300,7.178160400390625,-17.19140625,26.320838928222656,-22.120601654052734
1776870454589198000,7.188197998046875,-17.967018127441406,26.370262145996094,-21.12771224975586
1776870454599237000,7.198237060546875,-18.642044067382812,26.41516876220703,-20.313091278076172
1776870454609275100,7.208275146484375,-19.28260040283203,26.349395751953125,-19.502864837646484
1776870454619314200,7.218314208984375,-19.90550994873047,26.164085388183594,-18.79269790649414
1776870454629352400,7.2283525390625,-20.829124450683594,25.81224822998047,-18.432369232177734
1776870454639391200,7.23839111328125,-21.585350036621094,25.62403106689453,-18.191783905029297
1776870454649429200,7.24842919921875,-22.058502197265625,25.258636474609375,-17.829845428466797
1776870454659468300,7.25846826171875,-22.60120391845703,25.197433471679688,-17.454273223876953
1776870454669506300,7.26850634765625,-22.60120391845703,25.197433471679688,-17.454273223876953
1776870454679545000,7.278545166015625,-23.581932067871094,24.614791870117188,-17.320049285888672
1776870454689583400,7.288583251953125,-24.199790954589844,24.282669067382812,-17.036678314208984
1776870454699622100,7.2986220703125,-24.92383575439453,24.012741088867188,-17.157947540283203
1776870454709660400,7.308660400390625,-24.814544677734375,23.75634765625,-16.508464813232422
1776870454719699200,7.31869921875,-25.3109130859375,23.460914611816406,-16.27676010131836
1776870454729737200,7.3287373046875,-25.93671417236328,23.39531707763672,-16.06296157836914
1776870454739776300,7.3387763671875,-26.260101318359375,23.44873809814453,-15.440731048583984
1776870454749814300,7.348814208984375,-26.187240600585938,23.691909790039062,-14.889835357666016
1776870454759853000,7.35885302734375,-26.49072265625,23.788177490234375,-14.418758392333984
1776870454769891300,7.368891357421875,-26.246719360351562,24.20092010498047,-13.792163848876953
1776870454779930000,7.37893017578125,-26.335479736328125,24.422607421875,-13.242259979248047
1776870454789968100,7.388968017578125,-25.874710083007812,24.79090118408203,-12.522335052490234
1776870454800007200,7.399007080078125,-26.04051971435547,24.737869262695312,-12.20443344116211
1776870454810045200,7.409045166015625,-26.253623962402344,24.514175415039062,-12.088878631591797
1776870454820084200,7.419084228515625,-26.281394958496094,24.709243774414062,-11.89797592163086
1776870454830122200,7.429122314453125,-26.583450317382812,24.70116424560547,-12.17037582397461
1776870454840161300,7.439161376953125,-26.370376586914062,24.55426025390625,-12.28287124633789
1776870454850199300,7.44919921875,-26.17919158935547,24.603225708007812,-12.55593490600586
1776870454860238300,7.45923828125,-25.96765899658203,24.290863037109375,-12.93484878540039
1776870454870276000,7.469276123046875,-25.53137969970703,24.291099548339844,-13.026500701904297
1776870454880315400,7.4793154296875,-25.586692810058594,24.121047973632812,-13.544689178466797
1776870454890353200,7.489353271484375,-25.246726989746094,24.063392639160156,-13.496448516845703
1776870454900392200,7.49939208984375,-24.7889404296875,23.871559143066406,-13.473590850830078
1776870454910430200,7.50943017578125,-25.144927978515625,23.9332275390625,-13.918888092041016
1776870454920469200,7.51946923828125,-24.95055389404297,24.006362915039062,-13.963787078857422
1776870454930507300,7.52950732421875,-25.30414581298828,23.908119201660156,-14.329784393310547
1776870454940546300,7.53954638671875,-24.798080444335938,23.939674377441406,-14.133182525634766
1776870454950584000,7.549583984375,-24.301300048828125,24.076980590820312,-14.149761199951172
1776870454960623400,7.559623291015625,-24.247848510742188,24.113800048828125,-13.939708709716797
1776870454970661000,7.5696611328125,-24.109573364257812,24.107688903808594,-13.87155532836914
1776870454980700200,7.5797001953125,-23.77539825439453,24.08745574951172,-13.685413360595703
1776870454990738200,7.58973828125,-24.157730102539062,24.28485870361328,-13.675579071044922
1776870455000777200,7.599777099609375,-23.89483642578125,24.19251251220703,-13.34610366821289
1776870455010815200,7.609815185546875,-23.715370178222656,24.262489318847656,-12.818805694580078
1776870455020854300,7.619854248046875,-23.756744384765625,24.36663055419922,-12.105960845947266
1776870455030892000,7.62989208984375,-22.887725830078125,24.445091247558594,-10.855815887451172
1776870455040931300,7.639931396484375,-25.833457946777344,24.239952087402344,-12.318553924560547
1776870455050969000,7.649968994140625,-24.13172149658203,24.47277069091797,-10.503986358642578
1776870455061008100,7.660008056640625,-22.95771026611328,25.025405883789062,-9.449947357177734
1776870455071046100,7.670046142578125,-22.373756408691406,25.438278198242188,-8.575374603271484
1776870455081085200,7.680085205078125,-22.241600036621094,25.52996063232422,-7.323764801025391
1776870455091123200,7.690123291015625,-22.165786743164062,25.716453552246094,-5.724102020263672
1776870455101162800,7.700162841796875,-22.766311645507812,25.638778686523438,-4.590229034423828
1776870455111200500,7.710200439453125,-22.903488159179688,25.570175170898438,-3.5304832458496094
1776870455121239600,7.720239501953125,-23.553802490234375,25.15936279296875,-3.1827354431152344
1776870455131277600,7.730277587890625,-24.136276245117188,24.830734252929688,-3.4527626037597656
1776870455141315600,7.740315673828125,-24.758743286132812,24.386810302734375,-3.8851585388183594
1776870455151354600,7.750354736328125,-24.701995849609375,23.882522583007812,-3.666393280029297
1776870455161393700,7.7603935546875,-24.59760284423828,23.414779663085938,-3.2966957092285156
1776870455171431400,7.770431396484375,-25.44068145751953,23.087738037109375,-3.285350799560547
1776870455181470700,7.780470703125,-24.938323974609375,22.764328002929688,-1.8865242004394531
1776870455191508500,7.790508544921875,-24.848121643066406,22.60625457763672,-0.9289970397949219
1776870455201546800,7.800546630859375,-25.175186157226562,22.368873596191406,-0.441680908203125
1776870455211585500,7.81058544921875,-24.692672729492188,22.20513153076172,0.4944610595703125
1776870455221623600,7.82062353515625,-24.97801971435547,21.963584899902344,0.9678955078125
1776870455231662600,7.83066259765625,-25.762596130371094,21.541534423828125,0.8090324401855469
1776870455241700600,7.84070068359375,-25.20880889892578,21.619384765625,1.6031379699707031
1776870455251739400,7.850739501953125,-25.654136657714844,21.244430541992188,1.5722389221191406
1776870455261777700,7.860777587890625,-25.335098266601562,20.72906494140625,2.111736297607422
1776870455271816400,7.87081640625,-25.311622619628906,20.4993896484375,2.5754051208496094
1776870455281854700,7.880854736328125,-25.31487274169922,20.204635620117188,3.04833984375
1776870455291893500,7.8908935546875,-25.603042602539062,19.828598022460938,3.363109588623047
1776870455301931500,7.900931640625,-25.60528564453125,19.44829559326172,3.7099990844726562
1776870455311970800,7.910970703125,-24.75701141357422,19.159347534179688,4.722919464111328
1776870455322008600,7.921008544921875,-24.618927001953125,18.97052001953125,5.081417083740234
1776870455332047600,7.931047607421875,-25.334930419921875,18.454978942871094,4.801017761230469
1776870455342085600,7.941085693359375,-25.580596923828125,18.153907775878906,4.832633972167969
1776870455352124700,7.951124755859375,-25.47547149658203,17.702316284179688,5.302089691162109
1776870455362162700,7.96116259765625,-25.351280212402344,17.259017944335938,5.63568115234375
1776870455372201700,7.97120166015625,-25.779624938964844,16.78851318359375,5.7266082763671875
1776870455382239500,7.981239501953125,-25.55736541748047,16.36003875732422,5.924949645996094
1776870455392278800,7.99127880859375,-25.631134033203125,15.799736022949219,6.008384704589844
1776870455402316500,8.001316650390624,-26.047943115234375,15.349151611328125,5.655483245849609
1776870455412355600,8.01135546875,-25.964813232421875,14.967880249023438,5.860454559326172
1776870455422393600,8.0213935546875,-26.27875518798828,14.5186767578125,6.018825531005859
1776870455432432600,8.0314326171875,-26.351097106933594,14.329307556152344,6.0890045166015625
1776870455442470700,8.041470703125,-25.814346313476562,13.961433410644531,6.407772064208984
1776870455452509700,8.051509765625,-25.925247192382812,13.494354248046875,6.530128479003906
1776870455462547500,8.06154736328125,-26.046737670898438,13.184646606445312,6.471088409423828
1776870455472586800,8.071586669921874,-26.840049743652344,12.713836669921875,5.8796234130859375
1776870455482624500,8.08162451171875,-26.89080047607422,12.36639404296875,5.933525085449219
1776870455492663600,8.09166357421875,-26.841384887695312,11.912521362304688,5.969017028808594
1776870455502701600,8.10170166015625,-27.306541442871094,11.602012634277344,5.520294189453125
1776870455512740600,8.11174072265625,-27.316429138183594,11.374496459960938,5.649101257324219
1776870455522778600,8.121778564453125,-27.048362731933594,10.959251403808594,5.727787017822266
1776870455532817700,8.131817626953126,-26.722564697265625,10.644523620605469,6.160064697265625
1776870455542855400,8.14185546875,-26.657676696777344,10.374824523925781,5.973236083984375
1776870455552894700,8.151894775390625,-26.980804443359375,10.050262451171875,5.881855010986328
1776870455562932500,8.161932373046875,-26.819320678710938,10.074897766113281,6.0664825439453125
1776870455572971500,8.171971435546874,-26.77825927734375,10.131942749023438,6.082592010498047
1776870455583009500,8.182009521484375,-26.77991485595703,10.222175598144531,6.310615539550781
1776870455593048600,8.192048583984375,-26.522621154785156,10.542007446289062,6.553901672363281
1776870455603086600,8.202086669921876,-25.798675537109375,10.763679504394531,7.0174407958984375
1776870455613125600,8.212125732421875,-25.901901245117188,10.781204223632812,7.043495178222656
1776870455623163600,8.22216357421875,-25.994041442871094,10.928123474121094,6.805789947509766
1776870455633202400,8.232202392578126,-26.75611114501953,10.911544799804688,6.572650909423828
1776870455643240700,8.24224072265625,-28.31153106689453,10.84619140625,5.133491516113281
1776870455653279500,8.252279541015625,-28.29387664794922,10.727775573730469,4.953498840332031
1776870455663317800,8.26231787109375,-27.733657836914062,10.9486083984375,5.182037353515625
1776870455673356500,8.2723564453125,-27.473129272460938,10.864158630371094,5.313289642333984
1776870455683394600,8.28239453125,-28.5367431640625,11.192100524902344,4.289371490478516
1776870455693433600,8.29243359375,-28.440589904785156,11.375473022460938,4.455844879150391
1776870455703471600,8.3024716796875,-29.66260528564453,11.841751098632812,3.4065933227539062
1776870455713510400,8.312510498046874,-30.474769592285156,12.094390869140625,2.8351097106933594
1776870455723548700,8.322548583984375,-29.724449157714844,12.466361999511719,3.2863540649414062
1776870455733587500,8.33258740234375,-30.05290985107422,12.799163818359375,3.065765380859375
1776870455743625700,8.342625732421874,-30.160171508789062,13.210502624511719,2.9825515747070312
1776870455753664500,8.35266455078125,-28.610397338867188,13.670074462890625,4.159603118896484
1776870455763702500,8.36270263671875,-29.488059997558594,14.175224304199219,3.453907012939453
1776870455773741600,8.372741455078126,-28.40325164794922,14.563919067382812,4.20947265625
1776870455783779600,8.382779541015625,-29.425270080566406,14.663154602050781,3.1334571838378906
1776870455793818600,8.392818603515625,-29.83454132080078,15.048667907714844,3.0077857971191406
1776870455803856600,8.402856689453126,-29.460189819335938,15.438125610351562,2.8615264892578125
1776870455813895700,8.412895751953124,-29.713584899902344,15.604766845703125,2.6600799560546875
1776870455823933700,8.42293359375,-28.74437713623047,15.971534729003906,3.1346702575683594
1776870455833972700,8.43297265625,-28.638687133789062,16.531097412109375,2.9089698791503906
1776870455844010500,8.443010498046876,-29.790786743164062,17.02123260498047,1.749359130859375
1776870455854049800,8.4530498046875,-29.364891052246094,17.331893920898438,2.20135498046875
1776870455864087600,8.463087646484375,-28.85107421875,17.59539794921875,2.3071517944335938
1776870455874126600,8.473126708984376,-28.681732177734375,17.929550170898438,2.1328811645507812
1776870455884164600,8.48316455078125,-28.386703491210938,18.263961791992188,2.0932273864746094
1776870455894203600,8.49320361328125,-28.797500610351562,18.482521057128906,1.5317192077636719
1776870455904241700,8.50324169921875,-28.484207153320312,19.060531616210938,1.4871368408203125
1776870455914280700,8.51328076171875,-28.52831268310547,19.636306762695312,1.345184326171875
1776870455924318500,8.523318359375,-29.40167999267578,19.769927978515625,0.2743682861328125
1776870455934357800,8.533357666015625,-28.624244689941406,20.219207763671875,0.70013427734375
1776870455944395500,8.5433955078125,-27.97748565673828,20.668975830078125,0.6584663391113281
1776870455954434600,8.5534345703125,-28.846832275390625,20.98351287841797,-0.3983802795410156
1776870455964472600,8.56347265625,-28.907455444335938,21.630783081054688,-0.7957992553710938
1776870455974511600,8.57351171875,-28.8834228515625,21.920570373535156,-1.1490516662597656
1776870455984549600,8.583549560546874,-28.57209014892578,22.332542419433594,-1.4061470031738281
1776870455994588700,8.593588623046875,-28.147384643554688,22.70612335205078,-1.5745124816894531
1776870456004626400,8.60362646484375,-28.13494873046875,23.07837677001953,-2.0800743103027344
1776870456014665700,8.613665771484374,-27.996498107910156,23.5269775390625,-2.6138267517089844
1776870456024703500,8.623703369140625,-26.93206024169922,23.8812255859375,-2.328815460205078
1776870456034742500,8.633742431640625,-27.460067749023438,24.25098419189453,-3.639812469482422
1776870456044780500,8.643780517578126,-27.416946411132812,24.550865173339844,-4.342014312744141
1776870456054819600,8.653819580078125,-26.98296356201172,24.85460662841797,-4.904033660888672
1776870456064857600,8.663857666015625,-26.431442260742188,25.301254272460938,-5.287624359130859
1776870456074896600,8.673896728515626,-26.207931518554688,25.61638641357422,-6.145191192626953
1776870456084934700,8.6839345703125,-26.0628662109375,25.712684631347656,-6.786136627197266
1776870456094973400,8.693973388671875,-25.89453887939453,25.960037231445312,-7.594867706298828
1776870456105011200,8.70401123046875,-26.558982849121094,26.024658203125,-9.133136749267578
1776870456115050200,8.71405029296875,-26.650588989257812,26.04155731201172,-10.21181869506836
1776870456125088300,8.724088134765625,-26.064231872558594,25.87261962890625,-10.644031524658203
1776870456135127300,8.734127197265625,-26.371498107910156,25.75688934326172,-12.033306121826172
1776870456145165300,8.744165283203126,-26.188697814941406,25.612159729003906,-13.089862823486328
1776870456155204400,8.754204345703124,-26.47595977783203,25.33423614501953,-14.577136993408203
1776870456165243100,8.7642431640625,-27.279296875,25.29022979736328,-16.449542999267578
1776870456175281400,8.774281494140626,-26.17389678955078,25.24584197998047,-16.315425872802734
1776870456185319200,8.784319091796876,-26.24109649658203,25.190536499023438,-16.89035415649414
1776870456195358200,8.794358154296875,-25.95325469970703,25.172866821289062,-16.623905181884766
1776870456205397200,8.804397216796875,-26.046218872070312,25.14881134033203,-16.256832122802734
1776870456215435300,8.814435302734376,-26.649505615234375,25.40320587158203,-16.435161590576172
1776870456225474300,8.824474365234375,-27.16412353515625,25.688819885253906,-16.195476531982422
1776870456235512300,8.83451220703125,-27.55974578857422,25.84412384033203,-16.098583221435547
1776870456245551400,8.84455126953125,-27.050048828125,25.97930145263672,-15.52579116821289
1776870456255589000,8.854589111328124,-27.817047119140625,26.1373291015625,-16.076839447021484
1776870456265628400,8.86462841796875,-27.551010131835938,26.016387939453125,-15.773181915283203
1776870456275666200,8.874666259765625,-28.099937438964844,26.001663208007812,-15.66115951538086
1776870456285705200,8.884705322265624,-28.191566467285156,25.95587921142578,-15.106143951416016
1776870456295743200,8.8947431640625,-28.350425720214844,25.89190673828125,-14.559383392333984
1776870456305782300,8.9047822265625,-28.54889678955078,25.5615234375,-13.72781753540039
1776870456315820300,8.9148203125,-29.930130004882812,25.66869354248047,-13.996448516845703
1776870456325859300,8.924859375,-29.070159912109375,25.852676391601562,-12.46615982055664
1776870456335897000,8.93489697265625,-29.970321655273438,25.956069946289062,-12.378162384033203
1776870456345936400,8.944936279296876,-29.47528839111328,26.208946228027344,-11.56473159790039
1776870456355974100,8.95497412109375,-28.697647094726562,26.475692749023438,-10.912555694580078
1776870456366013200,8.96501318359375,-28.95733642578125,26.595748901367188,-10.695110321044922
1776870456376051200,8.97505126953125,-28.79564666748047,26.74712371826172,-10.589397430419922
1776870456386090200,8.98509033203125,-29.17009735107422,26.81340789794922,-10.67806625366211
1776870456396128300,8.995128173828125,-30.210105895996094,27.03166961669922,-11.488834381103516
1776870456406167300,9.005167236328125,-30.210105895996094,27.03166961669922,-11.488834381103516
1776870456416205000,9.015205078125,-29.84027099609375,27.129417419433594,-11.253002166748047
1776870456426244400,9.025244384765625,-30.30358123779297,27.072052001953125,-11.917346954345703
1776870456436282000,9.0352822265625,-30.146835327148438,27.275222778320312,-12.35434341430664
1776870456446321200,9.045321044921875,-29.834869384765625,27.391983032226562,-12.66463851928711
1776870456456359200,9.055359130859374,-29.34326934814453,27.289100646972656,-12.897075653076172
1776870456466398200,9.065398193359375,-29.840789794921875,27.132713317871094,-13.992366790771484
1776870456476437200,9.075437255859375,-28.789772033691406,27.151573181152344,-13.972217559814453
1776870456486475300,9.085475341796876,-28.71015167236328,27.039283752441406,-14.423320770263672
1776870456496514300,9.095514404296875,-28.285675048828125,26.906455993652344,-14.670124053955078
1776870456506552300,9.10555224609375,-28.403541564941406,27.082473754882812,-15.392269134521484
1776870456516591400,9.11559130859375,-26.531494140625,27.098365783691406,-14.386463165283203
1776870456526629000,9.125629150390624,-26.448944091796875,27.235916137695312,-15.222431182861328
1776870456536668400,9.13566845703125,-26.628639221191406,27.19091033935547,-16.21999740600586
1776870456546706200,9.1457060546875,-26.722213745117188,27.001754760742188,-17.66170883178711
1776870456556745200,9.1557451171875,-25.970237731933594,27.042091369628906,-18.323932647705078
1776870456566783200,9.165783203125,-25.42249298095703,26.953338623046875,-19.721736907958984
1776870456576822300,9.175822265625,-24.70716094970703,26.853530883789062,-20.766231536865234
1776870456586860300,9.1858603515625,-23.926223754882812,26.687469482421875,-21.924518585205078
1776870456596899300,9.1958994140625,-23.104713439941406,26.396240234375,-23.30606460571289
1776870456606937000,9.20593701171875,-22.190567016601562,26.031883239746094,-24.52927017211914
1776870456616976400,9.215976318359376,-21.348709106445312,25.866127014160156,-25.726985931396484
1776870456627015400,9.226015380859375,-20.720306396484375,25.744308471679688,-27.208393096923828
1776870456637053200,9.23605322265625,-17.810394287109375,25.768707275390625,-26.34041976928711
1776870456647092200,9.24609228515625,-18.062789916992188,25.868057250976562,-28.20694351196289
1776870456657130200,9.256130126953124,-16.867050170898438,25.830833435058594,-28.172733306884766
1776870456667169300,9.266169189453125,-16.858856201171875,25.894119262695312,-28.53359603881836
1776870456677207300,9.276207275390625,-16.628807067871094,25.982559204101562,-28.486011505126953
1776870456687246300,9.286246337890624,-16.74542999267578,26.136276245117188,-28.545101165771484
1776870456697284000,9.2962841796875,-16.807632446289062,26.035263061523438,-28.69211196899414
1776870456707323400,9.306323486328125,-17.290191650390625,26.188514709472656,-29.364307403564453
1776870456717361200,9.316361083984376,-17.132606506347656,26.333396911621094,-29.185855865478516
1776870456727400200,9.326400146484374,-16.536231994628906,26.4696044921875,-28.66470718383789
1776870456737438200,9.336438232421875,-16.62708282470703,26.54022216796875,-28.30898666381836
1776870456747477200,9.346477294921876,-15.4794921875,26.58551025390625,-27.503971099853516
1776870456757516000,9.35651611328125,-16.404998779296875,26.70378875732422,-28.34115219116211
1776870456767554300,9.36655419921875,-15.622467041015625,26.7174072265625,-27.590595245361328
1776870456777593300,9.37659326171875,-15.282470703125,26.54601287841797,-27.472835540771484
1776870456787631400,9.38663134765625,-15.516288757324219,26.410079956054688,-27.642017364501953
1776870456797670400,9.39667041015625,-15.596939086914062,26.26482391357422,-27.625926971435547
1776870456807708200,9.406708251953125,-16.519309997558594,26.058364868164062,-28.314502716064453
1776870456817747500,9.41674755859375,-15.793296813964844,26.192176818847656,-27.429027557373047
1776870456827785200,9.42678515625,-16.76366424560547,26.27704620361328,-28.253498077392578
1776870456837824300,9.43682421875,-16.7286376953125,26.11463165283203,-27.973133087158203
1776870456847862300,9.4468623046875,-16.37799072265625,26.22193145751953,-27.626964569091797
1776870456857901300,9.4569013671875,-16.1602783203125,26.16796875,-27.199291229248047
1776870456867940000,9.466940185546875,-17.016273498535156,26.194801330566406,-27.940074920654297
1776870456877978400,9.476978271484375,-16.00421905517578,26.269622802734375,-27.107135772705078
1776870456888017200,9.48701708984375,-16.030746459960938,26.17882537841797,-27.36098861694336
1776870456898055400,9.497055419921875,-15.524566650390625,26.290985107421875,-27.185375213623047
1776870456908094200,9.50709423828125,-15.820701599121094,26.286163330078125,-27.644832611083984
1776870456918132200,9.51713232421875,-15.164146423339844,26.48174285888672,-27.49844741821289
1776870456928171300,9.527171142578124,-14.374786376953125,26.559364318847656,-27.160137176513672
1776870456938209300,9.537209228515625,-14.070335388183594,26.617279052734375,-27.201587677001953
1776870456948248000,9.547248046875,-13.84136962890625,26.67955780029297,-27.31734848022461
1776870456958287400,9.557287353515624,-14.193428039550781,26.6612548828125,-27.586681365966797
1776870456968325400,9.567325439453125,-14.143203735351562,26.85430145263672,-27.672321319580078
1776870456978364200,9.5773642578125,-14.295501708984375,27.01093292236328,-28.283191680908203
1776870456988402400,9.58740234375,-14.625762939453125,27.1016845703125,-28.653789520263672
1776870456998441200,9.597441162109375,-13.46844482421875,27.11859130859375,-28.101818084716797
1776870457008479200,9.607479248046875,-13.872528076171875,27.029464721679688,-28.87008285522461
1776870457018518300,9.617518310546876,-12.299171447753906,26.99492645263672,-27.874492645263672
1776870457028557300,9.627557373046875,-12.347740173339844,26.909164428710938,-28.139453887939453
1776870457038595000,9.637594970703125,-12.804313659667969,26.933868408203125,-28.546871185302734
1776870457048634400,9.64763427734375,-12.415977478027344,26.705001831054688,-28.076854705810547
1776870457058672000,9.657672119140624,-13.022468566894531,26.613380432128906,-28.49117660522461
1776870457068711200,9.667711181640625,-12.148941040039062,26.591087341308594,-27.760868072509766
1776870457078749200,9.677749267578125,-12.920181274414062,26.41413116455078,-28.33205795288086
1776870457088788200,9.687788330078124,-13.634025573730469,26.21601104736328,-28.794681549072266
1776870457098827300,9.6978271484375,-12.691917419433594,26.299766540527344,-27.90750503540039
1776870457108865500,9.707865478515625,-13.373870849609375,26.017013549804688,-28.32065200805664
1776870457118904300,9.717904296875,-12.771430969238281,25.98749542236328,-27.308696746826172
1776870457128942600,9.727942626953125,-13.707496643066406,25.778076171875,-27.82125473022461
1776870457138981600,9.737981689453125,-14.493141174316406,25.798980712890625,-28.08047866821289
1776870457149019400,9.748019287109376,-13.383232116699219,25.856582641601562,-27.315738677978516
1776870457159058700,9.75805859375,-14.354232788085938,25.63072967529297,-27.84836196899414
1776870457169097500,9.768097412109375,-13.741744995117188,25.38420867919922,-27.231937408447266
1776870457179135500,9.778135498046876,-12.883842468261719,25.46923065185547,-26.90140151977539
1776870457189174500,9.788174560546874,-13.071670532226562,25.041915893554688,-27.359493255615234
1776870457199212500,9.798212646484375,-13.261329650878906,24.938552856445312,-28.06015396118164
1776870457209251300,9.808251220703125,-12.027786254882812,24.98662567138672,-27.025272369384766
1776870457219289600,9.81828955078125,-13.304206848144531,24.704940795898438,-28.239849090576172
1776870457229328400,9.828328369140625,-12.2635498046875,24.669517517089844,-27.310588836669922
1776870457239367400,9.838367431640625,-12.101303100585938,24.70343017578125,-26.901668548583984
1776870457249405400,9.848405517578126,-12.411674499511719,24.59284210205078,-26.479976654052734
1776870457259444500,9.858444580078125,-13.390762329101562,24.498306274414062,-26.623218536376953
1776870457269482500,9.868482421875,-13.092338562011719,24.46997833251953,-25.794147491455078
1776870457279521500,9.878521484375,-13.590225219726562,24.440948486328125,-25.816524505615234
1776870457289560600,9.888560546875,-13.479316711425781,24.33295440673828,-25.246280670166016
1776870457299598300,9.898598388671875,-13.350204467773438,24.35625457763672,-24.519634246826172
1776870457309637600,9.9086376953125,-14.081710815429688,24.265380859375,-24.70351791381836
1776870457319675400,9.91867529296875,-13.709503173828125,24.17902374267578,-23.73025131225586
1776870457329714400,9.92871435546875,-13.185836791992188,24.098297119140625,-22.974910736083984
1776870457339753500,9.93875341796875,-13.634895324707031,23.922203063964844,-22.567150115966797
1776870457349791500,9.94879150390625,-13.526596069335938,24.018844604492188,-21.847652435302734
1776870457359830300,9.958830322265625,-14.316993713378906,23.899070739746094,-22.109241485595703
1776870457369868500,9.96886865234375,-13.611053466796875,23.699981689453125,-21.067493438720703
1776870457379907300,9.9789072265625,-14.044082641601562,23.510101318359375,-20.726215362548828
1776870457389945600,9.988945556640624,-13.862251281738281,23.42572021484375,-19.972965240478516
1776870457399984400,9.998984375,-13.710189819335938,23.382537841796875,-19.334415435791016
1776870457410023400,10.0090234375,-13.729530334472656,23.175514221191406,-18.734600067138672
1776870457420061700,10.019061767578124,-15.128395080566406,22.78716278076172,-19.252307891845703
1776870457430100500,10.0291005859375,-14.048851013183594,22.54778289794922,-17.822528839111328
1776870457440138500,10.039138427734375,-14.759529113769531,22.224136352539062,-18.284725189208984
1776870457450177500,10.049177490234374,-15.381240844726562,21.93799591064453,-18.51992416381836
1776870457460216600,10.059216552734375,-14.583251953125,21.72431182861328,-17.892894744873047
1776870457470254300,10.06925439453125,-13.271759033203125,21.648658752441406,-17.053943634033203
1776870457480293600,10.079293701171874,-13.96697998046875,21.43573760986328,-18.098758697509766
1776870457490331400,10.089331298828125,-13.286842346191406,21.274024963378906,-17.76095199584961
1776870457500370400,10.099370361328125,-13.060958862304688,20.991798400878906,-17.845600128173828
1776870457510409500,10.109409423828126,-12.326271057128906,20.712234497070312,-17.57956314086914
1776870457520447500,10.119447509765624,-12.05108642578125,20.653961181640625,-17.995967864990234
1776870457530486500,10.129486572265625,-13.109481811523438,20.15123748779297,-19.122241973876953
1776870457540525300,10.139525390625,-13.289337158203125,20.078041076660156,-19.362117767333984
1776870457550563600,10.1495634765625,-13.194206237792969,19.807098388671875,-19.210132598876953
1776870457560602400,10.159602294921875,-13.264862060546875,19.736709594726562,-18.819866180419922
1776870457570640600,10.169640625,-14.386344909667969,19.57317352294922,-19.46432876586914
1776870457580679400,10.179679443359374,-13.920516967773438,19.458702087402344,-18.599658966064453
1776870457590718500,10.189718505859375,-13.882041931152344,19.369369506835938,-18.292278289794922
1776870457600756500,10.199756591796875,-14.342971801757812,19.251060485839844,-18.271663665771484
1776870457610795500,10.20979541015625,-15.183052062988281,18.959060668945312,-18.803707122802734
1776870457620833300,10.219833251953125,-14.9481201171875,18.793487548828125,-18.074230194091797
1776870457630872600,10.22987255859375,-15.157569885253906,18.909347534179688,-18.104496002197266
1776870457640911600,10.23991162109375,-15.075263977050781,18.6722412109375,-17.717960357666016
1776870457650949400,10.249949462890624,-15.361434936523438,18.484046936035156,-17.87435531616211
1776870457660988700,10.25998876953125,-15.842987060546875,18.215133666992188,-17.920894622802734
1776870457671027500,10.27002734375,-17.28319549560547,17.85254669189453,-18.797870635986328
1776870457681065500,10.2800654296875,-16.54241180419922,17.740310668945312,-17.622142791748047
1776870457691104500,10.2901044921875,-16.530426025390625,17.676025390625,-17.525409698486328
1776870457701142500,10.300142578125,-16.52967071533203,17.69005584716797,-17.602588653564453
1776870457711181300,10.310181396484374,-17.67552947998047,17.45708465576172,-18.441570281982422
1776870457721220600,10.320220703125,-16.856101989746094,17.45879364013672,-17.63003921508789
1776870457731258400,10.33025830078125,-17.570762634277344,17.37323760986328,-18.197322845458984
1776870457741299500,10.340299560546875,-17.35552978515625,17.3681640625,-17.90164566040039
1776870457751338500,10.35033837890625,-17.085662841796875,17.220909118652344,-17.53268814086914
1776870457761377500,10.36037744140625,-17.590606689453125,17.143814086914062,-17.891223907470703
1776870457771415600,10.37041552734375,-17.48194122314453,17.146446228027344,-17.78408432006836
1776870457781454600,10.38045458984375,-18.053916931152344,17.061111450195312,-18.049358367919922
1776870457791493400,10.390493408203126,-17.84009552001953,17.037147521972656,-18.006816864013672
1776870457801531600,10.40053173828125,-17.638511657714844,17.132850646972656,-17.960247039794922
1776870457811570400,10.4105703125,-18.333633422851562,17.075119018554688,-18.48776626586914
1776870457821608400,10.4206083984375,-18.18475341796875,17.029052734375,-18.230152130126953
1776870457831647500,10.4306474609375,-18.618057250976562,16.899391174316406,-18.72951889038086
1776870457841686500,10.4406865234375,-19.517494201660156,16.949600219726562,-19.404056549072266
1776870457851724300,10.450724365234375,-18.33483123779297,16.950721740722656,-18.393932342529297
1776870457861763600,10.460763671875,-17.695091247558594,17.106643676757812,-18.265605926513672
1776870457871802600,10.470802734375,-18.300582885742188,17.279403686523438,-18.861286163330078
1776870457881840400,10.48084033203125,-17.539817810058594,17.38538360595703,-18.338016510009766
1776870457891879700,10.490879638671874,-17.327423095703125,17.338592529296875,-18.181560516357422
1776870457901917400,10.50091748046875,-17.96302032470703,17.321304321289062,-18.88888931274414
1776870457911956500,10.51095654296875,-18.3946533203125,17.336326599121094,-19.190685272216797
1776870457921995500,10.52099560546875,-18.03363800048828,17.36713409423828,-18.788372039794922
1776870457932033500,10.531033447265624,-17.170936584472656,17.390174865722656,-18.23855209350586
1776870457942072300,10.541072265625,-17.095626831054688,17.32526397705078,-18.061763763427734
1776870457952111400,10.551111328125,-17.35163116455078,17.228713989257812,-18.090885162353516
1776870457962149400,10.5611494140625,-17.577842712402344,17.149192810058594,-18.064701080322266
1776870457972188400,10.5711884765625,-16.95110321044922,17.223129272460938,-17.451679229736328
1776870457982227500,10.5812275390625,-17.744956970214844,17.07684326171875,-18.174076080322266
1776870457992265500,10.591265380859374,-17.964561462402344,16.984825134277344,-18.251468658447266
1776870458002304500,10.601304443359375,-16.748008728027344,17.21239471435547,-17.548328399658203
1776870458012343300,10.61134326171875,-15.758056640625,17.2291259765625,-16.77219009399414
1776870458022381600,10.621381591796874,-15.623153686523438,17.311477661132812,-16.663272857666016
1776870458032420400,10.63142041015625,-16.324050903320312,17.181411743164062,-17.502887725830078
1776870458042458600,10.641458740234375,-16.73754119873047,17.033889770507812,-18.048542022705078
1776870458052497400,10.651497314453126,-15.949012756347656,17.200469970703125,-17.279216766357422
1776870458062536400,10.661536376953125,-15.13873291015625,17.297454833984375,-16.627918243408203
1776870458072574500,10.671574462890625,-15.417350769042969,17.151657104492188,-16.949504852294922
1776870458082613500,10.681613525390626,-14.587562561035156,16.971237182617188,-16.461498260498047
1776870458092652500,10.691652587890625,-14.003242492675781,17.197708129882812,-16.05324935913086
1776870458102690600,10.701690673828125,-13.8154296875,17.503921508789062,-16.118335723876953
1776870458112729600,10.7117294921875,-15.189193725585938,17.516212463378906,-17.74496078491211
1776870458122768400,10.721768310546874,-13.33172607421875,17.777244567871094,-16.403881072998047
1776870458132806700,10.731806640625,-12.655387878417969,18.013229370117188,-16.19742202758789
1776870458142845400,10.741845458984375,-13.198097229003906,17.913414001464844,-16.924129486083984
1776870458152884500,10.751884521484374,-13.219795227050781,18.354095458984375,-17.052188873291016
1776870458162922500,10.761922607421875,-12.597526550292969,18.927696228027344,-16.661067962646484
1776870458172961500,10.77196142578125,-11.742607116699219,19.18157196044922,-16.163959503173828
1776870458183000600,10.78200048828125,-12.549339294433594,19.517189025878906,-17.150501251220703
1776870458193038300,10.792038330078125,-11.069198608398438,19.902069091796875,-16.362224578857422
1776870458203077600,10.80207763671875,-11.849967956542969,20.385574340820312,-17.29495620727539
1776870458213116400,10.812116455078124,-10.958549499511719,20.560470581054688,-16.634899139404297
1776870458223154400,10.822154541015625,-10.550018310546875,21.0009765625,-16.821918487548828
1776870458233193500,10.832193359375,-11.573387145996094,21.560028076171875,-17.968608856201172
1776870458243232500,10.842232421875,-11.813858032226562,21.813583374023438,-18.392452239990234
1776870458253270300,10.852270263671874,-10.820167541503906,22.223297119140625,-17.736103057861328
1776870458263309600,10.8623095703125,-10.725273132324219,22.60681915283203,-17.861164093017578
1776870458273348600,10.8723486328125,-11.566886901855469,23.084915161132812,-19.002727508544922
1776870458283386400,10.882386474609374,-10.936256408691406,23.5958251953125,-18.58414077758789
1776870458293425700,10.89242578125,-10.975654602050781,24.07996368408203,-18.603626251220703
1776870458303464400,10.90246435546875,-10.592437744140625,24.455215454101562,-18.471965789794922
1776870458313502500,10.91250244140625,-11.756576538085938,24.44866943359375,-19.443126678466797
1776870458323541500,10.92254150390625,-10.958282470703125,24.956947326660156,-18.72616958618164
1776870458333580500,10.93258056640625,-11.781204223632812,25.09058380126953,-19.58773422241211
1776870458343618300,10.942618408203124,-11.525764465332031,25.388702392578125,-19.415111541748047
1776870458353657600,10.95265771484375,-11.696327209472656,25.76233673095703,-19.51522445678711
1776870458363696600,10.962696533203125,-13.319732666015625,25.88824462890625,-20.682247161865234
1776870458373734400,10.972734375,-12.660675048828125,26.147354125976562,-20.260761260986328
1776870458383773400,10.9827734375,-12.768157958984375,26.23719024658203,-20.172374725341797
1776870458393812500,10.9928125,-12.83990478515625,26.406288146972656,-20.200130462646484
1776870458403850500,11.0028505859375,-12.913764953613281,26.594772338867188,-20.502010345458984
1776870458413889500,11.0128896484375,-13.904273986816406,26.52106475830078,-21.52193832397461
1776870458423928600,11.022928466796875,-13.542694091796875,26.54578399658203,-21.28073501586914
1776870458433966300,11.03296630859375,-13.359024047851562,26.827430725097656,-21.526958465576172
1776870458444005400,11.04300537109375,-13.145919799804688,26.93531036376953,-21.611148834228516
1776870458454044700,11.053044677734375,-13.004898071289062,26.972999572753906,-21.74795150756836
1776870458464082400,11.06308251953125,-14.674430847167969,26.75757598876953,-23.319393157958984
1776870458474121500,11.07312158203125,-13.830055236816406,26.786575317382812,-23.071277618408203
1776870458484160500,11.083160400390625,-13.882354736328125,26.881607055664062,-23.750797271728516
1776870458494198500,11.093198486328125,-13.3956298828125,26.760963439941406,-23.826152801513672
1776870458504237300,11.1032373046875,-13.313217163085938,26.70525360107422,-24.31412124633789
1776870458514276600,11.113276611328125,-14.002937316894531,26.604103088378906,-25.485233306884766
1776870458524314400,11.123314453125,-12.770317077636719,26.61101531982422,-25.065654754638672
1776870458534353400,11.133353515625,-12.874092102050781,26.64898681640625,-25.556957244873047
1776870458544392700,11.143392822265625,-12.293708801269531,26.9080810546875,-25.34598159790039
1776870458554430500,11.153430419921875,-11.80224609375,27.02611541748047,-25.34109115600586
1776870458564469500,11.163469482421876,-13.136054992675781,27.00341796875,-26.361896514892578
1776870458574508500,11.173508544921875,-12.214599609375,27.27741241455078,-25.687122344970703
1776870458584547600,11.183547607421875,-11.43072509765625,27.366668701171875,-25.171306610107422
1776870458594585300,11.19358544921875,-12.178085327148438,27.681068420410156,-25.416179656982422
1776870458604624400,11.203624267578125,-12.916702270507812,27.725860595703125,-25.757061004638672
1776870458614663400,11.213663330078125,-12.104263305664062,27.954612731933594,-24.866313934326172
1776870458624701400,11.223701416015626,-12.059951782226562,28.10803985595703,-24.712772369384766
1776870458634740500,11.233740478515625,-11.721931457519531,28.198585510253906,-24.417835235595703
1776870458644779500,11.243779541015625,-11.7088623046875,28.13750457763672,-24.519519805908203
1776870458654817500,11.253817626953126,-13.03973388671875,27.872154235839844,-25.944255828857422
1776870458664856300,11.263856201171874,-12.881927490234375,27.70319366455078,-25.929515838623047
1776870458674895600,11.2738955078125,-13.350173950195312,27.503829956054688,-26.674480438232422
1776870458684933400,11.283933349609375,-12.232666015625,27.4857177734375,-26.05301284790039
1776870458694972400,11.293972412109374,-11.102386474609375,27.318870544433594,-25.582141876220703
1776870458705011500,11.304011474609375,-11.711158752441406,27.092018127441406,-26.29812240600586
1776870458715050500,11.314050537109376,-11.396682739257812,26.79273223876953,-26.284252166748047
1776870458725088300,11.324088134765624,-12.525550842285156,26.696983337402344,-27.322742462158203
1776870458735127600,11.33412744140625,-11.865692138671875,26.582008361816406,-26.883777618408203
1776870458745166600,11.34416650390625,-11.944183349609375,26.497596740722656,-26.95815658569336
1776870458755204400,11.354204345703126,-11.946380615234375,26.249359130859375,-27.581134796142578
1776870458765243600,11.36424365234375,-11.545494079589844,26.148353576660156,-27.38913345336914
1776870458775282400,11.374282470703125,-11.161636352539062,26.231224060058594,-27.742191314697266
1776870458785320400,11.384320556640626,-11.451667785644531,26.194107055664062,-28.379520416259766
1776870458795359500,11.394359375,-11.004875183105469,25.945526123046875,-28.50351333618164
1776870458805398500,11.4043984375,-10.511993408203125,25.920684814453125,-28.621089935302734
1776870458815437600,11.4144375,-10.511993408203125,25.920684814453125,-28.621089935302734
1776870458825475300,11.424475341796875,-9.99859619140625,25.93366241455078,-28.66415023803711
1776870458835514600,11.4345146484375,-9.84210205078125,26.018943786621094,-28.692974090576172
1776870458845553400,11.444553466796876,-9.675155639648438,26.052993774414062,-28.909542083740234
1776870458855591400,11.45459130859375,-9.931144714355469,26.089202880859375,-28.988407135009766
1776870458865630500,11.46463037109375,-10.166091918945312,26.055152893066406,-29.077571868896484
1776870458875669500,11.47466943359375,-10.129745483398438,25.73065948486328,-28.690921783447266
1776870458885708500,11.48470849609375,-10.758476257324219,25.754844665527344,-28.78579330444336
1776870458895746600,11.49474658203125,-11.29986572265625,25.55999755859375,-29.025928497314453
1776870458905785600,11.50478564453125,-11.331939697265625,25.511215209960938,-28.677074432373047
1776870458915824400,11.514824462890624,-12.021232604980469,25.270835876464844,-28.84463119506836
1776870458925862700,11.524862548828125,-12.112350463867188,25.048416137695312,-28.715038299560547
1776870458935901400,11.5349013671875,-12.380012512207031,24.993881225585938,-28.863750457763672
1776870458945940500,11.5449404296875,-12.193634033203125,24.93352508544922,-28.627140045166016
1776870458955979500,11.5549794921875,-12.689872741699219,24.94884490966797,-29.00400161743164
1776870458966017500,11.565017578125,-12.647171020507812,24.838829040527344,-29.015987396240234
1776870458976056600,11.575056640625,-12.017807006835938,24.87859344482422,-28.62997055053711
1776870458986095400,11.585095458984375,-12.268669128417969,24.988861083984375,-28.46286392211914
1776870458996133600,11.595133544921875,-12.230560302734375,25.025299072265625,-28.14144515991211
1776870459006172400,11.60517236328125,-13.323516845703125,24.895843505859375,-28.343791961669922
1776870459016211500,11.61521142578125,-13.974166870117188,25.19652557373047,-27.860675811767578
1776870459026250200,11.625250244140625,-14.021560668945312,25.532981872558594,-27.305316925048828
1776870459036288500,11.63528857421875,-14.541549682617188,25.593551635742188,-26.786968231201172
1776870459046327300,11.645327392578125,-14.887245178222656,25.95677947998047,-26.199085235595703
1776870459056366300,11.655366455078125,-15.553558349609375,26.04547882080078,-26.085330963134766
1776870459066404600,11.665404541015626,-16.011260986328125,26.201995849609375,-25.56258773803711
1776870459076443400,11.675443359375,-16.006210327148438,26.047035217285156,-24.82492446899414
1776870459086482400,11.685482421875,-17.320960998535156,25.88329315185547,-24.803035736083984
1776870459096521500,11.695521484375,-18.224838256835938,25.77265167236328,-24.598628997802734
1776870459106559500,11.7055595703125,-19.069839477539062,25.67517852783203,-24.29983901977539
1776870459116598500,11.7155986328125,-18.49974822998047,25.62407684326172,-22.395671844482422
1776870459126637600,11.725637451171876,-18.730194091796875,25.5316162109375,-21.03365707397461
1776870459136676600,11.735676513671875,-19.357139587402344,25.49810791015625,-19.801891326904297
1776870459146714400,11.74571435546875,-20.48365020751953,25.353843688964844,-19.31783676147461
1776870459156753700,11.755753662109376,-20.68378448486328,25.304771423339844,-18.215381622314453
1776870459166792400,11.76579248046875,-21.397201538085938,25.21014404296875,-17.468669891357422
1776870459176830500,11.77583056640625,-22.251937866210938,25.037460327148438,-17.317737579345703
1776870459186869500,11.785869384765626,-22.947433471679688,24.446701049804688,-17.104595184326172
1776870459196908500,11.795908447265624,-23.093048095703125,23.962425231933594,-16.551036834716797
1776870459206947600,11.805947509765625,-23.656219482421875,23.451004028320312,-16.685916900634766
1776870459216985300,11.8159853515625,-24.216270446777344,22.992835998535156,-16.900981903076172
1776870459227024600,11.826024658203124,-24.780838012695312,22.571578979492188,-16.946056365966797
1776870459237063400,11.8360634765625,-24.98052215576172,22.47254180908203,-16.999858856201172
1776870459247102500,11.8461025390625,-25.140892028808594,22.378814697265625,-16.719036102294922
1776870459257140500,11.856140380859374,-25.364830017089844,22.440284729003906,-16.234729766845703
1776870459267179500,11.866179443359375,-25.49591827392578,22.56915283203125,-15.710094451904297
1776870459277218600,11.876218505859375,-25.08806610107422,23.00897979736328,-14.718585968017578
1776870459287256600,11.886256591796876,-24.702194213867188,23.36431884765625,-13.89596939086914
1776870459297295600,11.896295654296875,-24.982940673828125,23.69317626953125,-13.699260711669922
1776870459307334400,11.90633447265625,-25.251548767089844,23.96118927001953,-13.18587875366211
1776870459317373400,11.91637353515625,-24.63849639892578,24.17491912841797,-12.208202362060547
1776870459327411500,11.926411376953125,-24.75354766845703,24.210960388183594,-11.847606658935547
1776870459337450500,11.936450439453125,-24.812049865722656,24.37340545654297,-12.10775375366211
1776870459347489500,11.946489501953126,-25.801834106445312,24.533058166503906,-13.355152130126953
1776870459357528600,11.956528564453125,-24.929649353027344,24.518096923828125,-13.15811538696289
1776870459367566600,11.966566650390625,-24.2747802734375,24.45343017578125,-13.160930633544922
1776870459377605400,11.97660546875,-24.260223388671875,24.2667236328125,-13.568180084228516
1776870459387641300,11.986641357421876,-23.627212524414062,24.143348693847656,-14.041881561279297
1776870459397680600,11.9966806640625,-23.68553924560547,24.104278564453125,-14.37894058227539
1776870459407719700,12.0067197265625,-23.618118286132812,24.12397003173828,-14.811595916748047
1776870459417758500,12.016758544921874,-23.098312377929688,24.08942413330078,-14.873538970947266
1776870459427796500,12.02679638671875,-22.98255157470703,23.899795532226562,-15.094280242919922
1776870459437835500,12.03683544921875,-23.15088653564453,23.69800567626953,-15.48538589477539
1776870459447874600,12.04687451171875,-22.860435485839844,23.649696350097656,-15.47933578491211
1776870459457913300,12.056913330078125,-22.82080078125,23.522422790527344,-15.314022064208984
1776870459467951600,12.06695166015625,-23.571022033691406,23.326133728027344,-15.901920318603516
1776870459477990700,12.07699072265625,-24.329254150390625,23.25025177001953,-16.332592010498047
1776870459488029400,12.087029541015625,-23.782302856445312,23.151382446289062,-15.798946380615234
1776870459498068500,12.097068359375,-23.51062774658203,23.133567810058594,-15.307132720947266
1776870459508106500,12.1071064453125,-23.851303100585938,23.175567626953125,-15.10098648071289
1776870459518145500,12.1171455078125,-23.686386108398438,23.369842529296875,-14.592266082763672
1776870459528184300,12.127184326171875,-24.17041015625,23.448646545410156,-14.354808807373047
1776870459538223600,12.1372236328125,-23.89044952392578,23.51854705810547,-13.052043914794922
1776870459548261400,12.147261474609374,-24.1478271484375,23.643409729003906,-12.201412200927734
1776870459558300400,12.157300537109375,-23.607025146484375,24.029830932617188,-10.96767807006836
1776870459568339700,12.167339599609376,-23.603256225585938,24.47161102294922,-9.90127944946289
1776870459578378500,12.17737841796875,-23.38445281982422,24.908889770507812,-9.030574798583984
1776870459588416500,12.18741650390625,-23.435646057128906,25.094879150390625,-7.948337554931641
1776870459598455600,12.19745556640625,-24.114601135253906,25.049339294433594,-6.978595733642578
1776870459608494600,12.20749462890625,-24.317909240722656,24.78417205810547,-6.080593109130859
1776870459618533600,12.21753369140625,-24.79108428955078,24.34222412109375,-5.679897308349609
1776870459628571400,12.2275712890625,-24.881492614746094,23.96050262451172,-5.514438629150391
1776870459638610700,12.237610595703124,-25.2188720703125,23.618370056152344,-5.918407440185547
1776870459648649500,12.2476494140625,-25.311431884765625,23.250038146972656,-5.950321197509766
1776870459658688500,12.2576884765625,-25.746536254882812,22.940345764160156,-6.254627227783203
1776870459668726500,12.2677265625,-26.12262725830078,22.598068237304688,-5.961994171142578
1776870459678765600,12.277765625,-26.490936279296875,22.043670654296875,-4.992763519287109
1776870459688804600,12.2878046875,-25.798362731933594,21.938377380371094,-3.6789894104003906
1776870459698843400,12.297843505859374,-25.555130004882812,21.947418212890625,-3.0345726013183594
1776870459708881700,12.307881591796875,-25.19774627685547,22.054580688476562,-2.417552947998047
1776870459718920400,12.31792041015625,-24.99500274658203,21.990196228027344,-2.0069618225097656
1776870459728959500,12.32795947265625,-24.847198486328125,21.894554138183594,-1.5328559875488281
1776870459738998500,12.33799853515625,-24.600509643554688,21.65863037109375,-0.7866935729980469
1776870459749036500,12.34803662109375,-24.54791259765625,21.27313995361328,-0.4237327575683594
1776870459759075300,12.358075439453126,-25.291786193847656,21.022850036621094,-0.6453781127929688
1776870459769114400,12.3681142578125,-25.224212646484375,20.594314575195312,-0.11482620239257812
1776870459779153700,12.378153564453125,-25.0592041015625,20.265029907226562,0.14178848266601562
1776870459789191400,12.38819140625,-24.99510955810547,19.976608276367188,0.5422477722167969
1776870459799230500,12.39823046875,-25.159263610839844,19.659271240234375,0.9578094482421875
1776870459809269500,12.40826953125,-25.787460327148438,19.128036499023438,0.820343017578125
1776870459819308500,12.41830859375,-25.121177673339844,18.991432189941406,1.3869552612304688
1776870459829346300,12.42834619140625,-24.938217163085938,18.72600555419922,1.5830307006835938
1776870459839385600,12.438385498046875,-25.455551147460938,18.437057495117188,1.49664306640625
1776870459849424600,12.448424560546876,-25.12621307373047,18.071983337402344,1.9442291259765625
1776870459859463400,12.45846337890625,-25.309402465820312,17.996734619140625,1.8112678527832031
1776870459869501700,12.468501708984375,-25.18865203857422,17.7960205078125,1.9737701416015625
1776870459879540500,12.47854052734375,-25.294570922851562,17.458641052246094,2.2275733947753906
1776870459889579500,12.48857958984375,-24.621604919433594,17.22692108154297,2.7474098205566406
1776870459899618600,12.49861865234375,-24.55536651611328,16.85028839111328,3.2263450622558594
1776870459909656600,12.508656494140626,-24.55536651611328,16.85028839111328,3.2263450622558594
1776870459919695600,12.518695556640624,-24.769973754882812,16.52716064453125,3.149738311767578
1776870459929734400,12.528734375,-24.70526123046875,16.21398162841797,3.1725807189941406
1776870459939773400,12.5387734375,-24.368431091308594,16.11658477783203,3.4470672607421875
1776870459949812500,12.5488125,-24.76233673095703,15.674720764160156,3.5174827575683594
1776870459959850500,12.5588505859375,-24.702735900878906,15.569145202636719,3.3912734985351562
1776870459969889300,12.56888916015625,-24.79833984375,15.203636169433594,3.5080108642578125
1776870459979928600,12.578928466796874,-24.334182739257812,14.849472045898438,3.751018524169922
1776870459989967600,12.588967529296875,-24.56322479248047,14.720039367675781,3.779651641845703
1776870460000005400,12.59900537109375,-24.93194580078125,14.567657470703125,3.5553016662597656
1776870460010044700,12.609044677734374,-24.795204162597656,14.2802734375,3.718982696533203
1776870460020083500,12.61908349609375,-24.236831665039062,14.107475280761719,4.168094635009766
1776870460030122500,12.62912255859375,-24.723304748535156,14.01849365234375,3.802600860595703
1776870460040160500,12.639160400390624,-24.008514404296875,13.739883422851562,4.424751281738281
1776870460050199600,12.649199462890625,-24.369186401367188,13.626190185546875,4.394832611083984
1776870460060238600,12.659238525390625,-23.939247131347656,13.528091430664062,4.811431884765625
1776870460070277400,12.66927734375,-23.962936401367188,13.228034973144531,4.920783996582031
1776870460080316400,12.67931640625,-24.174453735351562,13.237396240234375,4.816886901855469
1776870460090354400,12.6893544921875,-24.029464721679688,13.114753723144531,4.756687164306641
1776870460100393500,12.6993935546875,-24.255279541015625,13.063224792480469,4.7479705810546875
1776870460110431700,12.709431640625,-23.763816833496094,13.057807922363281,5.074771881103516
1776870460120470800,12.719470703125,-23.759506225585938,12.895515441894531,5.002098083496094
1776870460130508500,12.729508544921876,-23.531639099121094,13.149612426757812,4.933055877685547
1776870460140547800,12.7395478515625,-23.52611541748047,13.132232666015625,5.473659515380859
1776870460150587000,12.7495869140625,-23.82636260986328,13.148712158203125,5.235790252685547
1776870460160625700,12.759625732421876,-23.75708770751953,13.191505432128906,5.261180877685547
1776870460170664000,12.769663818359374,-23.52081298828125,13.414299011230469,5.4693145751953125
1776870460180702700,12.77970263671875,-23.673622131347656,13.441558837890625,5.338527679443359
1776870460190741800,12.78974169921875,-23.8310546875,13.702079772949219,5.211727142333984
1776870460200780800,12.79978076171875,-23.75066375732422,13.959571838378906,5.181915283203125
1776870460210819800,12.80981982421875,-23.663246154785156,14.077728271484375,5.314006805419922
1776870460220857900,12.81985791015625,-23.79560089111328,14.287460327148438,5.182033538818359
