time,seconds_elapsed,z,y,x
1776870447480962300,0.07996240234375,-112.54638671875,64.22569274902344,-84.14219665527344
1776870447491054300,0.090054443359375,-112.88346862792969,64.01969909667969,-83.26252746582031
1776870447501143600,0.1001435546875,-112.24833679199219,64.275634765625,-81.41093444824219
1776870447511241500,0.110241455078125,-114.22416687011719,63.77778625488281,-81.73614501953125
1776870447521335300,0.120335205078125,-115.35041809082031,63.59388732910156,-80.85568237304688
1776870447531428400,0.130428466796875,-113.51637268066406,63.81988525390625,-77.6951904296875
1776870447541521400,0.140521484375,-114.94525146484375,63.470489501953125,-77.57400512695312
1776870447551614200,0.1506142578125,-114.08377075195312,63.65301513671875,-75.08578491210938
1776870447561706200,0.160706298828125,-113.3580322265625,63.872222900390625,-72.96492004394531
1776870447571799300,0.17079931640625,-113.17831420898438,64.24806213378906,-71.3031005859375
1776870447581892400,0.180892333984375,-114.70733642578125,64.17933654785156,-70.74827575683594
1776870447591985400,0.1909853515625,-114.31167602539062,64.47398376464844,-68.45320129394531
1776870447602074400,0.201074462890625,-114.61805725097656,64.72171020507812,-66.99644470214844
1776870447612173300,0.21117333984375,-115.94767761230469,64.69338989257812,-66.11564636230469
1776870447622260200,0.22126025390625,-114.43923950195312,65.17347717285156,-63.05145263671875
1776870447632359200,0.231359130859375,-114.37167358398438,65.30422973632812,-61.42169189453125
1776870447642452200,0.2414521484375,-114.39134216308594,66.242431640625,-60.13868713378906
1776870447652541400,0.25154150390625,-113.96670532226562,66.73197937011719,-58.5914306640625
1776870447662635300,0.26163525390625,-113.26272583007812,67.86116027832031,-56.59651184082031
1776870447672729300,0.271729248046875,-112.64421081542969,68.74346923828125,-55.197998046875
1776870447682829300,0.281829345703125,-112.5743408203125,69.62998962402344,-53.85267639160156
1776870447692924200,0.291924072265625,-111.64570617675781,70.518798828125,-51.56770324707031
1776870447703018500,0.3020185546875,-110.96818542480469,71.29414367675781,-49.81697082519531
1776870447713108200,0.312108154296875,-111.10324096679688,71.9434814453125,-49.46148681640625
1776870447723202300,0.322202392578125,-109.90908813476562,72.04330444335938,-47.29585266113281
1776870447733297400,0.33229736328125,-110.22146606445312,71.9676513671875,-47.31010437011719
1776870447743391200,0.34239111328125,-108.22650146484375,72.03523254394531,-44.93402099609375
1776870447753485600,0.352485595703125,-107.87129211425781,72.28330993652344,-43.95912170410156
1776870447763580400,0.362580322265625,-106.58338928222656,72.78825378417969,-42.99592590332031
1776870447773679400,0.372679443359375,-108.91087341308594,73.00067138671875,-45.04364013671875
1776870447783770400,0.382770263671875,-107.63328552246094,73.93846130371094,-44.22184753417969
1776870447793864200,0.3928642578125,-108.27095031738281,74.20724487304688,-45.465972900390625
1776870447803963400,0.40296337890625,-108.885986328125,74.68447875976562,-46.313720703125
1776870447814057500,0.413057373046875,-109.23297119140625,74.57672119140625,-47.110992431640625
1776870447824147500,0.4231474609375,-110.20855712890625,74.11178588867188,-48.24693298339844
1776870447834242300,0.4332421875,-110.3905029296875,74.28585815429688,-47.976531982421875
1776870447844342300,0.44334228515625,-110.94920349121094,74.19784545898438,-48.57365417480469
1776870447854436400,0.453436279296875,-110.75764465332031,73.97984313964844,-48.39048767089844
1776870447864530400,0.463530517578125,-110.468505859375,73.76535034179688,-47.744232177734375
1776870447874624300,0.473624267578125,-110.51618957519531,73.81864929199219,-47.61763000488281
1776870447884719400,0.48371923828125,-111.380859375,73.35700988769531,-48.035491943359375
1776870447894809300,0.493809326171875,-111.62466430664062,73.1273193359375,-48.17707824707031
1776870447904905200,0.5039052734375,-111.68048095703125,73.44888305664062,-48.210601806640625
1776870447915000300,0.514000244140625,-111.24266052246094,73.89360046386719,-48.12629699707031
1776870447925096200,0.52409619140625,-111.9239501953125,74.11595153808594,-48.60527038574219
1776870447935191300,0.53419140625,-110.65312194824219,74.83975219726562,-47.54762268066406
1776870447945292300,0.544292236328125,-112.26834106445312,75.15791320800781,-49.103546142578125
1776870447955382300,0.55438232421875,-110.60910034179688,76.14335632324219,-47.34852600097656
1776870447965482200,0.564482177734375,-109.57620239257812,76.50910949707031,-46.55894470214844
1776870447975572200,0.574572265625,-109.5921630859375,77.44049072265625,-46.973480224609375
1776870447985666300,0.584666259765625,-109.04124450683594,78.01165771484375,-46.445648193359375
1776870447995766500,0.5947666015625,-109.38362121582031,78.21673583984375,-46.485870361328125
1776870448005855200,0.604855224609375,-108.63868713378906,79.05516052246094,-46.36041259765625
1776870448015954200,0.6149541015625,-108.02842712402344,79.43043518066406,-46.32722473144531
1776870448026044400,0.62504443359375,-107.93659973144531,80.07206726074219,-46.38587951660156
1776870448036138200,0.63513818359375,-108.52742004394531,80.66244506835938,-47.333740234375
1776870448046239500,0.645239501953125,-108.75166320800781,81.51338195800781,-48.257843017578125
1776870448056335400,0.65533544921875,-108.00497436523438,82.7269287109375,-48.549652099609375
1776870448066431200,0.66543115234375,-107.56941223144531,83.83921813964844,-48.680450439453125
1776870448076525600,0.675525634765625,-107.69966125488281,85.14091491699219,-50.23188781738281
1776870448086619400,0.685619384765625,-107.49673461914062,86.59754943847656,-51.38298034667969
1776870448096708000,0.6957080078125,-106.74440002441406,87.95954895019531,-52.377532958984375
1776870448106803000,0.705802978515625,-106.83767700195312,88.93092346191406,-54.00848388671875
1776870448116902100,0.715902099609375,-106.34658813476562,90.30941772460938,-55.27693176269531
1776870448126995200,0.7259951171875,-105.121337890625,91.21241760253906,-55.86518859863281
1776870448137087200,0.736087158203125,-104.49940490722656,92.60406494140625,-57.1142578125
1776870448147180000,0.746179931640625,-103.97122192382812,93.643310546875,-58.398712158203125
1776870448157273000,0.756273193359375,-103.83367919921875,94.43437194824219,-59.99700927734375
1776870448167366100,0.7663662109375,-102.45265197753906,95.59873962402344,-60.61370849609375
1776870448177459000,0.776458984375,-101.86701965332031,96.54066467285156,-62.09814453125
1776870448187551000,0.786551025390625,-100.85029602050781,97.62171936035156,-62.93377685546875
1776870448197643000,0.79664306640625,-99.84097290039062,98.58840942382812,-63.59297180175781
1776870448207736000,0.806736083984375,-98.16200256347656,99.49966430664062,-64.11190795898438
1776870448217828900,0.816828857421875,-97.45989990234375,100.21278381347656,-65.20210266113281
1776870448227923000,0.8269228515625,-96.38421630859375,101.27690124511719,-66.18756103515625
1776870448238011100,0.83701123046875,-94.30952453613281,102.32199096679688,-65.94465637207031
1776870448248109000,0.847109130859375,-92.68513488769531,103.13099670410156,-66.44956970214844
1776870448258201000,0.857201171875,-91.78724670410156,103.70726013183594,-67.29576110839844
1776870448268294100,0.867294189453125,-89.6754150390625,104.45292663574219,-66.9661865234375
1776870448278386200,0.87738623046875,-88.45303344726562,105.19412231445312,-67.99957275390625
1776870448288479000,0.88747900390625,-86.41184997558594,105.82704162597656,-68.23277282714844
1776870448298572000,0.897572021484375,-84.50173950195312,106.50349426269531,-68.00822448730469
1776870448308665000,0.9076650390625,-83.04757690429688,106.77952575683594,-68.09072875976562
1776870448318759000,0.917759033203125,-81.61329650878906,107.19712829589844,-68.15208435058594
1776870448328853200,0.927853271484375,-79.78878784179688,108.15171813964844,-67.83985900878906
1776870448338942000,0.93794189453125,-78.12413024902344,107.87153625488281,-66.98381042480469
1776870448349042000,0.9480419921875,-75.80633544921875,108.09745788574219,-65.17706298828125
1776870448359131100,0.958131103515625,-75.17750549316406,108.39207458496094,-64.38850402832031
1776870448369226000,0.96822607421875,-74.07279968261719,108.1409912109375,-62.791778564453125
1776870448379326200,0.978326171875,-74.09300231933594,107.91426086425781,-62.27995300292969
1776870448389417000,0.9884169921875,-73.76441955566406,107.70024108886719,-61.25770568847656
1776870448399518000,0.99851806640625,-73.34149169921875,107.46324157714844,-60.09596252441406
1776870448409612800,1.00861279296875,-73.75462341308594,107.64363098144531,-59.31788635253906
1776870448419702000,1.018701904296875,-73.89013671875,107.3450927734375,-58.49351501464844
1776870448429798100,1.028798095703125,-74.53425598144531,107.14799499511719,-57.701690673828125
1776870448439898000,1.038898193359375,-76.50688171386719,107.07383728027344,-58.10987854003906
1776870448449988000,1.048988037109375,-75.86630249023438,107.16963195800781,-56.62370300292969
1776870448460083000,1.0590830078125,-76.83564758300781,106.93231201171875,-56.69337463378906
1776870448470178000,1.069177978515625,-76.56214904785156,106.80612182617188,-55.16053771972656
1776870448480273000,1.07927294921875,-76.59524536132812,106.9166259765625,-54.052581787109375
1776870448490369000,1.089369140625,-77.373046875,106.71360778808594,-53.250518798828125
1776870448500468000,1.099468017578125,-78.64851379394531,106.30433654785156,-52.938446044921875
1776870448510558200,1.10955810546875,-79.55841064453125,105.85966491699219,-52.578704833984375
1776870448520653000,1.119653076171875,-79.45240783691406,105.60804748535156,-51.37242126464844
1776870448530752000,1.129751953125,-80.01437377929688,105.63664245605469,-50.74920654296875
1776870448540842000,1.139842041015625,-80.65164184570312,104.90638732910156,-50.12712097167969
1776870448550941000,1.14994091796875,-82.21989440917969,104.20661926269531,-50.230133056640625
1776870448561030000,1.16002978515625,-82.61900329589844,103.88185119628906,-48.95545959472656
1776870448571125000,1.170125,-83.57620239257812,103.12167358398438,-48.36314392089844
1776870448581219800,1.1802197265625,-84.02589416503906,102.31504821777344,-46.887908935546875
1776870448591316000,1.19031591796875,-84.83226013183594,101.378173828125,-46.12712097167969
1776870448601413000,1.2004130859375,-85.1810302734375,100.8968505859375,-44.81233215332031
1776870448611509000,1.210509033203125,-85.23988342285156,100.07431030273438,-43.479034423828125
1776870448621604900,1.22060498046875,-86.25349426269531,99.21536254882812,-43.244110107421875
1776870448631702000,1.230701904296875,-86.8642578125,98.65757751464844,-42.45314025878906
1776870448641796000,1.240796142578125,-86.62777709960938,97.63322448730469,-41.245025634765625
1776870448651896000,1.25089599609375,-86.0843505859375,97.6212158203125,-39.94926452636719
1776870448661986000,1.260986083984375,-85.9395751953125,97.0869140625,-39.101959228515625
1776870448672081000,1.271080810546875,-86.18022155761719,96.58489990234375,-38.859130859375
1776870448682176000,1.281176025390625,-86.06282043457031,96.37313842773438,-38.605804443359375
1776870448692273000,1.29127294921875,-85.56944274902344,96.25177001953125,-37.5994873046875
1776870448702368000,1.301367919921875,-86.96684265136719,96.00820922851562,-38.54542541503906
1776870448712462800,1.311462890625,-86.63101196289062,96.04632568359375,-38.553253173828125
1776870448722559000,1.32155908203125,-87.0098876953125,95.86712646484375,-38.382171630859375
1776870448732659200,1.3316591796875,-87.55865478515625,95.71687316894531,-38.44468688964844
1776870448742754800,1.3417548828125,-88.38003540039062,95.95703125,-39.66505432128906
1776870448752851000,1.351850830078125,-87.26254272460938,96.27326965332031,-38.4246826171875
1776870448762946000,1.361946044921875,-87.48904418945312,95.89759826660156,-38.604705810546875
1776870448773037800,1.372037841796875,-87.09715270996094,96.08604431152344,-38.07289123535156
1776870448783137000,1.382136962890625,-88.89698791503906,95.48173522949219,-39.42974853515625
1776870448793232000,1.39223193359375,-88.24720764160156,95.95890808105469,-38.44334411621094
1776870448803323100,1.4023232421875,-88.06959533691406,95.97232055664062,-38.148406982421875
1776870448813419000,1.4124189453125,-88.49320983886719,95.88754272460938,-38.43156433105469
1776870448823515000,1.422514892578125,-88.83392333984375,95.73098754882812,-38.830413818359375
1776870448833611000,1.432611083984375,-88.80662536621094,95.93022155761719,-38.906158447265625
1776870448843706000,1.4427060546875,-89.86430358886719,96.57356262207031,-40.06803894042969
1776870448853802000,1.452802001953125,-90.69557189941406,96.43896484375,-40.950469970703125
1776870448863898000,1.462898193359375,-90.74139404296875,97.02816772460938,-41.50254821777344
1776870448873994200,1.472994140625,-91.45974731445312,97.19001770019531,-42.39979553222656
1776870448884089000,1.483089111328125,-92.57182312011719,97.18753051757812,-43.7589111328125
1776870448894185000,1.49318505859375,-93.36903381347656,97.65776062011719,-44.77125549316406
1776870448904282000,1.5032822265625,-94.358642578125,97.74560546875,-45.93186950683594
1776870448914377000,1.513376953125,-94.99716186523438,97.91915893554688,-46.54986572265625
1776870448924478000,1.52347802734375,-95.88888549804688,97.699462890625,-47.55609130859375
1776870448934569200,1.5335693359375,-95.70230102539062,97.74166870117188,-47.683013916015625
1776870448944664000,1.5436640625,-96.29862976074219,97.66146850585938,-48.36531066894531
1776870448954759200,1.55375927734375,-96.84323120117188,97.68504333496094,-48.61949157714844
1776870448964858000,1.563858154296875,-97.04461669921875,97.44143676757812,-48.54896545410156
1776870448974947000,1.573947021484375,-97.90872192382812,97.02783203125,-49.53004455566406
1776870448985042200,1.584042236328125,-98.55477905273438,96.62042236328125,-49.85028076171875
1776870448995137000,1.594136962890625,-98.75740051269531,96.427490234375,-50.346649169921875
1776870449005232000,1.604232177734375,-98.82179260253906,95.97201538085938,-49.98858642578125
1776870449015326000,1.614325927734375,-99.7618408203125,95.69078063964844,-50.27923583984375
1776870449025420000,1.624419921875,-99.37716674804688,95.32913208007812,-50.15380859375
1776870449035514000,1.63451416015625,-98.58525085449219,95.59690856933594,-49.26704406738281
1776870449045609000,1.64460888671875,-98.38632202148438,95.49552917480469,-49.16058349609375
1776870449055704000,1.6547041015625,-97.74197387695312,96.10116577148438,-49.13270568847656
1776870449065799000,1.664798828125,-97.65028381347656,96.50393676757812,-49.79962158203125
1776870449075895000,1.67489501953125,-96.7972412109375,96.73757934570312,-50.102813720703125
1776870449085991000,1.684990966796875,-95.95448303222656,97.37420654296875,-50.703277587890625
1776870449096086500,1.69508642578125,-96.46037292480469,97.54946899414062,-51.695343017578125
1776870449106182700,1.7051826171875,-96.64895629882812,97.82124328613281,-52.79522705078125
1776870449116278500,1.715278564453125,-96.43927001953125,98.03306579589844,-53.692596435546875
1776870449126373600,1.72537353515625,-97.1881103515625,97.924072265625,-54.627105712890625
1776870449136468700,1.73546875,-97.05827331542969,98.24324035644531,-55.434844970703125
1776870449146565600,1.745565673828125,-96.50436401367188,98.36019897460938,-56.00309753417969
1776870449156660500,1.755660400390625,-96.48187255859375,99.06321716308594,-57.15869140625
1776870449166759400,1.765759521484375,-95.7880859375,99.43177795410156,-57.9068603515625
1776870449176854500,1.7758544921875,-95.24508666992188,99.800048828125,-58.74165344238281
1776870449186943500,1.785943603515625,-95.06332397460938,100.120849609375,-59.404052734375
1776870449197039600,1.79603955078125,-95.58038330078125,100.24197387695312,-60.80706787109375
1776870449207134500,1.806134521484375,-94.66575622558594,100.62181091308594,-60.661529541015625
1776870449217229600,1.8162294921875,-95.02339172363281,100.41741943359375,-61.47959899902344
1776870449227324400,1.826324462890625,-94.87606811523438,100.24403381347656,-61.7156982421875
1776870449237419500,1.83641943359375,-95.13430786132812,100.01991271972656,-61.879180908203125
1776870449247513600,1.846513671875,-95.86924743652344,100.06156921386719,-62.40824890136719
1776870449257606400,1.8566064453125,-95.32038879394531,100.30178833007812,-62.56597900390625
1776870449267702500,1.86670263671875,-95.6407470703125,100.12576293945312,-62.94111633300781
1776870449277797600,1.876797607421875,-95.03756713867188,100.62603759765625,-63.04960632324219
1776870449287896600,1.886896484375,-95.25148010253906,100.75363159179688,-63.87794494628906
1776870449297985500,1.896985595703125,-94.19157409667969,101.05792236328125,-63.93531799316406
1776870449308079400,1.907079345703125,-93.84503173828125,101.27340698242188,-64.58793640136719
1776870449318175500,1.917175537109375,-93.45353698730469,101.4580078125,-65.43960571289062
1776870449328270600,1.9272705078125,-93.96327209472656,101.51594543457031,-66.58009338378906
1776870449338366500,1.937366455078125,-92.78189086914062,101.77772521972656,-67.40493774414062
1776870449348462600,1.947462646484375,-92.15675354003906,102.04692077636719,-68.71932983398438
1776870449358562800,1.957562744140625,-91.55232238769531,102.28132629394531,-70.0506591796875
1776870449368656600,1.96765673828125,-91.11415100097656,102.3648681640625,-71.64122009277344
1776870449378746600,1.97774658203125,-90.68180847167969,102.39068603515625,-72.84423828125
1776870449388840700,1.9878408203125,-90.42848205566406,102.8514404296875,-73.5675048828125
1776870449398939600,1.997939697265625,-89.45101928710938,102.56431579589844,-74.16569519042969
1776870449409033500,2.008033447265625,-89.51834106445312,102.36415100097656,-75.52735900878906
1776870449419127800,2.0181279296875,-89.18154907226562,102.04438781738281,-76.96122741699219
1776870449429217500,2.028217529296875,-89.30848693847656,101.51034545898438,-79.20318603515625
1776870449439316500,2.03831640625,-88.81639099121094,100.72140502929688,-80.71269226074219
1776870449449410600,2.04841064453125,-87.93614196777344,100.01817321777344,-81.86610412597656
1776870449459498800,2.058498779296875,-88.39930725097656,99.03111267089844,-84.03846740722656
1776870449469597700,2.06859765625,-88.80467224121094,97.94322204589844,-85.66867065429688
1776870449479690500,2.0786904296875,-88.6619873046875,96.91813659667969,-86.81999206542969
1776870449489785600,2.08878564453125,-88.61245727539062,95.92340087890625,-87.82699584960938
1776870449499875600,2.09887548828125,-88.43846130371094,95.51470947265625,-88.81495666503906
1776870449509970700,2.108970703125,-88.60748291015625,95.03231811523438,-89.08647155761719
1776870449520070700,2.119070556640625,-88.24168395996094,94.98167419433594,-89.20477294921875
1776870449530160600,2.12916064453125,-88.32955932617188,94.78813171386719,-89.16636657714844
1776870449540256500,2.139256591796875,-88.58665466308594,94.734619140625,-89.8193359375
1776870449550352600,2.1493525390625,-88.00852966308594,94.73406982421875,-89.78280639648438
1776870449560448800,2.15944873046875,-88.05691528320312,94.85165405273438,-89.75747680664062
1776870449570544400,2.16954443359375,-88.31217956542969,94.46699523925781,-90.47151184082031
1776870449580640500,2.179640625,-87.54710388183594,94.50125122070312,-90.39192199707031
1776870449590736600,2.189736572265625,-87.66874694824219,94.30413818359375,-90.93243408203125
1776870449600832800,2.199832763671875,-87.33027648925781,94.25196838378906,-91.06590270996094
1776870449610928600,2.2099287109375,-86.93061828613281,94.50473022460938,-90.81294250488281
1776870449621024500,2.2200244140625,-87.48252868652344,94.33380126953125,-91.22395324707031
1776870449631121700,2.23012158203125,-87.00930786132812,94.21517944335938,-90.77081298828125
1776870449641222400,2.240222412109375,-87.27113342285156,94.320556640625,-90.73866271972656
1776870449651315700,2.250315673828125,-87.51593017578125,94.18556213378906,-90.96316528320312
1776870449661410600,2.26041064453125,-88.23258972167969,93.91593933105469,-91.03878784179688
1776870449671505700,2.270505615234375,-87.64007568359375,94.25947570800781,-90.5615234375
1776870449681601500,2.2806015625,-87.51203918457031,94.13233947753906,-90.10092163085938
1776870449691700700,2.29070068359375,-87.54983520507812,93.97596740722656,-90.26695251464844
1776870449701791500,2.30079150390625,-88.14817810058594,94.23623657226562,-90.34317016601562
1776870449711886600,2.310886474609375,-88.31326293945312,94.34910583496094,-90.59765625
1776870449721982500,2.320982421875,-88.15443420410156,94.35670471191406,-90.2962646484375
1776870449732078600,2.33107861328125,-87.65402221679688,94.34356689453125,-90.0982666015625
1776870449742173700,2.341173583984375,-88.53369140625,94.16767883300781,-90.75337219238281
1776870449752273700,2.351273681640625,-88.13546752929688,94.05125427246094,-90.2457275390625
1776870449762368800,2.36136865234375,-88.17127990722656,94.36048889160156,-90.24220275878906
1776870449772458500,2.37145849609375,-87.91874694824219,94.1575927734375,-90.16629028320312
1776870449782553600,2.3815537109375,-87.87802124023438,94.0216064453125,-89.93251037597656
1776870449792654600,2.391654541015625,-88.69564819335938,94.10966491699219,-90.43325805664062
1776870449802746600,2.40174658203125,-88.8853759765625,94.09878540039062,-90.72872924804688
1776870449812843500,2.411843505859375,-89.02125549316406,94.12884521484375,-90.71337890625
1776870449822939600,2.421939697265625,-89.16780090332031,94.1505126953125,-90.668701171875
1776870449833034500,2.432034423828125,-88.83589172363281,94.27076721191406,-90.52169799804688
1776870449843129600,2.442129638671875,-89.16525268554688,94.19471740722656,-90.76910400390625
1776870449853224400,2.452224365234375,-89.42269897460938,93.94589233398438,-90.96751403808594
1776870449863320600,2.462320556640625,-88.97026062011719,93.95440673828125,-90.25390625
1776870449873415700,2.472415771484375,-89.49922180175781,94.02471923828125,-90.5693359375
1776870449883515600,2.482515625,-89.51042175292969,93.88163757324219,-90.64454650878906
1776870449893610500,2.492610595703125,-90.41642761230469,94.03877258300781,-91.26219177246094
1776870449903701500,2.502701416015625,-89.07371520996094,94.04046630859375,-90.07257080078125
1776870449913802500,2.512802490234375,-88.74351501464844,94.04306030273438,-89.72209167480469
1776870449923893800,2.522893798828125,-89.57273864746094,93.89080810546875,-90.50747680664062
1776870449933989600,2.53298974609375,-89.77937316894531,93.89723205566406,-90.24554443359375
1776870449944085500,2.54308544921875,-89.11471557617188,93.82723999023438,-89.86492919921875
1776870449954182700,2.5531826171875,-89.98672485351562,93.94618225097656,-90.38430786132812
1776870449964278800,2.56327880859375,-89.89518737792969,93.87431335449219,-89.99772644042969
1776870449974373600,2.57337353515625,-89.89569091796875,93.66404724121094,-89.60160827636719
1776870449984469800,2.5834697265625,-90.14010620117188,93.77745056152344,-90.06761169433594
1776870449994566700,2.593566650390625,-91.03054809570312,93.7862548828125,-90.34306335449219
1776870450004662500,2.60366259765625,-90.14363098144531,93.90289306640625,-89.6151123046875
1776870450014758700,2.613758544921875,-90.52943420410156,93.88133239746094,-89.54409790039062
1776870450024854800,2.623854736328125,-90.79008483886719,94.16018676757812,-89.86337280273438
1776870450034950400,2.633950439453125,-90.4451904296875,94.0555419921875,-89.38316345214844
1776870450045049600,2.644049560546875,-91.11927795410156,93.931884765625,-89.69924926757812
1776870450055140600,2.654140625,-90.61555480957031,93.90959167480469,-89.14183044433594
1776870450065236500,2.664236572265625,-91.23934936523438,93.77339172363281,-89.02210998535156
1776870450075332600,2.67433251953125,-91.54312133789062,93.74818420410156,-89.12313842773438
1776870450085428500,2.684428466796875,-91.80337524414062,93.69017028808594,-89.2840576171875
1776870450095525000,2.694525146484375,-92.075927734375,93.62101745605469,-89.01325988769531
1776870450105626000,2.704626220703125,-91.57760620117188,93.88877868652344,-88.50973510742188
1776870450115718100,2.71471826171875,-91.98147583007812,93.65388488769531,-88.84811401367188
1776870450125820000,2.72481982421875,-92.73236083984375,93.56201171875,-88.98237609863281
1776870450135911000,2.734910888671875,-93.10935974121094,93.10858154296875,-89.18814086914062
1776870450146009000,2.745009033203125,-93.11378479003906,93.11331176757812,-89.23956298828125
1776870450156110000,2.755110107421875,-92.412841796875,93.14842224121094,-88.5430908203125
1776870450166202000,2.7652021484375,-92.98292541503906,93.11761474609375,-88.86958312988281
1776870450176299000,2.775299072265625,-93.27247619628906,93.08671569824219,-89.24220275878906
1776870450186396200,2.785396240234375,-93.21611022949219,93.14111328125,-89.23004150390625
1776870450196494000,2.795494140625,-92.96897888183594,93.35368347167969,-89.20767211914062
1776870450206592000,2.805592041015625,-92.49378967285156,93.02680969238281,-88.95616149902344
1776870450216690200,2.815690185546875,-92.00828552246094,93.21334838867188,-88.39994812011719
1776870450226787000,2.825787109375,-92.06961059570312,92.95428466796875,-88.60777282714844
1776870450236884200,2.83588427734375,-93.32933044433594,93.16990661621094,-89.46308898925781
1776870450246980900,2.84598095703125,-92.76661682128906,93.18348693847656,-89.07742309570312
1776870450257078000,2.856078125,-92.92884826660156,92.91987609863281,-88.87284851074219
1776870450267175000,2.8661748046875,-93.01063537597656,92.93423461914062,-89.08207702636719
1776870450277272000,2.87627197265625,-93.29801940917969,93.10202026367188,-89.0994873046875
1776870450287370000,2.886369873046875,-92.5377197265625,92.95880126953125,-88.41044616699219
1776870450297467000,2.896466796875,-92.10479736328125,92.99615478515625,-87.94412231445312
1776870450307564000,2.90656396484375,-92.47837829589844,92.9697265625,-88.07093811035156
1776870450317662000,2.916661865234375,-93.31646728515625,93.274658203125,-88.59402465820312
1776870450327759000,2.926759033203125,-92.92984008789062,92.95669555664062,-88.07122802734375
1776870450337856000,2.93685595703125,-93.14372253417969,92.88508605957031,-88.01765441894531
1776870450347952000,2.9469521484375,-93.56144714355469,92.79965209960938,-88.37457275390625
1776870450358050000,2.957050048828125,-93.78399658203125,92.89035034179688,-88.31272888183594
1776870450368147000,2.96714697265625,-92.97470092773438,92.86129760742188,-87.95719909667969
1776870450378243000,2.9772431640625,-94.12373352050781,92.58192443847656,-88.79946899414062
1776870450388340000,2.987340087890625,-92.84346008300781,92.93141174316406,-88.01376342773438
1776870450398437000,2.99743701171875,-93.87544250488281,92.77195739746094,-88.45755004882812
1776870450408533000,3.007532958984375,-93.90681457519531,92.77473449707031,-88.48594665527344
1776870450418630100,3.017630126953125,-93.87132263183594,92.63720703125,-88.74612426757812
1776870450428732000,3.02773193359375,-93.55142211914062,92.83468627929688,-88.37173461914062
1776870450438827000,3.037826904296875,-93.42234802246094,92.64105224609375,-87.97817993164062
1776870450448923100,3.047923095703125,-93.87834167480469,92.715087890625,-88.09506225585938
1776870450459019800,3.058019775390625,-93.67500305175781,92.60079956054688,-87.71949768066406
1776870450469116000,3.068115966796875,-94.15977478027344,92.66825866699219,-88.10322570800781
1776870450479212000,3.0782119140625,-95.09440612792969,92.51817321777344,-88.35905456542969
1776870450489303000,3.088302978515625,-94.32504272460938,92.60441589355469,-87.59898376464844
1776870450499400000,3.09839990234375,-94.29975891113281,92.57453918457031,-87.33920288085938
1776870450509496800,3.108496826171875,-95.58332824707031,92.75979614257812,-88.03988647460938
1776870450519593000,3.118593017578125,-95.34994506835938,92.5426025390625,-87.91864013671875
1776870450529690000,3.128690185546875,-95.39752197265625,92.4769287109375,-88.03668212890625
1776870450539792100,3.138792236328125,-95.83619689941406,92.51922607421875,-88.14907836914062
1776870450549887000,3.148886962890625,-95.28598022460938,92.70677185058594,-87.932861328125
1776870450559977000,3.15897705078125,-95.18008422851562,92.83395385742188,-87.64680480957031
1776870450570071000,3.169071044921875,-95.7110595703125,92.58061218261719,-88.0548095703125
1776870450580167200,3.179167236328125,-95.55694580078125,92.70724487304688,-87.97142028808594
1776870450590264000,3.18926416015625,-94.58421325683594,92.75242614746094,-87.18731689453125
1776870450600361200,3.199361328125,-95.23313903808594,92.65443420410156,-87.74116516113281
1776870450610462000,3.2094619140625,-95.35299682617188,92.69758605957031,-87.52691650390625
1776870450620555000,3.219554931640625,-95.12547302246094,92.65190124511719,-87.27587890625
1776870450630652000,3.22965185546875,-95.47065734863281,92.62008666992188,-87.36878967285156
1776870450640749000,3.2397490234375,-95.53150939941406,92.49833679199219,-87.56268310546875
1776870450650847000,3.249846923828125,-95.52232360839844,92.47712707519531,-87.41806030273438
1776870450660943000,3.259943115234375,-95.36235046386719,92.49867248535156,-87.55984497070312
1776870450671041000,3.270041015625,-95.53369140625,92.71977233886719,-87.67868041992188
1776870450681139000,3.280138916015625,-94.99617004394531,92.59832763671875,-87.00112915039062
1776870450691236900,3.29023681640625,-95.54830932617188,92.69694519042969,-87.341552734375
1776870450701333000,3.3003330078125,-94.90924072265625,92.68612670898438,-87.03890991210938
1776870450711433000,3.310432861328125,-95.52571105957031,92.55279541015625,-87.2784423828125
1776870450721528000,3.320528076171875,-95.88285827636719,92.50555419921875,-87.76130676269531
1776870450731622000,3.330621826171875,-94.90046691894531,92.86976623535156,-87.06489562988281
1776870450741718000,3.340718017578125,-95.68765258789062,92.78974914550781,-87.21354675292969
1776870450751807000,3.350806884765625,-95.10176086425781,92.68951416015625,-86.94364929199219
1776870450761906000,3.360906005859375,-95.687255859375,92.7464599609375,-87.17813110351562
1776870450772000000,3.371,-95.83601379394531,92.69642639160156,-87.26960754394531
1776870450782094800,3.3810947265625,-95.05940246582031,92.63325500488281,-86.90937805175781
1776870450792185000,3.39118505859375,-96.12495422363281,92.45912170410156,-87.50785827636719
1776870450802287000,3.401287109375,-95.95918273925781,92.78297424316406,-87.26847839355469
1776870450812382000,3.4113818359375,-95.37928771972656,92.50776672363281,-87.15573120117188
1776870450822473000,3.421472900390625,-97.07394409179688,92.31866455078125,-88.41883850097656
1776870450832574200,3.43157421875,-95.66253662109375,92.66160583496094,-87.28240966796875
1776870450842664000,3.441663818359375,-95.72286987304688,92.72027587890625,-87.12443542480469
1776870450852764200,3.45176416015625,-96.16455078125,92.62602233886719,-87.59925842285156
1776870450862856000,3.46185595703125,-95.95196533203125,92.86058044433594,-87.33580017089844
1776870450872958000,3.4719580078125,-95.60816955566406,92.76799011230469,-87.363037109375
1776870450883050000,3.482050048828125,-95.44757080078125,92.81800842285156,-87.05552673339844
1776870450893147000,3.49214697265625,-96.01899719238281,92.83869934082031,-87.44989013671875
1776870450903244000,3.502244140625,-95.35459899902344,92.910400390625,-86.88356018066406
1776870450913341000,3.5123408203125,-95.86514282226562,92.84858703613281,-87.00180053710938
1776870450923443200,3.522443115234375,-96.34181213378906,92.726318359375,-87.63516235351562
1776870450933534000,3.532533935546875,-95.40573120117188,92.94093322753906,-87.22238159179688
1776870450943630800,3.542630859375,-96.06517028808594,92.91517639160156,-87.28242492675781
1776870450953727000,3.55272705078125,-95.42027282714844,93.00846862792969,-86.7452392578125
1776870450963822000,3.562822021484375,-95.58209228515625,93.23323059082031,-87.06820678710938
1776870450973919000,3.5729189453125,-94.94253540039062,93.04135131835938,-86.5013427734375
1776870450984016000,3.583015869140625,-95.68185424804688,93.08984375,-87.20553588867188
1776870450994112000,3.593112060546875,-95.56195068359375,93.01475524902344,-86.76203918457031
1776870451004208000,3.6032080078125,-95.83329772949219,93.08290100097656,-87.24864196777344
1776870451014306000,3.61330615234375,-95.68125915527344,93.23562622070312,-86.97779846191406
1776870451024405000,3.623405029296875,-95.15943908691406,93.04853820800781,-86.69874572753906
1776870451034502100,3.633502197265625,-95.71910095214844,93.00985717773438,-87.00637817382812
1776870451044599000,3.64359912109375,-95.80995178222656,93.18812561035156,-87.19438171386719
1776870451054695200,3.653695068359375,-95.33403015136719,92.86366271972656,-86.61734008789062
1776870451064791000,3.663791015625,-95.37054443359375,93.07765197753906,-86.60734558105469
1776870451074888000,3.673887939453125,-95.29315185546875,93.03807067871094,-86.38467407226562
1776870451084985000,3.683985107421875,-95.20423889160156,93.00265502929688,-86.54533386230469
1776870451095081200,3.694081298828125,-95.80360412597656,93.00840759277344,-86.77474975585938
1776870451105179000,3.704178955078125,-95.14369201660156,93.07670593261719,-86.310302734375
1776870451115276800,3.71427685546875,-95.42012023925781,92.98439025878906,-86.40325927734375
1776870451125374700,3.724374755859375,-95.99075317382812,92.86671447753906,-86.81591796875
1776870451135471900,3.734471923828125,-95.76329040527344,92.83952331542969,-86.59432983398438
1776870451145567700,3.744567626953125,-96.32867431640625,93.11563110351562,-87.21337890625
1776870451155663600,3.75466357421875,-95.88555908203125,93.13581848144531,-86.85015869140625
1776870451165759700,3.764759765625,-95.56039428710938,93.02902221679688,-86.69300842285156
1776870451175854600,3.7748544921875,-96.13407897949219,93.10206604003906,-87.06369018554688
1776870451185950700,3.78495068359375,-96.48138427734375,93.31622314453125,-87.49052429199219
1776870451196050700,3.79505078125,-95.97128295898438,93.27330017089844,-87.1240234375
1776870451206141700,3.8051416015625,-95.42112731933594,93.330810546875,-86.74064636230469
1776870451216238800,3.81523876953125,-95.89186096191406,93.26470947265625,-87.07359313964844
1776870451226334700,3.825334716796875,-96.40937805175781,92.89633178710938,-87.1209716796875
1776870451236432000,3.835431884765625,-95.50436401367188,93.05471801757812,-86.6600341796875
1776870451246527700,3.84552783203125,-95.66281127929688,93.00593566894531,-86.71903991699219
1776870451256624600,3.855624755859375,-95.91410827636719,92.99806213378906,-86.77857971191406
1776870451266726000,3.865725830078125,-95.25125122070312,92.76103210449219,-86.21664428710938
1776870451276815600,3.875815673828125,-95.07431030273438,93.02488708496094,-86.23500061035156
1776870451286911700,3.885911865234375,-95.95980834960938,92.80560302734375,-86.92448425292969
1776870451297007900,3.8960078125,-95.49069213867188,92.82147216796875,-86.52880859375
1776870451307102700,3.906102783203125,-95.81744384765625,92.86947631835938,-86.70858764648438
1776870451317198800,3.91619873046875,-95.39974975585938,93.01127624511719,-86.12739562988281
1776870451327293700,3.926293701171875,-96.19085693359375,93.09693908691406,-86.74807739257812
1776870451337388800,3.936388916015625,-95.9056396484375,92.78535461425781,-86.409912109375
1776870451347485000,3.94648486328125,-96.11979675292969,92.97404479980469,-86.74053955078125
1776870451357581600,3.95658154296875,-96.40390014648438,93.10542297363281,-86.88188171386719
1776870451367678700,3.9666787109375,-96.23847961425781,92.83889770507812,-86.58917236328125
1776870451377775600,3.976775634765625,-95.87989807128906,93.13716125488281,-86.301513671875
1776870451387872800,3.986872802734375,-96.08598327636719,93.20648193359375,-86.29232788085938
1776870451397970700,3.996970703125,-96.56788635253906,92.91104125976562,-86.69734191894531
1776870451408067600,4.007067626953125,-96.69703674316406,93.06402587890625,-86.4991455078125
1776870451418164700,4.017164794921875,-97.2928466796875,93.00962829589844,-86.68534851074219
1776870451428261600,4.02726171875,-96.83860778808594,93.16325378417969,-86.13348388671875
1776870451438359800,4.03735986328125,-97.3826904296875,93.1138916015625,-86.46517944335938
1776870451448456000,4.0474560546875,-96.5927734375,92.93780517578125,-85.61990356445312
1776870451458552800,4.057552734375,-97.1939697265625,92.83932495117188,-85.54354858398438
1776870451468648700,4.067648681640625,-98.09051513671875,92.88861083984375,-85.83595275878906
1776870451478744800,4.077744873046875,-97.96693420410156,92.83486938476562,-85.44100952148438
1776870451488844500,4.087844482421875,-98.14070129394531,92.97235107421875,-85.19816589355469
1776870451498935800,4.097935791015625,-98.3101806640625,92.79814147949219,-84.74281311035156
1776870451509032700,4.10803271484375,-98.63626098632812,92.8013916015625,-84.79364013671875
1776870451519129900,4.1181298828125,-99.15653991699219,92.54690551757812,-84.94189453125
1776870451529227800,4.128227783203125,-99.02694702148438,92.46247863769531,-84.55497741699219
1776870451539329800,4.138329833984375,-99.18595886230469,92.45272827148438,-84.12150573730469
1776870451549426700,4.1484267578125,-99.6182861328125,92.34783935546875,-84.25624084472656
1776870451559522600,4.1585224609375,-100.286865234375,92.20695495605469,-84.28471374511719
1776870451569613600,4.168613525390625,-99.55856323242188,92.51866149902344,-83.81698608398438
1776870451579711700,4.178711669921875,-100.42533874511719,92.09275817871094,-84.03849792480469
1776870451589812700,4.188812744140625,-100.55947875976562,92.20158386230469,-83.45393371582031
1776870451599908900,4.198908935546875,-100.54592895507812,92.15769958496094,-82.85986328125
1776870451610002000,4.209001953125,-101.02641296386719,92.22813415527344,-82.70997619628906
1776870451620097500,4.21909765625,-100.76387023925781,91.97135925292969,-82.30117797851562
1776870451630193700,4.229193603515625,-100.95115661621094,92.0074462890625,-82.3160400390625
1776870451640289800,4.239289794921875,-101.21853637695312,91.87596130371094,-81.88288879394531
1776870451650385700,4.2493857421875,-101.1910400390625,92.01426696777344,-81.32844543457031
1776870451660482600,4.259482666015625,-101.60697937011719,91.89732360839844,-81.26553344726562
1776870451670577700,4.26957763671875,-103.23576354980469,91.84553527832031,-81.75909423828125
1776870451680673800,4.279673828125,-102.17416381835938,91.91940307617188,-80.50848388671875
1776870451690769700,4.289769775390625,-102.3076171875,91.91346740722656,-80.3916015625
1776870451700865800,4.29986572265625,-102.72669982910156,92.15248107910156,-80.21751403808594
1776870451710962700,4.309962646484375,-103.03646850585938,92.04116821289062,-80.01739501953125
1776870451721057500,4.3200576171875,-102.73809814453125,91.99421691894531,-79.74998474121094
1776870451731153700,4.330153564453125,-103.19076538085938,92.08851623535156,-79.58444213867188
1776870451741250800,4.340250732421875,-102.99482727050781,91.97805786132812,-78.97245788574219
1776870451751347700,4.35034765625,-103.20867919921875,92.14341735839844,-78.97164916992188
1776870451761444900,4.36044482421875,-103.60621643066406,92.01596069335938,-79.07241821289062
1776870451771541800,4.370541748046875,-103.18885803222656,92.16873168945312,-78.87190246582031
1776870451781638700,4.380638671875,-102.68972778320312,92.33645629882812,-78.67359924316406
1776870451791733800,4.390733642578125,-104.21835327148438,92.22808837890625,-79.80169677734375
1776870451801828600,4.40082861328125,-103.21051025390625,92.33531188964844,-79.43630981445312
1776870451811923700,4.410923828125,-103.20228576660156,92.62474060058594,-79.55784606933594
1776870451822017800,4.421017822265625,-103.04112243652344,92.41169738769531,-79.58689880371094
1776870451832117800,4.43111767578125,-102.70213317871094,92.81187438964844,-79.83432006835938
1776870451842212600,4.441212646484375,-102.4306640625,93.18466186523438,-79.79124450683594
1776870451852305700,4.4513056640625,-102.34916687011719,93.09580993652344,-79.92242431640625
1776870451862398700,4.461398681640625,-102.14328002929688,93.26789855957031,-80.00836181640625
1776870451872492800,4.471492919921875,-101.25181579589844,93.77276611328125,-80.04875183105469
1776870451882587600,4.481587646484375,-100.65797424316406,94.19113159179688,-79.71530151367188
1776870451892683800,4.491683837890625,-100.812744140625,94.25222778320312,-80.03973388671875
1776870451902778600,4.501778564453125,-100.21371459960938,94.41976928710938,-80.02059936523438
1776870451912869600,4.51186962890625,-99.89250183105469,94.45687866210938,-80.30288696289062
1776870451922964700,4.52196484375,-99.32102966308594,94.47438049316406,-80.388671875
1776870451933060600,4.532060546875,-98.60322570800781,94.83895874023438,-80.37809753417969
1776870451943155700,4.54215576171875,-98.81729125976562,95.27018737792969,-80.96549987792969
1776870451953251800,4.552251953125,-98.77590942382812,95.30328369140625,-81.25367736816406
1776870451963345700,4.562345703125,-98.8282470703125,95.38270568847656,-81.78817749023438
1776870451973440800,4.572440673828125,-97.9024658203125,95.53817749023438,-81.41371154785156
1776870451983541800,4.582541748046875,-98.17497253417969,95.7166748046875,-81.96849060058594
1776870451993632800,4.5926328125,-101.09028625488281,95.5491943359375,-84.23812866210938
1776870452003728600,4.602728759765625,-97.30960083007812,95.63917541503906,-81.2728271484375
1776870452013824800,4.61282470703125,-100.6246337890625,95.43495178222656,-83.9410400390625
1776870452023922700,4.622922607421875,-98.015869140625,95.47665405273438,-81.90963745117188
1776870452034016500,4.6330166015625,-98.78945922851562,95.33584594726562,-82.26438903808594
1776870452044106800,4.643106689453125,-97.27618408203125,95.4715576171875,-81.54145812988281
1776870452054206700,4.653206787109375,-96.78866577148438,95.52964782714844,-81.19822692871094
1776870452064296700,4.663296630859375,-96.75968933105469,95.27449035644531,-81.62705993652344
1776870452074391600,4.6733916015625,-97.04063415527344,95.44439697265625,-82.03434753417969
1776870452084492800,4.683492919921875,-96.45869445800781,95.1802978515625,-82.00282287597656
1776870452094588000,4.693587890625,-96.53750610351562,95.2987060546875,-82.74208068847656
1776870452104683300,4.703683349609375,-95.83200073242188,95.37994384765625,-82.67807006835938
1776870452114773000,4.71377294921875,-95.18858337402344,95.41403198242188,-82.83360290527344
1776870452124873200,4.723873291015625,-95.31535339355469,95.53367614746094,-83.22360229492188
1776870452134968000,4.733968017578125,-94.988037109375,95.67604064941406,-83.23941040039062
1776870452145058000,4.74405810546875,-95.04278564453125,95.73025512695312,-83.54377746582031
1776870452155152100,4.754152099609375,-94.99040222167969,95.61958312988281,-83.68721008300781
1776870452165247200,4.764247314453125,-94.427734375,95.83425903320312,-82.91831970214844
1776870452175343000,4.774343017578125,-94.56413269042969,95.72837829589844,-83.07875061035156
1776870452185439200,4.784439208984375,-94.1197509765625,95.92570495605469,-82.82086181640625
1776870452195535000,4.79453515625,-94.24502563476562,96.01235961914062,-82.82611083984375
1776870452205631000,4.804630859375,-93.60072326660156,95.81085205078125,-82.48979187011719
1776870452215726000,4.81472607421875,-93.63433837890625,95.81427001953125,-82.96675109863281
1776870452225821000,4.824821044921875,-93.47920227050781,96.10882568359375,-83.01377868652344
1776870452235918000,4.83491796875,-93.36305236816406,96.18258666992188,-83.29145812988281
1776870452246014200,4.84501416015625,-92.67959594726562,96.21246337890625,-83.31361389160156
1776870452256111000,4.855111083984375,-92.828857421875,95.89515686035156,-83.72303771972656
1776870452266208300,4.865208251953125,-93.07124328613281,95.93812561035156,-83.59811401367188
1776870452276306200,4.87530615234375,-93.29658508300781,95.85578918457031,-83.60713195800781
1776870452286402300,4.88540234375,-92.88166809082031,95.9993896484375,-83.44546508789062
1776870452296499200,4.895499267578125,-92.30056762695312,96.098876953125,-83.20480346679688
1776870452306596000,4.90559619140625,-91.57463073730469,96.05914306640625,-82.68692016601562
1776870452316694000,4.915694091796875,-91.37576293945312,96.05168151855469,-82.70016479492188
1776870452326791200,4.925791259765625,-92.37835693359375,95.97705078125,-83.73963928222656
1776870452336887000,4.935886962890625,-91.65275573730469,96.31782531738281,-83.47512817382812
1776870452346985200,4.945985107421875,-91.72015380859375,96.20069885253906,-83.40333557128906
1776870452357082000,4.95608203125,-91.64204406738281,96.28947448730469,-83.55760192871094
1776870452367179300,4.96617919921875,-91.58255004882812,96.08372497558594,-83.82003784179688
1776870452377276200,4.976276123046875,-92.00248718261719,96.116943359375,-84.15130615234375
1776870452387378200,4.986378173828125,-91.59730529785156,96.26522827148438,-83.88954162597656
1776870452397469000,4.996468994140625,-91.68148803710938,96.38223266601562,-83.92828369140625
1776870452407566000,5.006566162109375,-91.5357666015625,96.62680053710938,-83.71661376953125
1776870452417663000,5.0166630859375,-91.40489196777344,96.48629760742188,-83.44941711425781
1776870452427760000,5.026760009765625,-91.60491943359375,96.46104431152344,-83.55732727050781
1776870452437857000,5.03685693359375,-91.25662231445312,96.19554138183594,-83.39509582519531
1776870452447953200,5.046953125,-90.91119384765625,96.50151062011719,-83.487548828125
1776870452458050300,5.05705029296875,-91.1185302734375,96.24961853027344,-83.81741333007812
1776870452468146200,5.067146240234375,-90.49459838867188,96.25262451171875,-83.52033996582031
1776870452478243000,5.0772431640625,-90.65544128417969,96.18962097167969,-83.61286926269531
1776870452488338200,5.087338134765625,-90.11604309082031,95.92236328125,-83.73036193847656
1776870452498435000,5.09743505859375,-90.68704223632812,96.03834533691406,-84.16195678710938
1776870452508531200,5.10753125,-89.99177551269531,96.09336853027344,-83.48301696777344
1776870452518628000,5.117628173828125,-90.28709411621094,96.09271240234375,-83.8387451171875
1776870452528725200,5.127725341796875,-90.56631469726562,95.9183349609375,-84.08120727539062
1776870452538821000,5.137821044921875,-90.00448608398438,95.65415954589844,-83.52734375
1776870452548917000,5.1479169921875,-89.66493225097656,95.61854553222656,-83.37202453613281
1776870452559013000,5.15801318359375,-89.80186462402344,95.90365600585938,-83.56098937988281
1776870452569110300,5.1681103515625,-90.11808776855469,95.7156982421875,-83.67611694335938
1776870452579207200,5.178207275390625,-89.69708251953125,95.50759887695312,-83.76885986328125
1776870452589304300,5.18830419921875,-89.56996154785156,95.5196533203125,-83.7386474609375
1776870452599401200,5.198401123046875,-90.18087768554688,95.1939697265625,-84.15641784667969
1776870452609498000,5.208498046875,-89.30953979492188,95.11933898925781,-83.75807189941406
1776870452619600100,5.21860009765625,-88.92947387695312,95.1383056640625,-83.64384460449219
1776870452629692200,5.228692138671875,-89.30241394042969,94.962890625,-84.208740234375
1776870452639789000,5.2387890625,-88.60383605957031,94.94404602050781,-83.6063232421875
1776870452649886200,5.24888623046875,-88.56901550292969,94.75453186035156,-83.61781311035156
1776870452659983000,5.258983154296875,-88.38131713867188,94.28695678710938,-83.3681640625
1776870452670080300,5.269080322265625,-89.975830078125,94.13899230957031,-84.80044555664062
1776870452680178200,5.27917822265625,-88.85990905761719,93.9591064453125,-83.92710876464844
1776870452690275000,5.289275146484375,-88.56936645507812,93.74978637695312,-83.75335693359375
1776870452700372200,5.299372314453125,-88.31867980957031,93.69187927246094,-83.7528076171875
1776870452710469000,5.30946923828125,-88.51875305175781,93.42732238769531,-83.81895446777344
1776870452720567300,5.3195673828125,-88.47311401367188,93.35771179199219,-84.31135559082031
1776870452730666200,5.329666259765625,-89.27790832519531,93.03750610351562,-84.94284057617188
1776870452740769000,5.33976904296875,-88.149658203125,92.634521484375,-83.94232177734375
1776870452750862000,5.349862060546875,-87.44334411621094,92.69894409179688,-83.59121704101562
1776870452760958200,5.359958251953125,-87.73721313476562,92.22930908203125,-83.47651672363281
1776870452771056000,5.37005615234375,-86.76547241210938,92.02438354492188,-82.93135070800781
1776870452781157400,5.380157470703125,-86.72267150878906,91.90815734863281,-82.65054321289062
1776870452791254000,5.39025390625,-85.30657958984375,91.92364501953125,-81.81521606445312
1776870452801349000,5.40034912109375,-86.24801635742188,91.58963012695312,-82.48542785644531
1776870452811446300,5.4104462890625,-87.47775268554688,90.91885375976562,-83.47621154785156
1776870452821542100,5.420542236328125,-84.97984313964844,91.13975524902344,-81.15391540527344
1776870452831637200,5.43063720703125,-87.28097534179688,90.66500854492188,-82.51821899414062
1776870452841728300,5.440728271484375,-85.41949462890625,90.64195251464844,-80.49595642089844
1776870452851830300,5.450830322265625,-85.92051696777344,90.28936767578125,-80.132080078125
1776870452861926100,5.460926025390625,-86.71733093261719,90.32612609863281,-80.41032409667969
1776870452872022300,5.471022216796875,-86.2213134765625,90.05509948730469,-79.82119750976562
1776870452882118100,5.4811181640625,-86.06517028808594,89.78138732910156,-79.20268249511719
1776870452892210200,5.491210205078125,-86.20777893066406,89.63737487792969,-78.87249755859375
1776870452902310100,5.50131005859375,-86.31874084472656,89.52204895019531,-78.44711303710938
1776870452912405200,5.5114052734375,-86.09295654296875,89.02488708496094,-77.76492309570312
1776870452922495200,5.5214951171875,-85.74720764160156,88.77885437011719,-77.2200927734375
1776870452932591000,5.531591064453125,-86.01914978027344,88.2620849609375,-77.31706237792969
1776870452942691000,5.541691162109375,-86.538818359375,88.21669006347656,-77.8997802734375
1776870452952783000,5.551783203125,-87.37776184082031,87.62519836425781,-78.63438415527344
1776870452962884000,5.561884033203125,-86.75457763671875,87.10035705566406,-77.9931640625
1776870452972979000,5.57197900390625,-87.34132385253906,86.95045471191406,-78.68365478515625
1776870452983073300,5.5820732421875,-87.412109375,86.62043762207031,-78.61317443847656
1776870452993168100,5.592168212890625,-86.60496520996094,86.34323120117188,-78.2974853515625
1776870453003263200,5.60226318359375,-87.04701232910156,86.01776123046875,-78.30966186523438
1776870453013358000,5.612358154296875,-87.42631530761719,85.45858764648438,-78.79759216308594
1776870453023453200,5.622453125,-87.3477783203125,85.30659484863281,-78.45126342773438
1776870453033547300,5.63254736328125,-87.86747741699219,84.92807006835938,-78.45753479003906
1776870453043637000,5.642636962890625,-88.25532531738281,84.642822265625,-78.58280944824219
1776870453053738200,5.65273828125,-89.22756958007812,84.47308349609375,-78.55697631835938
1776870453063829200,5.662829345703125,-88.75291442871094,84.28285217285156,-77.69343566894531
1776870453073923000,5.672923095703125,-89.019775390625,84.26557922363281,-77.94599914550781
1776870453084022000,5.68302197265625,-89.69183349609375,83.98875427246094,-78.15586853027344
1776870453094117000,5.6931171875,-89.74554443359375,83.77215576171875,-78.13607788085938
1776870453104211700,5.703211669921875,-90.24577331542969,83.51835632324219,-78.25550842285156
1776870453114302000,5.713302001953125,-90.99574279785156,83.09881591796875,-78.6949462890625
1776870453124403000,5.72340283203125,-90.30584716796875,83.1220703125,-77.91253662109375
1776870453134497000,5.7334970703125,-90.98509216308594,82.98548889160156,-78.32110595703125
1776870453144590800,5.7435908203125,-91.36476135253906,82.79278564453125,-78.33564758300781
1776870453154684700,5.7536845703125,-92.17776489257812,82.20399475097656,-78.71664428710938
1776870453164779800,5.76377978515625,-92.29104614257812,82.20146179199219,-78.43147277832031
1776870453174871800,5.773871826171875,-91.78927612304688,82.24684143066406,-77.51153564453125
1776870453184964900,5.78396484375,-92.43788146972656,81.99919128417969,-77.67994689941406
1776870453195058000,5.794057861328125,-92.73179626464844,81.80726623535156,-77.81465148925781
1776870453205145900,5.804145751953125,-92.35037231445312,82.05073547363281,-77.24081420898438
1776870453215243800,5.814243896484375,-94.43893432617188,81.69313049316406,-78.90016174316406
1776870453225335800,5.824335693359375,-94.06474304199219,81.59832763671875,-77.85658264160156
1776870453235430000,5.834429931640625,-94.27206420898438,81.42095947265625,-77.95997619628906
1776870453245523000,5.84452294921875,-94.46131896972656,81.43965148925781,-77.46768188476562
1776870453255617000,5.854616943359375,-94.4835205078125,81.60324096679688,-77.79914855957031
1776870453265709800,5.864709716796875,-94.60307312011719,81.58477783203125,-77.56581115722656
1776870453275803000,5.874802978515625,-95.13682556152344,81.46769714355469,-77.98847961425781
1776870453285892900,5.884892822265625,-95.42353820800781,81.2091064453125,-78.490478515625
1776870453295988700,5.89498876953125,-94.430419921875,81.01506042480469,-78.39598083496094
1776870453306086000,5.9050859375,-94.66766357421875,80.92143249511719,-79.01376342773438
1776870453316182800,5.915182861328125,-94.72329711914062,80.62864685058594,-79.34989929199219
1776870453326280000,5.925280029296875,-94.29454040527344,80.73042297363281,-78.70852661132812
1776870453336376000,5.9353759765625,-94.47370910644531,80.4830322265625,-79.0216064453125
1776870453346471000,5.945470947265625,-95.22441101074219,80.22596740722656,-78.87666320800781
1776870453356571000,5.95557080078125,-94.46446228027344,80.66798400878906,-77.98577880859375
1776870453366662000,5.965661865234375,-94.46629333496094,80.843017578125,-77.55165100097656
1776870453376757800,5.9757578125,-94.20526123046875,81.11309814453125,-77.14981079101562
1776870453386852900,5.985852783203125,-95.18791198730469,81.0447998046875,-77.62863159179688
1776870453396949800,5.99594970703125,-94.54168701171875,81.04400634765625,-77.02023315429688
1776870453407046000,6.0060458984375,-94.18324279785156,81.11793518066406,-76.91609191894531
1776870453417142800,6.016142822265625,-94.493408203125,80.87733459472656,-77.59794616699219
1776870453427239000,6.026239013671875,-93.72561645507812,81.27806091308594,-77.47244262695312
1776870453437334800,6.036334716796875,-93.42398071289062,81.10697937011719,-77.39509582519531
1776870453447431000,6.046430908203125,-93.38119506835938,81.32231140136719,-77.72067260742188
1776870453457526000,6.056526123046875,-92.24964904785156,81.40481567382812,-76.98291015625
1776870453467622000,6.066621826171875,-92.18943786621094,81.44953918457031,-77.39019775390625
1776870453477717800,6.0767177734375,-92.59434509277344,81.67100524902344,-77.67001342773438
1776870453487814000,6.08681396484375,-92.59326171875,81.70111083984375,-77.64637756347656
1776870453497909800,6.09690966796875,-91.92637634277344,81.76570129394531,-77.54757690429688
1776870453508009000,6.107009033203125,-91.15995788574219,81.87722778320312,-77.00749206542969
1776870453518099000,6.117098876953125,-91.09568786621094,82.06427001953125,-77.33177185058594
1776870453528194000,6.127194091796875,-90.61125183105469,82.16256713867188,-77.47431945800781
1776870453538289700,6.13728955078125,-90.28070068359375,82.07827758789062,-77.96005249023438
1776870453548385800,6.1473857421875,-90.93009948730469,82.26577758789062,-78.76904296875
1776870453558487000,6.157487060546875,-89.64617919921875,82.79447937011719,-78.40936279296875
1776870453568576800,6.16757666015625,-90.260498046875,82.92674255371094,-79.29367065429688
1776870453578673000,6.1776728515625,-89.01789855957031,83.08888244628906,-78.79917907714844
1776870453588769000,6.18776904296875,-89.32954406738281,83.35684204101562,-79.6014404296875
1776870453598865000,6.197864990234375,-89.02476501464844,83.45481872558594,-79.57650756835938
1776870453608961800,6.2079619140625,-90.38082885742188,83.43135070800781,-80.98944091796875
1776870453619058000,6.218057861328125,-89.34718322753906,83.84346008300781,-80.36949157714844
1776870453629155800,6.22815576171875,-88.24806213378906,83.95539855957031,-79.65763854980469
1776870453639252000,6.238251953125,-90.23776245117188,83.93461608886719,-81.86347961425781
1776870453649347800,6.248347900390625,-89.23675537109375,84.28082275390625,-81.48587036132812
1776870453659444000,6.25844384765625,-87.84951782226562,84.73991394042969,-80.57240295410156
1776870453669543000,6.26854296875,-89.94062805175781,84.83636474609375,-82.56019592285156
1776870453679634000,6.278634033203125,-86.58274841308594,85.52334594726562,-80.24577331542969
1776870453689729000,6.28872900390625,-88.68473815917969,85.53045654296875,-82.16386413574219
1776870453699825000,6.298824951171875,-87.48051452636719,86.14068603515625,-81.52888488769531
1776870453709920800,6.308920654296875,-86.52096557617188,86.45193481445312,-80.87614440917969
1776870453720022000,6.31902197265625,-87.72947692871094,86.61822509765625,-82.57254028320312
1776870453730116900,6.329116943359375,-86.03788757324219,87.18910217285156,-81.3992919921875
1776870453740209000,6.339208984375,-86.47795104980469,87.37179565429688,-82.20646667480469
1776870453750305000,6.349304931640625,-85.1654052734375,87.84706115722656,-81.17755126953125
1776870453760401000,6.35940087890625,-85.25968933105469,88.36294555664062,-81.79220581054688
1776870453770497800,6.369497802734375,-85.17277526855469,88.42866516113281,-81.62387084960938
1776870453780595000,6.379594970703125,-85.73391723632812,88.91436767578125,-82.48603820800781
1776870453790691800,6.38969189453125,-85.45318603515625,89.21788024902344,-81.94175720214844
1776870453800789000,6.3997890625,-85.19476318359375,89.53271484375,-81.98963928222656
1776870453810887000,6.409886962890625,-85.49917602539062,90.07353210449219,-82.15921020507812
1776870453820983800,6.41998388671875,-85.76698303222656,90.36112976074219,-82.13612365722656
1776870453831085000,6.4300849609375,-86.38558959960938,90.88397216796875,-82.50914001464844
1776870453841181000,6.440180908203125,-86.83012390136719,90.95545959472656,-82.41488647460938
1776870453851271000,6.45027099609375,-87.11784362792969,91.3480224609375,-82.6513671875
1776870453861367000,6.460366943359375,-87.3853759765625,91.7647705078125,-82.56546020507812
1776870453871462000,6.4704619140625,-87.55194091796875,91.88510131835938,-82.17942810058594
1776870453881557000,6.480556884765625,-88.5382080078125,92.01405334472656,-83.00932312011719
1776870453891651800,6.49065185546875,-88.18888854980469,92.33877563476562,-82.47834777832031
1776870453901750800,6.500750732421875,-88.49563598632812,92.669189453125,-82.54849243164062
1776870453911846000,6.510845947265625,-89.42156982421875,92.96330261230469,-83.24594116210938
1776870453921940000,6.52093994140625,-89.63642883300781,93.13409423828125,-83.2666015625
1776870453932035000,6.53103515625,-89.57797241210938,92.91572570800781,-83.43968200683594
1776870453942130000,6.5411298828125,-90.10614013671875,92.96977233886719,-84.19520568847656
1776870453952223700,6.5512236328125,-89.55061340332031,93.33062744140625,-84.03446960449219
1776870453962320000,6.56131982421875,-90.18643188476562,93.2470703125,-85.13533020019531
1776870453972413700,6.57141357421875,-90.76876831054688,93.21627807617188,-86.05831909179688
1776870453982509800,6.581509765625,-90.38079833984375,93.31446838378906,-86.17019653320312
1776870453992605000,6.59160498046875,-90.48616027832031,93.49378967285156,-86.49176025390625
1776870454002700800,6.60170068359375,-91.81019592285156,93.27163696289062,-87.90531921386719
1776870454012791800,6.611791748046875,-92.00376892089844,93.33839416503906,-88.06620788574219
1776870454022888000,6.621887939453125,-90.98466491699219,93.38967895507812,-87.28517150878906
1776870454032983800,6.63198388671875,-90.88229370117188,93.44596862792969,-87.60054016113281
1776870454043082000,6.64208203125,-91.32168579101562,93.15206909179688,-87.85772705078125
1776870454053182000,6.652181884765625,-91.14605712890625,93.50456237792969,-87.91136169433594
1776870454063272000,6.66227197265625,-90.84645080566406,93.41423034667969,-88.31474304199219
1776870454073366800,6.67236669921875,-91.28076171875,93.60678100585938,-88.91908264160156
1776870454083465700,6.6824658203125,-91.32490539550781,93.93865966796875,-89.29627990722656
1776870454093560800,6.692560791015625,-90.79412841796875,94.02877807617188,-89.37892150878906
1776870454103655400,6.702655517578125,-88.16630554199219,94.23234558105469,-87.23551940917969
1776870454113745200,6.7127451171875,-88.35733032226562,94.32356262207031,-87.13352966308594
1776870454123845400,6.722845458984375,-89.7637939453125,94.34739685058594,-88.02810668945312
1776870454133941200,6.732941162109375,-89.89421081542969,94.445068359375,-88.25704956054688
1776870454144035300,6.743035400390625,-89.34669494628906,94.46003723144531,-87.68473815917969
1776870454154126000,6.7531259765625,-88.56207275390625,94.59048461914062,-87.40968322753906
1776870454164226300,6.763226318359375,-89.14352416992188,94.37498474121094,-88.05026245117188
1776870454174322200,6.773322265625,-89.85377502441406,94.53030395507812,-88.86125183105469
1776870454184417300,6.783417236328125,-89.19606018066406,94.51004028320312,-88.53431701660156
1776870454194511000,6.793510986328125,-89.40760803222656,94.46363830566406,-88.80345153808594
1776870454204606200,6.803606201171875,-88.68693542480469,94.48257446289062,-88.77578735351562
1776870454214701000,6.813701171875,-89.80349731445312,94.25559997558594,-89.41395568847656
1776870454224796400,6.82379638671875,-87.86233520507812,94.70469665527344,-87.94876098632812
1776870454234886100,6.83388623046875,-88.0262451171875,94.62361145019531,-88.03628540039062
1776870454244986400,6.843986328125,-87.11238098144531,94.75970458984375,-87.848388671875
1776870454255081200,6.854081298828125,-87.33084106445312,94.38911437988281,-88.13203430175781
1776870454265171200,6.864171142578125,-87.51826477050781,94.15455627441406,-88.14675903320312
1776870454275270100,6.874270263671875,-87.429931640625,94.27590942382812,-88.29109191894531
1776870454285365000,6.884364990234375,-87.33316040039062,93.91142272949219,-88.74235534667969
1776870454295460400,6.89446044921875,-87.14619445800781,93.91632080078125,-88.75990295410156
1776870454305553200,6.90455322265625,-86.85791015625,93.52099609375,-88.98347473144531
1776870454315648300,6.914648193359375,-87.00428771972656,93.52717590332031,-89.26132202148438
1776870454325741300,6.9247412109375,-86.81057739257812,93.44331359863281,-89.505126953125
1776870454335836200,6.934836181640625,-86.5128173828125,93.434814453125,-89.59504699707031
1776870454345932300,6.944932373046875,-86.49957275390625,93.23541259765625,-89.86660766601562
1776870454356021200,6.955021240234375,-86.41221618652344,93.163818359375,-90.12547302246094
1776870454366118100,6.9651181640625,-86.34590148925781,92.96968078613281,-90.17901611328125
1776870454376214300,6.97521435546875,-85.96043395996094,93.0762939453125,-90.27951049804688
1776870454386316300,6.98531640625,-85.63775634765625,93.13931274414062,-90.44355773925781
1776870454396407000,6.995406982421875,-85.14495849609375,93.01155090332031,-90.72148132324219
1776870454406508300,7.00550830078125,-85.18893432617188,92.95771789550781,-90.95700073242188
1776870454416597200,7.01559716796875,-84.79347229003906,93.581787109375,-90.59040832519531
1776870454426694100,7.025694091796875,-85.13626098632812,93.18574523925781,-90.51620483398438
1776870454436791300,7.035791259765625,-85.59768676757812,93.39376831054688,-90.42453002929688
1776870454446887200,7.04588720703125,-86.48371887207031,93.11244201660156,-90.52351379394531
1776870454456984300,7.055984375,-86.26812744140625,93.01219177246094,-89.9761962890625
1776870454467080200,7.066080078125,-85.95634460449219,92.98478698730469,-89.67974853515625
1776870454477181200,7.07618115234375,-86.14103698730469,92.82852172851562,-89.40756225585938
1776870454487272200,7.086272216796875,-86.21609497070312,92.85240173339844,-89.19320678710938
1776870454497368300,7.096368408203125,-86.71072387695312,92.8419189453125,-89.28962707519531
1776870454507464200,7.106464111328125,-87.16390991210938,92.65020751953125,-88.90238952636719
1776870454517565200,7.116565185546875,-86.97091674804688,92.82339477539062,-88.29667663574219
1776870454527660000,7.126659912109375,-87.55769348144531,92.80598449707031,-88.05641174316406
1776870454537755100,7.136755126953125,-88.3531494140625,92.78221130371094,-87.34565734863281
1776870454547851300,7.146851318359375,-89.35638427734375,92.4747314453125,-87.0743408203125
1776870454557942300,7.1569423828125,-90.22206115722656,92.56449890136719,-86.80879211425781
1776870454568038100,7.1670380859375,-90.8826904296875,92.65316772460938,-85.99342346191406
1776870454578135300,7.17713525390625,-91.38201904296875,92.51332092285156,-84.70011901855469
1776870454588232200,7.187232177734375,-92.24223327636719,92.61500549316406,-83.75581359863281
1776870454598329300,7.197329345703125,-92.87724304199219,92.65811157226562,-83.01211547851562
1776870454608426200,7.20742626953125,-93.50408935546875,92.54830932617188,-82.20364379882812
1776870454618522000,7.217522216796875,-94.11997985839844,92.31544494628906,-81.53327941894531
1776870454628620000,7.2276201171875,-95.16322326660156,91.89735412597656,-81.3121337890625
1776870454638717200,7.23771728515625,-95.85285949707031,91.77423095703125,-81.11918640136719
1776870454648818200,7.247818115234375,-96.21339416503906,91.33834838867188,-80.70896911621094
1776870454658909400,7.257909423828125,-96.78376770019531,91.39816284179688,-80.32797241210938
1776870454669004300,7.26800439453125,-97.93875122070312,90.60807800292969,-80.28976440429688
1776870454679100200,7.27810009765625,-98.41224670410156,90.37562561035156,-79.94705200195312
1776870454689196000,7.288196044921875,-99.17854309082031,90.13043212890625,-80.22930908203125
1776870454699292200,7.298292236328125,-98.73771667480469,89.87942504882812,-79.273193359375
1776870454709393200,7.30839306640625,-99.47503662109375,89.56846618652344,-79.20768737792969
1776870454719485200,7.318485107421875,-100.15232849121094,89.59429931640625,-79.00102233886719
1776870454729581000,7.3285810546875,-100.35540771484375,89.695068359375,-78.21629333496094
1776870454739676200,7.33867626953125,-100.12490844726562,90.01373291015625,-77.69378662109375
1776870454749772300,7.348772216796875,-100.57810974121094,90.05155944824219,-77.25445556640625
1776870454759869400,7.358869384765625,-100.11630249023438,90.5902099609375,-76.56599426269531
1776870454769965000,7.368965087890625,-100.33744812011719,90.73588562011719,-76.04660034179688
1776870454780062200,7.379062255859375,-99.65805053710938,91.16250610351562,-75.259033203125
1776870454790160100,7.38916015625,-100.07313537597656,90.94184875488281,-75.10107421875
1776870454800257300,7.39925732421875,-100.3050537109375,90.6502685546875,-75.06602478027344
1776870454810354200,7.409354248046875,-100.25909423828125,91.01193237304688,-74.84513854980469
1776870454820451300,7.419451416015625,-100.67027282714844,90.92303466796875,-75.30186462402344
1776870454830548200,7.42954833984375,-100.25225830078125,90.72090148925781,-75.35073852539062
1776870454840645400,7.439645263671875,-100.06977844238281,90.84779357910156,-75.68768310546875
1776870454850741200,7.4497412109375,-99.85015869140625,90.39167785644531,-76.10870361328125
1776870454860837000,7.459837158203125,-99.324462890625,90.51628112792969,-76.08607482910156
1776870454870934300,7.469934326171875,-99.57534790039062,90.27847290039062,-76.77395629882812
1776870454881034200,7.4800341796875,-99.078125,90.26553344726562,-76.5003662109375
1776870454891126300,7.490126220703125,-98.57347106933594,90.02032470703125,-76.48760986328125
1776870454901222100,7.50022216796875,-99.25320434570312,90.18284606933594,-77.11915588378906
1776870454911323400,7.510323486328125,-98.83987426757812,90.26054382324219,-77.0047607421875
1776870454921415400,7.52041552734375,-99.41146850585938,90.0941162109375,-77.49850463867188
1776870454931513300,7.530513427734375,-98.56340026855469,90.17730712890625,-77.07807922363281
1776870454941609200,7.540609130859375,-98.0703125,90.356689453125,-77.17947387695312
1776870454951711200,7.550711181640625,-98.1932373046875,90.35353088378906,-76.87925720214844
1776870454961802200,7.56080224609375,-98.02120971679688,90.33033752441406,-76.8675537109375
1776870454971899400,7.5708994140625,-97.60910034179688,90.30448913574219,-76.63447570800781
1776870454981996300,7.580996337890625,-98.2764892578125,90.58847045898438,-76.69477844238281
1776870454992093400,7.591093505859375,-97.75689697265625,90.380859375,-76.23814392089844
1776870455002189000,7.60118896484375,-97.61062622070312,90.51541137695312,-75.63214111328125
1776870455012284200,7.6112841796875,-97.73985290527344,90.63314819335938,-74.84547424316406
1776870455022380000,7.621380126953125,-96.50865173339844,90.70138549804688,-73.38157653808594
1776870455032476200,7.63147607421875,-100.97203063964844,90.3834228515625,-75.92359924316406
1776870455042573300,7.6415732421875,-97.42135620117188,90.79048156738281,-72.80519104003906
1776870455052669200,7.651669189453125,-96.45729064941406,91.47035217285156,-72.05372619628906
1776870455062765000,7.66176513671875,-96.10809326171875,91.82762145996094,-71.25054931640625
1776870455072861200,7.671861083984375,-96.15567016601562,91.79151916503906,-69.84893798828125
1776870455082956300,7.681956298828125,-96.10227966308594,92.01573181152344,-68.11080932617188
1776870455093053200,7.69205322265625,-96.97187805175781,91.83296203613281,-67.16224670410156
1776870455103149600,7.702149658203125,-96.92471313476562,91.76795959472656,-66.13198852539062
1776870455113245400,7.712245361328125,-97.7791748046875,91.22100830078125,-66.0675048828125
1776870455123341600,7.722341552734375,-98.33465576171875,90.92507934570312,-66.58329772949219
1776870455133438500,7.7324384765625,-98.97303771972656,90.43528747558594,-67.08029174804688
1776870455143535600,7.74253564453125,-98.64607238769531,89.906982421875,-66.60247802734375
1776870455153637600,7.7526376953125,-98.52272033691406,89.45378112792969,-66.1727294921875
1776870455163729700,7.762729736328125,-99.74273681640625,89.18270874023438,-66.303955078125
1776870455173826800,7.772826904296875,-98.70512390136719,88.86074829101562,-64.35313415527344
1776870455183924700,7.7829248046875,-98.77888488769531,88.76844787597656,-63.5711669921875
1776870455194023700,7.793023681640625,-99.27195739746094,88.49951171875,-63.27091979980469
1776870455204119800,7.803119873046875,-98.46736145019531,88.36506652832031,-62.156219482421875
1776870455214216700,7.813216796875,-99.05819702148438,88.09257507324219,-61.86686706542969
1776870455224312600,7.8233125,-100.0413818359375,87.59870910644531,-62.27728271484375
1776870455234410500,7.833410400390625,-98.95513916015625,87.87544250488281,-61.10404968261719
1776870455244507600,7.843507568359375,-99.79795837402344,87.32034301757812,-61.463165283203125
1776870455254609700,7.853609619140625,-99.17481994628906,86.74911499023438,-60.696746826171875
1776870455264700700,7.86370068359375,-99.26893615722656,86.63310241699219,-60.26324462890625
1776870455274798600,7.873798583984375,-99.28282165527344,86.31245422363281,-59.78662109375
1776870455284900600,7.883900634765625,-99.68434143066406,85.90408325195312,-59.53477478027344
1776870455294992600,7.89399267578125,-99.57283020019531,85.52207946777344,-59.17510986328125
1776870455305089800,7.90408984375,-98.38618469238281,85.26947021484375,-57.897216796875
1776870455315186400,7.9141865234375,-98.5306396484375,85.1204833984375,-57.799072265625
1776870455325283600,7.92428369140625,-99.58644104003906,84.47496032714844,-58.333648681640625
1776870455335380500,7.93438037109375,-99.64498901367188,84.25921630859375,-58.17790222167969
1776870455345476600,7.9444765625,-99.40029907226562,83.74774169921875,-57.53425598144531
1776870455355574500,7.954574462890625,-99.26852416992188,83.3077392578125,-57.25471496582031
1776870455365672700,7.964672607421875,-99.91668701171875,82.826416015625,-57.26033020019531
1776870455375770600,7.9747705078125,-99.43559265136719,82.41465759277344,-57.019256591796875
1776870455385867500,7.984867431640625,-99.62713623046875,81.80191040039062,-56.981536865234375
1776870455395964700,7.994964599609375,-100.180419921875,81.39497375488281,-57.508026123046875
1776870455406066700,8.005066650390624,-99.89839172363281,81.04127502441406,-57.08111572265625
1776870455416163600,8.01516357421875,-100.37030029296875,80.56504821777344,-56.9412841796875
1776870455426260700,8.0252607421875,-100.34652709960938,80.47904968261719,-56.90618896484375
1776870455436356600,8.035356689453126,-99.56745910644531,80.0401611328125,-56.488525390625
1776870455446447600,8.045447509765625,-99.93601989746094,79.53361511230469,-56.444305419921875
1776870455456542500,8.05554248046875,-100.06172180175781,79.28651428222656,-56.57551574707031
1776870455466639600,8.0656396484375,-101.122314453125,78.75161743164062,-57.37879943847656
1776870455476737500,8.075737548828124,-100.87763977050781,78.4532470703125,-57.068145751953125
1776870455486834400,8.08583447265625,-100.78837585449219,77.95703125,-57.03997802734375
1776870455496935700,8.095935791015625,-101.458251953125,77.70356750488281,-57.68133544921875
1776870455507026700,8.106026611328126,-101.28701782226562,77.50906372070312,-57.32276916503906
1776870455517122600,8.11612255859375,-100.90837097167969,77.01913452148438,-57.26402282714844
1776870455527218700,8.12621875,-100.55960083007812,76.74440002441406,-56.691070556640625
1776870455537315600,8.136315673828125,-100.5985107421875,76.49261474609375,-57.12420654296875
1776870455547411700,8.14641162109375,-101.07600402832031,76.14622497558594,-57.1776123046875
1776870455557508600,8.156508544921875,-100.72172546386719,76.30978393554688,-56.8831787109375
1776870455567608600,8.166608642578124,-100.72857666015625,76.37971496582031,-56.934112548828125
1776870455577703400,8.176703369140625,-100.74722290039062,76.483154296875,-56.62178039550781
1776870455587795500,8.18679541015625,-100.38691711425781,76.89433288574219,-56.37242126464844
1776870455597896400,8.196896484375,-99.47731018066406,77.07695007324219,-55.821258544921875
1776870455607992600,8.20699267578125,-99.90962219238281,77.01325988769531,-55.96925354003906
1776870455618087400,8.21708740234375,-99.99734497070312,77.21165466308594,-56.3118896484375
1776870455628182500,8.2271826171875,-101.02593994140625,77.13003540039062,-56.543212890625
1776870455638275600,8.237275634765625,-102.89698791503906,77.04527282714844,-58.46217346191406
1776870455648370400,8.247370361328125,-102.25350952148438,76.90574645996094,-58.14122009277344
1776870455658465500,8.257465576171874,-101.47743225097656,77.26155090332031,-57.750152587890625
1776870455668561700,8.267561767578124,-101.33613586425781,77.05564880371094,-57.65760803222656
1776870455678652400,8.27765234375,-102.92654418945312,77.54765319824219,-59.14109802246094
1776870455688748500,8.28774853515625,-102.36898803710938,77.67350769042969,-58.50103759765625
1776870455698843400,8.297843505859374,-104.11541748046875,78.25233459472656,-60.03395080566406
1776870455708941800,8.30794189453125,-104.7645263671875,78.41998291015625,-60.41535949707031
1776870455719037400,8.318037353515624,-103.39259338378906,78.83943176269531,-59.55723571777344
1776870455729134600,8.328134521484374,-104.15023803710938,79.15664672851562,-60.04510498046875
1776870455739231500,8.3382314453125,-104.16949462890625,79.59922790527344,-60.07366943359375
1776870455749334500,8.34833447265625,-101.96049499511719,80.07798767089844,-58.395233154296875
1776870455759430700,8.3584306640625,-103.80387878417969,80.60127258300781,-59.84996032714844
1776870455769522700,8.368522705078124,-101.93832397460938,80.94363403320312,-58.51304626464844
1776870455779618600,8.37861865234375,-103.79852294921875,80.92771911621094,-60.31773376464844
1776870455789719600,8.388719482421875,-103.96401977539062,81.4271240234375,-60.06532287597656
1776870455799810600,8.398810546875,-103.27790832519531,81.81814575195312,-60.21977233886719
1776870455809907700,8.40890771484375,-103.78105163574219,81.89614868164062,-60.44317626953125
1776870455820003600,8.419003662109375,-102.325439453125,82.342529296875,-59.69963073730469
1776870455830099500,8.429099365234375,-102.56329345703125,82.97879028320312,-60.20393371582031
1776870455840195600,8.439195556640625,-104.21578979492188,83.44131469726562,-61.73509216308594
1776870455850292700,8.449292724609375,-103.162109375,83.68057250976562,-60.641937255859375
1776870455860389600,8.4593896484375,-102.61331176757812,83.92530822753906,-60.67387390136719
1776870455870486500,8.469486572265625,-102.58100891113281,84.28756713867188,-60.959564208984375
1776870455880583400,8.47958349609375,-102.23597717285156,84.62208557128906,-60.94566345214844
1776870455890680600,8.4896806640625,-102.92758178710938,84.7945556640625,-61.71478271484375
1776870455900777500,8.499777587890625,-102.32621765136719,85.51556396484375,-61.5537109375
1776870455910873600,8.50987353515625,-102.51251220703125,86.0904541015625,-61.734405517578125
1776870455920970800,8.519970703125,-103.71578979492188,86.04817199707031,-63.17475891113281
1776870455931066600,8.530066650390625,-102.28160095214844,86.62303161621094,-62.153594970703125
1776870455941162500,8.54016259765625,-101.68682861328125,87.072998046875,-62.3812255859375
1776870455951258600,8.550258544921874,-103.15934753417969,87.33372497558594,-63.841949462890625
1776870455961355800,8.560355712890624,-102.89822387695312,88.11337280273438,-63.977020263671875
1776870455971452700,8.57045263671875,-102.84051513671875,88.26094055175781,-64.31269836425781
1776870455981549600,8.580549560546874,-102.41488647460938,88.72152709960938,-64.53153991699219
1776870455991646500,8.590646484375,-101.945068359375,89.079833984375,-64.66461181640625
1776870456001741600,8.600741455078126,-102.09664916992188,89.45155334472656,-65.3043212890625
1776870456011838700,8.610838623046876,-101.90806579589844,89.93052673339844,-65.84928894042969
1776870456021935600,8.620935546875,-100.47523498535156,90.24723815917969,-65.23854064941406
1776870456032035600,8.63103564453125,-101.63677978515625,90.6231689453125,-67.18449401855469
1776870456042126600,8.641126708984375,-101.36643981933594,90.89524841308594,-67.64448547363281
1776870456052221400,8.651221435546875,-100.77696228027344,91.20053100585938,-68.15074157714844
1776870456062322700,8.66132275390625,-100.17868041992188,91.70402526855469,-68.46334838867188
1776870456072413700,8.67141357421875,-100.08566284179688,91.96684265136719,-69.50947570800781
1776870456082509600,8.681509521484376,-99.9718017578125,91.97607421875,-70.06423950195312
1776870456092606500,8.6916064453125,-99.79421997070312,92.28352355957031,-70.93972778320312
1776870456102702300,8.701702392578126,-100.78997802734375,92.27545166015625,-72.76823425292969
1776870456112799200,8.71179931640625,-100.6536865234375,92.27336120605469,-73.66407775878906
1776870456122895400,8.721895263671875,-99.797607421875,92.03048706054688,-73.83909606933594
1776870456132997400,8.731997314453125,-100.46038818359375,91.93592834472656,-75.609130859375
1776870456143093200,8.74209326171875,-100.08262634277344,91.7796630859375,-76.53330993652344
1776870456153183200,8.752183349609375,-100.55690002441406,91.44874572753906,-78.19194030761719
1776870456163279400,8.762279296875,-101.5655517578125,91.497802734375,-80.21757507324219
1776870456173376300,8.772376220703125,-99.70077514648438,91.45326232910156,-79.28518676757812
1776870456183472000,8.78247216796875,-100.23448181152344,91.39361572265625,-80.14219665527344
1776870456193568300,8.792568359375,-99.80538940429688,91.39091491699219,-79.541015625
1776870456203665200,8.8026650390625,-100.04985046386719,91.36431884765625,-79.1339111328125
1776870456213761300,8.81276123046875,-100.85617065429688,91.7294921875,-79.52922058105469
1776870456223859200,8.822859130859374,-101.33551025390625,92.02752685546875,-79.12322998046875
1776870456233955000,8.832955078125,-101.68379211425781,92.13099670410156,-79.08314514160156
1776870456244052200,8.84305224609375,-100.81391906738281,92.25816345214844,-78.32102966308594
1776870456254150100,8.853150146484374,-102.08883666992188,92.42527770996094,-79.31918334960938
1776870456264246300,8.863246337890626,-101.41181945800781,92.193359375,-78.67549133300781
1776870456274342400,8.87334228515625,-102.28497314453125,92.22088623046875,-78.63970947265625
1776870456284444400,8.8834443359375,-102.19467163085938,92.16275024414062,-77.908447265625
1776870456294536400,8.893536376953126,-102.38027954101562,92.09153747558594,-77.36497497558594
1776870456304633300,8.90363330078125,-102.59451293945312,91.65516662597656,-76.42010498046875
1776870456314730200,8.913730224609376,-104.4462890625,91.93641662597656,-77.12643432617188
1776870456324827100,8.9238271484375,-102.69468688964844,92.15095520019531,-74.88046264648438
1776870456334928400,8.933928466796875,-104.29508972167969,92.2222900390625,-75.36627197265625
1776870456345019400,8.944019287109375,-103.2449951171875,92.53463745117188,-74.26423645019531
1776870456355120000,8.9541201171875,-102.35491943359375,92.80690002441406,-73.67620849609375
1776870456365212200,8.964212158203125,-103.02729797363281,92.86859130859375,-73.6317138671875
1776870456375313400,8.9743134765625,-102.69796752929688,93.03242492675781,-73.57044982910156
1776870456385405200,8.9844052734375,-103.28572082519531,93.06486511230469,-73.7364501953125
1776870456395502300,8.99450244140625,-104.59051513671875,93.34358215332031,-74.83450317382812
1776870456405599200,9.00459912109375,-103.6597900390625,93.39338684082031,-74.18229675292969
1776870456415695000,9.014695068359375,-104.45455932617188,93.27430725097656,-75.20475769042969
1776870456425796400,9.02479638671875,-104.05113220214844,93.58113098144531,-75.55131530761719
1776870456435888400,9.034888427734375,-103.67741394042969,93.66351318359375,-75.81120300292969
1776870456445985300,9.0449853515625,-103.11434936523438,93.47325134277344,-76.01266479492188
1776870456456082400,9.05508251953125,-104.00537109375,93.29557800292969,-77.45123291015625
1776870456466180400,9.065180419921875,-102.33828735351562,93.3841552734375,-76.98731994628906
1776870456476283400,9.075283447265624,-102.64512634277344,93.21969604492188,-77.62590026855469
1776870456486375400,9.08537548828125,-102.08345031738281,93.07868957519531,-77.79142761230469
1776870456496472300,9.095472412109375,-102.41708374023438,93.37757873535156,-78.70268249511719
1776870456506569200,9.1055693359375,-99.75337219238281,93.32977294921875,-77.00942993164062
1776870456516666000,9.115666015625,-100.38275146484375,93.51571655273438,-78.578125
1776870456526763300,9.12576318359375,-100.66677856445312,93.39808654785156,-79.63998413085938
1776870456536860200,9.135860107421875,-100.72608947753906,93.15158081054688,-81.25839233398438
1776870456546957300,9.145957275390625,-99.63772583007812,93.28321838378906,-81.61050415039062
1776870456557055200,9.15605517578125,-99.17123413085938,93.14311218261719,-83.30094909667969
1776870456567152400,9.16615234375,-98.38922119140625,93.03890991210938,-84.20487976074219
1776870456577254400,9.17625439453125,-97.58218383789062,92.84648132324219,-85.408447265625
1776870456587346400,9.186346435546875,-96.74453735351562,92.50546264648438,-86.87881469726562
1776870456597444400,9.1964443359375,-95.79353332519531,92.11201477050781,-88.03901672363281
1776870456607541200,9.206541259765626,-94.98043823242188,92.0252685546875,-89.22659301757812
1776870456617638400,9.216638427734376,-94.43695068359375,91.92092895507812,-90.82086181640625
1776870456627736300,9.226736328125,-90.61936950683594,92.00349426269531,-89.01821899414062
1776870456637834200,9.236834228515624,-92.12985229492188,92.13265991210938,-91.97262573242188
1776870456647932400,9.246932373046874,-90.35798645019531,92.04110717773438,-91.18223571777344
1776870456658028300,9.2570283203125,-90.82225036621094,92.14437866210938,-91.70027160644531
1776870456668126500,9.26712646484375,-90.50393676757812,92.24282836914062,-91.49018859863281
1776870456678224400,9.277224365234375,-90.75848388671875,92.42251586914062,-91.59172058105469
1776870456688322300,9.287322265625,-90.79902648925781,92.22015380859375,-91.77371215820312
1776870456698421200,9.297421142578125,-91.44882202148438,92.47456359863281,-92.65484619140625
1776870456708518100,9.30751806640625,-91.03656005859375,92.61611938476562,-92.13796997070312
1776870456718615300,9.317615234375,-90.265625,92.74887084960938,-91.48048400878906
1776870456728712400,9.32771240234375,-90.6298828125,92.79339599609375,-91.19058227539062
1776870456738809300,9.337809326171875,-88.98959350585938,92.82861328125,-90.20681762695312
1776870456748906500,9.347906494140625,-90.73985290527344,92.97592163085938,-91.69732666015625
1776870456759003100,9.358003173828125,-89.27780151367188,92.94790649414062,-90.31510925292969
1776870456769101000,9.36810107421875,-89.11386108398438,92.70291137695312,-90.4490966796875
1776870456779198200,9.3781982421875,-89.57595825195312,92.58108520507812,-90.73243713378906
1776870456789295000,9.388295166015626,-89.59567260742188,92.43211364746094,-90.64263916015625
1776870456799392300,9.398392333984376,-90.85292053222656,92.20130920410156,-91.61155700683594
1776870456809489200,9.4084892578125,-89.47111511230469,92.47048950195312,-90.09986877441406
1776870456819586300,9.41858642578125,-91.11636352539062,92.535888671875,-91.6046142578125
1776870456829684200,9.428684326171876,-90.68135070800781,92.27510070800781,-90.88470458984375
1776870456839783200,9.438783203125,-90.20513916015625,92.48970031738281,-90.51235961914062
1776870456849881000,9.448881103515625,-90.04031372070312,92.37158203125,-90.05226135253906
1776870456859978200,9.458978271484375,-91.32347106933594,92.43055725097656,-91.25790405273438
1776870456870075100,9.4690751953125,-89.5682373046875,92.52447509765625,-89.79887390136719
1776870456880172300,9.47917236328125,-90.00794982910156,92.36778259277344,-90.48509216308594
1776870456890269200,9.489269287109375,-89.28984069824219,92.56068420410156,-90.13862609863281
1776870456900368100,9.4993681640625,-89.90516662597656,92.50932312011719,-90.85073852539062
1776870456910464300,9.50946435546875,-88.86959838867188,92.78463745117188,-90.46331787109375
1776870456920562200,9.519562255859375,-88.02740478515625,92.81532287597656,-90.04866027832031
1776870456930660400,9.529660400390625,-87.91586303710938,92.86540222167969,-90.24119567871094
1776870456940757200,9.53975732421875,-87.71693420410156,92.92941284179688,-90.38652038574219
1776870456950858200,9.549858154296874,-88.30014038085938,92.87905883789062,-90.71694946289062
1776870456960955100,9.559955078125,-88.08987426757812,93.15618896484375,-90.72950744628906
1776870456971047200,9.570047119140625,-88.32273864746094,93.29832458496094,-91.54933166503906
1776870456981145000,9.58014501953125,-88.72380065917969,93.36286926269531,-91.8243408203125
1776870456991243300,9.5902431640625,-86.97467041015625,93.35040283203125,-90.90533447265625
1776870457001339100,9.600339111328125,-87.99993896484375,93.21908569335938,-92.19883728027344
1776870457011437000,9.61043701171875,-85.63987731933594,93.20626831054688,-90.50152587890625
1776870457021534200,9.6205341796875,-86.33370971679688,93.10012817382812,-91.26797485351562
1776870457031631000,9.630631103515626,-86.95260620117188,93.16877746582031,-91.73207092285156
1776870457041728300,9.640728271484376,-86.22813415527344,92.83903503417969,-90.91297912597656
1776870457051824400,9.650824462890625,-87.23040771484375,92.80201721191406,-91.67912292480469
1776870457061921300,9.66092138671875,-85.76806640625,92.80729675292969,-90.49343872070312
1776870457072018200,9.67101806640625,-87.19366455078125,92.56881713867188,-91.58241271972656
1776870457082116400,9.681116455078126,-87.88467407226562,92.36227416992188,-92.00184631347656
1776870457092212200,9.691212158203125,-86.28376770019531,92.55816650390625,-90.57766723632812
1776870457102314500,9.701314453125,-87.61183166503906,92.12960815429688,-91.50813293457031
1776870457112404500,9.711404541015625,-86.4984130859375,92.20083618164062,-89.92921447753906
1776870457122500400,9.721500244140625,-88.04655456542969,91.91984558105469,-91.04827880859375
1776870457132601600,9.7316015625,-88.77235412597656,92.03237915039062,-91.20672607421875
1776870457142691300,9.74169140625,-86.9083251953125,92.10458374023438,-90.03460693359375
1776870457152792600,9.75179248046875,-88.70718383789062,91.76596069335938,-91.0833740234375
1776870457162881300,9.76188134765625,-87.4647216796875,91.51121520996094,-90.00981140136719
1776870457172977400,9.771977294921875,-86.50918579101562,91.72813415527344,-89.79301452636719
1776870457183073500,9.782073486328125,-87.11305236816406,91.09700012207031,-90.56484985351562
1776870457193169400,9.79216943359375,-87.30343627929688,91.12251281738281,-91.36201477050781
1776870457203270400,9.8022705078125,-85.50369262695312,91.2308349609375,-89.63667297363281
1776870457213360600,9.812360595703124,-87.77867126464844,90.81796264648438,-91.74617004394531
1776870457223458600,9.82245849609375,-85.81619262695312,90.88050842285156,-89.96400451660156
1776870457233554400,9.832554443359374,-86.00340270996094,90.94200134277344,-89.76210021972656
1776870457243655400,9.842655517578125,-86.50180053710938,90.77392578125,-89.3353271484375
1776870457253745700,9.85274560546875,-87.74693298339844,90.68577575683594,-89.70332336425781
1776870457263846400,9.862846435546874,-86.94026184082031,90.68379211425781,-88.4874267578125
1776870457273936400,9.872936279296875,-87.75495910644531,90.65447998046875,-88.84854125976562
1776870457284037400,9.883037353515626,-87.40184020996094,90.51507568359375,-88.04252624511719
1776870457294131500,9.89313134765625,-87.26548767089844,90.59060668945312,-87.253662109375
1776870457304225500,9.9032255859375,-88.33938598632812,90.45431518554688,-87.79978942871094
1776870457314319400,9.9133193359375,-87.528076171875,90.3697509765625,-86.36616516113281
1776870457324413400,9.923413330078125,-86.94415283203125,90.291259765625,-85.69752502441406
1776870457334503400,9.93350341796875,-87.78019714355469,90.07722473144531,-85.42803955078125
1776870457344598500,9.9435986328125,-87.45016479492188,90.28237915039062,-84.58451843261719
1776870457354695700,9.95369580078125,-88.59809875488281,90.07650756835938,-85.23641967773438
1776870457364790500,9.96379052734375,-87.29685974121094,89.84585571289062,-83.67616271972656
1776870457374887400,9.973887451171874,-88.18301391601562,89.65963745117188,-83.61355590820312
1776870457384984600,9.983984619140625,-87.75656127929688,89.61723327636719,-82.6964111328125
1776870457395081500,9.99408154296875,-87.61634826660156,89.59043884277344,-82.10348510742188
1776870457405178600,10.0041787109375,-87.70387268066406,89.3182373046875,-81.51908874511719
1776870457415278300,10.0142783203125,-89.65156555175781,88.85774230957031,-82.48138427734375
1776870457425369600,10.02436962890625,-87.58601379394531,88.67762756347656,-80.27682495117188
1776870457435464400,10.03446435546875,-89.0089111328125,88.32046508789062,-81.49171447753906
1776870457445560600,10.044560546875,-89.59523010253906,88.04924011230469,-81.63661193847656
1776870457455656400,10.054656494140625,-88.23243713378906,87.8643798828125,-80.66654968261719
1776870457465754600,10.064754638671875,-86.71664428710938,87.84364318847656,-79.7432861328125
1776870457475850500,10.0748505859375,-88.21022033691406,87.57611083984375,-81.53753662109375
1776870457485951500,10.084951416015626,-86.98291015625,87.43476867675781,-80.64967346191406
1776870457496043500,10.09504345703125,-86.937744140625,87.10459899902344,-80.90238952636719
1776870457506143500,10.1051435546875,-86.00064086914062,86.82609558105469,-80.49684143066406
1776870457516233500,10.1152333984375,-85.90826416015625,86.85586547851562,-81.18473815917969
1776870457526334500,10.12533447265625,-87.49720764160156,86.17631530761719,-82.59342956542969
1776870457536428500,10.135428466796874,-87.32754516601562,86.27400207519531,-82.48066711425781
1776870457546518500,10.1455185546875,-87.12301635742188,85.92439270019531,-82.17277526855469
1776870457556613400,10.15561328125,-87.25962829589844,85.93379211425781,-81.68771362304688
1776870457566714600,10.165714599609375,-88.79916381835938,85.73320007324219,-82.74383544921875
1776870457576804400,10.175804443359375,-87.70184326171875,85.63824462890625,-81.27877807617188
1776870457586900500,10.185900390625,-87.83338928222656,85.55891418457031,-81.19309997558594
1776870457597001500,10.19600146484375,-88.49299621582031,85.4290771484375,-81.28657531738281
1776870457607093500,10.206093505859375,-89.48391723632812,85.06797790527344,-82.03848266601562
1776870457617188400,10.216188232421874,-88.82130432128906,84.95269775390625,-80.80712890625
1776870457627284500,10.226284423828124,-89.20755004882812,85.18052673339844,-81.1396484375
1776870457637380400,10.23638037109375,-89.00917053222656,84.80299377441406,-80.58729553222656
1776870457647480600,10.24648046875,-89.44194030761719,84.63426208496094,-80.95968627929688
1776870457657575400,10.256575439453124,-90.001220703125,84.33323669433594,-80.9625244140625
1776870457667670500,10.26667041015625,-91.82281494140625,83.93338012695312,-82.16987609863281
1776870457677760300,10.27676025390625,-90.21435546875,83.92074584960938,-80.17750549316406
1776870457687856400,10.2868564453125,-90.4923095703125,83.87553405761719,-80.51004028320312
1776870457697956600,10.29695654296875,-90.49601745605469,83.92071533203125,-80.65640258789062
1776870457708051500,10.307051513671874,-92.09805297851562,83.5894775390625,-81.7984619140625
1776870457718143500,10.3171435546875,-90.49674987792969,83.68455505371094,-80.33029174804688
1776870457728238600,10.327238525390625,-91.82173156738281,83.56428527832031,-81.44612121582031
1776870457738334500,10.33733447265625,-91.23655700683594,83.59123229980469,-80.80712890625
1776870457748430600,10.3474306640625,-90.9449462890625,83.38740539550781,-80.40901184082031
1776870457758525400,10.357525390625,-91.75814819335938,83.33822631835938,-81.05697631835938
1776870457768626400,10.36762646484375,-91.40536499023438,83.37257385253906,-80.76457214355469
1776870457778718500,10.377718505859375,-92.24812316894531,83.25224304199219,-81.17800903320312
1776870457788815600,10.387815673828126,-91.7216796875,83.25270080566406,-81.01300048828125
1776870457798912500,10.39791259765625,-91.52496337890625,83.39601135253906,-80.96482849121094
1776870457809009700,10.408009765625,-92.57682800292969,83.27723693847656,-81.72074890136719
1776870457819108600,10.418108642578124,-92.09217834472656,83.23580932617188,-81.15077209472656
1776870457829205500,10.42820556640625,-92.75709533691406,83.07289123535156,-81.9512939453125
1776870457839307500,10.4383076171875,-93.84197998046875,83.19465637207031,-82.69552612304688
1776870457849405400,10.448405517578125,-91.83097839355469,83.17625427246094,-81.01518249511719
1776870457859497500,10.45849755859375,-91.4072265625,83.39375305175781,-81.2376708984375
1776870457869593300,10.46859326171875,-92.50811767578125,83.57321166992188,-82.12138366699219
1776870457879695400,10.4786953125,-91.20381164550781,83.65263366699219,-81.1529541015625
1776870457889788400,10.488788330078124,-91.20957946777344,83.54505920410156,-81.14242553710938
1776870457899884500,10.498884521484374,-92.18254089355469,83.53950500488281,-82.19340515136719
1776870457909980400,10.50898046875,-92.53302001953125,83.5673828125,-82.3338623046875
1776870457920075500,10.519075439453125,-91.85665893554688,83.60447692871094,-81.65142822265625
1776870457930175500,10.529175537109374,-90.79437255859375,83.62442016601562,-81.04292297363281
1776870457940266500,10.5392666015625,-91.03231811523438,83.52452087402344,-81.01454162597656
1776870457950362400,10.5493623046875,-91.42013549804688,83.41539001464844,-81.12557983398438
1776870457960458500,10.55945849609375,-91.63449096679688,83.34263610839844,-81.077392578125
1776870457970555600,10.5695556640625,-90.66841125488281,83.47763061523438,-80.23091125488281
1776870457980656400,10.579656494140625,-92.02743530273438,83.24372863769531,-81.48458862304688
1776870457990752500,10.58975244140625,-92.01858520507812,83.17329406738281,-81.30537414550781
1776870458000843500,10.599843505859376,-90.23066711425781,83.52801513671875,-80.29170227050781
1776870458010939400,10.609939453125,-89.33087158203125,83.46086120605469,-79.48652648925781
1776870458021035500,10.620035400390625,-89.5361328125,83.56932067871094,-79.64305114746094
1776870458031133400,10.630133544921875,-90.56954956054688,83.35475158691406,-80.86003112792969
1776870458041230300,10.640230224609375,-90.86869812011719,83.20028686523438,-81.28874206542969
1776870458051327500,10.650327392578125,-89.60195922851562,83.4918212890625,-79.99626159667969
1776870458061425400,10.66042529296875,-88.78302001953125,83.56112670898438,-79.39192199707031
1776870458071523300,10.6705234375,-89.49484252929688,83.31874084472656,-80.10055541992188
1776870458081620500,10.680620361328126,-88.22409057617188,83.12454223632812,-79.29046630859375
1776870458091718400,10.690718505859374,-87.7374267578125,83.51289367675781,-78.9139404296875
1776870458101816300,10.70081640625,-87.70736694335938,83.850830078125,-79.16734313964844
1776870458111917600,10.71091748046875,-89.70237731933594,83.74618530273438,-81.41520690917969
1776870458122009600,10.721009521484374,-86.55940246582031,84.10617065429688,-78.89346313476562
1776870458132106500,10.7311064453125,-86.35296630859375,84.33219909667969,-79.13839721679688
1776870458142203600,10.74120361328125,-87.38066101074219,84.09878540039062,-80.23635864257812
1776870458152300300,10.75130029296875,-87.19508361816406,84.75450134277344,-80.12625122070312
1776870458162397400,10.7613974609375,-86.31661987304688,85.3809814453125,-79.52857971191406
1776870458172497400,10.771497314453125,-85.369140625,85.50765991210938,-78.98930358886719
1776870458182588700,10.781588623046876,-86.83694458007812,85.87579345703125,-80.56610107421875
1776870458192683500,10.79168359375,-84.44699096679688,86.2802734375,-79.07173156738281
1776870458202780400,10.801780517578125,-86.12724304199219,86.80300903320312,-80.68914794921875
1776870458212876500,10.81187646484375,-84.570556640625,86.85513305664062,-79.39541625976562
1776870458222973700,10.8219736328125,-84.35414123535156,87.40130615234375,-79.91943359375
1776870458233070300,10.8320703125,-85.94717407226562,88.00752258300781,-81.44792175292969
1776870458243166500,10.84216650390625,-85.87617492675781,88.13954162597656,-81.58418273925781
1776870458253263400,10.852263427734375,-84.39149475097656,88.61137390136719,-80.49809265136719
1776870458263360500,10.862360595703125,-84.6541748046875,88.98448181152344,-80.93403625488281
1776870458273461500,10.87246142578125,-85.86836242675781,89.50019836425781,-82.47999572753906
1776870458283553300,10.88255322265625,-84.65202331542969,90.024169921875,-81.44071960449219
1776870458293651500,10.8926513671875,-84.95797729492188,90.49765014648438,-81.63449096679688
1776870458303749600,10.90274951171875,-84.40663146972656,90.82958984375,-81.44270324707031
1776870458313846500,10.912846435546875,-86.18637084960938,90.671142578125,-82.85260009765625
1776870458323943400,10.922943359375,-84.60734558105469,91.38424682617188,-81.46405029296875
1776870458334041300,10.933041259765625,-86.07524108886719,91.36883544921875,-82.95361328125
1776870458344138500,10.943138427734375,-85.39079284667969,91.73239135742188,-82.36955261230469
1776870458354234400,10.953234375,-85.7308349609375,92.13606262207031,-82.57817077636719
1776870458364332500,10.96333251953125,-87.93223571777344,92.16342163085938,-84.16964721679688
1776870458374429400,10.973429443359375,-86.36512756347656,92.47552490234375,-83.11619567871094
1776870458384524500,10.983524658203125,-86.77757263183594,92.49801635742188,-83.16032409667969
1776870458394626300,10.993626220703124,-86.83509826660156,92.69863891601562,-83.23428344726562
1776870458404718300,11.00371826171875,-86.90980529785156,92.89483642578125,-83.64521789550781
1776870458414816300,11.013816162109375,-88.26498413085938,92.71682739257812,-84.95082092285156
1776870458424913400,11.023913330078125,-87.36549377441406,92.78070068359375,-84.2078857421875
1776870458435011300,11.03401123046875,-87.25260925292969,93.16456604003906,-84.64802551269531
1776870458445109200,11.044109130859376,-87.02778625488281,93.20330810546875,-84.66775512695312
1776870458455207700,11.054207763671876,-86.91545104980469,93.21307373046875,-84.82548522949219
1776870458465303300,11.06430322265625,-89.30528259277344,92.89695739746094,-86.96768188476562
1776870458475400400,11.074400390625,-87.46078491210938,93.023193359375,-85.99568176269531
1776870458485496600,11.08449658203125,-87.86981201171875,93.14450073242188,-87.04425048828125
1776870458495593500,11.094593505859375,-87.16864013671875,92.93804931640625,-86.87924194335938
1776870458505689300,11.104689453125,-87.24708557128906,92.90817260742188,-87.5313720703125
1776870458515786500,11.114786376953125,-88.24398803710938,92.7889404296875,-88.97425842285156
1776870458525883400,11.12488330078125,-86.24658203125,92.83885192871094,-87.92184448242188
1776870458535979500,11.1349794921875,-86.88203430175781,92.88917541503906,-88.77552795410156
1776870458546077400,11.145077392578125,-86.02946472167969,93.23623657226562,-88.28515625
1776870458556175400,11.15517529296875,-85.57337951660156,93.29815673828125,-88.36225891113281
1776870458566270500,11.1652705078125,-87.63334655761719,93.21946716308594,-89.79112243652344
1776870458576366300,11.175366455078125,-85.81466674804688,93.61149597167969,-88.44178771972656
1776870458586463500,11.18546337890625,-85.08552551269531,93.62725830078125,-87.98921203613281
1776870458596560400,11.195560302734375,-86.44206237792969,94.03123474121094,-88.53671264648438
1776870458606657500,11.205657470703125,-87.17720031738281,93.96876525878906,-88.91578674316406
1776870458616754400,11.21575439453125,-85.74769592285156,94.27070617675781,-87.53504943847656
1776870458626851600,11.2258515625,-86.00897216796875,94.3941650390625,-87.6748046875
1776870458636948500,11.235948486328125,-85.55410766601562,94.45968627929688,-87.3236083984375
1776870458647043600,11.246043701171875,-85.67031860351562,94.33828735351562,-87.58308410644531
1776870458657140500,11.256140380859375,-87.53585815429688,93.99166870117188,-89.5341796875
1776870458667236600,11.266236572265624,-86.78579711914062,93.86105346679688,-88.94676208496094
1776870458677333200,11.276333251953124,-87.50311279296875,93.64959716796875,-89.99397277832031
1776870458687430400,11.286430419921874,-85.75473022460938,93.70359802246094,-88.82888793945312
1776870458697527300,11.29652734375,-84.61936950683594,93.47756958007812,-88.41792297363281
1776870458707625500,11.30662548828125,-85.91999816894531,93.22685241699219,-89.6060791015625
1776870458717722400,11.316722412109375,-85.23822021484375,92.89874267578125,-89.30184936523438
1776870458727823600,11.32682373046875,-86.94131469726562,92.88397216796875,-90.75900268554688
1776870458737914600,11.33691455078125,-85.56982421875,92.7613525390625,-89.73225402832031
1776870458748011500,11.347011474609374,-85.94206237792969,92.68910217285156,-90.0108642578125
1776870458758107400,11.357107421875,-85.91390991210938,92.37568664550781,-90.85209655761719
1776870458768208400,11.36720849609375,-85.3526611328125,92.333251953125,-90.33586120605469
1776870458778300400,11.377300537109376,-84.97557067871094,92.48927307128906,-90.90576171875
1776870458788397600,11.3873974609375,-85.53370666503906,92.4044189453125,-91.65618896484375
1776870458798494500,11.397494384765626,-84.79377746582031,92.07171630859375,-91.57595825195312
1776870458808591400,11.40759130859375,-84.28256225585938,92.13587951660156,-91.69097900390625
1776870458818687500,11.4176875,-83.76100158691406,92.16390991210938,-91.70439147949219
1776870458828789500,11.42778955078125,-83.74649047851562,92.2779541015625,-91.72755432128906
1776870458838880500,11.437880615234375,-83.57539367675781,92.2916259765625,-92.01881408691406
1776870458848976400,11.447976318359375,-83.9996337890625,92.32868957519531,-92.04289245605469
1776870458859073300,11.4580732421875,-84.22621154785156,92.26669311523438,-92.13615417480469
1776870458869174500,11.468174560546874,-84.08193969726562,91.82664489746094,-91.56021118164062
1776870458879270700,11.478270751953126,-84.97526550292969,91.98954772949219,-91.84664916992188
1776870458889366300,11.4883662109375,-85.48190307617188,91.70756530761719,-92.14457702636719
1776870458899460600,11.498460693359375,-85.31135559082031,91.71688842773438,-91.5614013671875
1776870458909550300,11.50855029296875,-86.26211547851562,91.40028381347656,-91.93440246582031
1776870458919650600,11.518650634765624,-86.11524963378906,91.18501281738281,-91.68659973144531
1776870458929741300,11.5287412109375,-86.45315551757812,91.197265625,-91.94602966308594
1776870458939837400,11.53883740234375,-86.08613586425781,91.13459777832031,-91.55612182617188
1776870458949939500,11.548939453125,-86.85394287109375,91.18002319335938,-92.17704772949219
1776870458960035600,11.55903564453125,-86.59683227539062,91.0201416015625,-92.04386901855469
1776870458970126300,11.569126220703126,-85.73406982421875,91.11949157714844,-91.49951171875
1776870458980228400,11.579228271484375,-86.33512878417969,91.2578125,-91.41949462890625
1776870458990324500,11.589324462890625,-86.18205261230469,91.26487731933594,-91.03668212890625
1776870459000414500,11.59941455078125,-87.72499084472656,91.06942749023438,-91.44740295410156
1776870459010515500,11.609515380859374,-88.19967651367188,91.54122924804688,-90.69158935546875
1776870459020607500,11.619607421875,-88.00706481933594,91.89192199707031,-90.10748291015625
1776870459030709500,11.62970947265625,-88.71507263183594,91.84272766113281,-89.60386657714844
1776870459040805600,11.6398056640625,-88.99142456054688,92.32637023925781,-88.98831176757812
1776870459050897400,11.6498974609375,-89.78529357910156,92.30584716796875,-89.06318664550781
1776870459060995600,11.65999560546875,-90.16000366210938,92.48934936523438,-88.37773132324219
1776870459071092500,11.670092529296875,-89.97085571289062,92.21046447753906,-87.5545654296875
1776870459081188400,11.680188232421875,-91.8106689453125,92.04322814941406,-87.81744384765625
1776870459091285500,11.690285400390625,-92.55108642578125,91.95372009277344,-87.54042053222656
1776870459101382400,11.70038232421875,-93.37266540527344,91.86148071289062,-87.20408630371094
1776870459111480600,11.71048046875,-92.23959350585938,91.82882690429688,-84.66123962402344
1776870459121577500,11.720577392578125,-92.78852844238281,91.71990966796875,-83.51490783691406
1776870459131674600,11.730674560546875,-93.57321166992188,91.70985412597656,-82.3349609375
1776870459141776600,11.740776611328124,-94.89846801757812,91.52153015136719,-82.14837646484375
1776870459151867600,11.75086767578125,-94.73005676269531,91.51033020019531,-80.79989624023438
1776870459161963500,11.760963623046875,-95.64767456054688,91.3975830078125,-80.19471740722656
1776870459172064500,11.771064453125,-96.55863952636719,91.19384765625,-80.28080749511719
1776870459182154500,11.781154541015624,-97.19078063964844,90.43675231933594,-80.04290771484375
1776870459192256500,11.791256591796875,-97.11763000488281,89.99484252929688,-79.35392761230469
1776870459202351600,11.8013515625,-97.846923828125,89.47262573242188,-79.7626953125
1776870459212448500,11.811448486328125,-98.40573120117188,89.03564453125,-80.00965881347656
1776870459222543400,11.82154345703125,-98.97209167480469,88.62907409667969,-79.98710632324219
1776870459232638700,11.831638671875,-99.026611328125,88.65821838378906,-80.04437255859375
1776870459242728400,11.841728515625,-99.17134094238281,88.56660461425781,-79.63043212890625
1776870459252828700,11.85182861328125,-99.42057800292969,88.6898193359375,-79.06517028808594
1776870459262925600,11.861925537109375,-99.51472473144531,88.84550476074219,-78.52449035644531
1776870459273020400,11.8720205078125,-98.8924560546875,89.40904235839844,-77.34724426269531
1776870459283110700,11.882110595703125,-98.51533508300781,89.73077392578125,-76.59181213378906
1776870459293210600,11.892210693359376,-99.061279296875,90.04908752441406,-76.64411926269531
1776870459303299300,11.90229931640625,-99.32505798339844,90.29289245605469,-76.00474548339844
1776870459313393700,11.9123935546875,-98.36125183105469,90.48503112792969,-74.84236145019531
1776870459323488500,11.922488525390625,-98.76597595214844,90.45037841796875,-74.72726440429688
1776870459333587500,11.93258740234375,-98.80197143554688,90.66311645507812,-75.23435974121094
1776870459343682600,11.9426826171875,-100.16226196289062,90.8216552734375,-76.87452697753906
1776870459353777400,11.95277734375,-98.54931640625,90.73722839355469,-76.10284423828125
1776870459363872500,11.96287255859375,-97.98089599609375,90.65278625488281,-76.18516540527344
1776870459373963500,11.972963623046875,-98.22108459472656,90.41752624511719,-76.75331115722656
1776870459384063500,11.9830634765625,-97.34202575683594,90.31935119628906,-77.25344848632812
1776870459394153500,11.993153564453126,-97.67539978027344,90.31381225585938,-77.53614807128906
1776870459404253400,12.00325341796875,-97.55795288085938,90.35688781738281,-78.0068359375
1776870459414343700,12.01334375,-96.85816955566406,90.30076599121094,-77.92129516601562
1776870459424439600,12.023439453125,-96.90315246582031,90.0494384765625,-78.20521545410156
1776870459434536400,12.033536376953125,-97.18450927734375,89.84280395507812,-78.66409301757812
1776870459444633600,12.043633544921875,-96.71153259277344,89.85556030273438,-78.50004577636719
1776870459454730500,12.05373046875,-96.77168273925781,89.69686889648438,-78.2713623046875
1776870459464826600,12.06382666015625,-97.83613586425781,89.47312927246094,-79.15892028808594
1776870459474921500,12.07392138671875,-98.59756469726562,89.44514465332031,-79.52703857421875
1776870459485017600,12.084017578125,-97.53135681152344,89.33712768554688,-78.60975646972656
1776870459495113700,12.09411376953125,-97.36920166015625,89.3515625,-78.13458251953125
1776870459505209300,12.104209228515625,-97.9534912109375,89.4173583984375,-78.04208374023438
1776870459515311400,12.114311279296874,-97.58743286132812,89.67221069335938,-77.41299438476562
1776870459525408500,12.124408447265624,-98.32962036132812,89.705078125,-77.283447265625
1776870459535500500,12.13450048828125,-97.7457275390625,89.77143859863281,-75.55686950683594
1776870459545596700,12.1445966796875,-98.21687316894531,89.91816711425781,-74.8861083984375
1776870459555692500,12.154692626953125,-97.3585205078125,90.40864562988281,-73.49996948242188
1776870459565787600,12.16478759765625,-97.56840515136719,90.87245178222656,-72.50013732910156
1776870459575884500,12.174884521484374,-97.26405334472656,91.30793762207031,-71.70729064941406
1776870459585979400,12.1849794921875,-97.42266845703125,91.39395141601562,-70.5408935546875
1776870459596076500,12.19507666015625,-98.35136413574219,91.25630187988281,-69.61590576171875
1776870459606172700,12.205172607421876,-98.36544799804688,90.90376281738281,-68.74644470214844
1776870459616269600,12.21526953125,-98.94598388671875,90.3914794921875,-68.54359436035156
1776870459626364400,12.225364501953125,-98.88410949707031,90.03372192382812,-68.47172546386719
1776870459636460500,12.23546044921875,-99.31974792480469,89.70733642578125,-69.10223388671875
1776870459646557700,12.2455576171875,-99.31491088867188,89.32858276367188,-68.98612976074219
1776870459656654600,12.255654541015625,-99.88629150390625,89.04222106933594,-69.3988037109375
1776870459666751700,12.265751708984375,-100.23890686035156,88.68698120117188,-68.86868286132812
1776870459676849700,12.275849609375,-100.60411071777344,88.04818725585938,-67.63027954101562
1776870459686946600,12.285946533203125,-99.48948669433594,88.12156677246094,-66.17942810058594
1776870459697042400,12.29604248046875,-99.42501831054688,88.17610168457031,-65.80131530761719
1776870459707140400,12.306140380859375,-99.022216796875,88.32229614257812,-65.1951904296875
1776870459717236500,12.316236572265625,-98.88099670410156,88.18966674804688,-64.86672973632812
1776870459727331300,12.326331298828125,-98.75505065917969,88.08158874511719,-64.36735534667969
1776870459737428500,12.336428466796875,-98.46902465820312,87.78985595703125,-63.51295471191406
1776870459747525400,12.346525390625,-98.49363708496094,87.34486389160156,-63.30244445800781
1776870459757623600,12.35662353515625,-99.55438232421875,87.14836120605469,-63.75666809082031
1776870459767719400,12.366719482421875,-99.16398620605469,86.64891052246094,-62.92686462402344
1776870459777816600,12.376816650390625,-98.960205078125,86.35911560058594,-62.77923583984375
1776870459787914500,12.38691455078125,-98.93626403808594,86.08694458007812,-62.32154846191406
1776870459798012400,12.397012451171875,-99.19122314453125,85.75810241699219,-61.89997863769531
1776870459808108500,12.407108642578125,-100.0040283203125,85.14176940917969,-62.25746154785156
1776870459818206500,12.41720654296875,-98.82275390625,85.16217041015625,-61.410736083984375
1776870459828302600,12.427302490234375,-98.83207702636719,84.84548950195312,-61.36207580566406
1776870459838399500,12.4373994140625,-99.62802124023438,84.54718017578125,-61.56083679199219
1776870459848495400,12.447495361328125,-98.96183776855469,84.15182495117188,-60.90081787109375
1776870459858592500,12.457592529296875,-99.34893798828125,84.19187927246094,-61.264739990234375
1776870459868688600,12.467688720703125,-99.10726928710938,83.94125366210938,-60.98469543457031
1776870459878789400,12.477789306640625,-99.30335998535156,83.54949951171875,-60.69456481933594
1776870459888881400,12.48788134765625,-98.32052612304688,83.35981750488281,-60.06889343261719
1776870459898978600,12.497978515625,-98.49566650390625,82.925537109375,-59.606231689453125
1776870459909078500,12.50807861328125,-98.82200622558594,82.62368774414062,-59.90385437011719
1776870459919174400,12.51817431640625,-98.64616394042969,82.31446838378906,-59.84144592285156
1776870459929270500,12.5282705078125,-98.20108032226562,82.30291748046875,-59.46684265136719
1776870459939362600,12.538362548828125,-98.88569641113281,81.72401428222656,-59.47761535644531
1776870459949460500,12.54846044921875,-98.64567565917969,81.75222778320312,-59.68205261230469
1776870459959557600,12.5585576171875,-98.80302429199219,81.28330993652344,-59.468658447265625
1776870459969655600,12.568655517578126,-98.11618041992188,80.93365478515625,-59.1754150390625
1776870459979753500,12.57875341796875,-98.62100219726562,80.89363098144531,-59.23207092285156
1776870459989851400,12.588851318359374,-99.0452880859375,80.73211669921875,-59.55706787109375
1776870459999949600,12.598949462890625,-98.70745849609375,80.39102172851562,-59.239013671875
1776870460010045400,12.60904541015625,-97.98133850097656,80.26380920410156,-58.67634582519531
1776870460020142600,12.619142578125,-98.88349914550781,80.20817565917969,-59.36592102050781
1776870460030240500,12.629240478515625,-97.6907958984375,79.8541259765625,-58.35084533691406
1776870460040338400,12.63933837890625,-98.47932434082031,79.80604553222656,-58.64018249511719
1776870460050435600,12.649435546875,-97.73484802246094,79.71414184570312,-58.04594421386719
1776870460060530400,12.659530517578125,-97.93901062011719,79.333740234375,-58.05882263183594
1776870460070627300,12.66962744140625,-98.22525024414062,79.46620178222656,-58.24755859375
1776870460080724500,12.679724365234375,-97.93843078613281,79.29104614257812,-58.290374755859375
1776870460090821600,12.689821533203125,-98.311767578125,79.26780700683594,-58.27861022949219
1776870460100921600,12.699921630859375,-97.53494262695312,79.28073120117188,-57.818328857421875
1776870460111011800,12.71001171875,-97.72444152832031,79.0560302734375,-58.0499267578125
1776870460121108700,12.720108642578126,-97.40763854980469,79.47578430175781,-58.117523193359375
1776870460131204900,12.730204833984375,-97.49057006835938,79.35040283203125,-57.334381103515625
1776870460141305600,12.7403056640625,-97.91246032714844,79.38035583496094,-57.8819580078125
1776870460151401700,12.750401611328124,-97.69618225097656,79.43360900878906,-57.7518310546875
1776870460161497900,12.760497802734376,-97.39346313476562,79.72801208496094,-57.47099304199219
1776870460171588600,12.770588623046875,-97.70106506347656,79.677490234375,-57.73661804199219
1776870460181684700,12.780684814453124,-97.86033630371094,80.03080749511719,-57.86183166503906
1776870460191781600,12.79078173828125,-97.68533325195312,80.28709411621094,-57.853057861328125
1776870460201884000,12.8008837890625,-97.59512329101562,80.34982299804688,-57.65655517578125
1776870460211976000,12.810975830078124,-97.81491088867188,80.59597778320312,-57.893585205078125
1776870460222073900,12.821073974609375,-97.73382568359375,80.73526000976562,-57.90333557128906
1776870460232170800,12.831170654296875,-97.81315612792969,80.79924011230469,-57.77851867675781
1776870460242271700,12.841271728515625,-97.73391723632812,81.36653137207031,-57.91424560546875
1776870460252367600,12.85136767578125,-97.5806884765625,81.77716064453125,-57.99151611328125
1776870460262463700,12.861463623046875,-98.16783142089844,81.93995666503906,-58.57806396484375
1776870460272555800,12.8715556640625,-97.8028564453125,82.42805480957031,-58.41754150390625
1776870460282656800,12.88165673828125,-98.103759765625,82.64134216308594,-58.666046142578125
1776870460292752600,12.891752685546875,-97.96249389648438,82.9111328125,-58.95423889160156
1776870460302844000,12.901843994140625,-98.11846923828125,83.48782348632812,-59.08073425292969
1776870460312939500,12.911939453125,-97.59475708007812,83.78651428222656,-58.71363830566406
1776870460323035600,12.92203564453125,-97.52894592285156,84.23753356933594,-59.234588623046875
1776870460333137700,12.9321376953125,-97.73855590820312,84.67071533203125,-59.48655700683594
1776870460343233800,12.94223388671875,-98.17362976074219,84.64288330078125,-60.06353759765625
1776870460353325800,12.952325927734375,-97.38764953613281,85.05325317382812,-59.674346923828125
1776870460363423000,12.962423095703125,-97.98200988769531,85.77848815917969,-60.552337646484375
1776870460373521000,12.97252099609375,-97.92221069335938,86.01824951171875,-60.51377868652344
1776870460383618800,12.982618896484375,-97.06449890136719,86.50265502929688,-60.24263000488281
1776870460393716700,12.992716796875,-98.26957702636719,86.41981506347656,-61.43333435058594
1776870460403812600,13.0028125,-97.66783142089844,86.89532470703125,-61.024505615234375
1776870460413910800,13.012910888671875,-97.49894714355469,87.50245666503906,-61.63652038574219
1776870460424006700,13.023006591796875,-98.26100158691406,87.6656494140625,-62.70838928222656
1776870460434104600,13.0331044921875,-97.69871520996094,88.01206970214844,-62.53785705566406
1776870460444201700,13.04320166015625,-97.06236267089844,88.60322570800781,-62.48052978515625
1776870460454297900,13.0532978515625,-97.09097290039062,89.11836242675781,-62.94383239746094
1776870460464393700,13.063393798828125,-98.87693786621094,89.27381896972656,-64.7376708984375
1776870460474493700,13.07349365234375,-98.07209777832031,89.96260070800781,-64.23519897460938
1776870460484584700,13.083584716796874,-97.46612548828125,90.20903015136719,-64.06466674804688
1776870460494684700,13.0936845703125,-97.4425048828125,90.75071716308594,-64.45286560058594
1776870460504774000,13.10377392578125,-97.14036560058594,91.21261596679688,-64.32789611816406
1776870460514869800,13.113869873046875,-96.84425354003906,91.5550537109375,-64.71598815917969
