time,seconds_elapsed,z,y,x
1776555956507337200,0.225337158203125,-9.167349641421437,-3.415957906027138,-0.6792066909007728
1776555956517378300,0.23537841796875,-9.1756434225142,-3.3804563845351336,-0.7419321002092212
1776555956527420200,0.245420166015625,-9.18483795183897,-3.338065980312228,-0.8163616105105728
1776555956537461200,0.255461181640625,-9.196004073497653,-3.285050721700489,-0.9012960020828992
1776555956547503400,0.26550341796875,-9.208311181885003,-3.22347630905807,-0.9932737362954766
1776555956557544200,0.275544189453125,-9.220864373987913,-3.1573464250683783,-1.084993331028521
1776555956567586300,0.28558642578125,-9.234512960112095,-3.084921240326762,-1.173632130076736
1776555956577627100,0.295627197265625,-9.24800606341362,-3.0097035022571683,-1.2595470571190117
1776555956587668200,0.305668212890625,-9.259601808661222,-2.939044158144295,-1.3387242003388702
1776555956597710000,0.3157099609375,-9.269615253153443,-2.874759025238454,-1.4072583689913152
1776555956607751200,0.325751220703125,-9.276738821423054,-2.8163793169841167,-1.4766545613005757
1776555956617793300,0.335793212890625,-9.279406579327583,-2.76641029420048,-1.552408598203957
1776555956627834400,0.34583447265625,-9.279723974713683,-2.714663448089361,-1.6394249106168746
1776555956637876200,0.355876220703125,-9.279624021470546,-2.6560072609812018,-1.7333748216852545
1776555956647917300,0.365917236328125,-9.276814224746822,-2.5947318312853573,-1.838061084692925
1776555956657959200,0.375959228515625,-9.270340060296654,-2.531587100586295,-1.9550554790012538
1776555956668000300,0.386000244140625,-9.259036575993894,-2.4712211869508027,-2.081753375069797
1776555956678042000,0.3960419921875,-9.245232507047056,-2.400442015850544,-2.221248354999721
1776555956688083200,0.406083251953125,-9.232111744189261,-2.3158438704952595,-2.361221619965881
1776555956698124300,0.416124267578125,-9.214033066663145,-2.231511390338838,-2.5084528932362793
1776555956708166100,0.426166259765625,-9.189133603206276,-2.1525275777339936,-2.663987738341093
1776555956718207200,0.436207275390625,-9.158606362995505,-2.0723719448708,-2.8276480222344396
1776555956728249300,0.446249267578125,-9.125513071689008,-1.981010004469007,-2.9951611821636557
1776555956738290400,0.45629052734375,-9.089193804073334,-1.8777252788223324,-3.167189189168811
1776555956748332300,0.466332275390625,-9.046440704017877,-1.7811292371593415,-3.340639630192518
1776555956758373400,0.476373291015625,-9.001218583500386,-1.6789873979374765,-3.5113317124187944
1776555956768415200,0.486415283203125,-8.965217295792698,-1.5698255969509483,-3.6511513942584393
1776555956778456300,0.496456298828125,-8.940605417105555,-1.4756725645259021,-3.749447225576639
1776555956788498200,0.506498291015625,-8.92828837184608,-1.4233097784735262,-3.798715114353597
1776555956798539300,0.516539306640625,-8.9173940528661,-1.4137795874536037,-3.8277538695722817
1776555956808581000,0.5265810546875,-8.904943736615776,-1.4312224512942135,-3.850189573264122
1776555956818622200,0.536622314453125,-8.886901299446821,-1.4564781808428466,-3.8822719339624046
1776555956828663000,0.5466630859375,-8.85909383958876,-1.4700456645548343,-3.940279594033956
1776555956838705400,0.556705322265625,-8.817554791498184,-1.4674256913147865,-4.033332556262612
1776555956848746200,0.566746337890625,-8.766075948673485,-1.4531301855891943,-4.1490614606797696
1776555956858788400,0.576788330078125,-8.713228740105032,-1.4271991871275007,-4.267684625233709
1776555956868829200,0.5868291015625,-8.666948050445317,-1.392821847359836,-4.372006877234578
1776555956878871300,0.596871337890625,-8.631144331136346,-1.357591836285591,-4.453164819008112
1776555956888912100,0.606912109375,-8.603903857511282,-1.3281553139209747,-4.514335619285703
1776555956898954200,0.616954345703125,-8.576129715400933,-1.2975276820756494,-4.575675638650358
1776555956908995000,0.6269951171875,-8.544028942263125,-1.2551422462888062,-4.646996077020466
1776555956919037400,0.637037353515625,-8.50873492604196,-1.2034141779433936,-4.7247865881875155
1776555956929078300,0.647078369140625,-8.46876824183464,-1.1566007696464657,-4.8075598562031985
1776555956939120400,0.657120361328125,-8.438623863461613,-1.143217629525438,-4.86344161016196
1776555956949161200,0.6671611328125,-8.423525078529119,-1.154731833969429,-4.886839436884224
1776555956959203300,0.677203369140625,-8.428487669372558,-1.1844213812470434,-4.871152038408815
1776555956969244200,0.687244140625,-8.444109016874432,-1.220285452441126,-4.835112464517355
1776555956979285200,0.69728515625,-8.471911216035485,-1.2624873483546077,-4.77527262058258
1776555956989327000,0.7073271484375,-8.516553490838408,-1.305767248763144,-4.683340186816453
1776555956999368200,0.7173681640625,-8.575736916691064,-1.349984576152265,-4.561213398055732
1776555957009410000,0.72741015625,-8.62280086568296,-1.4052506824307143,-4.454543706145882
1776555957019451100,0.737451171875,-8.638083775010704,-1.4763073552981019,-4.40163687634468
1776555957029493200,0.7474931640625,-8.636913562187551,-1.5574042145341633,-4.375910898935794
1776555957039534300,0.757534423828125,-8.629398364251852,-1.638909654571116,-4.360944800472259
1776555957049576200,0.767576171875,-8.621704302617907,-1.7011806711755693,-4.352307612769305
1776555957059617300,0.7776171875,-8.612344938120245,-1.741538108266145,-4.354875709691643
1776555957069659100,0.7876591796875,-8.603948281174898,-1.7701932709947228,-4.359916041946411
1776555957079700200,0.7977001953125,-8.593342131486535,-1.7951691606886684,-4.370609285396338
1776555957089742000,0.8077421875,-8.582885619401932,-1.8195237036138772,-4.381072227221727
1776555957099783200,0.817783203125,-8.57910084016621,-1.838463381883502,-4.380577721703053
1776555957109825000,0.827824951171875,-8.584052909615636,-1.8500632187843322,-4.365968766114116
1776555957119866000,0.8378662109375,-8.610200911828874,-1.852313774190098,-4.313207774524391
1776555957129907200,0.8479072265625,-8.649316532164812,-1.8506158842310307,-4.234965135675669
1776555957139949300,0.85794921875,-8.689951324892043,-1.8490451277829705,-4.151645631954073
1776555957149990400,0.867990478515625,-8.734100847741962,-1.8443302280902862,-4.060087584458291
1776555957160032300,0.8780322265625,-8.777920700246096,-1.8313384984396397,-3.9704777484208345
1776555957170073300,0.8880732421875,-8.811281702578068,-1.8195545371435582,-3.901400412802398
1776555957180115200,0.898115234375,-8.834949578413367,-1.828458559089154,-3.8432784787014125
1776555957190156300,0.90815625,-8.858195429444313,-1.8735840873643754,-3.767285664606094
1776555957200198100,0.9181982421875,-8.867584020036459,-1.9437093246005475,-3.709222182694077
1776555957210239200,0.9282392578125,-8.854982312616706,-2.014205587106198,-3.701708738324046
1776555957220280800,0.93828076171875,-8.824749671438337,-2.0723479794733226,-3.741597096598148
1776555957230322000,0.948322021484375,-8.784679526856541,-2.112464447414875,-3.812778711019456
1776555957240363800,0.95836376953125,-8.744338748639821,-2.120129282954335,-3.9002529963329433
1776555957250404900,0.96840478515625,-8.7098414357543,-2.0974910424277184,-3.988680929109454
1776555957260446700,0.97844677734375,-8.682682795193791,-2.054204127756506,-4.06960067821294
1776555957270487800,0.98848779296875,-8.656998903360963,-2.0080146235115826,-4.146641832317411
1776555957280530000,0.998530029296875,-8.63962106758058,-1.9801115943245589,-4.196008505293727
1776555957290571000,1.008571044921875,-8.646908301979304,-1.9706497923657298,-4.185439472745359
1776555957300612900,1.01861279296875,-8.66272838692367,-1.9865964262992142,-4.144992019283771
1776555957310654000,1.028654052734375,-8.674281462073326,-2.032824508988857,-4.0981525266975165
1776555957320695800,1.03869580078125,-8.685035495799779,-2.1022047730766236,-4.039960449969768
1776555957330737000,1.04873681640625,-8.6965622674644,-2.184853537929803,-3.9707179869174953
1776555957340778000,1.058778076171875,-8.701778540807961,-2.2668514376588162,-3.91290438811332
1776555957350819800,1.06881982421875,-8.696488617706299,-2.341690551674366,-3.8804584547996517
1776555957360861000,1.07886083984375,-8.683389482158422,-2.414218320007622,-3.86531816881299
1776555957370902800,1.08890283203125,-8.667674026632309,-2.48250041359514,-3.8573315539732573
1776555957380944000,1.09894384765625,-8.652294671192765,-2.5506933675944805,-3.847355811142921
1776555957390986000,1.108986083984375,-8.639023101687432,-2.620665021704137,-3.8301147534847257
1776555957401027000,1.119027099609375,-8.629711667984724,-2.6869164862468837,-3.805120889742672
1776555957411069000,1.12906884765625,-8.625648656329512,-2.749492769408226,-3.769464469949901
1776555957421110000,1.139110107421875,-8.61948019682765,-2.8055446192368865,-3.742173435181379
1776555957431151900,1.14915185546875,-8.612062614047527,-2.8526170437961813,-3.723618372315168
1776555957441193000,1.15919287109375,-8.60465321457386,-2.889685083952546,-3.712148883795738
1776555957451234800,1.16923486328125,-8.594273274856805,-2.916138498853147,-3.7155069620519874
1776555957461276000,1.17927587890625,-8.578590552556514,-2.9339760610997674,-3.73763929888308
1776555957471318000,1.189318115234375,-8.557214587050677,-2.94716667432338,-3.7760651833891865
1776555957481359000,1.199359130859375,-8.532282390367984,-2.953458760204911,-3.8272213701307773
1776555957491401000,1.20940087890625,-8.51628928694427,-2.9346397857055067,-3.8769945780813693
1776555957501442000,1.219442138671875,-8.513093121251464,-2.883990671703219,-3.9217636941343543
1776555957511484000,1.22948388671875,-8.510532915374636,-2.816142001096904,-3.976250194342434
1776555957521525000,1.23952490234375,-8.501838152265549,-2.7544281799837944,-4.0376057035371655
1776555957531566800,1.24956689453125,-8.491932259801029,-2.709555019034445,-4.088494763775169
1776555957541608000,1.25960791015625,-8.47854086330831,-2.6963620677232742,-4.124846472355723
1776555957551649800,1.26964990234375,-8.45526578618288,-2.7249013489872214,-4.153767154152691
1776555957561691000,1.27969091796875,-8.417022857028245,-2.79590497649312,-4.184139496062696
1776555957571733000,1.28973291015625,-8.363329260763525,-2.9077406728640196,-4.215466362218558
1776555957581774000,1.299774169921875,-8.302607957819104,-3.0587203388825057,-4.228630087435246
1776555957591816000,1.30981591796875,-8.245689554288983,-3.2394661976113914,-4.205336305609345
1776555957601857000,1.31985693359375,-8.214502973386645,-3.423218836940825,-4.119938826569914
1776555957611897900,1.32989794921875,-8.18985426982045,-3.522207034437358,-4.085428361941874
1776555957621940000,1.33993994140625,-8.177896705523132,-3.5543311884507536,-4.081558242510259
1776555957631980800,1.349980712890625,-8.170750340899824,-3.502712352633476,-4.140075897930562
1776555957642023000,1.36002294921875,-8.171791374385357,-3.3876559406504034,-4.232729631708562
1776555957652063700,1.370063720703125,-8.175598365452885,-3.2373639646351338,-4.341595664618909
1776555957662105900,1.38010595703125,-8.171195162057876,-3.0843107072129845,-4.459707080258429
1776555957672146700,1.390146728515625,-8.158848306182026,-2.9473332630619407,-4.57348894226104
1776555957682189000,1.40018896484375,-8.14190710825324,-2.827087758003175,-4.67838694832325
1776555957692230000,1.41022998046875,-8.120434112113713,-2.7259771615251895,-4.774723754528164
1776555957702272000,1.42027197265625,-8.096678557994961,-2.6395962244063615,-4.862788406950235
1776555957712312800,1.430312744140625,-8.071027399387955,-2.557714644533396,-4.948433723270893
1776555957722355000,1.44035498046875,-8.035518863633275,-2.475871350844204,-5.046868378537893
1776555957732395800,1.450395751953125,-7.976740511450171,-2.4036587859399616,-5.17343373426795
1776555957742438000,1.46043798828125,-7.874450934320688,-2.3563636585406957,-5.348921234077215
1776555957752478700,1.470478759765625,-7.71170718075037,-2.3250861844845114,-5.594097771662473
1776555957762520800,1.480520751953125,-7.514908597365022,-2.2902878428258,-5.869507534947991
1776555957772561700,1.490561767578125,-7.311660983970761,-2.2412845963343977,-6.138944653564691
1776555957782604000,1.50060400390625,-7.109513440772891,-2.1752857913784682,-6.39478988468051
1776555957792644900,1.510644775390625,-6.907554698145389,-2.088859115421772,-6.640235886856913
1776555957802687000,1.52068701171875,-6.692830581969022,-1.972601072563976,-6.89095427647829
1776555957812727800,1.530727783203125,-6.469633821001649,-1.8296736339673398,-7.139083818650246
1776555957822770000,1.54077001953125,-6.232967922130227,-1.664772556232661,-7.385731597831845
1776555957832810800,1.550810791015625,-5.992299217358231,-1.4820011830255388,-7.620132474380731
1776555957842852900,1.560852783203125,-5.74710865124762,-1.2904016295880079,-7.840663231009245
1776555957852894000,1.57089404296875,-5.486023765912652,-1.0966106305208057,-8.054276755595208
1776555957862935800,1.580935791015625,-5.202655737099051,-0.9020664749987423,-8.263717962932587
1776555957872977000,1.590976806640625,-4.902245680330694,-0.6908139804556965,-8.465290921112894
1776555957883019000,1.60101904296875,-4.603895770962536,-0.44075716001559045,-8.647558290320635
1776555957893060000,1.61106005859375,-4.316572867043316,-0.1485634717222303,-8.804289067211746
1776555957903102000,1.62110205078125,-4.066345183548331,0.18447218577563762,-8.921949816474317
1776555957913143000,1.63114306640625,-3.886454772605002,0.5600500405246391,-8.986223258942365
1776555957923185000,1.641184814453125,-3.801631586322188,0.9751050423983484,-8.987055033591389
1776555957933226000,1.65122607421875,-3.805154792012274,1.4031673002853988,-8.92873436204791
1776555957943267800,1.661267822265625,-3.85911668382436,1.8205585996195672,-8.829675437402726
1776555957953309000,1.671308837890625,-3.9454412145808337,2.2205445906445385,-8.699026027229428
1776555957963351000,1.68135107421875,-4.040099858440459,2.606144328920543,-8.547280053013562
1776555957973392100,1.69139208984375,-4.124201160189509,2.9843510343357917,-8.381825286918877
1776555957983434000,1.70143408203125,-4.211289661055803,3.35976138703078,-8.194353334805369
1776555957993475000,1.71147509765625,-4.3214884038746355,3.7312910989001393,-7.973242147940397
1776555958003517000,1.721516845703125,-4.4631206880941985,4.088640894247591,-7.715823968419432
1776555958013558000,1.73155810546875,-4.629757649710774,4.424518862499297,-7.426935130357742
1776555958023599900,1.741599853515625,-4.807172318190336,4.737057163956761,-7.114898640942573
1776555958033641000,1.751640869140625,-4.981007959139347,5.028008195245266,-6.788157918870449
1776555958043682800,1.761682861328125,-5.138694429320097,5.298766917854548,-6.456569756767153
1776555958053724000,1.771723876953125,-5.2653994857817885,5.540081519314646,-6.144383629748225
1776555958063766000,1.78176611328125,-5.362160070356726,5.741055927079915,-5.870085627096891
1776555958073807000,1.79180712890625,-5.431817543950676,5.905701714879274,-5.6381233758717775
1776555958083849000,1.801848876953125,-5.476245883741974,6.046346449366212,-5.44268380587995
1776555958093890000,1.81189013671875,-5.492096948346496,6.175450383663177,-5.279306430581212
1776555958103932000,1.821931884765625,-5.48214838578403,6.305781813928484,-5.133571679478884
1776555958113973000,1.831972900390625,-5.452651073142886,6.447220329141617,-4.987217919695377
1776555958124014800,1.842014892578125,-5.442047261542082,6.588326251399517,-4.81128676777184
1776555958134056000,1.852055908203125,-5.472488577035069,6.71549541824162,-4.596127182787656
1776555958144097800,1.862097900390625,-5.547331344312429,6.8141060145974155,-4.354935915446281
1776555958154139000,1.872138916015625,-5.662588539564609,6.873327434372902,-4.106441631615161
1776555958164181000,1.882180908203125,-5.800844917610287,6.897080065882205,-3.8666353888913987
1776555958174222000,1.89222216796875,-5.952365850898623,6.887529562726616,-3.6471427431389687
1776555958184264000,1.902263916015625,-6.119406424880028,6.839435101643204,-3.4562095446556804
1776555958194305000,1.912304931640625,-6.308954014223814,6.748987353476881,-3.289173062327504
1776555958204347000,1.922346923828125,-6.5111301989942785,6.617873832923173,-3.159005005930364
1776555958214388500,1.932388427734375,-6.713774585798382,6.451147731718421,-3.078686729851365
1776555958224430300,1.942430419921875,-6.901051892122626,6.26582331302762,-3.047181584519148
1776555958234471400,1.952471435546875,-7.0480392736345525,6.089573596674204,-3.0680005006641147
1776555958244513300,1.96251318359375,-7.133088962149619,5.943211653584242,-3.157160254846513
1776555958254554400,1.972554443359375,-7.14517453674078,5.830872391605377,-3.334335561612248
1776555958264596500,1.982596435546875,-7.097721296170353,5.739637292453646,-3.5845924712017174
1776555958274637600,1.992637451171875,-7.005277405750751,5.653707313972712,-3.889995806212723
1776555958284679400,2.002679443359375,-6.867622500729561,5.56831158849895,-4.24264633782804
1776555958294720500,2.012720458984375,-6.681716482758522,5.4839370227664705,-4.63157492826581
1776555958304762400,2.022762451171875,-6.4489844162046905,5.402541180583834,-5.039198282301426
1776555958314803500,2.032803466796875,-6.1885460120797156,5.332142533233761,-5.425913872864842
1776555958324845300,2.04284521484375,-5.923450137537717,5.278118097579479,-5.7640779062271115
1776555958334886400,2.052886474609375,-5.654488819739222,5.2382092810392376,-6.0628615308374165
1776555958344928300,2.06292822265625,-5.370642067497968,5.20101556867659,-6.3463400342881675
1776555958354969300,2.07296923828125,-5.081124868404865,5.154772872939706,-6.616711803406477
1776555958365011500,2.083011474609375,-4.814352292822301,5.085208338326216,-6.865352802231907
1776555958375052500,2.093052490234375,-4.592476843586564,4.988550045081973,-7.08476595300734
1776555958385094400,2.103094482421875,-4.39238740196228,4.868660806114971,-7.292013449692726
1776555958395135500,2.113135498046875,-4.19847314184159,4.731333817873895,-7.493843597504496
1776555958405177300,2.12317724609375,-4.03290702432692,4.576075743883848,-7.678903812301159
1776555958415218400,2.133218505859375,-3.8621968219220637,4.390618346463143,-7.872501553818583
1776555958425260300,2.14326025390625,-3.6757708717301485,4.169218990306556,-8.079398921892047
1776555958435301400,2.15330126953125,-3.4888659058496354,3.910053674857318,-8.2891306366086
1776555958445343200,2.16334326171875,-3.29292978451252,3.6404832852497693,-8.489633919730782
1776555958455384300,2.17338427734375,-3.0997526064947247,3.3850700158104297,-8.666211552864313
1776555958465426400,2.183426513671875,-2.9145854241922495,3.156710465252399,-8.815371602240205
1776555958475467500,2.193467529296875,-2.7314982630342244,2.957073151309788,-8.942315728154778
1776555958485509400,2.20350927734375,-2.5448852658376095,2.775578520040214,-9.054838530007004
1776555958495550500,2.213550537109375,-2.3777466383092105,2.61093360902369,-9.148756000110506
1776555958505592300,2.22359228515625,-2.2346429663628338,2.4643898796260357,-9.22515768726766
1776555958515633400,2.23363330078125,-2.122471608296782,2.328738131120801,-9.28668387685418
1776555958525675300,2.24367529296875,-2.0316886368267237,2.190908015663177,-9.340372212421894
1776555958535716400,2.25371630859375,-1.9375681914970277,2.0593758313059807,-9.390164709594846
1776555958545758200,2.26375830078125,-1.8201396435551345,1.9492052916683256,-9.43705856271684
1776555958555799300,2.27379931640625,-1.6774632571101187,1.8684191058166324,-9.479742104667425
1776555958565841400,2.28384130859375,-1.5188435977324843,1.8131399939261377,-9.5171439068228
1776555958575882500,2.293882568359375,-1.3553132238291203,1.7926060322023927,-9.545683188086748
1776555958585924400,2.30392431640625,-1.2298825712174177,1.8417425496846436,-9.553310029703377
1776555958595965400,2.31396533203125,-1.1358267886217683,2.0122670202590522,-9.53053296522796
1776555958606007300,2.32400732421875,-1.055128207988292,2.32354553091377,-9.468803362023829
1776555958616048400,2.33404833984375,-0.9882968246657401,2.7436387826830146,-9.36301775947213
1776555958626090200,2.34409033203125,-0.8840692652110009,3.220169668728113,-9.22059198678732
1776555958636131300,2.35413134765625,-0.7676014520600438,3.6655271256133912,-9.063392423340678
1776555958646173200,2.364173095703125,-0.7027829429298639,4.000110377879441,-8.926119795635342
1776555958656215600,2.374215576171875,-0.7544932564228772,4.2105177999004715,-8.824549180430173
1776555958666256400,2.38425634765625,-0.9433713490072637,4.35174793305993,-8.737432037991285
1776555958676298500,2.394298583984375,-1.2327943670108914,4.481174231179058,-8.635373347008228
1776555958686339300,2.40433935546875,-1.5525969603829084,4.639897643192112,-8.498893330985307
1776555958696381400,2.41438134765625,-1.8284847164437175,4.829408115395903,-8.336898349955678
1776555958706422300,2.42442236328125,-2.0429839378230272,5.0399014621347185,-8.160635774120689
1776555958716464400,2.43446435546875,-2.1560979835666716,5.276647440505028,-7.979888161826134
1776555958726505200,2.444505126953125,-2.157500397710502,5.53498448843658,-7.802534283623099
1776555958736547600,2.454547607421875,-2.115545754556358,5.78899665890634,-7.627738273209333
1776555958746588400,2.46458837890625,-2.0901450635790826,6.01540945931077,-7.457650586616992
1776555958756630500,2.474630615234375,-2.1031376700125635,6.210311853685974,-7.292408001968264
1776555958766671400,2.48467138671875,-2.1729728382609785,6.373083079785109,-7.129684706664085
1776555958776713500,2.49471337890625,-2.290424036426097,6.500542754006386,-6.976194519129395
1776555958786754300,2.50475439453125,-2.4298380600742995,6.5768287058293815,-6.856501387256383
1776555958796796400,2.51479638671875,-2.572686295954883,6.581850333383679,-6.7993316393136976
1776555958806837200,2.524837158203125,-2.720891236563027,6.5035635631322855,-6.816949129068851
1776555958816879400,2.53487939453125,-2.866180289724469,6.360688877636194,-6.891809432002901
1776555958826920200,2.544920166015625,-2.960980972403288,6.185804604417085,-7.009907988160848
1776555958836962600,2.554962646484375,-2.965428891722858,6.003319793066382,-7.164968201491236
1776555958847003400,2.56500341796875,-2.8885066878229377,5.818661729329824,-7.346434775710105
1776555958857045500,2.57504541015625,-2.783983652552962,5.6235477380305525,-7.536280471217632
1776555958867086300,2.58508642578125,-2.700420695464313,5.417281069076061,-7.7156451047211885
1776555958877128400,2.59512841796875,-2.6725302334979175,5.221022583916783,-7.859317662596702
1776555958887169300,2.605169189453125,-2.713913506504893,5.062002819305658,-7.9486577417820685
1776555958897211400,2.61521142578125,-2.7985858861401676,4.967476861914992,-7.978875769913196
1776555958907252200,2.625252197265625,-2.9084198872998357,4.945356800043583,-7.953295922976732
1776555958917294300,2.63529443359375,-3.028120617957413,4.9774347768276925,-7.888346188682317
1776555958927336400,2.64533642578125,-3.155069712308049,5.04331214736104,-7.796212679386138
1776555958937377500,2.65537744140625,-3.2941920595332976,5.1336161031425,-7.678846529155969
1776555958947419400,2.66541943359375,-3.445366663601994,5.2501984095186,-7.532281756970286
1776555958957460500,2.67546044921875,-3.5735315634831784,5.408764585143327,-7.358363698434829
1776555958967502300,2.68550244140625,-3.6268814608767626,5.616162888476253,-7.174596446058153
1776555958977543400,2.69554345703125,-3.6033725749954577,5.859357896855474,-6.989565457355976
1776555958987585300,2.705585205078125,-3.545495555566251,6.107534785300493,-6.804254482668638
1776555958997626400,2.71562646484375,-3.4409190365433693,6.360477280712128,-6.623805561059713
1776555959007668200,2.725668212890625,-3.3041277626141903,6.63811524144113,-6.417831737571954
1776555959017709300,2.735709228515625,-3.1007465859681367,6.955291431832313,-6.17897037448287
1776555959027751400,2.74575146484375,-2.821895450057089,7.323885090249776,-5.879455512988567
1776555959037792500,2.75579248046875,-2.462496028703451,7.720828644838929,-5.522255939766764
1776555959047834400,2.76583447265625,-2.0805580278053877,8.113475379016995,-5.100313552999496
1776555959057875500,2.77587548828125,-1.7083628377646207,8.462307521387935,-4.65201507422626
1776555959067917300,2.785917236328125,-1.4045077551089227,8.702690394955873,-4.296616412946582
1776555959077958400,2.79595849609375,-1.179748713260889,8.845233656540513,-4.066991664758325
1776555959088000300,2.806000244140625,-1.0208323359590024,8.936140838912129,-3.908153978715837
1776555959098041300,2.816041259765625,-0.9195057586427777,8.995834552374482,-3.7947111394092436
1776555959108083200,2.826083251953125,-0.8636265619672835,9.044293755117058,-3.691247550064325
1776555959118125300,2.836125244140625,-0.8210058561198413,9.087836544245482,-3.5927091421619055
1776555959128166400,2.84616650390625,-0.7971650348704308,9.128117701229453,-3.494618185766041
1776555959138208500,2.85620849609375,-0.796106684923917,9.164518217387794,-3.398268520079553
1776555959148249300,2.866249267578125,-0.8203514838643372,9.196199888330698,-3.3056481040492653
1776555959158291500,2.87629150390625,-0.8561241504479199,9.22137173898816,-3.2254800500959155
1776555959168332300,2.886332275390625,-0.9213309282433241,9.253429842028021,-3.1137703181922434
1776555959178374400,2.89637451171875,-0.9745292152717709,9.300143662407994,-2.9543153770342467
1776555959188415200,2.906415283203125,-1.0313674662377685,9.345976023778318,-2.7855735520929095
1776555959198457300,2.916457275390625,-1.031433882537484,9.402519164255262,-2.5882711108386514
1776555959208498200,2.926498291015625,-0.9900522900309413,9.465748066106437,-2.364273408751935
1776555959218540500,2.93654052734375,-0.9360650445818901,9.528599951338768,-2.1213040258221327
1776555959228581400,2.946581298828125,-0.8457666417583822,9.588012509772181,-1.8775163122467695
1776555959238623500,2.95662353515625,-0.6997909945722669,9.645267597910761,-1.6277270201690495
1776555959248664300,2.966664306640625,-0.5033030115060508,9.700637018433213,-1.347110043629259
1776555959258706700,2.976706787109375,-0.24982675627758724,9.750160635536908,-1.020956985251978
1776555959268748500,2.98674853515625,-0.021135220119100993,9.784804663416743,-0.6538629177425056
1776555959278789600,2.99678955078125,-0.0385784036201192,9.801305131840705,-0.3214410447614267
1776555959288831500,3.00683154296875,-0.25609390864726156,9.803245159992574,-0.0347083686701837
1776555959298872600,3.01687255859375,-0.45808717459887266,9.793196644186972,0.23206794008929282
1776555959308914400,3.02691455078125,-0.5316833028160035,9.78191887884736,0.44919849635288117
1776555959318955500,3.03695556640625,-0.6676845954112708,9.764885326460004,0.609602737592347
1776555959328997400,3.046997314453125,-0.7705174856372177,9.750926943734287,0.7043639285109937
1776555959339038500,3.05703857421875,-0.8375959025233983,9.743247495147585,0.7334286949537694
1776555959349080600,3.06708056640625,-0.8699199630230665,9.742820794168114,0.7007498296670616
1776555959359121700,3.07712158203125,-0.8695501798626035,9.747935360702872,0.6261014159180224
1776555959369163500,3.08716357421875,-0.8882583143986761,9.751434308734536,0.5393532529219984
1776555959379204600,3.09720458984375,-0.9064771310478449,9.754117848730086,0.453749949112162
1776555959389246500,3.10724658203125,-0.9244093127753585,9.755918176150322,0.37137032005656506
1776555959399287600,3.11728759765625,-0.9298397403262555,9.75799030624926,0.2956795211151242
1776555959409329400,3.127329345703125,-0.9181686648201197,9.760159466981888,0.25814696871954945
1776555959419371300,3.137371337890625,-0.8848151151422411,9.762975693446398,0.26791971805738285
1776555959429412400,3.147412353515625,-0.8957010316200554,9.761256030046939,0.2932219353625551
1776555959439454500,3.157454345703125,-0.9583101210724562,9.754496618914603,0.31910200735460964
1776555959449495600,3.16749560546875,-1.036797455397248,9.745694303777814,0.3418444389080629
1776555959459537400,3.177537353515625,-1.1024449626974762,9.737816117748618,0.360469936661981
1776555959469578500,3.18757861328125,-1.1501705174032597,9.731855748039484,0.3721185080753639
1776555959479620400,3.197620361328125,-1.177568081286177,9.728531572052836,0.3733743533553555
1776555959489661400,3.207661376953125,-1.1814086092971265,9.72801836183369,0.37461364935934544
1776555959499703300,3.217703369140625,-1.180947129265219,9.727897365802527,0.37917799813281744
1776555959509744400,3.227744384765625,-1.1905826072905212,9.726650580611825,0.3810395176883787
1776555959519786200,3.2377861328125,-1.2138103381428866,9.723760704389214,0.38148422924857583
1776555959529827600,3.24782763671875,-1.2522402412369846,9.71865782829225,0.3872757817294448
1776555959539869400,3.257869384765625,-1.3012652611687778,9.711406834250688,0.40704087797254324
1776555959549910500,3.26791064453125,-1.346339643778652,9.703839029344916,0.43959582461863755
1776555959559952400,3.277952392578125,-1.3743508095152674,9.698097270822524,0.4779951864439994
1776555959569994500,3.287994384765625,-1.3769910948909818,9.695789578402042,0.5156986018944532
1776555959580035300,3.298035400390625,-1.3522539823889732,9.69741630282104,0.549477829638496
1776555959590077400,3.308077392578125,-1.3115855796530842,9.701448334816098,0.5762243092015386
1776555959600118300,3.3181181640625,-1.2723068777099251,9.705351187473536,0.5981557896982878
1776555959610160600,3.32816064453125,-1.2505769841998815,9.706825936201215,0.619650559278205
1776555959620201500,3.338201416015625,-1.2551402004621923,9.704884739005566,0.6404806544043123
1776555959630243600,3.34824365234375,-1.2836274592779575,9.700071201243997,0.6567336508732289
1776555959640284400,3.358284423828125,-1.3267448626011609,9.693459674149752,0.6685409199796617
1776555959650326500,3.368326416015625,-1.3768486176803707,9.685703068673611,0.6795812233015894
1776555959660367600,3.37836767578125,-1.4304507362693548,9.67697440329492,0.6930777606692164
1776555959670409500,3.388409423828125,-1.4817344949133693,9.668281978273392,0.7065194991096854
1776555959680450600,3.398450439453125,-1.5230064165003596,9.66171955101788,0.7085165181457996
1776555959690492400,3.408492431640625,-1.5495907643042504,9.658872929415105,0.6894369199488312
1776555959700534500,3.418534423828125,-1.5651711952738463,9.65847428548634,0.6591711071532219
1776555959710575600,3.42857568359375,-1.577833108448237,9.65871744659245,0.624507424724847
1776555959720617500,3.438617431640625,-1.5876104060970246,9.65953519271612,0.5858770306225866
1776555959730658600,3.448658447265625,-1.592284096996486,9.660994743874669,0.5479069270599634
1776555959740700400,3.458700439453125,-1.591708781326562,9.662665307435393,0.519382587636821
1776555959750741500,3.468741455078125,-1.5880580037340521,9.663992172124981,0.505692683121562
1776555959760783400,3.478783447265625,-1.584197821174562,9.664697690045832,0.5042969544468447
1776555959770824400,3.488824462890625,-1.580799410907924,9.66511211606562,0.5069957285441458
1776555959780866300,3.4988662109375,-1.5758056942738592,9.665806528070569,0.5093304185694083
1776555959790907400,3.508907470703125,-1.5666640641801057,9.667104166665673,0.5128698812745511
1776555959800949500,3.518949462890625,-1.5533802197150886,9.668702834033965,0.5230624086607247
1776555959810991600,3.52899169921875,-1.53868548553884,9.670063016471266,0.5410406945522874
1776555959821032400,3.539032470703125,-1.5266703458353876,9.670743399950862,0.562504776732996
1776555959831074600,3.549074462890625,-1.518771409279108,9.670704821506142,0.5841133819509298
1776555959841115400,3.559115478515625,-1.5128569245383143,9.670302085924147,0.6057100044701248
1776555959851157500,3.569157470703125,-1.506212664218247,9.669988197669387,0.6269061564296483
1776555959861198300,3.5791982421875,-1.4973400603242217,9.670098087784647,0.6461946481369435
1776555959871240400,3.589240478515625,-1.486142082222551,9.67056161364317,0.6648495911810547
1776555959881281300,3.59928125,-1.4735301456697285,9.671056119161843,0.6854028421271592
1776555959891323600,3.60932373046875,-1.459103268649429,9.67171487533152,0.7066481669906527
1776555959901364500,3.619364501953125,-1.4428680270329117,9.672736619594692,0.7257315645799041
1776555959911406600,3.629406494140625,-1.4255030507341027,9.67406348428428,0.7421792068380862
1776555959921447400,3.639447509765625,-1.4081314985640345,9.675417236980795,0.7575310897488147
1776555959931489500,3.649489501953125,-1.3918169081009923,9.676518476220965,0.7734431638255715
1776555959941531400,3.659531494140625,-1.377043117339164,9.677304658162594,0.7898797732330858
1776555959951572500,3.669572509765625,-1.3635985293544828,9.678025958174466,0.8042355577785522
1776555959961614300,3.6796142578125,-1.3523054203152656,9.678847795951366,0.8133729500886052
1776555959971655400,3.689655517578125,-1.3447552971966563,9.67964391476512,0.8164134868282824
1776555959981697500,3.699697509765625,-1.3432054374061524,9.67992156266272,0.8156663217227905
1776555959991738600,3.709738525390625,-1.3492353652201592,9.679239425617455,0.8138190133556723
1776555960001780500,3.719780517578125,-1.362399528828263,9.67749813490808,0.8125745662525296
1776555960011821600,3.729821533203125,-1.381412710725516,9.67475614272356,0.8131235053721815
1776555960021863400,3.739863525390625,-1.404385151642561,9.671160164058207,0.8165329484894871
1776555960031905500,3.749905517578125,-1.4288171437181532,9.6669779099375,0.8236572474114596
1776555960041946400,3.7599462890625,-1.4508821144014596,9.662740710759163,0.834731014611572
1776555960051988500,3.769988525390625,-1.466353532038629,9.659187402191758,0.8486955348171293
1776555960062029300,3.780029296875,-1.4722731313459574,9.656933485785126,0.8639633196409792
1776555960072071700,3.79007177734375,-1.4679916546344756,9.656098204004763,0.8804291551429778
1776555960082112500,3.800112548828125,-1.4545505737811326,9.656592125001549,0.8971655512146651
1776555960092154600,3.810154541015625,-1.4332124560676514,9.65828606943786,0.9131289901524782
1776555960102195500,3.820195556640625,-1.4066669789694248,9.660760350596904,0.9281080211628228
1776555960112237600,3.830237548828125,-1.3749195493139326,9.664096217021346,0.940863311709091
1776555960122278400,3.8402783203125,-1.3373865219943224,9.668754856482147,0.9470702035252004
1776555960132320500,3.850320556640625,-1.2998992335125803,9.673402974548935,0.9517968667209148
1776555960142362600,3.860362548828125,-1.264460840384662,9.677501642039418,0.9578450608439742
1776555960152403700,3.87040380859375,-1.2285475232213734,9.68158218935132,0.9633427814774215
1776555960162445600,3.880445556640625,-1.187944148545712,9.686587450292706,0.9639509765036404
1776555960172486700,3.890486572265625,-1.1390057109188287,9.693235802266,0.9561627337802201
1776555960182528500,3.900528564453125,-1.0774312252111733,9.702012398439646,0.9383463604521006
1776555960192569600,3.910569580078125,-1.0002709017064422,9.712813778439164,0.9116455466616898
1776555960202611500,3.920611572265625,-0.9063179949633776,9.725191029453278,0.8772798973318189
1776555960212652500,3.930652587890625,-0.795604142229259,9.738478381049632,0.8363216448038816
1776555960222694000,3.94069384765625,-0.6703098293483257,9.751682146015762,0.7910399761188774
1776555960232736000,3.950736083984375,-0.5339539876943454,9.763868258371948,0.7430642460443079
1776555960242776800,3.96077685546875,-0.3907979645062238,9.774297297927736,0.6933698754835873
1776555960252819000,3.97081884765625,-0.2447011568921618,9.782519767349958,0.6425009812507778
1776555960262859800,3.98085986328125,-0.09911306598521769,9.788304780492187,0.5913310217121616
1776555960272902000,3.99090185546875,0.04459575964692049,9.791625449347496,0.5408224486917257
1776555960282943000,4.00094287109375,0.18888302448783068,9.792463653737306,0.4923260557439178
1776555960292985000,4.010985107421875,0.3380628380101174,9.790632931178807,0.4467975361583754
1776555960303026000,4.02102587890625,0.4943122976576909,9.78588895152211,0.40302557791657745
1776555960313068000,4.031068115234375,0.65499009514153,9.778167417359352,0.35891010346673424
1776555960323110000,4.04110986328125,0.8132058498933911,9.767873986881972,0.31260559454001485
1776555960333151000,4.05115087890625,0.9597175036523491,9.755981889036297,0.26482054646564646
1776555960343192800,4.06119287109375,1.085215814672783,9.7439664570719,0.21868863589316606
1776555960353234000,4.07123388671875,1.1836159831482915,9.733359138339758,0.17649371770974248
1776555960363276000,4.081276123046875,1.2543296147316694,9.725097505950927,0.13971622146517038
1776555960373317000,4.091317138671875,1.3020575805902481,9.719242350181936,0.10661248182989656
1776555960383359000,4.10135888671875,1.3335900523208082,9.715267601332068,0.07421500446756836
1776555960393400000,4.111400146484375,1.3554000253297387,9.712450790345668,0.0399716709096916
1776555960403442000,4.12144189453125,1.371614078027755,9.710253572562337,0.0023326376341938158
1776555960413483000,4.13148291015625,1.3844754592970012,9.708350953811406,-0.03941411009216681
1776555960423524900,4.14152490234375,1.3939903066173196,9.706706693735718,-0.08386907302890904
1776555960433566700,4.151566650390625,1.3992831523284315,9.705424837231636,-0.1309278435221873
1776555960443607800,4.16160791015625,1.3998318722523748,9.70457611144781,-0.17914512726766987
1776555960453650000,4.17164990234375,1.396569655586034,9.70403718226552,-0.2272299437399022
1776555960463691000,4.18169091796875,1.3899414696179329,9.703816232991217,-0.2727881460776552
1776555960473732900,4.19173291015625,1.3802603258199988,9.703977561032772,-0.313184088547714
1776555960483774000,4.20177392578125,1.367374833022803,9.70467255755961,-0.3464481333112344
1776555960493815800,4.21181591796875,1.3514201619133352,9.705931033188104,-0.37273788208272307
1776555960503858000,4.22185791015625,1.3336826990403234,9.707537299340963,-0.3942318114124238
1776555960513898800,4.231898681640625,1.3163405190952122,9.70909037400186,-0.41375151805970817
1776555960523940900,4.24194091796875,1.300737145641446,9.710312024751305,-0.4339251951036975
1776555960533981700,4.251981689453125,1.2868493439339102,9.711146722009778,-0.4560972063580528
1776555960544024000,4.262024169921875,1.2737684746950864,9.711642396572232,-0.48156902634277937
1776555960554065000,4.27206494140625,1.2625725424200296,9.711692665454745,-0.5092672171400859
1776555960564107000,4.28210693359375,1.254362055696547,9.711260119256377,-0.5369965702606365
1776555960574147800,4.29214794921875,1.250042438931763,9.710362878155708,-0.5626883166063577
1776555960584190000,4.30218994140625,1.2495005871400235,9.709149410712719,-0.584420182877779
1776555960594231800,4.312231689453125,1.250009851836413,9.707979197889566,-0.6024997006541117
1776555960604273000,4.32227294921875,1.2501042521215975,9.707028180775046,-0.6174156398329883
1776555960614314800,4.332314697265625,1.2479384523898363,9.706542443084716,-0.6293589564092457
1776555960624355800,4.34235595703125,1.2420173917777835,9.706741765049099,-0.6379001363918185
1776555960634398000,4.35239794921875,1.232706250336021,9.70756068021655,-0.6435032170958817
1776555960644439000,4.36243896484375,1.2208096224457026,9.708919693610072,-0.6456963432259857
1776555960654481000,4.37248095703125,1.2080468061801046,9.710679104498029,-0.6432379172232001
1776555960664522000,4.38252197265625,1.1960287438672035,9.712712071630358,-0.6349339800626039
1776555960674563800,4.392563720703125,1.1857106173399836,9.714885908538102,-0.6208792973555625
1776555960684606000,4.40260595703125,1.1777762441441415,9.717068513274192,-0.6015031638974323
1776555960694646800,4.412646728515625,1.1751360318336634,9.718877024000882,-0.5769521850846707
1776555960704689000,4.42268896484375,1.1773395332273096,9.720272862273454,-0.5482310079151764
1776555960714729700,4.432729736328125,1.1864900042146445,9.720776135620474,-0.5187974081600084
1776555960724772000,4.442772216796875,1.201229892706871,9.720320793068408,-0.49272670896667986
1776555960734813000,4.45281298828125,1.2184980575677007,9.719134798154235,-0.4733715452313423
1776555960744855000,4.46285498046875,1.2329732307091354,9.717857617825269,-0.46196953245755285
1776555960754897000,4.47289697265625,1.2394402347661555,9.717223996096848,-0.457978818853572
1776555960764938000,4.48293798828125,1.23532388548851,9.717712071874738,-0.45873544590715315
1776555960774979800,4.492979736328125,1.220850319782272,9.719487264853715,-0.45987833233196285
1776555960785021000,4.50302099609375,1.199481806930527,9.722197692856192,-0.45880642878413197
1776555960795062800,4.513062744140625,1.1748057769659905,9.725301504090428,-0.45685335848759856
1776555960805103900,4.523103759765625,1.1485661509465426,9.728438048550485,-0.45680053232181816
1776555960815146000,4.53314599609375,1.1215049063459037,9.731427878016232,-0.4603516489321366
1776555960825187000,4.54318701171875,1.0942522308263927,9.734134214365481,-0.46862069744244217
1776555960835229000,4.55322900390625,1.0689568999197334,9.736322664320468,-0.4813920623406768
1776555960845270800,4.563270751953125,1.0495759806886316,9.737818455836177,-0.4936187259029597
1776555960855312000,4.573311767578125,1.0379396111696957,9.73876070512235,-0.4996291452988982
1776555960865353700,4.583353759765625,1.0332636552479117,9.739324184224008,-0.49833621941152956
1776555960875394800,4.593394775390625,1.032708870909363,9.73978887912631,-0.4903190633030608
1776555960885437000,4.60343701171875,1.0321901807975022,9.740522454097867,-0.47661063675042237
1776555960895478000,4.61347802734375,1.0278195644978434,9.741853410440683,-0.4585395214762538
1776555960905519900,4.623519775390625,1.0161694587145,9.744131292244791,-0.43550545003246516
1776555960915562000,4.63356201171875,0.9950715064324438,9.747608612966538,-0.40541484767328945
1776555960925602800,4.643602783203125,0.9629913376912475,9.752423904293774,-0.365021097160317
1776555960935645000,4.65364501953125,0.9186805598650127,9.758549109175801,-0.31168208648692813
1776555960945685800,4.663685791015625,0.8622478940252214,9.765569801592827,-0.24614079777384176
1776555960955728000,4.673727783203125,0.7960957982037216,9.772720257869363,-0.17485694682076572
1776555960965768700,4.683768798828125,0.7245250383343547,9.779249367377162,-0.10823357109255156
1776555960975811000,4.69381103515625,0.6498174417439848,9.78493910345137,-0.05579779743577819
1776555960985853000,4.70385302734375,0.5750850395059213,9.789752641212939,-0.020111119502061046
1776555960995894000,4.71389404296875,0.506351512356475,9.793570153674482,0.00035944678418054534
1776555961005935900,4.723935791015625,0.448666106509231,9.796377612310648,0.0078983069394395
1776555961015977000,4.73397705078125,0.40299737473540004,9.79836615577936,0.0036082310775600486
1776555961026018800,4.744018798828125,0.366762278271839,9.799779529708623,-0.014577454197331098
1776555961036060000,4.754059814453125,0.336631015108712,9.800758603873849,-0.046937879493390205
1776555961046101800,4.764101806640625,0.3122758145963773,9.801267722439766,-0.08959734188206493
1776555961056142800,4.774142822265625,0.29714597693849354,9.801080675435065,-0.1446444077155087
1776555961066185000,4.78418505859375,0.2909892626733519,9.800251238873601,-0.20194403824871404
1776555961076227000,4.79422705078125,0.29175783589305354,9.798989256113767,-0.25510007530432194
1776555961086268000,4.804267822265625,0.2940903522275388,9.797495218163728,-0.30491944221789014
1776555961096310000,4.81431005859375,0.28912091151820496,9.796038589614628,-0.3527352507567033
1776555961106350800,4.824350830078125,0.2732857934014872,9.794671392914653,-0.40011604714542626
1776555961116393000,4.83439306640625,0.2551069251702167,9.793213595321774,-0.4452621067520231
1776555961126433800,4.844433837890625,0.246750855963584,9.791659351617097,-0.4825928164325654
1776555961136476000,4.854475830078125,0.25582975955205034,9.790403798598051,-0.5029141217863187
1776555961146518000,4.86451806640625,0.2865272234968841,9.789935596564412,-0.4954377214910462
1776555961156559000,4.87455908203125,0.33844146206416187,9.790039056938886,-0.4592953813448548
1776555961166601000,4.88460107421875,0.40408228389527645,9.79023954794705,-0.3978952658234164
1776555961176642000,4.89464208984375,0.4598524672383442,9.790971369352937,-0.30949396532550455
1776555961186684000,4.904683837890625,0.47770467906482517,9.793125332516432,-0.19211256272727623
1776555961196725800,4.914725830078125,0.43370092136114835,9.796898421314358,-0.05556747297835536
1776555961206766800,4.924766845703125,0.31673575314730407,9.801208685728907,0.07989527402711101
1776555961216808700,4.93480859375,0.15386450073979793,9.803578337469697,0.19120867269011213
1776555961226850000,4.94485009765625,-0.020481683547236024,9.802956406179069,0.2683341988760978
1776555961236892000,4.954891845703125,-0.1806147431625053,9.799908124524354,0.3155441687425598
1776555961246933000,4.96493310546875,-0.3166848632102832,9.795509012782572,0.3436909435575828
1776555961256975000,4.97497509765625,-0.43297384919561444,9.790230195596813,0.366476702796109
1776555961267017200,4.985017333984375,-0.5346507012542336,9.784241768836974,0.3913270298816263
1776555961277058000,4.99505810546875,-0.6223981044206768,9.777857036235927,0.42013014971353113
1776555961287100200,5.00510009765625,-0.6928024508591741,9.771732415875793,0.4512781887037679
1776555961297141000,5.01514111328125,-0.7414540343686938,9.766709034755825,0.4816960502559319
1776555961307183000,5.02518310546875,-0.7664780740533024,9.763375506418942,0.5093080240745097
1776555961317224000,5.035223876953125,-0.7712933653805405,9.761690914332867,0.5337353765076026
1776555961327266300,5.045266357421875,-0.7654907435163855,9.760964353623987,0.554977230772376
1776555961337308200,5.05530810546875,-0.7594819315556436,9.760573308479785,0.5698855711666867
1776555961347349200,5.065349365234375,-0.7588149920795112,9.760226686999202,0.5766973335407674
1776555961357391000,5.07539111328125,-0.7647047807704657,9.759683081641793,0.5781093557631597
1776555961367432200,5.08543212890625,-0.7760156446620822,9.75873732522428,0.5789999479273333
1776555961377474000,5.09547412109375,-0.788879656279832,9.757531456565856,0.5819289505839348
1776555961387516000,5.105515869140625,-0.7977147046424448,9.756639476162194,0.584810789630562
1776555961397557000,5.115556884765625,-0.8007561912301927,9.75634955330491,0.585494899437204
1776555961407599000,5.12559912109375,-0.8004037245307117,9.756510881346463,0.5833238755410537
1776555961417640200,5.13564013671875,-0.8001149707172065,9.756794374462961,0.5789595428517088
1776555961427682000,5.14568212890625,-0.8001327255696058,9.757142749509216,0.57303358686883
1776555961437723100,5.15572314453125,-0.7961739780064672,9.757865803086757,0.566183611376211
1776555961447765000,5.165764892578125,-0.7851308251403272,9.759141814371944,0.5595660929325967
1776555961457807000,5.17580712890625,-0.7673490847341716,9.760929866832495,0.5530139678753913
1776555961467848000,5.185847900390625,-0.7462162072692066,9.762917241257428,0.5468109119841829
1776555961477890000,5.19589013671875,-0.7257081106390804,9.764705293717979,0.5424695583116262
1776555961487931100,5.20593115234375,-0.707167806950584,9.766129189041257,0.5412960210202261
1776555961497973200,5.21597314453125,-0.6884564575441181,9.767381819450854,0.5428265550557524
1776555961508015000,5.22601513671875,-0.6664242931518704,9.768781164854765,0.5451350511938333
1776555961518056200,5.23605615234375,-0.642566520767659,9.770307936030626,0.5464268080374226
1776555961528098000,5.24609814453125,-0.6193015997100622,9.771873870173096,0.5452699296198785
1776555961538139100,5.25613916015625,-0.5948691692430526,9.773701085600257,0.5397034545991569
1776555961548181000,5.266180908203125,-0.5677585690753534,9.775936297306417,0.5283079811640083
1776555961558222000,5.27622216796875,-0.5420877559198066,9.778323484703899,0.5107934403266757
1776555961568264000,5.286263916015625,-0.5260216237924993,9.78031436626017,0.4890072135195136
1776555961578306300,5.296306396484375,-0.5248294913984834,9.781488086214662,0.46628903962448237
1776555961588347100,5.30634716796875,-0.5327415431646629,9.782079037845135,0.44439712395314124
1776555961598389200,5.31638916015625,-0.5383072144677862,9.782690447741746,0.42377007711846376
1776555961608430000,5.32643017578125,-0.5332909206757321,9.783743171665073,0.4054023535178974
1776555961618472200,5.33647216796875,-0.5164421137381344,9.785192201429606,0.3920054040672257
1776555961628514000,5.34651416015625,-0.48923225444704294,9.786845813855528,0.3855977655146271
1776555961638555100,5.35655517578125,-0.45390919479448344,9.788568399864435,0.3850843726323917
1776555961648597000,5.366596923828125,-0.4125696878639981,9.790245393165945,0.38892168577294794
1776555961658638000,5.37663818359375,-0.36746874604076146,9.791737093028425,0.3965467007586732
1776555961668680200,5.38668017578125,-0.3206767823906615,9.792909643939137,0.4079935025222599
1776555961678722000,5.39672216796875,-0.2728160935305059,9.793771229204534,0.42189171602595593
1776555961688763100,5.40676318359375,-0.22535943716028703,9.794333539262414,0.43660942921899254
1776555961698805000,5.416804931640625,-0.1801976685279049,9.79461937046647,0.4509370105832815
1776555961708846000,5.42684619140625,-0.13915175598282367,9.794691266658901,0.46373493469487875
1776555961718888000,5.436887939453125,-0.10309762384304776,9.794677238133549,0.473368659154512
1776555961728929000,5.446928955078125,-0.07609862625708337,9.79472926058173,0.47738892764654006
1776555961738971000,5.456970947265625,-0.06146941789798438,9.794972421687842,0.4744698983946815
1776555961749013200,5.46701318359375,-0.0588725469723111,9.795414320236445,0.4655940796302631
1776555961759054000,5.47705419921875,-0.06530596385356038,9.795985398122667,0.45254817210696635
1776555961769096200,5.48709619140625,-0.08091744754854589,9.797084883797169,0.42540765172503886
1776555961779137000,5.497136962890625,-0.10504560697250999,9.79885247799158,0.3766267792800441
1776555961789179100,5.50717919921875,-0.13303344663246533,9.800780815705657,0.31206410807445645
1776555961799221000,5.517220947265625,-0.15851530395401642,9.802273100090027,0.24642626365171744
1776555961809262000,5.527261962890625,-0.17994139221189542,9.80316098884046,0.18987013582903892
1776555961819304000,5.537303955078125,-0.20148383685844018,9.803509948408603,0.1448329434243962
1776555961829345000,5.547344970703125,-0.2285701611014083,9.803345697757601,0.11198921556533313
1776555961839387100,5.55738720703125,-0.26602327331891285,9.802594587129354,0.09344069203776306
1776555961849429200,5.56742919921875,-0.31115601678621024,9.801272983136773,0.09294193046907893
1776555961859470000,5.577469970703125,-0.3563169086357578,9.79954455190897,0.11108190059522166
1776555961869512200,5.58751220703125,-0.388146427084133,9.797949976193904,0.14108756461730226
1776555961879553000,5.597552978515625,-0.4010252344122156,9.796947521153092,0.1714115008083172
1776555961889595100,5.60759521484375,-0.4047070647301152,9.796364168307184,0.19454674933794885
1776555961899637000,5.617636962890625,-0.41277003274168816,9.795693721699713,0.21072739295670762
1776555961909678300,5.62767822265625,-0.4356985979843884,9.794417710414528,0.22349758881116286
1776555961919720200,5.63772021484375,-0.47572534181587395,9.792253225857019,0.2363428957284428
1776555961929761300,5.64776123046875,-0.5276589426707476,9.789178640717267,0.25284531864747406
1776555961939803100,5.65780322265625,-0.5826884271817282,9.785431855404376,0.276011181511078
1776555961949845000,5.667844970703125,-0.6299695625882595,9.781541277706623,0.3081921620119363
1776555961959886000,5.677885986328125,-0.6658318802166729,9.777713828372955,0.3512405552195385
1776555961969928000,5.687927978515625,-0.6926694721292704,9.773792271015047,0.40445407634973524
1776555961979969000,5.697968994140625,-0.7144549682840704,9.76970120230913,0.46137101857513185
1776555961990011100,5.70801123046875,-0.7374853499334305,9.765412565204501,0.5130439591998234
1776555962000053200,5.71805322265625,-0.7679889170076698,9.760791335144638,0.5545668233405798
1776555962010094000,5.728093994140625,-0.8077865282583981,9.75549030612707,0.590133774751611
1776555962020136200,5.73813623046875,-0.8508651339411735,9.749546887552738,0.6266882028300315
1776555962030178000,5.748177978515625,-0.8884496722523123,9.74349883956015,0.6672853669606149
1776555962040219100,5.75821923828125,-0.9127996120676398,9.738413499119877,0.7074496926318854
1776555962050261000,5.768260986328125,-0.9252663679961115,9.734733349302411,0.7411060246486216
1776555962060302000,5.778302001953125,-0.9346423913676292,9.731984342855215,0.7650581973180174
1776555962070344200,5.78834423828125,-0.9464509025830775,9.729575528147816,0.7810200288206338
1776555962080386000,5.798385986328125,-0.9669183018766343,9.726628953301907,0.7925601714234799
1776555962090427100,5.80842724609375,-0.9952830302912742,9.722821377712487,0.8040932997636496
1776555962100469000,5.818468994140625,-1.026681719574332,9.718252170100808,0.8196882707152515
1776555962110510000,5.828510009765625,-1.0531123381212353,9.713527479666471,0.8418680999498814
1776555962120552000,5.838552001953125,-1.073205424209684,9.709003280240296,0.8682589710082859
1776555962130594000,5.848593994140625,-1.0893683312423525,9.704776017934083,0.8949762975420802
1776555962140635100,5.85863525390625,-1.1053196413509547,9.700749246636033,0.9187486566651611
1776555962150677200,5.86867724609375,-1.1256202327102423,9.69665174818933,0.9371911260023713
1776555962160718000,5.878718017578125,-1.151216153998673,9.69260451862514,0.9478894109535961
1776555962170760200,5.88876025390625,-1.1817485087759791,9.688547352188825,0.9517977435037493
1776555962180802000,5.898802001953125,-1.2152114371124654,9.684505967843531,0.9507882011350244
1776555962190843100,5.908843017578125,-1.2547922638073563,9.679823362985253,0.9470525217380374
1776555962200885000,5.918885009765625,-1.3003193586207926,9.67419675527513,0.9431149630933999
1776555962210927000,5.928927001953125,-1.3506259427957237,9.66742506918311,0.9418401939172297
1776555962220968200,5.93896826171875,-1.403885093165934,9.65938730867803,0.946428544620797
1776555962231010300,5.94901025390625,-1.4549601774953305,9.650724109750985,0.9576146130889653
1776555962241051100,5.959051025390625,-1.5020967533320189,9.642014149072766,0.972456062259525
1776555962251093200,5.96909326171875,-1.5472754730992018,9.63339069763422,0.9869698869109154
1776555962261135400,5.97913525390625,-1.5922653922960162,9.624849663782118,0.9986689464025199
1776555962271176400,5.989176513671875,-1.6381453922003506,9.616229134953022,1.0074696541041135
1776555962281218300,5.99921826171875,-1.681810054142773,9.60755950628519,1.0181835750158876
1776555962291259400,6.00925927734375,-1.7211324490971862,9.598369653135537,1.0389434544499963
1776555962301301200,6.01930126953125,-1.762518498583138,9.587003624990581,1.0739178833279759
1776555962311343000,6.029343017578125,-1.802837941750884,9.574011456948519,1.12181061129421
1776555962321384200,6.03938427734375,-1.837456250667572,9.561258358359336,1.1732335592132062
1776555962331426000,6.049426025390625,-1.861090370363742,9.551349543285369,1.2159108175534754
1776555962341468400,6.059468505859375,-1.87670411908105,9.54426279989481,1.2471641070164738
1776555962351509200,6.06950927734375,-1.8862097601816057,9.538698736026882,1.2750754656404255
1776555962361551400,6.07955126953125,-1.8944415819540619,9.532358427089452,1.309808633108437
1776555962371592200,6.08959228515625,-1.9093365148775279,9.522726090869307,1.3573894455812872
1776555962381634300,6.09963427734375,-1.9343962834626436,9.508522793471812,1.4200316335856913
1776555962391676200,6.10967626953125,-1.968708741300553,9.490275773641466,1.4930598987869919
1776555962401717200,6.11971728515625,-2.003408883281797,9.470750404438375,1.5689472066812216
1776555962411759000,6.129759033203125,-2.03580805484429,9.451288163599372,1.642864091285318
1776555962421800200,6.13980029296875,-2.0679149654619393,9.431593283048272,1.7144013872765003
1776555962431842300,6.14984228515625,-2.1022747695729134,9.411087086114287,1.7838930027842521
1776555962441884200,6.15988427734375,-2.1413994499981404,9.38908977383971,1.8519750437550246
1776555962451925200,6.16992529296875,-2.1848450623624025,9.365250048568845,1.9206556351408361
1776555962461967000,6.179967041015625,-2.231259169143438,9.33928032553196,1.992411103927344
1776555962472009200,6.19000927734375,-2.280590186284482,9.310551659175752,2.069526346181333
1776555962482050300,6.20005029296875,-2.336585337489843,9.277861687973141,2.1522185117848216
1776555962492092200,6.210092041015625,-2.402004735122621,9.240331875523925,2.2398772137545047
1776555962502133200,6.22013330078125,-2.477093001593649,9.1975939730376,2.3320913870714604
1776555962512175400,6.23017529296875,-2.5560765219375488,9.150929252496361,2.428447336368263
1776555962522217200,6.24021728515625,-2.633513105100393,9.102157915064693,2.5269988960132
1776555962532258300,6.25025830078125,-2.7040651894465086,9.053699296844005,2.62467864125967
1776555962542300200,6.260300048828125,-2.764889952765405,9.007693916994333,2.717944077195227
1776555962552342300,6.27034228515625,-2.8162922232225536,8.96502557261288,2.8048528375804422
1776555962562383000,6.280383056640625,-2.857959573867917,8.92541661580205,2.887798831814527
1776555962572425200,6.29042529296875,-2.893711562989652,8.886748154711723,2.9702707787960767
1776555962582467300,6.30046728515625,-2.9291847351700064,8.846218575924635,3.055272828777134
1776555962592508400,6.31050830078125,-2.970826366852224,8.800849740412831,3.1447771586135027
1776555962602550300,6.32055029296875,-3.0223516791671514,8.748549644333124,3.240159148311615
1776555962612591400,6.33059130859375,-3.0832863326013085,8.689431684932112,3.340287163493037
1776555962622633200,6.34063330078125,-3.146048201462626,8.626240192481875,3.4439421837568283
1776555962632675000,6.350675048828125,-3.1958719705566763,8.565766142296791,3.547457503288984
1776555962642716200,6.360716064453125,-3.2130908163830636,8.518206518742442,3.6450770427808163
1776555962652758000,6.370758056640625,-3.190364605312049,8.489616384074091,3.730735510843992
1776555962662800400,6.38080029296875,-3.134658792442083,8.48096662915051,3.7970398746177554
1776555962672841200,6.39084130859375,-3.058887219882011,8.489782972812652,3.838904209139943
1776555962682883300,6.40088330078125,-2.975051291070878,8.511585054776072,3.8564714300125833
1776555962692924200,6.410924072265625,-2.892994062370062,8.54152192787826,3.852708862608671
1776555962702966300,6.42096630859375,-2.819531059013307,8.576116855919361,3.8302532851725815
1776555962713008000,6.431008056640625,-2.750831032274663,8.615373930552602,3.7919159557327626
1776555962723049200,6.44104931640625,-2.6747277435421943,8.664182677385211,3.7347251650020477
1776555962733091000,6.451091064453125,-2.5800319825425744,8.727025210267305,3.6541575903370975
1776555962743133200,6.46113330078125,-2.4614444738239047,8.803658952614665,3.550669743333757
1776555962753174300,6.47117431640625,-2.322792082197964,8.888823791942,3.429846730647981
1776555962763216400,6.48121630859375,-2.1741429049536585,8.97586260844767,3.2980852675795553
1776555962773257200,6.49125732421875,-2.0266639405325053,9.060084029445052,3.1587787959590554
1776555962783299300,6.50129931640625,-1.8869044644474982,9.138878164696694,3.0151097452148794
1776555962793341200,6.511341064453125,-1.7566487297669051,9.21109642868936,2.870587584772706
1776555962803382300,6.52138232421875,-1.6336565563485026,9.276649974095822,2.728612186203897
1776555962813424000,6.531424072265625,-1.5118679135009645,9.336299263894558,2.5919395702183246
1776555962823466200,6.54146630859375,-1.3841297145992517,9.39108766965866,2.462120765650272
1776555962833507300,6.55150732421875,-1.24321741521731,9.442285357454418,2.3383862494319674
1776555962843549200,6.561549072265625,-1.085362456601858,9.490291555732489,2.2196263067558406
1776555962853591300,6.57159130859375,-0.9109319184996187,9.534846152251959,2.104111045089364
1776555962863632100,6.581632080078125,-0.7233540217936039,9.57527870040536,1.990272046072036
1776555962873674200,6.59167431640625,-0.5294877655331045,9.610929859501123,1.8761876939915119
1776555962883715000,6.601715087890625,-0.336703459290415,9.641412091526389,1.760734391645342
1776555962893757400,6.61175732421875,-0.15250819989317096,9.666410339182615,1.645485233569145
1776555962903799300,6.62179931640625,0.017841294281888985,9.685884270459413,1.5341747301161288
1776555962913840400,6.63184033203125,0.17004898028345777,9.70028981243074,1.4303333935000002
1776555962923882200,6.64188232421875,0.3010159867722541,9.710701316329835,1.334932260710001
1776555962933924000,6.651924072265625,0.41175731203518806,9.718350369778275,1.2467961504869163
1776555962943965200,6.661965087890625,0.5040897779695689,9.7242148778975,1.1644500949073582
1776555962954007000,6.672007080078125,0.5799117655426264,9.729334705129265,1.0835839756872505
1776555962964049400,6.68204931640625,0.639968320968002,9.734916889175771,0.9961058909814804
1776555962974090200,6.69209033203125,0.6876075856298208,9.741151984173058,0.8986286095045506
1776555962984132400,6.70213232421875,0.7265141663249581,9.747887429907918,0.7881903588414192
1776555962994173200,6.712173095703125,0.758851670828089,9.754611185204983,0.6648816668197512
1776555963004215300,6.72221533203125,0.7873455055151134,9.760529469338058,0.5315429810298606
1776555963014257200,6.732257080078125,0.8151690397251397,9.76493033464551,0.3899178937360644
1776555963024298200,6.74229833984375,0.8472014238018541,9.767104171553253,0.2373348111089319
1776555963034340000,6.752340087890625,0.8884507682308554,9.76608534989953,0.06816968728818465
1776555963044382200,6.76238232421875,0.9401111051023006,9.760742819827794,-0.12042591226012446
1776555963054423300,6.77242333984375,0.9992933619111776,9.750283969655632,-0.322133922396414
1776555963064465400,6.78246533203125,1.059384477193281,9.735116211140156,-0.5249758045339956
1776555963074507300,6.79250732421875,1.1175883904892951,9.716582775583863,-0.7137081685047596
1776555963084548400,6.80254833984375,1.1756454426605254,9.696611416178941,-0.8740590355891734
1776555963094590200,6.812590087890625,1.2362822091266512,9.677202951353788,-0.996871687722206
1776555963104632000,6.822632080078125,1.3038231289580464,9.65892086021006,-1.0842944620441646
1776555963114673200,6.832673095703125,1.3835228347472845,9.64043710901439,-1.148133458617702
1776555963124715300,6.84271533203125,1.4751158074259758,9.620452890127897,-1.2005554275114088
1776555963134756400,6.85275634765625,1.5736086226209998,9.598636195117235,-1.249147243657708
1776555963144798200,6.862798095703125,1.6702262915939092,9.5752763623178,-1.3018543131031095
1776555963154840300,6.87284033203125,1.7549483555898069,9.551787934702634,-1.3615779833123087
1776555963164881200,6.882881103515625,1.8215813667960463,9.529567919588088,-1.4281314995415508
1776555963174923300,6.89292333984375,1.8684329882115125,9.5091979162544,-1.501502148439735
1776555963184965000,6.902965087890625,1.8974243971571325,9.490723517408966,-1.5799682207807897
1776555963195006200,6.913006103515625,1.9100915710285304,9.474350474756955,-1.660902436801046
1776555963205048300,6.92304833984375,1.9094075342871248,9.459715800204872,-1.7430770082712173
1776555963215090200,6.933090087890625,1.9025467086069285,9.446680377542972,-1.8196072902441023
1776555963225130800,6.943130859375,1.89794681359604,9.433937800347804,-1.8891858533829449
1776555963235172900,6.9531728515625,1.9013344102077185,9.420028517460823,-1.9540666140943765
1776555963245215000,6.963215087890625,1.9125885024107991,9.404128937539458,-2.0186006071947515
1776555963255256000,6.973256103515625,1.9275901105791329,9.385981870952248,-2.0876124763615427
1776555963265298000,6.9832978515625,1.940852035473287,9.365776702791452,-2.1646396019406615
1776555963275339800,6.99333984375,1.9475402810655533,9.343883435413241,-2.251515629100054
1776555963285380900,7.003380859375,1.9452463249094782,9.320939782199263,-2.3465898680232464
1776555963295422700,7.013422607421875,1.9365715816751121,9.298381328910589,-2.4413415969938037
1776555963305463800,7.0234638671875,1.9343439687535167,9.276914177989958,-2.5234046709135174
1776555963315505700,7.033505615234375,1.9508556892238555,9.256253667277097,-2.5857944915920497
1776555963325548000,7.043548095703125,1.9959977302424607,9.233304168844223,-2.6329607319146393
1776555963335588900,7.0535888671875,2.071387902269512,9.205019739124179,-2.6734537780836223
1776555963345631000,7.063630859375,2.170815952488035,9.170378633853792,-2.71332255487442
1776555963355672800,7.0736728515625,2.2853743518210945,9.129628690314293,-2.756326122559607
1776555963365714000,7.0837138671875,2.410971154779941,9.083481856167316,-2.8014304619163273
1776555963375755800,7.093755859375,2.5455939986288545,9.03321355817616,-2.8445363209322094
1776555963385797600,7.103797607421875,2.678807121810317,8.980299129590392,-2.889393699790537
1776555963395838700,7.113838623046875,2.7923253644406794,8.926917668014765,-2.9467738756135105
1776555963405880800,7.123880859375,2.8697879588276147,8.876874995473027,-3.0225492475658653
1776555963415923000,7.1339228515625,2.9098946360275146,8.831242540588974,-3.116419371396303
1776555963425963800,7.1439638671875,2.9338609102874993,8.772901410779356,-3.2556147838577627
1776555963436006000,7.154005859375,2.960833088365197,8.670720554721354,-3.496066923269629
1776555963446047700,7.1640478515625,2.950834841442108,8.529412387889623,-3.8356323478624224
1776555963456088800,7.1740888671875,2.8843483990997076,8.378515139457583,-4.201360679976642
1776555963466130700,7.184130615234375,2.8124101210922,8.225841529002786,-4.538310661374032
1776555963476172800,7.1941728515625,2.8147540538698435,8.063452580219506,-4.819574411384761
1776555963486214000,7.2042138671875,2.9519410491183398,7.9013231591552495,-5.002552851471305
1776555963496256000,7.214256103515625,3.2193630285203456,7.759699935024976,-5.058967981654405
1776555963506296800,7.224296875,3.577023789513111,7.640936192956566,-4.999140997201204
1776555963516339000,7.2343388671875,3.994766386502981,7.518701559907197,-4.866353698216378
1776555963526380800,7.244380859375,4.409325677281618,7.3830112329572435,-4.713746138735115
1776555963536422000,7.254421875,4.7125934615686536,7.241414896833896,-4.639369235403835
1776555963546464000,7.264464111328125,4.834434419125318,7.085127772057056,-4.75390133125186
1776555963556505900,7.274505859375,4.780237549513578,6.938853507250547,-5.017173497498035
1776555963566547000,7.284546875,4.681456272765994,6.808736596518755,-5.281613538479805
1776555963576588800,7.2945888671875,4.576062884402274,6.713132196241617,-5.492168844538927
1776555963586631000,7.304630859375,4.559683119748533,6.615815146827697,-5.622334270587563
1776555963596671700,7.314671630859375,4.676527291931212,6.504147500500083,-5.656551012966037
1776555963606713900,7.3247138671875,4.870867960770428,6.3894835949659345,-5.623127466791868
1776555963616756000,7.334755859375,5.084978621223569,6.276607157370448,-5.560357999145984
1776555963626797000,7.344797119140625,5.293666379845142,6.159973997589946,-5.495657271176576
1776555963636839000,7.3548388671875,5.46191223796308,6.041543432998657,-5.462388623303175
1776555963646880800,7.364880859375,5.564890966400504,5.929263792252541,-5.481443452385068
1776555963656921900,7.374921875,5.600878810104727,5.832785531750321,-5.547898330545425
1776555963666963700,7.384963623046875,5.604685216650367,5.752473977673054,-5.627336024397612
1776555963677004800,7.3950048828125,5.614311123129725,5.667035582101345,-5.7039072229027745
1776555963687046700,7.405046630859375,5.647683815899491,5.568298729017377,-5.767849241459369
1776555963697089000,7.415089111328125,5.694699834096431,5.4608472390800715,-5.824080831769108
1776555963707129900,7.4251298828125,5.73882889868021,5.35637271912694,-5.877545879974961
1776555963717172000,7.435171875,5.777386885133385,5.269202385196089,-5.918420326676965
1776555963727213800,7.4452138671875,5.823222753635049,5.199733127650618,-5.93491611892581
1776555963737255000,7.4552548828125,5.881814643335342,5.138868616843223,-5.930149927437305
1776555963747296800,7.465296875,5.945801085555553,5.07924913766086,-5.917690258836746
1776555963757339000,7.4753388671875,6.0057841373533005,5.021235340109468,-5.906616491636633
1776555963767379700,7.485379638671875,6.059649583053589,4.966823950964212,-5.89759731887877
1776555963777421800,7.495421875,6.10787673060596,4.91164216196835,-5.8940627150118345
1776555963787464000,7.5054638671875,6.137564597383141,4.850878481186926,-5.913518526110053
1776555963797505000,7.515505126953125,6.139495273184776,4.788275017757713,-5.962335456249117
1776555963807547000,7.525546875,6.141031981232762,4.725864154291153,-6.0103480842679735
1776555963817588700,7.535588623046875,6.1731122961044305,4.654617657940089,-6.033046238288283
1776555963827629800,7.5456298828125,6.234425135201215,4.574038977359235,-6.031628188183904
1776555963837671700,7.555671630859375,6.299943609294295,4.492247413857281,-6.02501373848021
1776555963847714000,7.565714111328125,6.354860025352239,4.414485544262826,-6.024822599822283
1776555963857755000,7.5757548828125,6.404091966032982,4.345474844139814,-6.022860359838605
1776555963867797000,7.585796875,6.446536438530683,4.28647378911674,-6.019858255413174
1776555963877837800,7.595837890625,6.471935083681345,4.244143006126582,-6.022603170207143
1776555963887880000,7.6058798828125,6.477598516270518,4.218881139098108,-6.034247430771589
1776555963897921800,7.615921875,6.476365759605169,4.196759908182919,-6.050970017513633
1776555963907963000,7.625962890625,6.479884581381082,4.167600741454959,-6.067335461381077
1776555963918004700,7.636004638671875,6.4900511706084005,4.136790884910524,-6.07755115044713
1776555963928046800,7.646046875,6.500261014455557,4.104565608610213,-6.088477033609151
1776555963938088000,7.656087890625,6.500961271679401,4.0731253452077505,-6.108810796585678
1776555963948129800,7.6661298828125,6.495888206198811,4.0454046868503095,-6.132579210186004
1776555963958172000,7.676171875,6.4946355757892125,4.020124991904199,-6.150504158455133
1776555963968212700,7.686212646484375,6.503682805597782,4.000985407148302,-6.153421507206559
1776555963978254800,7.6962548828125,6.5169836011976,3.9873146091923117,-6.148220431432128
1776555963988296700,7.706296630859375,6.519143409579992,3.983949224412441,-6.148111710360646
1776555963998337800,7.716337890625,6.5020671870946884,3.9978129145920276,-6.157192842438817
1776555964008380000,7.7263798828125,6.466317828321457,4.023350091430545,-6.1781689949721095
1776555964018422000,7.736422119140625,6.416797133827209,4.058655505828559,-6.206643394306302
1776555964028462800,7.746462890625,6.3618643511563535,4.101682746650279,-6.2348465754836795
1776555964038505000,7.7565048828125,6.319524508076906,4.149596590469777,-6.246187469187379
1776555964048545800,7.7665458984375,6.29616701336503,4.198001724937558,-6.237422563451529
1776555964058588000,7.776587890625,6.2795373656034466,4.252724079728126,-6.217082955256104
1776555964068629800,7.786629638671875,6.263509190866351,4.317714438293874,-6.188391113778948
1776555964078670800,7.7966708984375,6.244313492009043,4.392300015939772,-6.155208975145221
1776555964088713000,7.806712890625,6.218782744911313,4.477279561828077,-6.119729080963134
1776555964098754800,7.8167548828125,6.178603879258036,4.567749521826207,-6.093512105166912
1776555964108796000,7.8267958984375,6.1247933786153785,4.660356786113977,-6.077690851178765
1776555964118837800,7.836837646484375,6.064822017255425,4.759430908328294,-6.0610354844540355
1776555964128879900,7.8468798828125,6.001223697569966,4.863839085046947,-6.041423021489382
1776555964138920700,7.856920654296875,5.935019579300284,4.968276487860083,-6.021810558524727
1776555964148962800,7.866962890625,5.865839660090208,5.0733390368342395,-6.001964286804199
1776555964159005000,7.8770048828125,5.794584688171744,5.181791228246689,-5.978477612754702
1776555964169046000,7.8870458984375,5.7228469011723995,5.294458407005667,-5.948789161455631
1776555964179088000,7.897087890625,5.649033476942777,5.41344076026082,-5.912144315147399
1776555964189129700,7.907129638671875,5.568985542237758,5.537825264820456,-5.872758645698428
1776555964199170800,7.9171708984375,5.4862967376351355,5.665400089854002,-5.828735379576683
1776555964209212700,7.927212646484375,5.405344547566771,5.7929439352273935,-5.7787897376686335
1776555964219255000,7.937255126953125,5.322780830648541,5.92217704886198,-5.724179026558995
1776555964229296000,7.947296142578125,5.231870725667476,6.057979604014754,-5.665581876161694
1776555964239338200,7.957338134765625,5.131594241926074,6.20000790181458,-5.603306329512596
1776555964249379000,7.967379150390625,5.023339618912339,6.347479267451167,-5.5358799759715795
1776555964259421200,7.977421142578125,4.904880997270346,6.501171115037798,-5.463268913269043
1776555964269463000,7.987463134765625,4.773266249196231,6.662035046210884,-5.385502367499471
1776555964279504100,7.997504150390625,4.62923479488045,6.832249574053287,-5.297255344247818
1776555964289546000,8.0075458984375,4.473000277073681,7.0127388276726,-5.1946238218128675
1776555964299588000,8.017588134765624,4.301844961249828,7.2033625218153,-5.077017433086037
1776555964309629200,8.027629150390625,4.118072448176146,7.400728675955533,-4.9437896968573325
1776555964319671000,8.037671142578125,3.9300206503480672,7.595512996909022,-4.799320435646176
1776555964329713200,8.047713134765624,3.752852650105953,7.7776774902641765,-4.646958959880471
1776555964339754000,8.05775390625,3.5945386956766248,7.9431679121941325,-4.489515943066776
1776555964349796000,8.067796142578125,3.4463308324590325,8.097113442280888,-4.327813222981989
1776555964359838000,8.077837890625,3.2927529666408892,8.248050438201426,-4.159066721865535
1776555964369879000,8.087879150390625,3.1245310739204286,8.401322599071264,-3.978122710216045
1776555964379921200,8.097921142578125,2.9450054046362637,8.557024032914638,-3.7781843675002453
1776555964389963300,8.10796337890625,2.7646543904438614,8.711474005392192,-3.5548999282494185
1776555964400004000,8.118004150390625,2.5878493782952425,8.86012026002705,-3.31235315464586
1776555964410046200,8.128046142578125,2.413687720262259,8.998460224702955,-3.061403002095222
1776555964420088000,8.138088134765624,2.241719334489852,9.123074446365237,-2.8132892420142888
1776555964430129200,8.148129150390625,2.0771347753584384,9.23073402609527,-2.5786574793189763
1776555964440171000,8.1581708984375,1.9232383451104162,9.320686684221029,-2.365655949151516
1776555964450212000,8.168212158203126,1.7786917808793483,9.396536582714319,-2.1706505327932537
1776555964460254200,8.178254150390625,1.6407175807759165,9.462213462239504,-1.9861838999755679
1776555964470296000,8.188296142578125,1.5055107995592056,9.520681433299183,-1.8056699503064155
1776555964480337200,8.198337158203126,1.3697583671584725,9.573427519580722,-1.6259259620964526
1776555964490379000,8.20837890625,1.2317834364026785,9.621245501810312,-1.4438592300273476
1776555964500421000,8.218421142578125,1.0888526368051767,9.664733345881103,-1.25608142683506
1776555964510462000,8.2284619140625,0.9414041405875235,9.703602297979593,-1.0603005691248923
1776555964520504000,8.238504150390625,0.7918836604014039,9.736852241152524,-0.858501985495165
1776555964530546200,8.248546142578125,0.6407943965286016,9.763709268417953,-0.655570598443225
1776555964540587300,8.258587158203126,0.49259862560760226,9.783745509752631,-0.4539484673589468
1776555964550629000,8.268629150390625,0.3513250551652163,9.797132814592123,-0.2513062725119293
1776555964560671000,8.2786708984375,0.21897004665043204,9.804081026294828,-0.04953416133059654
1776555964570712000,8.288712158203126,0.0940211405405309,9.805084065857528,0.14778977480283936
1776555964580754000,8.29875390625,-0.028206240784144028,9.800801273971796,0.3374717767817899
1776555964590796000,8.308796142578124,-0.14966693031894973,9.792193604624272,0.5107996508717536
1776555964600837000,8.318837158203126,-0.27010402156021446,9.78063293069005,0.6608051380958407
1776555964610879200,8.328879150390625,-0.3948750046867877,9.766957456558941,0.7880356797363609
1776555964620920000,8.338920166015624,-0.5191222196675837,9.751778592127561,0.8964892593882977
1776555964630962200,8.348962158203125,-0.6271048208069055,9.736502697062491,0.9887537746530025
1776555964641004000,8.359004150390625,-0.7162755347747355,9.72193933418095,1.068285503464192
1776555964651045000,8.369045166015624,-0.8000590027462691,9.707070266351103,1.141533037439361
1776555964661087000,8.3790869140625,-0.8863193091601133,9.690424251976609,1.2167523098789155
1776555964671129000,8.389129150390625,-0.9731287008240819,9.670864980503916,1.302993692396581
1776555964681170000,8.399169921875,-1.0537122767757623,9.649141224473714,1.3979074800610543
1776555964691212300,8.40921240234375,-1.1195393784265966,9.62895242292583,1.4833388613700866
1776555964701254100,8.419254150390625,-1.1645787627883255,9.613165655729174,1.5495754206046461
1776555964711295200,8.429295166015624,-1.188693724803999,9.602862288379669,1.5945016269154846
1776555964721337000,8.439337158203125,-1.1967513590533285,9.597877485704421,1.6183092034824191
1776555964731379000,8.44937890625,-1.1931102260719983,9.597212884315848,1.624924529968947
1776555964741420000,8.459419921875,-1.1805875021725893,9.599995793032646,1.6176137685641645
1776555964751462000,8.4694619140625,-1.1604730079699308,9.605507834452391,1.599349651468545
1776555964761503200,8.479503173828125,-1.1337246287107468,9.612877486437558,1.5740437991678713
1776555964771545000,8.489545166015626,-1.10560357285887,9.620933951643108,1.5445527701370416
1776555964781587200,8.499587158203125,-1.083653095400706,9.628100774532555,1.5151793761365115
1776555964791628000,8.5096279296875,-1.074952487072721,9.633080901032686,1.4895068824805318
1776555964801670100,8.519670166015626,-1.0866754388965665,9.634671969616413,1.4705876624770462
1776555964811712000,8.5297119140625,-1.1217501863438635,9.632038113981485,1.461464444822818
1776555964821753000,8.539753173828124,-1.1782210653021932,9.62516530560255,1.4623155086942017
1776555964831795200,8.549795166015626,-1.2528336770854889,9.614583121311664,1.4698936888635157
1776555964841837000,8.559837158203125,-1.338378601771593,9.602048633909225,1.4764150534562765
1776555964851878100,8.569878173828124,-1.4257542490161954,9.589291443666815,1.4775390890501439
1776555964861920000,8.579919921875,-1.5050896515376866,9.577809680187702,1.4733172335714102
1776555964871962000,8.589962158203125,-1.568350555962324,9.56887818571329,1.4653382175162433
1776555964882003000,8.6000029296875,-1.6137227524749933,9.562857025727629,1.45534815389961
1776555964892045000,8.610045166015626,-1.646278868164867,9.5593674300462,1.441745598874241
1776555964902086100,8.620086181640625,-1.6724167873755096,9.557941196635365,1.4209708141319453
1776555964912128300,8.630128173828124,-1.6965711315535008,9.558446223548055,1.3885747113093734
1776555964922170000,8.640170166015626,-1.7201057363979517,9.560780219453573,1.3428066473469138
1776555964932211200,8.650211181640625,-1.7363022534392774,9.565512508672475,1.2870849062554537
1776555964942253000,8.660253173828124,-1.7274910243436694,9.574589549097418,1.2302090266928076
1776555964952295200,8.670295166015626,-1.6845418171942232,9.58874140856862,1.1784453755773603
1776555964962336000,8.6803359375,-1.6138972322590648,9.606405660074948,1.1325578499536961
1776555964972378000,8.690378173828124,-1.5273245719604194,9.625567456662655,1.089087395409122
1776555964982420200,8.700420166015626,-1.435055015194416,9.64448433857858,1.0463798880610615
1776555964992461300,8.71046142578125,-1.3449950973019003,9.661780341294408,1.0056660387482494
1776555965002503200,8.720503173828124,-1.2631539955697952,9.676519060742855,0.9694265583705156
1776555965012544300,8.730544189453125,-1.1922759672049432,9.688511111831664,0.9389421343881637
1776555965022586000,8.740586181640625,-1.135368888786435,9.697560095205903,0.9157814774226397
1776555965032628000,8.7506279296875,-1.0938483262006193,9.703850719782709,0.8995403905872255
1776555965042669000,8.7606689453125,-1.0654077560707926,9.707893857693671,0.889981777190417
1776555965052711000,8.7707109375,-1.0450129836220294,9.710482120621204,0.8859204460356384
1776555965062753300,8.780753173828124,-1.0188332710962742,9.713381933715938,0.8846393201839178
1776555965072794000,8.790794189453125,-0.9676927203152328,9.718851305037736,0.8819783573463559
1776555965082836200,8.800836181640625,-0.8886492864776402,9.727290047559142,0.8720793330140412
1776555965092878000,8.810878173828126,-0.7990176039345562,9.7368025567919,0.8524356711935251
1776555965102919200,8.820919189453125,-0.7180760083254426,9.745275786104798,0.827259290491417
1776555965112961000,8.8309609375,-0.6531829726543277,9.751737091073393,0.8045719501260667
1776555965123002000,8.841002197265626,-0.6022122620148583,9.756333186691998,0.7884673491518944
1776555965133044000,8.8510439453125,-0.5605425367493182,9.759533444038032,0.7795489333547652
1776555965143086000,8.861086181640625,-0.5282751383403316,9.76158862300217,0.7763333323091268
1776555965153127200,8.871127197265626,-0.5072283317236229,9.76295231257081,0.773232297553867
1776555965163169000,8.8811689453125,-0.4946660429988056,9.764384975722432,0.7632179032135754
1776555965173211100,8.891211181640625,-0.49024866494797165,9.766991358828545,0.7320861212383956
1776555965183252200,8.901252197265626,-0.49516321539860214,9.771409175270795,0.666896879099682
1776555965193294000,8.911294189453125,-0.5031138090768829,9.777025846108794,0.5718337095597759
1776555965203335200,8.921335205078124,-0.5087720905669033,9.782178991088271,0.4695817610269412
1776555965213377000,8.931376953125,-0.5146603448878974,9.78576094122827,0.3799941002886742
1776555965223418600,8.941418701171875,-0.5331755141351372,9.7873461645931,0.30653818425983187
1776555965233459700,8.951459716796874,-0.5810672557206824,9.786378780865668,0.2440301622954197
1776555965243501600,8.96150146484375,-0.6590829904783517,9.782575881451368,0.19286979256905615
1776555965253543700,8.971543701171875,-0.7561861048806459,9.77606080046892,0.16495090822577477
1776555965263584500,8.98158447265625,-0.8571276284020394,9.767551330798863,0.17501772687304765
1776555965273627000,8.991626953125,-0.9401775214020163,9.758622758933901,0.23606046205786987
1776555965283668700,9.001668701171875,-0.9797868435390293,9.751334940013288,0.34908275613114237
1776555965293709800,9.011709716796876,-0.9756810156553983,9.745293321761489,0.4976828700693324
1776555965303751700,9.021751708984375,-0.9719052965089678,9.736473470968008,0.6533643936358392
1776555965313792800,9.031792724609375,-1.0078293542619794,9.722825469365715,0.7882501262046396
1776555965323834600,9.041834716796876,-1.0887347095139324,9.70584569299221,0.8840830014754086
1776555965333876700,9.051876708984375,-1.1949408025000243,9.688588268721103,0.934763679659739
1776555965343917600,9.06191748046875,-1.3000947560846805,9.673701080712675,0.9485054239600896
1776555965353959700,9.071959716796876,-1.3824762483038007,9.662934772026539,0.9417267966706305
1776555965364001800,9.082001708984375,-1.4295610939532517,9.656824180191755,0.9340747475475072
1776555965374042600,9.092042724609374,-1.4459867435753344,9.653896310046315,0.9390366077385842
1776555965384084700,9.102084716796876,-1.4428630585968494,9.651920626059175,0.9638223086226732
1776555965394125800,9.112125732421875,-1.4407726621888577,9.647533789277077,1.009783191743493
1776555965404167700,9.122167724609374,-1.4586144622191786,9.638532736697792,1.0684249119348823
1776555965414209800,9.132209716796876,-1.4953237520657479,9.62645300732553,1.1250758236352354
1776555965424251000,9.1422509765625,-1.5420605149298905,9.613884617653488,1.168608237500116
1776555965434292700,9.152292724609374,-1.5897553091712295,9.602553076300024,1.1975143793150782
1776555965444334800,9.1623349609375,-1.6285830524764955,9.59385422153771,1.214934739062935
1776555965454375700,9.172375732421875,-1.650000372906029,9.588982816109061,1.2244462984476239
1776555965464417800,9.182417724609374,-1.6540509634710847,9.587631401500106,1.2295634222656489
1776555965474458600,9.192458740234375,-1.643086209603399,9.589107319271564,1.2327470207378268
1776555965484500700,9.202500732421875,-1.6241390786796808,9.592190087717771,1.2338697411574422
1776555965494542800,9.21254296875,-1.6074929181747137,9.59500748322606,1.2337658423915505
1776555965504584000,9.222583984375,-1.6055204490579664,9.595093407943844,1.2356564784437418
1776555965514625800,9.232625732421875,-1.6251977939523756,9.590815876755117,1.2431249146282672
1776555965524667000,9.2426669921875,-1.6613870054475963,9.582656535696982,1.2581266689270734
1776555965534708700,9.252708740234375,-1.705133646585047,9.571749941757322,1.2823809663482009
1776555965544750600,9.26275048828125,-1.7434994714669882,9.560234276008606,1.3162507949851452
1776555965554791700,9.272791748046876,-1.7673842049233615,9.549954289534687,1.3583457233928142
1776555965564833500,9.28283349609375,-1.7801206446386872,9.541086507946252,1.4032973564058542
1776555965574876000,9.2928759765625,-1.793052899187058,9.532391744837165,1.445297300006449
1776555965584916700,9.302916748046876,-1.8127981947511433,9.523496490719914,1.4789020479664206
1776555965594958800,9.312958740234375,-1.8351717929922042,9.515620642778277,1.5018318187855184
1776555965604999700,9.322999755859374,-1.8575027211353181,9.509319496807455,1.5142432643301784
1776555965615041800,9.333041748046876,-1.8850253727026283,9.503927866896987,1.5140800365924834
1776555965625083600,9.343083740234375,-1.949277187860757,9.492942947024106,1.5015850044175982
1776555965635124700,9.353124755859374,-2.053756676249951,9.473491812101006,1.4850585247695445
1776555965645166600,9.36316650390625,-2.1456125376485287,9.450908224371075,1.499025821454078
1776555965655208700,9.373208740234375,-2.1851050284728406,9.430776705968379,1.5672108844079076
1776555965665249800,9.383249755859374,-2.152924906488508,9.420164711061119,1.6720621287189423
1776555965675292000,9.3932919921875,-2.074078310397267,9.418374905034899,1.7784309379860759
1776555965685332700,9.403332763671875,-1.986037331111729,9.418911496129631,1.8735330878295002
1776555965695374800,9.413374755859374,-1.9247407124973832,9.41564927946329,1.9522581033676862
1776555965705416700,9.423416748046876,-1.9229092592865227,9.4045176445961,2.0069494784981012
1776555965715457800,9.433457763671875,-1.9850037502802906,9.387081356626748,2.0280172548376023
1776555965725499600,9.443499755859374,-2.089523862940818,9.369103216865659,2.0060380627416072
1776555965735541800,9.453541748046876,-2.2106188244357705,9.353952994006871,1.9460520883344112
1776555965745582800,9.463582763671875,-2.3294345889523624,9.339118997490406,1.8774882551960645
1776555965755624700,9.473624755859374,-2.432314533190429,9.320452290943264,1.8393983246460557
1776555965765665800,9.483665771484375,-2.5081656007274984,9.29649507677257,1.858677902394533
1776555965775707600,9.493707763671875,-2.5414500306919217,9.271575739571452,1.9363084006942808
1776555965785749800,9.503749755859374,-2.5383923966869713,9.247140971016883,2.053616537126899
1776555965795790600,9.51379052734375,-2.54362532890439,9.2155715282768,2.1848529534079133
1776555965805832700,9.523832763671875,-2.5873703626066447,9.174377932623027,2.3036202026076613
1776555965815873500,9.53387353515625,-2.6618726458832622,9.129450995659827,2.3954028526395557
1776555965825916000,9.543916015625,-2.7434067274928093,9.08779971936643,2.460892100638151
1776555965835957800,9.553957763671875,-2.8172452861636876,9.050655106842518,2.5137960078299044
1776555965845998800,9.563998779296876,-2.8834797995716333,9.013020080453156,2.5732106120899316
1776555965856040700,9.574040771484375,-2.946681228893995,8.970005114591121,2.6507471484959124
1776555965866081800,9.584081787109374,-3.0158696236714717,8.916562862738967,2.7513284604027866
1776555965876123600,9.59412353515625,-3.0941184000000357,8.84913709371984,2.8791631054162976
1776555965886165500,9.60416552734375,-3.172561822117865,8.76912656841576,3.034412703838944
1776555965896206600,9.61420654296875,-3.239246417380869,8.6813956779927,3.2110803533434864
1776555965906248700,9.624248779296876,-3.2891236702278253,8.590763220909237,3.3986537200048565
1776555965916290800,9.634290771484375,-3.3257471814870834,8.500796534258127,3.584165185700357
1776555965926331600,9.64433154296875,-3.3590912326842544,8.414316520678996,3.753154847922921
1776555965936373800,9.654373779296876,-3.400499055610597,8.331327856346965,3.8982007399782534
1776555965946414600,9.66441455078125,-3.4539863156482573,8.249544476151465,4.023103715454042
1776555965956456700,9.674456787109374,-3.514051785032451,8.168245664602518,4.135406444814801
1776555965966498600,9.68449853515625,-3.5664033190384505,8.090006825146078,4.242987114089727
1776555965976539600,9.69453955078125,-3.5994738139912483,8.016434223935008,4.353270320321619
1776555965986581800,9.704581787109374,-3.6127804548099633,7.944283179959655,4.472869636431336
1776555965996622800,9.714622802734375,-3.612397008450329,7.868864658620953,4.604558618785441
1776555966006664700,9.724664794921875,-3.603309154370427,7.790711743882298,4.742503738924861
1776555966016706800,9.734706787109374,-3.5863930908828974,7.718636687752604,4.871430270828307
1776555966026747600,9.74474755859375,-3.5608944924890995,7.66170542474091,4.9788253544032575
1776555966036789800,9.754789794921875,-3.5240018088996408,7.623318118679523,5.063281168678403
1776555966046830600,9.76483056640625,-3.4774367493405935,7.600325950148701,5.129608036544918
1776555966056873000,9.774873046875,-3.424924764075875,7.588871659198403,5.181631653770804
1776555966066914800,9.784914794921875,-3.371090005774796,7.587500955367088,5.21880899952054
1776555966076956000,9.794955810546876,-3.3199151143327352,7.5966919775605195,5.238207527473569
1776555966086997800,9.804997802734375,-3.274122208189964,7.616846292316914,5.237763875359296
1776555966097038800,9.815038818359374,-3.233463450065255,7.6485215335190295,5.216822794139385
1776555966107080700,9.825080810546876,-3.1940751502677798,7.694376106721163,5.173475235322117
1776555966117122600,9.83512255859375,-3.1506428357765075,7.75691410369873,5.106280352449417
1776555966127163600,9.84516357421875,-3.0965862514182922,7.837758157217502,5.0150861698299645
1776555966137205800,9.855205810546876,-3.0267151350736614,7.93653241970241,4.901106154906749
1776555966147247900,9.865247802734375,-2.9374659490421413,8.051390971025825,4.766212531292438
1776555966157288700,9.875288818359374,-2.826543568123877,8.179583635696769,4.612530620577931
1776555966167330800,9.885330810546876,-2.6949980858936904,8.31688081332147,4.44262033637911
1776555966177371600,9.89537158203125,-2.54654472348243,8.458903850424289,4.258219754534959
1776555966187413800,9.905413818359374,-2.3884086098380384,8.600570913696288,4.061535445179045
1776555966197455600,9.91545556640625,-2.2281432290799916,8.737965706476569,3.8540529706940054
1776555966207496700,9.92549658203125,-2.072071354489028,8.869676023879647,3.633973172703385
1776555966217538800,9.935538818359374,-1.922782125775516,8.99460647188425,3.401517877264321
1776555966227580000,9.945579833984375,-1.7788553008779882,9.110940356457233,3.161777977775037
1776555966237621800,9.955621826171875,-1.6372047503493725,9.216397457706927,2.9236946133211252
1776555966247663600,9.96566357421875,-1.4924820988990366,9.308607539370655,2.7004998981803654
1776555966257704700,9.97570458984375,-1.3434057822838426,9.38603389340043,2.503604868683219
1776555966267746800,9.985746826171875,-1.191602817183733,9.448702238759397,2.3393355129808184
1776555966277788000,9.995787841796876,-1.0425238702200352,9.498212411859631,2.2062388557858763
1776555966287829800,10.005829833984375,-0.8964696779049932,9.538055761948227,2.0957652415484187
1776555966297872000,10.015871826171875,-0.7467770560223609,9.572439093065261,1.9952720463164149
1776555966307912700,10.02591259765625,-0.5863054486351087,9.604301965793967,1.8931513960130513
1776555966317954800,10.035954833984375,-0.4106800747251138,9.634235331764817,1.7841648054629564
1776555966327996000,10.045995849609374,-0.2184135452788323,9.661483988696336,1.6668616374664007
1776555966338038000,10.0560380859375,-0.011195976799185154,9.684710550504922,1.5416294300362468
1776555966348079900,10.066079833984375,0.20474557860074563,9.702516256308556,1.4105446971856057
1776555966358121000,10.076120849609374,0.4212095059154555,9.714183897748589,1.2757647630788385
1776555966368162800,10.086162841796876,0.6284875804021954,9.719940269318222,1.1393581776183097
1776555966378204000,10.096203857421875,0.8212145304344594,9.720777889186143,1.0012214073643089
1776555966388245800,10.106245849609374,0.9991257502593099,9.7175384688735,0.8611520616125314
1776555966398288000,10.116287841796876,1.1616971429374068,9.710570967948437,0.725033207052201
1776555966408328700,10.12632861328125,1.308301735676825,9.70075392281115,0.5950781723512336
1776555966418371000,10.13637109375,1.4408249768979846,9.688733230149746,0.4720577226864174
1776555966428412000,10.146411865234375,1.564353887541592,9.67451473518312,0.3563173470271751
1776555966438454000,10.1564541015625,1.6843685064539313,9.65774421764612,0.24752726542986928
1776555966448495900,10.166495849609374,1.806618044811487,9.637749477365613,0.14267118968009015
1776555966458537000,10.176536865234375,1.9367804021202026,9.613419338229297,0.03810181735062506
1776555966468578800,10.186578857421875,2.07357459865883,9.584671967172621,-0.06855002380870283
1776555966478620000,10.196619873046876,2.206394338608533,9.553621579870581,-0.1746619539716281
1776555966488661800,10.206661865234375,2.3205907727614044,9.524102055397629,-0.2769926302964799
1776555966498704000,10.216703857421875,2.4040505617365238,9.499963639441132,-0.37629352873768657
1776555966508745000,10.226744873046876,2.4529139613658186,9.482810844588279,-0.479475268933922
1776555966518786800,10.236786865234375,2.4721444392755627,9.471177689939736,-0.5964052562365308
1776555966528828000,10.246827880859374,2.4709832865417,9.46199718914032,-0.7315892045669257
1776555966538869800,10.256869873046876,2.455432958449423,9.453200134700536,-0.8821600705888122
1776555966548911900,10.266911865234375,2.4327204836428162,9.443307101717592,-1.037394836768508
1776555966558952700,10.27695263671875,2.4086133396074176,9.432191248941422,-1.1843813414976
1776555966568994800,10.286994873046876,2.385382832276076,9.42098596431613,-1.3135272152401507
1776555966579035600,10.29703564453125,2.3652532135695217,9.410527114143967,-1.420541336673498
1776555966589078000,10.307078125,2.3513586898602545,9.400891270792483,-1.504915171753615
1776555966599120000,10.317119873046876,2.3432212683729827,9.392623208662867,-1.5679149410240352
1776555966609161000,10.327160888671875,2.337118859844655,9.386467024120687,-1.613230877304822
1776555966619202800,10.337202880859374,2.3290873829498886,9.382854678842424,-1.6455450009323656
1776555966629244000,10.347243896484375,2.3170814494661984,9.381429614475369,-1.6704082240320741
1776555966639285800,10.35728564453125,2.3018059927925467,9.380731695339083,-1.6952724700450896
1776555966649327900,10.367327880859374,2.284519488557428,9.379325335672497,-1.7261550995647905
1776555966659368700,10.37736865234375,2.267635427643359,9.376492742595076,-1.7634087254211306
1776555966669410800,10.387410888671875,2.2530874084614214,9.372694519355893,-1.8018344637967645
1776555966679452000,10.397451904296876,2.24097275390625,9.36984555966556,-1.8315116630494594
1776555966689494000,10.407493896484375,2.232663775244355,9.368954163783789,-1.8461515982985495
1776555966699536000,10.417535888671875,2.2298807203970847,9.369253438991308,-1.8480074552983043
1776555966709577000,10.427576904296876,2.2343562583759424,9.368574224555491,-1.8460411236613987
1776555966719618800,10.437618896484375,2.250182334669679,9.363632091978191,-1.8518856119059026
1776555966729660000,10.447659912109375,2.2791141223825515,9.35184754616022,-1.8758964559599756
1776555966739701800,10.45770166015625,2.3174380078189074,9.332574690413475,-1.9242998368620872
1776555966749743900,10.467743896484375,2.3608621390037237,9.305560426759719,-2.0008096605688332
1776555966759785000,10.477784912109374,2.4045067810714245,9.270806508764624,-2.107345496965945
1776555966769826800,10.487826904296876,2.4432170354768634,9.22894655815661,-2.242230791143328
1776555966779868000,10.497867919921875,2.4750746475085617,9.179662595027684,-2.4037825584501027
1776555966789909800,10.50790966796875,2.50596195320338,9.119760791772604,-2.5923952050313352
1776555966799952000,10.517951904296876,2.5531363768324256,9.039882368415594,-2.8164547203078865
1776555966809992700,10.52799267578125,2.626027133259177,8.9294831345886,-3.088476010198891
1776555966820034800,10.538034912109374,2.7127131908044215,8.783614527973532,-3.414633379425108
1776555966830075600,10.54807568359375,2.782555373315513,8.609050572749972,-3.783122116163373
1776555966840118000,10.558117919921875,2.8090169715225697,8.424422904151678,-4.160395047859847
1776555966850159900,10.568159912109374,2.8181811057090758,8.243357896471023,-4.502809432142973
1776555966860201000,10.578200927734375,2.8967151287198063,8.080303761777282,-4.7421650084897875
1776555966870242800,10.588242919921875,3.111430477067828,7.949528094875812,-4.826423838888108
1776555966880284000,10.598283935546876,3.4516780387058854,7.8495801124364135,-4.758190552878379
1776555966890325800,10.60832568359375,3.849648890516162,7.777385229319334,-4.567584978914261
1776555966900366800,10.618366943359375,4.241525517104566,7.716283402624726,-4.317272539745271
1776555966910408700,10.62840869140625,4.593206619165837,7.649506452903151,-4.0691394904419775
1776555966920450800,10.638450927734375,4.870568101041019,7.5718486282050605,-3.887808233040571
1776555966930492000,10.648491943359375,5.055106630051136,7.481967281749844,-3.8257583118408918
1776555966940533800,10.65853369140625,5.145117155843973,7.379684134361147,-3.903641761988401
1776555966950574800,10.668574951171875,5.150694079193473,7.278920743885636,-4.0814255560413
1776555966960616700,10.67861669921875,5.1808174147784705,7.163250876179337,-4.2446793049603695
1776555966970658800,10.688658935546876,5.228313909968733,7.062835276228189,-4.353326726683974
1776555966980700000,10.698699951171875,5.295436896649003,6.96072514731884,-4.435877291859686
1776555966990742000,10.708741943359374,5.36638674814105,6.850084505951404,-4.522019159525633
1776555967000782800,10.718782958984375,5.447805386677384,6.721512486574054,-4.616613213716447
1776555967010825000,10.728824951171875,5.55132129073143,6.585498919019103,-4.6887525672540065
1776555967020866800,10.73886669921875,5.671681362080574,6.45096126923561,-4.731543076710403
1776555967030908000,10.748907958984375,5.778751743745803,6.330719271308183,-4.764287992970645
1776555967040949800,10.75894970703125,5.856017354255914,6.2294917704522605,-4.803218612128496
1776555967050990800,10.768990966796874,5.908729538267851,6.141941497293114,-4.85117015760988
1776555967061032700,10.77903271484375,5.953796175962686,6.057990125408768,-4.901376788541675
1776555967071073800,10.78907373046875,6.001807050415874,5.968666997358203,-4.952142514660954
1776555967081116000,10.799115966796874,6.0441065614849325,5.874752449864149,-5.012630593371391
1776555967091158000,10.809157958984375,6.081476799458265,5.78446602973938,-5.072078223118186
1776555967101198800,10.81919873046875,6.1229188169151545,5.701276874399185,-5.116221900749206
1776555967111241000,10.829240966796876,6.179780521821975,5.620012549641728,-5.1377247075051065
1776555967121281800,10.83928173828125,6.255660815453529,5.535072751241922,-5.138102308645844
1776555967131324000,10.849323974609375,6.3444935296386475,5.444986237603426,-5.125422275292873
1776555967141365800,10.85936572265625,6.437509666988253,5.352645223036408,-5.106664383330941
1776555967151406800,10.86940673828125,6.526738687014579,5.261455132070183,-5.088143222734332
1776555967161449000,10.879448974609375,6.609665976548195,5.177449399650096,-5.067218508127332
1776555967171490000,10.889489990234376,6.688159667548537,5.10353426861167,-5.039128724196553
1776555967181532000,10.899531982421875,6.753852913686632,5.03758617092967,-5.017824654883146
1776555967191573800,10.90957373046875,6.793204680866003,4.978951611131429,-5.023226221665739
1776555967201614800,10.91961474609375,6.804581814926863,4.926385557591915,-5.059523277449608
1776555967211656700,10.92965673828125,6.798472976657748,4.880737905138731,-5.111704131063819
1776555967221697800,10.93969775390625,6.797769796824455,4.839819911555946,-5.151390244764089
1776555967231740200,10.949740234375,6.819272019058466,4.793648527489602,-5.1661283796906465
1776555967241781200,10.95978125,6.858498114031553,4.739439090657234,-5.1642105633705855
1776555967251823000,10.969822998046874,6.908302886164188,4.682569786965847,-5.149684025368094
1776555967261865200,10.979865234375,6.960206676402688,4.626804937385022,-5.130161578774452
1776555967271906000,10.989906005859375,7.005551546517014,4.574681659176945,-5.115163916128873
1776555967281948400,10.999948486328124,7.040642733642459,4.531595381644368,-5.105328750813007
1776555967291989200,11.0099892578125,7.0612728492170564,4.498213336524367,-5.106355755773186
1776555967302031400,11.02003125,7.07251262063384,4.4780464545473455,-5.108524331983924
1776555967312072200,11.030072265625,7.079017180222272,4.467178439052403,-5.1090369576811785
1776555967322114300,11.0401142578125,7.085054122298955,4.45383877274692,-5.112307942175865
1776555967332156200,11.05015625,7.08592213730514,4.436883838553727,-5.125831440615654
1776555967342197200,11.060197265625,7.08116529816687,4.422444686573743,-5.144847106730937
1776555967352239000,11.070239013671875,7.082004671600461,4.41195982517749,-5.1526937285780905
1776555967362280200,11.0802802734375,7.090511218661069,4.402081405241788,-5.149438526174426
1776555967372322300,11.090322265625,7.097949259707331,4.398663413491845,-5.142107452633977
1776555967382364200,11.1003642578125,7.096824639591574,4.4057592169716955,-5.137578577032685
1776555967392405200,11.1104052734375,7.085263381135463,4.421949304272234,-5.139630833387375
1776555967402447000,11.120447021484376,7.063305231827497,4.447285990102589,-5.147987158322334
1776555967412488200,11.13048828125,7.0357175521999595,4.479430017860233,-5.157887205567956
1776555967422530000,11.140530029296874,7.012057275149226,4.515588249695301,-5.158577525919675
1776555967432571100,11.150571044921875,6.99153471160233,4.558504723618924,-5.148672802498936
1776555967442613200,11.16061328125,6.967734733819961,4.6087928953543305,-5.136159357884526
1776555967452655400,11.1706552734375,6.9379849077224724,4.665645832432806,-5.12509143590331
1776555967462696200,11.1806962890625,6.90482907257378,4.723892854218184,-5.1164977950811386
1776555967472738300,11.19073828125,6.871002790817618,4.786321837863325,-5.104001301601529
1776555967482779400,11.200779296875,6.8343930158227675,4.852370181049406,-5.090772986716032
1776555967492821200,11.2108212890625,6.793923642790317,4.925297762355208,-5.074881005579233
1776555967502862300,11.2208623046875,6.748074330285191,5.007078219941258,-5.05599393427968
1776555967512904200,11.230904296875,6.696836895000934,5.089923676410317,-5.041376210862398
1776555967522946000,11.240946044921875,6.638356064459681,5.1743496800690885,-5.032765618905425
1776555967532987100,11.250987060546874,6.572432516697049,5.2657776714444156,-5.024453717634081
1776555967543029200,11.261029296875,6.503146214503049,5.364115296077728,-5.010559047794342
1776555967553070300,11.2710703125,6.432158369088173,5.466497812187671,-4.991507141321898
1776555967563112200,11.2811123046875,6.359934844398498,5.570158677670359,-4.969400523453951
1776555967573153300,11.2911533203125,6.2834875645339485,5.676597775694727,-4.946148242682218
1776555967583195100,11.301195068359375,6.202936941003799,5.786993502390384,-4.919824299380183
1776555967593237200,11.3112373046875,6.117886083444953,5.9003661990702145,-4.891576402278244
1776555967603278000,11.321278076171875,6.031581426432728,6.0168158189773555,-4.8567841980993744
1776555967613320200,11.3313203125,5.947647590205073,6.134781104144453,-4.812515432783961
1776555967623361000,11.341361083984374,5.861976554921269,6.254695769813656,-4.763026302471757
1776555967633403400,11.3514033203125,5.770649685832858,6.378080741941928,-4.710631513845921
1776555967643445200,11.3614453125,5.671647459810972,6.507542988157272,-4.6534608891203995
1776555967653486300,11.371486328125,5.561546916669607,6.645946665719151,-4.590313820333779
1776555967663528200,11.381528076171875,5.439851797324419,6.796458129703998,-4.515146058885753
1776555967673569300,11.3915693359375,5.305609331095218,6.956728186637163,-4.429994663561881
1776555967683611100,11.401611083984376,5.155068056493997,7.124820900020003,-4.339656805510819
1776555967693652200,11.41165234375,4.985176184734702,7.29966951740384,-4.246552113094926
1776555967703694300,11.4216943359375,4.797818798911571,7.481502002325653,-4.1446886524230235
1776555967713736200,11.431736083984376,4.596445162695646,7.667935259041189,-4.030620082433521
1776555967723777300,11.44177734375,4.3767353670611975,7.8563968067139385,-3.9104540723517536
1776555967733819100,11.451819091796875,4.13003702673614,8.04565622676611,-3.792179867365956
1776555967743860200,11.461860107421876,3.8586268544808027,8.230360467731952,-3.6800226839557286
1776555967753902000,11.471902099609375,3.574052957008779,8.404922669389844,-3.571247251938283
1776555967763943200,11.481943115234374,3.289490165452659,8.566368784365057,-3.4593300147637724
1776555967773985000,11.491985107421876,3.0157495044231415,8.715347047433257,-3.334423532156646
1776555967784027400,11.50202734375,2.756325538037717,8.85556858807206,-3.1862127463296055
1776555967794068200,11.512068115234374,2.5086662437260148,8.990575608932971,-3.0077430158391594
1776555967804110300,11.5221103515625,2.2695259175650775,9.120462218040227,-2.799431689314544
1776555967814151200,11.532151123046875,2.039394535028934,9.240541718882321,-2.5736378975912926
1776555967824193300,11.542193359375,1.8190154618307948,9.345008055528998,-2.352106439487636
1776555967834234000,11.552234130859375,1.606748237287253,9.432035766118764,-2.1506863337814806
1776555967844276200,11.562276123046875,1.4011458774603902,9.502399926677345,-1.9777679538078605
1776555967854318000,11.572318115234374,1.1989395167473702,9.559027238306403,-1.832458734641224
1776555967864359200,11.582359130859375,0.9998839482154697,9.605132571399212,-1.7064695713639257
1776555967874401300,11.5924013671875,0.8061926101304591,9.643365563681721,-1.5893192558415232
1776555967884442400,11.6024423828125,0.6203848649021237,9.675915249630808,-1.4704327641762793
1776555967894484200,11.612484130859375,0.44333515727743505,9.704549223440885,-1.3399942202746868
1776555967904525300,11.622525390625,0.27377324812486764,9.730357033914327,-1.1897880959119647
1776555967914567200,11.632567138671876,0.115664561343519,9.75263842382729,-1.0213003918621688
1776555967924608300,11.642608154296875,-0.024939414158056023,9.770536484089494,-0.8404672201760113
1776555967934650000,11.652650146484374,-0.14698603893821127,9.783640880334376,-0.655101665757224
1776555967944692200,11.662692138671876,-0.2565629326648079,9.791956288737058,-0.4713537391355261
1776555967954733000,11.672733154296875,-0.36357217699363825,9.795466342684627,-0.29502582471305505
1776555967964775400,11.682775390625,-0.4732481380473822,9.794363349878788,-0.1298913766139187
1776555967974816300,11.692816162109375,-0.5880393232230097,9.788988086581229,0.017656237163231708
1776555967984858400,11.7028583984375,-0.7078614883031695,9.780022689837217,0.14314515473423525
1776555967994899200,11.712899169921876,-0.8207049004118889,9.769040692573785,0.25036480867704375
1776555968004941300,11.72294140625,-0.9135161628391593,9.75786229595542,0.3464474391914904
1776555968014983200,11.732983154296875,-0.9799638806063681,9.747792152839898,0.4366158954923972
1776555968025024300,11.743024169921876,-1.0236599606003611,9.738979316309093,0.5241877228962257
1776555968035066000,11.753066162109375,-1.0548337550863622,9.730551095181703,0.6116245988087728
1776555968045107200,11.763107177734375,-1.0903148183122278,9.720603701663016,0.7010654714874923
1776555968055149300,11.7731494140625,-1.138137257521227,9.707992641893028,0.7936781426027417
1776555968065190400,11.7831904296875,-1.1960665185943244,9.692762339535355,0.888921965939179
1776555968075232300,11.793232177734374,-1.263026715928316,9.67518576631248,0.9828168588846922
1776555968085273300,11.8032734375,-1.3367159292563795,9.655786653837561,1.0720710133522748
1776555968095315200,11.813315185546875,-1.408653915002942,9.636102294680475,1.1539683753162622
1776555968105357000,11.823357177734374,-1.4733267320521175,9.617506315281986,1.226083909586817
1776555968115398100,11.833398193359375,-1.5294322117641568,9.600561025699973,1.2885947262965143
1776555968125440000,11.84343994140625,-1.583144658859819,9.584481413036585,1.342300012999028
1776555968135481000,11.853481201171874,-1.6401543939352035,9.568331657746434,1.3882834732778369
1776555968145523200,11.863523193359375,-1.700456302423775,9.552061490947008,1.4272262212648987
1776555968155564300,11.873564208984375,-1.765376372232288,9.535463407367468,1.459034002805501
1776555968165606100,11.883606201171874,-1.8367871192343532,9.517967498165369,1.4848948586404322
1776555968175648300,11.893648193359375,-1.9168436756372451,9.498973459360004,1.5051904815636574
1776555968185689000,11.903689208984375,-2.0041455269932746,9.47814460634291,1.5226745541974902
1776555968195731200,11.913731201171874,-2.0920754471197722,9.456374673083424,1.5396712817057967
1776555968205772300,11.923772216796875,-2.171088339688629,9.43584860240519,1.556125865161419
1776555968215814100,11.933814208984375,-2.234129756143689,9.418992744672298,1.5689583125971256
1776555968225859000,11.943859130859375,-2.2796770169623195,9.406946333047747,1.5757003342032432
1776555968235901200,11.953901123046874,-2.3081375339016317,9.40020796470344,1.5744791218452154
1776555968245942000,11.96394189453125,-2.322353544650227,9.398349185094236,1.5646394264847039
1776555968255984000,11.973984130859375,-2.324666059376299,9.4006580465585,1.5472421553514897
1776555968266026200,11.984026123046876,-2.3179089863315223,9.406078318041562,1.5242581701271236
1776555968276067300,11.9940673828125,-2.3086373001173137,9.412973338252305,1.4954982318498193
1776555968286109200,12.004109130859375,-2.3050983123362063,9.419577266561985,1.4589232359074056
1776555968296150300,12.014150390625,-2.3138144104942677,9.42353915593028,1.4189961530581117
1776555968306192100,12.024192138671875,-2.330794040737301,9.423904482111334,1.3884535691477358
1776555968316233200,12.034233154296874,-2.3441681938342747,9.422332118228077,1.3765636632591485
1776555968326275000,12.044275146484376,-2.3420662531189618,9.421763962951301,1.3840139792650936
1776555968336316200,12.054316162109375,-2.3192168540596962,9.423733801719546,1.4088478301398455
1776555968346358000,12.06435791015625,-2.2776235915638505,9.428546170437336,1.444067612081021
1776555968356400000,12.074400146484376,-2.2253756640627977,9.435179909363388,1.4817166669957338
1776555968366441200,12.084441162109375,-2.171105875345319,9.442202939867974,1.5170606598384677
1776555968376483300,12.0944833984375,-2.115623788228631,9.449559147849678,1.5493044947087764
1776555968386524200,12.104524169921875,-2.0498935710810122,9.459211357814073,1.5784876268342136
1776555968396566300,12.114566162109375,-1.9635915444172918,9.473041145724057,1.6050513702414928
1776555968406607000,12.124607177734376,-1.8539423983052372,9.491318560692667,1.6273128864102064
1776555968416649200,12.134649169921875,-1.728250610539317,9.513191369804739,1.6378971165277063
1776555968426690000,12.14468994140625,-1.6012728746160865,9.536602056008578,1.6308070121362805
1776555968436732200,12.154732177734376,-1.490516497914493,9.558730885708332,1.6060484184548258
1776555968446773000,12.16477294921875,-1.4080053879663348,9.577497545498609,1.5682609779827297
1776555968456815400,12.1748154296875,-1.3454669525973497,9.594527006232738,1.5182826028488576
1776555968466857200,12.184857177734376,-1.278961367163062,9.613779403713345,1.4525431794814765
1776555968476898300,12.194898193359375,-1.1885703906852751,9.637799746248126,1.367663148444891
1776555968486940200,12.204940185546874,-1.0700123272567987,9.665126144590973,1.26916448803097
1776555968496981200,12.214981201171875,-0.9275193345546722,9.692648942288756,1.1673275500398128
1776555968507023000,12.225023193359375,-0.7767500233512371,9.71681249268651,1.0726516627844422
1776555968517064200,12.235064208984374,-0.6436569463528692,9.734801153841614,0.9948393051117658
1776555968527106000,12.24510595703125,-0.5545009550301357,9.745515440079568,0.9422492131095379
1776555968537147100,12.255147216796875,-0.5252756642634049,9.750265264955162,0.9092658119183034
1776555968547189200,12.265189208984374,-0.5459045011963695,9.752390586546063,0.8736354033496231
1776555968557231000,12.275231201171875,-0.5787608054092154,9.754303142169118,0.8300557893421501
1776555968567272200,12.285272216796875,-0.5868212161375209,9.757204708829521,0.7893075993683188
1776555968577314000,12.29531396484375,-0.5710551629353314,9.76073405199945,0.7565441245380788
1776555968587355100,12.305355224609375,-0.5615392927017062,9.763855398890376,0.7226333793688565
1776555968597397000,12.31539697265625,-0.5882029528195039,9.765639944219588,0.675812445352599
1776555968607438000,12.32543798828125,-0.6519879907160997,9.765603703862428,0.6150436500046402
1776555968617480000,12.33547998046875,-0.7353255415510386,9.763215347421168,0.5561500739440322
1776555968627521000,12.34552099609375,-0.8186384694013744,9.75829191954434,0.5253159597411752
1776555968637563100,12.355563232421876,-0.8800663131799549,9.751322080531716,0.5545891447702422
1776555968647604200,12.365604248046875,-0.906453604041785,9.742225750884414,0.6616219343714416
1776555968657646000,12.37564599609375,-0.9228807880338281,9.72770096644759,0.8309813797544687
1776555968667688200,12.385688232421876,-0.9625327802687883,9.70513725246191,1.0267647216826676
1776555968677729000,12.39572900390625,-1.030282520545274,9.677283030852674,1.2079380851086228
1776555968687771100,12.405771240234374,-1.115265938891098,9.65017524369657,1.341894939329475
1776555968697812000,12.41581201171875,-1.208835472339764,9.628822074544429,1.4124028922729193
1776555968707854000,12.42585400390625,-1.3060792373217642,9.6147228220433,1.4218380984857677
1776555968717895000,12.43589501953125,-1.3998736655674875,9.605958500829338,1.3915122260659931
1776555968727937300,12.445937255859375,-1.4834884989738464,9.598853052738308,1.3533946768566965
1776555968737978000,12.45597802734375,-1.554898369193077,9.590246552434563,1.3341048699751497
1776555968748020200,12.466020263671876,-1.612969888281077,9.578942483609914,1.3463152399897576
1776555968758061000,12.47606103515625,-1.6610829079344869,9.565167056235671,1.3851961747869848
1776555968768103200,12.486103271484374,-1.7023162510767578,9.550785479661823,1.4335318972803652
1776555968778145000,12.49614501953125,-1.738777995903045,9.537731936821341,1.4760463662743568
1776555968788186000,12.50618603515625,-1.7730946915246546,9.526763383561372,1.5057619978412984
1776555968798228000,12.51622802734375,-1.809670271988958,9.517597495809197,1.520140359544754
1776555968808269300,12.526269287109375,-1.8487234946131705,9.509916878178716,1.5212147107779979
1776555968818311200,12.536311279296875,-1.8853944982759654,9.503616316729783,1.5155761203691362
1776555968828352300,12.546352294921874,-1.9118989127114414,9.499323587971926,1.509270152092725
1776555968838394000,12.55639404296875,-1.9227736502081154,9.49765185536742,1.5059648269370198
1776555968848435200,12.566435302734375,-1.921355307842791,9.49778512635827,1.5069335258387029
1776555968858477000,12.57647705078125,-1.9160582243479787,9.498241637954115,1.5108027684874832
1776555968868518100,12.58651806640625,-1.9159695231512188,9.4973923276484,1.516245251802355
1776555968878560000,12.59656005859375,-1.9289640292808412,9.493871752306818,1.5218015707552432
1776555968888601000,12.60660107421875,-1.9589736753582954,9.48648164205551,1.529529680789262
1776555968898643200,12.616643310546875,-2.004109286636114,9.474873621848225,1.5429495727241038
1776555968908684300,12.626684326171874,-2.0558860894940794,9.460590829473734,1.562347516155243
1776555968918726100,12.63672607421875,-2.107613500252366,9.445721177121996,1.5832609787158667
1776555968928768300,12.646768310546875,-2.153816010109335,9.432354915070533,1.600672132243961
1776555968938809000,12.65680908203125,-2.1915189871683713,9.421732398769258,1.6120178482532501
1776555968948851200,12.666851318359376,-2.223796285916865,9.413034128528833,1.6186184155620633
1776555968958892000,12.67689208984375,-2.2572017119124532,9.404285589405895,1.6232171415291725
1776555968968934100,12.68693408203125,-2.2920915312469003,9.395369292500614,1.6259591337136923
1776555968978975000,12.69697509765625,-2.3208489853061733,9.388443292629718,1.6251682755969463
1776555968989017300,12.707017333984375,-2.3377194560863077,9.385221407973766,1.6195926674216985
1776555968999058200,12.71705810546875,-2.3401797087199983,9.386122156205772,1.610786406762153
1776555969009100300,12.727100341796875,-2.3332407032370566,9.389720472958684,1.5998593545563518
1776555969019141000,12.73714111328125,-2.3232351497903463,9.394337026843427,1.5872662688344716
1776555969029183200,12.747183349609376,-2.318042695713788,9.397585214984417,1.5755787536501884
1776555969039224000,12.75722412109375,-2.3224450223259625,9.397565925762057,1.5692005969204008
1776555969049266200,12.76726611328125,-2.332664803045243,9.394435226520896,1.5727799167118965
1776555969059307000,12.77730712890625,-2.35261175866127,9.386758116021753,1.588826357758045
1776555969069349000,12.78734912109375,-2.3779268171817063,9.375736371269822,1.6159871902756393
1776555969079391200,12.79739111328125,-2.400597060281783,9.363464334195852,1.6531944927722215
1776555969089432300,12.807432373046876,-2.414177111214399,9.352068495434523,1.6973315945319831
1776555969099474200,12.81747412109375,-2.416716712694615,9.342665291795134,1.744835396245867
1776555969109515300,12.827515380859374,-2.4198367444112896,9.333658978518843,1.7881810553669928
1776555969119557000,12.83755712890625,-2.426286943463981,9.326732394126058,1.8153731598056853
1776555969129598200,12.84759814453125,-2.4361092492982745,9.323205389043688,1.8203275673426687
1776555969139640000,12.85764013671875,-2.4408095359437167,9.32344212040901,1.8128017018824816
1776555969149681200,12.86768115234375,-2.4305881477892397,9.326403892824054,1.811301234191656
1776555969159723000,12.877722900390625,-2.4017362934447823,9.331168915268778,1.8251926891610026
1776555969169764000,12.88776416015625,-2.3605570185773073,9.335908218750356,1.8544513707406818
1776555969179806200,12.89780615234375,-2.3278122484475374,9.33588366883099,1.8955109647512436
1776555969189847300,12.907847412109374,-2.3214017968833445,9.327125777357816,1.9458156492300331
1776555969199889200,12.91788916015625,-2.336850710427761,9.310812940460442,2.0045606836654244
1776555969209930200,12.92793017578125,-2.3548662595897913,9.291897812110186,2.0701728273913265
1776555969219972000,12.93797216796875,-2.3599343566343185,9.27649975197017,2.1325269922345877
1776555969230008800,12.9480087890625,-2.3536511847116053,9.267007701003552,2.1802045430801806
1776555969240050700,12.95805078125,-2.346453236031532,9.260771436962484,2.2141912760950624
1776555969250091800,12.968091796875,-2.3488605894342065,9.253210646319388,2.243061981270462
1776555969260133600,12.978133544921874,-2.368774519563466,9.240869051140546,2.2727989478863773
1776555969270175700,12.98817578125,-2.409092939817905,9.221870336160062,2.307322271995991
1776555969280216600,12.998216552734375,-2.464099664507806,9.196578073993324,2.349800062241405
1776555969290259000,13.008259033203124,-2.5210785660535096,9.168263249135016,2.3994749243840574
1776555969300299800,13.0182998046875,-2.5720845306694504,9.139753193965554,2.4535016981258986
1776555969310342000,13.028341796875,-2.6193068850934504,9.111085902407766,2.5095246141210197
1776555969320382700,13.0383828125,-2.668684956246614,9.080385643717646,2.56809458425045
1776555969330424800,13.0484248046875,-2.7263597311019896,9.04539031818211,2.6302614098280666
