time,seconds_elapsed,z,y,x
1776021874339023600,0.084023681640625,-9.60276642678976,-1.6460171484887598,-1.1170899394478648
1776021874349084700,0.094084716796875,-9.596865678313375,-1.6561875371083616,-1.1522113025158642
1776021874359145700,0.104145751953125,-9.591473463881016,-1.662182978130877,-1.1879244939971714
1776021874369206800,0.114206787109375,-9.585744564840198,-1.6654048627868294,-1.2289492358900607
1776021874379267600,0.124267578125,-9.57911725565493,-1.6684757946647704,-1.2755728937685489
1776021874389329700,0.13432958984375,-9.571793196377158,-1.6727387128062545,-1.3240474402107298
1776021874399390700,0.144390625,-9.564018470722436,-1.6757864099390805,-1.3753817599982023
1776021874409451800,0.15445166015625,-9.557191839572786,-1.672997802133858,-1.425323310253024
1776021874419512600,0.1645126953125,-9.55468540970981,-1.6594148285917936,-1.4576396258376538
1776021874429573600,0.17457373046875,-9.559824526163935,-1.6330790487214921,-1.4536818281225858
1776021874439634700,0.184634765625,-9.576212766385078,-1.5965714189268647,-1.3847363021902739
1776021874449696500,0.194696533203125,-9.607421559119224,-1.5442098019182682,-1.2178867207363246
1776021874459757600,0.204757568359375,-9.643919105911253,-1.4742879782997071,-0.9958329192589968
1776021874469818600,0.214818603515625,-9.67815163038075,-1.4029464971415697,-0.7317848002042621
1776021874479879700,0.224879638671875,-9.700332482528687,-1.348875884258002,-0.5044509759647772
1776021874489940700,0.234940673828125,-9.711506787493825,-1.3222655252300202,-0.3295889876427129
1776021874500001800,0.245001708984375,-9.715807699558138,-1.314998895227909,-0.21032783571248873
1776021874510063600,0.255063720703125,-9.718222944006323,-1.3075447798296809,-0.1298141283929348
1776021874520124700,0.265124755859375,-9.720814714065193,-1.294261812147498,-0.03220740956676891
1776021874530185700,0.275185791015625,-9.723689977240562,-1.2683914578318596,0.10684421735969371
1776021874540246800,0.285246826171875,-9.725822313094138,-1.2269358502410352,0.2709090178001672
1776021874550307600,0.2953076171875,-9.726670454356073,-1.1778477019451559,0.4182531768605113
1776021874560369700,0.30536962890625,-9.7281878731817,-1.1222117394410074,0.5228671418169513
1776021874570430500,0.315430419921875,-9.727464819604158,-1.0653533224698155,0.6417400798808783
1776021874580491500,0.325491455078125,-9.719800568586587,-1.0081325019270182,0.8243369002386927
1776021874590552600,0.335552490234375,-9.701827105000614,-0.943897199512273,1.0742401010196656
1776021874600613600,0.345613525390625,-9.66975672700107,-0.8651864316951483,1.3847900782041251
1776021874610674700,0.3556748046875,-9.619042438808084,-0.7641627828482538,1.7494162942953406
1776021874620736500,0.365736572265625,-9.547558334308862,-0.633344299718365,2.14788092097193
1776021874630797600,0.375797607421875,-9.455664478987455,-0.4821272447474301,2.5550629609808326
1776021874640858600,0.385858642578125,-9.397472402259707,-0.4101810391617939,2.77302152903378
1776021874650919700,0.395919677734375,-9.392181310114264,-0.419819585927017,2.789455361962318
1776021874660980700,0.405980712890625,-9.408017177149652,-0.4458140415463596,2.731454423892498
1776021874671042600,0.41604248046875,-9.430393844130634,-0.4686562071472406,2.6492288528874517
1776021874681103600,0.426103515625,-9.45293067010939,-0.4680031865986064,2.567773973993957
1776021874691164700,0.43616455078125,-9.475887182804941,-0.42835828169155865,2.4888670260176062
1776021874701225500,0.4462255859375,-9.489256951987743,-0.3515517035279423,2.449651744699478
1776021874711286500,0.45628662109375,-9.480617718458175,-0.2527241764858365,2.494874741999805
1776021874721347600,0.46634765625,-9.464583113980293,-0.12172212608312256,2.5646114183098074
1776021874731409700,0.47640966796875,-9.451498591479659,0.09720234612622297,2.6134488067150112
1776021874741470500,0.486470458984375,-9.428413483968377,0.4459059210808947,2.660183377622068
1776021874751531500,0.496531494140625,-9.365404946869612,0.8956395106911659,2.767200567795336
1776021874761592600,0.506592529296875,-9.262064983904361,1.3921848646305501,2.906262709265947
1776021874771653600,0.516653564453125,-9.143858875718712,1.8858444340005516,3.000636690965295
1776021874781714700,0.526714599609375,-9.027885641151666,2.3190772994585336,3.0478757042631504
1776021874791776800,0.53677685546875,-8.923359098750351,2.653708920910954,3.082511256575584
1776021874801837600,0.546837646484375,-8.8381895832479,2.910702153018117,3.095902068546414
1776021874811898600,0.556898681640625,-8.761005805802345,3.127267805407941,3.1040880053505298
1776021874821959700,0.566959716796875,-8.67106250002682,3.3292923067480324,3.146248107948899
1776021874832020500,0.5770205078125,-8.560873109558225,3.526004673154652,3.2325115561679003
1776021874842082800,0.587082763671875,-8.429695291596651,3.722400813218951,3.354749988609552
1776021874852143600,0.5971435546875,-8.280686048868297,3.92050346494019,3.4971810219913717
1776021874862204700,0.60720458984375,-8.113610403573512,4.123424038337171,3.6519980742156504
1776021874872265500,0.617265380859375,-7.927851685118675,4.333325556662678,3.8133766769126054
1776021874882326500,0.627326416015625,-7.7256930360049,4.546620516818762,3.9764676364853977
1776021874892387600,0.6373876953125,-7.506720030212402,4.758773321202397,4.144105591838062
1776021874902449700,0.64744970703125,-7.268556586259603,4.968045601713657,4.319374772721528
1776021874912510700,0.6575107421875,-7.005005603072047,5.170217110309005,4.513218013432621
1776021874922571800,0.66757177734375,-6.701363432514667,5.368404517704248,4.737335688637197
1776021874932632600,0.677632568359375,-6.346296195146441,5.571009741541743,4.9858559836924075
1776021874942693600,0.687693603515625,-5.940838494712114,5.787825861561298,5.232388612061738
1776021874952754700,0.697754638671875,-5.507107470473647,6.014051614961028,5.447323740640282
1776021874962816800,0.707816650390625,-5.069700388070941,6.234243933415413,5.621629921710491
1776021874972877800,0.7178779296875,-4.647342406240106,6.429441511344909,5.764970471152663
1776021874982938600,0.727938720703125,-4.2484339813187715,6.589786971601844,5.890324113005399
1776021874992999700,0.737999755859375,-3.862283915683627,6.7144438633620736,6.014098961234092
1776021875003060500,0.748060546875,-3.48251624456197,6.803407510450482,6.144600487369298
1776021875013122600,0.75812255859375,-3.1126211481571198,6.860473798018694,6.278206409260631
1776021875023183600,0.76818359375,-2.747008551377058,6.8917480572044845,6.413122829228639
1776021875033244700,0.77824462890625,-2.387428658889979,6.894173238524794,6.552935789066553
1776021875043305700,0.7883056640625,-2.0529639184370634,6.860563229867815,6.699879915958642
1776021875053366800,0.79836669921875,-1.7547022718742489,6.781038442254066,6.86359572943151
1776021875063427600,0.808427490234375,-1.4959806085392833,6.652834087145328,7.047851642107963
1776021875073489700,0.81848974609375,-1.285125881142169,6.489216473349929,7.239401218923926
1776021875083550700,0.82855078125,-1.1185264019917696,6.310664909794927,7.422586872020363
1776021875093611800,0.83861181640625,-0.9904744609657674,6.123845284110307,7.5952517156243315
1776021875103672800,0.8486728515625,-0.8972545446723699,5.9293748514115805,7.759370264679193
1776021875113733600,0.858733642578125,-0.8394313743222505,5.734637292209268,7.910731623491644
1776021875123795500,0.86879541015625,-0.8160192998789251,5.548347243356704,8.044894594743848
1776021875133856500,0.8788564453125,-0.8228241575881838,5.378420300284028,8.158793945646286
1776021875143917600,0.88891748046875,-0.8636137755509465,5.237078231182694,8.246063648298382
1776021875153978600,0.898978515625,-0.9221689865026622,5.128778599983454,8.307564118921757
1776021875164039700,0.909039794921875,-0.9947787340309471,5.019419230598211,8.365778407481312
1776021875174100700,0.919100830078125,-1.1108852395888418,4.88809791251272,8.42869049846828
1776021875184162600,0.92916259765625,-1.2377021589271724,4.733889932097495,8.498751876688003
1776021875194223600,0.9392236328125,-1.340886054547876,4.580935751135647,8.566646432262658
1776021875204284700,0.94928466796875,-1.3826825845308601,4.479943520340323,8.613284264796972
1776021875214345700,0.959345703125,-1.3692184150628746,4.453080647855997,8.629349848935007
1776021875224406800,0.96940673828125,-1.3828209700882435,4.457145120815932,8.625083423662185
1776021875234467600,0.979467529296875,-1.4634431975498794,4.433064572526514,8.624190274214744
1776021875244529700,0.98952978515625,-1.597854882866144,4.387693106666207,8.623537363263964
1776021875254590500,0.999590576171875,-1.76297179530859,4.343442753790319,8.613757727527618
1776021875264651500,1.009651611328125,-1.8890151729911564,4.2890880632683634,8.61427619844377
1776021875274712600,1.019712646484375,-1.9907517924129963,4.248265931275487,8.611592658448219
1776021875284773600,1.029773681640625,-2.083317847907543,4.225695203027129,8.600794785580039
1776021875294835500,1.03983544921875,-2.1737866388618943,4.213087942649424,8.584576056706904
1776021875304896500,1.049896484375,-2.268672953997552,4.218888153360783,8.55713216946423
1776021875314957600,1.05995751953125,-2.3719188089385628,4.273485712727904,8.501865040272474
1776021875325018600,1.0700185546875,-2.524215110513568,4.368783823534846,8.40906926767528
1776021875335079700,1.08007958984375,-2.7526772446632384,4.486764306271076,8.274182073801756
1776021875345140700,1.090140625,-3.0237121538653966,4.641491049863398,8.09222508571744
1776021875355202600,1.10020263671875,-3.311603213061392,4.837408758760988,7.861496760201454
1776021875365263400,1.110263427734375,-3.6452141131639477,5.055080911087989,7.57158851596415
1776021875375324400,1.120324462890625,-4.012254989181459,5.2517508996576066,7.245088032388686
1776021875385385200,1.13038525390625,-4.240414048731327,5.4310670178443194,6.978021150034666
1776021875395446300,1.1404462890625,-4.244736003583669,5.626197960278391,6.818980927157401
1776021875405507300,1.15050732421875,-4.152591096110641,5.790871805128455,6.73737173448503
1776021875415569400,1.1605693359375,-4.058064261937141,5.892035593098401,6.707191700276732
1776021875425630200,1.170630126953125,-3.9511221828266976,5.971942073506116,6.7003662381708615
1776021875435691300,1.180691162109375,-3.808367032057047,6.097614864310622,6.6697682708114385
1776021875445752300,1.19075244140625,-3.648986617439985,6.257464650005102,6.610552696254849
1776021875455813400,1.2008134765625,-3.429209017266333,6.45329351157546,6.539564850839972
1776021875465875500,1.21087548828125,-3.110345312179625,6.695117231601476,6.455348690539598
1776021875475936500,1.2209365234375,-2.7315765889674424,6.946321358913183,6.36062107309699
1776021875485997300,1.230997314453125,-2.332443415379524,7.185145312601327,6.253301685106754
1776021875496058400,1.241058349609375,-2.0017029561467465,7.453820799195766,6.05013415121138
1776021875506119400,1.251119384765625,-1.754959753766656,7.79945443778634,5.679702755972743
1776021875516180200,1.26118017578125,-1.5062939127609132,8.19364372523129,5.173552976733446
1776021875526242300,1.2712421875,-1.2157337074209005,8.582699156919121,4.585810371434689
1776021875536303400,1.281303466796875,-0.9083960433464496,8.919981731271744,3.972297949585318
1776021875546364400,1.291364501953125,-0.6314124548729508,9.190758574059606,3.361794646424055
1776021875556425200,1.30142529296875,-0.41493605166915803,9.40430897028148,2.7490315816372632
1776021875566486300,1.311486328125,-0.2681367035426199,9.568819149002433,2.129832930845022
1776021875576547300,1.32154736328125,-0.1975533838080242,9.687440852251648,1.5115639621183274
1776021875586609400,1.331609375,-0.20382850028844549,9.762506906890868,0.9067969375867396
1776021875596670500,1.34167041015625,-0.28205415146974844,9.79695219732821,0.3324848917473107
1776021875606731500,1.3517314453125,-0.4270120547143742,9.79540262979865,-0.1953440554617904
1776021875616792300,1.361792236328125,-0.6215463829621672,9.7632305449903,-0.6807382113169879
1776021875626853400,1.371853271484375,-0.8365298076618463,9.702010060352086,-1.1582826583188026
1776021875636915500,1.38191552734375,-1.0495673589907586,9.600488544985652,-1.7027707168459891
1776021875646976500,1.3919765625,-1.2350276790209114,9.425792487815022,-2.4082218560718
1776021875657037300,1.402037353515625,-1.3319712189473212,9.154075149306655,-3.2556343653410673
1776021875667098400,1.412098388671875,-1.2150026897326112,8.84943519988358,-4.047427132588624
1776021875677159400,1.422159423828125,-0.8249350853275507,8.647202901011704,-4.551455097368359
1776021875687220200,1.43222021484375,-0.44875502690169955,8.624156371945142,-4.646817797844112
1776021875697282300,1.4422822265625,-0.3405150169352069,8.720310222798586,-4.473323809939623
1776021875707343400,1.45234326171875,-0.414557244952023,8.829375577673316,-4.24743035723418
1776021875717404400,1.462404296875,-0.5447271645126864,8.904932046177983,-4.071346645097434
1776021875727465500,1.472465576171875,-0.6763480135340243,8.937641306602954,-3.9788825886726378
1776021875737526500,1.482526611328125,-0.7924164521038531,8.939468522030115,-3.9532691317275166
1776021875747587300,1.49258740234375,-0.8829663454703987,8.931980796623229,-3.9510073242753743
1776021875757649400,1.5026494140625,-0.9335135334681719,8.933575956860183,-3.9357530565202232
1776021875767710500,1.51271044921875,-0.9284902254134416,8.944929125523567,-3.911078049468994
1776021875777771500,1.522771484375,-0.8749533540803939,8.95633665472269,-3.897288301308453
1776021875787832300,1.532832275390625,-0.7990200881525874,8.964194382485747,-3.895531520769
1776021875797893400,1.542893310546875,-0.7279622462414205,8.970609510225056,-3.894694485422969
1776021875807955200,1.552955078125,-0.6830166045777499,8.97567673048675,-3.891159589295089
1776021875818016300,1.563016357421875,-0.6728875708818435,8.976903057411313,-3.8900904987588523
1776021875828077300,1.573077392578125,-0.6909081615451723,8.973492956706881,-3.8947964844927188
1776021875838138400,1.583138427734375,-0.7207988574180751,8.967491085943578,-3.9031937259599565
1776021875848199400,1.593199462890625,-0.7450733208443969,8.961821223613619,-3.9116476660504933
1776021875858260500,1.603260498046875,-0.7537143079396337,8.958262654349207,-3.9181399506792425
1776021875868322300,1.613322265625,-0.7475691562481224,8.95669087498784,-3.9229084802553054
1776021875878383400,1.62338330078125,-0.7348656689543277,8.95594444053471,-3.927012408442795
1776021875888444400,1.6334443359375,-0.7227250762403011,8.955334784203767,-3.9306557333812115
1776021875898505500,1.64350537109375,-0.7136182251989841,8.954334667250514,-3.9345962877005336
1776021875908566500,1.65356640625,-0.7057876046385616,8.95307268449068,-3.938872065323591
1776021875918627300,1.66362744140625,-0.6966057155996561,8.951856878960132,-3.9432673776730893
1776021875928689400,1.673689453125,-0.6839077081985772,8.951158375301956,-3.9470790449157356
1776021875938750200,1.683750244140625,-0.6671307609207928,8.951085310065746,-3.950116512915492
1776021875948811300,1.693811279296875,-0.6487737048447132,8.951484538516402,-3.9522655076429247
1776021875958872300,1.703872314453125,-0.6336047772854566,8.951987227341531,-3.9535885729402303
1776021875968933400,1.713933349609375,-0.6252662802681327,8.952331510734558,-3.9541377312555905
1776021875978995200,1.7239951171875,-0.6231419815905391,8.952471795988082,-3.954152636563778
1776021875989056300,1.73405615234375,-0.6237547797266394,8.952453675809503,-3.954097983767092
1776021875999117300,1.744117431640625,-0.6227301128540188,8.952537846961617,-3.954068465411663
1776021876009178400,1.754178466796875,-0.6177067317340522,8.952852319738268,-3.9541435764744874
1776021876019239400,1.764239501953125,-0.6091403807776048,8.953491202163695,-3.954025210791826
1776021876029300500,1.774300537109375,-0.6012340280998498,8.95435980169177,-3.9532694239884614
1776021876039362300,1.7843623046875,-0.5974698897933587,8.955152413374185,-3.9520471887171267
1776021876049423400,1.79442333984375,-0.5990783479033037,8.955872544342279,-3.950172042495012
1776021876059484400,1.804484375,-0.6030300081385299,8.956976121670007,-3.947068815782666
1776021876069545200,1.814545166015625,-0.605327106099762,8.958803921619056,-3.9425636133179065
1776021876079606300,1.824606201171875,-0.6032421895844862,8.96155701971948,-3.9366187334388494
1776021876089667300,1.834667236328125,-0.5964572786847129,8.964974134686589,-3.929871597266197
1776021876099729400,1.8447294921875,-0.5862991650247946,8.96857011335194,-3.923185543631017
1776021876109790200,1.854790283203125,-0.5750376932328567,8.971992489016056,-3.917022929348051
1776021876119851300,1.864851318359375,-0.5655019492549821,8.974947831690312,-3.9116386059612034
1776021876129912300,1.874912353515625,-0.5593809821566567,8.97711290076971,-3.907547537255287
1776021876139973400,1.884973388671875,-0.5569823235170915,8.978337474128603,-3.9050753019228575
1776021876150034400,1.895034423828125,-0.556514925201051,8.978844839128852,-3.903975523987412
1776021876160096500,1.905096435546875,-0.555974315518327,8.978394757273792,-3.905086115577817
1776021876170157300,1.9151572265625,-0.5529256685374304,8.976938128724694,-3.908863588289916
1776021876180218400,1.92521826171875,-0.5466991952380165,8.974661415964365,-3.91496453551352
1776021876190279400,1.935279541015625,-0.5380990516098216,8.971862140634656,-3.9225639046013354
1776021876200340200,1.94534033203125,-0.5290548905411735,8.968461392280458,-3.9315637881368395
1776021876210402600,1.955402587890625,-0.5214583344649523,8.963919072675704,-3.9429198794096707
1776021876220463400,1.96546337890625,-0.5158329688638449,8.957905511474609,-3.957298533374071
1776021876230524400,1.9755244140625,-0.5119279973145574,8.950805908602476,-3.973836995720863
1776021876240585200,1.985585205078125,-0.5088979454362764,8.943119445753098,-3.9914959865301847
1776021876250646300,1.995646240234375,-0.5052340526338667,8.93520443484485,-4.009642468595504
1776021876260707300,2.005707275390625,-0.4998642692290246,8.92737417961061,-4.027717054468393
1776021876270769400,2.015769287109375,-0.4931954589895904,8.919760197475552,-4.045369615536928
1776021876280830500,2.02583056640625,-0.48637825325541195,8.912301698163152,-4.06259781371355
1776021876290891500,2.0358916015625,-0.4801703385259956,8.905149488320946,-4.078988684283197
1776021876300952300,2.045952392578125,-0.4749500465944409,8.898974014556407,-4.093053449992835
1776021876311013400,2.056013427734375,-0.4713624704312533,8.894449815130233,-4.103290474107861
1776021876321074400,2.066074462890625,-0.4703801083303988,8.891934032917023,-4.108850154061615
1776021876331136500,2.076136474609375,-0.47298375149015337,8.890841561505198,-4.1109129318103195
1776021876341197600,2.086197509765625,-0.4797342851962894,8.890510137593745,-4.110847757619619
1776021876351258400,2.09625830078125,-0.4887500969532877,8.89048266506493,-4.109846471622586
1776021876361319400,2.1063193359375,-0.49840285490695385,8.890641655018925,-4.108341327756643
1776021876371380500,2.11638037109375,-0.5076387391554191,8.890923394569754,-4.106600913830102
1776021876381441500,2.126441650390625,-0.516631535363011,8.891065433388947,-4.105170588766038
1776021876391503600,2.136503662109375,-0.5256141755027696,8.89085325194299,-4.1044904975473875
1776021876401564700,2.146564697265625,-0.5338074553631246,8.890209693342447,-4.104827182155847
1776021876411625700,2.156625732421875,-0.5402608692862093,8.889190287166834,-4.106191748507321
1776021876421686500,2.1666865234375,-0.5445718278205022,8.887633705374599,-4.108988393488526
1776021876431747600,2.17674755859375,-0.5471843484064564,8.885535856312513,-4.11317766187191
1776021876441809700,2.1868095703125,-0.5496713063839823,8.882804970043898,-4.118742310261726
1776021876451870700,2.19687060546875,-0.5542293715471401,8.879456828659773,-4.125343315961957
1776021876461931800,2.206931884765625,-0.5609052691144868,8.875632301935553,-4.132665913935005
1776021876471992800,2.216992919921875,-0.5678212225154042,8.871569290280341,-4.140440055067837
1776021876482053600,2.2270537109375,-0.5723814796356484,8.867535504719614,-4.148442744259536
1776021876492114400,2.237114501953125,-0.5745069108244031,8.863771768271922,-4.156186197993159
1776021876502176500,2.247176513671875,-0.5749340501952916,8.860367512786388,-4.163376986280084
1776021876512237600,2.257237548828125,-0.5747381988296285,8.8574706223011,-4.169565319526195
1776021876522298600,2.267298583984375,-0.5757390099026263,8.855089280122519,-4.174485240271688
1776021876532359700,2.277359619140625,-0.579546731622517,8.853089046216011,-4.178199292358756
1776021876542420700,2.287420654296875,-0.5854406484993174,8.85150206928551,-4.180736117359996
1776021876552481500,2.2974814453125,-0.5917526446577162,8.850415443092585,-4.182148029984534
1776021876562543600,2.307543701171875,-0.596610861811228,8.849986404025554,-4.182363426300883
1776021876572604700,2.317604736328125,-0.5996755466114729,8.850186895033717,-4.181502425557374
1776021876582665700,2.327665771484375,-0.6016512305986136,8.850846820247172,-4.179821048341691
1776021876592726800,2.337726806640625,-0.6037677843611687,8.85191298817396,-4.177260842464864
1776021876602787800,2.347787841796875,-0.6079282650414853,8.853306488358974,-4.173700811895728
1776021876612849700,2.357849609375,-0.6147817841980606,8.855072913509607,-4.168943388235569
1776021876622910700,2.36791064453125,-0.623917861333862,8.85736190122962,-4.162723783068358
1776021876632971500,2.377971435546875,-0.6357618822541088,8.860205015701055,-4.154872485046089
1776021876643032600,2.388032470703125,-0.6513357373524457,8.863759493312239,-4.144865762555599
1776021876653093600,2.39809375,-0.6718536247242242,8.868428069645166,-4.1315857174828645
1776021876663154700,2.40815478515625,-0.6974078257627785,8.874487808075546,-4.114300236161053
1776021876673216500,2.418216552734375,-0.7272295480526983,8.882365409582853,-4.092076713915169
1776021876683277600,2.428277587890625,-0.7603148021832108,8.89232916971445,-4.064329167550802
1776021876693338600,2.438338623046875,-0.795141858479753,8.904326481500268,-4.031267148165405
1776021876703399700,2.448399658203125,-0.8317283987294882,8.918276096397637,-3.9928634754911063
1776021876713460700,2.458460693359375,-0.869950285096094,8.934173338231444,-3.9489387013077732
1776021876723521800,2.468521728515625,-0.9100027478907257,8.951810117208957,-3.8996614601805804
1776021876733583600,2.47858349609375,-0.9529412144504487,8.97116071436703,-3.844545722158253
1776021876743644700,2.488644775390625,-0.9994468719724565,8.9921836286515,-3.783138482776284
1776021876753705700,2.498705810546875,-1.050482793335244,9.015330695483089,-3.7135838850349185
1776021876763766500,2.5087666015625,-1.107333319260925,9.04100874209702,-3.6337799882188437
1776021876773827600,2.51882763671875,-1.1705896936409175,9.069363314443827,-3.542141861224174
1776021876783889400,2.528889404296875,-1.2393820748381317,9.100102151578664,-3.43838104249835
1776021876793950500,2.538950439453125,-1.3116706275880337,9.132638393524289,-3.3233743148759007
1776021876804011500,2.549011474609375,-1.3843563629619777,9.165972507849336,-3.199826553401351
1776021876814072600,2.559072509765625,-1.4534890820294617,9.199377349323033,-3.0707027453601357
1776021876824133600,2.569133544921875,-1.51713562477082,9.232356074339151,-2.9380738518074154
1776021876834194700,2.579194580078125,-1.57571100172773,9.26441651546657,-2.803232835163176
1776021876844256500,2.589256591796875,-1.6318126820474863,9.295054230314493,-2.6663722953900693
1776021876854317600,2.599317626953125,-1.6877919050313532,9.323283130455016,-2.5294527189061045
1776021876864378600,2.609378662109375,-1.7439345018833874,9.348052830052374,-2.3964487084306776
1776021876874439700,2.619439697265625,-1.7987483343496917,9.368675346842407,-2.2721841769888997
1776021876884500700,2.629500732421875,-1.8502225009992717,9.384622857558726,-2.1623926997967065
1776021876894561500,2.6395615234375,-1.8999027699694035,9.395010980582237,-2.0723251831196245
1776021876904623600,2.64962353515625,-1.9542356870509683,9.39860520568192,-2.0043875190556046
1776021876914684400,2.659684326171875,-2.017315681950748,9.395045467373729,-1.958049253989756
1776021876924745500,2.669745361328125,-2.088043268994242,9.385683180266618,-1.928574007049948
1776021876934806500,2.679806640625,-2.1606047934666273,9.372744788238405,-1.9114973461732268
1776021876944867600,2.68986767578125,-2.227026353879273,9.358723861670494,-1.9039508763164281
1776021876954928600,2.6999287109375,-2.2791218672975897,9.346042659273744,-1.904591950698942
1776021876964990700,2.70999072265625,-2.3120308880783615,9.336532488128542,-1.9115595977544784
1776021876975051500,2.720051513671875,-2.3239088112682103,9.331099357163906,-1.9236498485207556
1776021876985112600,2.730112548828125,-2.3162379843793808,9.329445160216093,-1.9408507202990353
1776021876995173600,2.740173583984375,-2.2921491066530346,9.33049262344241,-1.96427090498358
1776021877005234700,2.750234619140625,-2.255236549319327,9.333203635966777,-1.993894766613841
1776021877015296800,2.760296875,-2.2091031591758132,9.337085445836186,-2.027086695989221
1776021877025357800,2.77035791015625,-2.156470031749457,9.341949837002158,-2.0610643689148125
1776021877035418600,2.780418701171875,-2.099478416852653,9.347612685069441,-2.093966229302436
1776021877045479400,2.7904794921875,-2.0399958619229492,9.35350758832693,-2.126193843690306
1776021877055540500,2.80054052734375,-1.9787379678837953,9.358794004297255,-2.160543710929155
1776021877065601500,2.8106015625,-1.916106155142933,9.36264892615974,-2.1999396095111963
1776021877075663600,2.82066357421875,-1.8525936140447854,9.36440015374124,-2.246396970912069
1776021877085724700,2.830724609375,-1.7896281854353844,9.363136417415738,-2.302020366195589
1776021877095785700,2.84078564453125,-1.7304384759724138,9.357996716439724,-2.3672448257781564
1776021877105846500,2.850846435546875,-1.678589046269655,9.348465502506494,-2.4410871838413177
1776021877115907600,2.860907470703125,-1.6363716605260967,9.334545698225497,-2.5216896836891767
1776021877125968600,2.87096875,-1.6036993711106478,9.316402138769625,-2.6082901087775823
1776021877136030700,2.88103076171875,-1.5777448456428944,9.294416516932845,-2.700910232546925
1776021877146091800,2.891091796875,-1.553999374526739,9.269536342698336,-2.798422220011055
1776021877156152800,2.90115283203125,-1.527992972741276,9.242730753359199,-2.8995792859792706
1776021877166213600,2.911213623046875,-1.4954275047011674,9.214672533610463,-3.0039804484352466
1776021877176274400,2.9212744140625,-1.452966519460082,9.185897105503082,-3.1110414777502418
1776021877186335500,2.93133544921875,-1.4001356775045395,9.156810127228498,-3.219136526288092
1776021877196397600,2.9413974609375,-1.3390642459481954,9.128037621730565,-3.3250866717517376
1776021877206458600,2.951458740234375,-1.273046151769906,9.100214964303374,-3.4257577077686783
1776021877216519700,2.961519775390625,-1.2040507953464985,9.074270375707744,-3.5182749556854365
1776021877226580700,2.971580810546875,-1.1320862138539551,9.051070117384194,-3.6009582073301076
1776021877236641500,2.9816416015625,-1.0565149131063372,9.031091743716598,-3.673356796325743
1776021877246703600,2.99170361328125,-0.9763603031564503,9.014406566375493,-3.735985394196212
1776021877256764700,3.0017646484375,-0.8950328500349074,9.00061360334456,-3.789231538954377
1776021877266825700,3.01182568359375,-0.8225884491361677,8.987955197301506,-3.835414321197569
1776021877276886800,3.02188671875,-0.768542824563384,8.973398264160751,-3.8804441340133544
1776021877286947800,3.03194775390625,-0.7358121560242027,8.955226063132285,-3.928470790557563
1776021877297008600,3.042008544921875,-0.7239892509572208,8.935825197091699,-3.974576415911317
1776021877307070700,3.05207080078125,-0.7275856680139898,8.917806725320219,-4.014189464375376
1776021877317131500,3.062131591796875,-0.741495681553334,8.90495542705357,-4.040092551916837
1776021877327192600,3.072192626953125,-0.7636518376514315,8.899159892517329,-4.0487271092712875
1776021877337253600,3.082253662109375,-0.7907216308847069,8.898671816739439,-4.044600092469156
1776021877347314700,3.092314697265625,-0.8138687707815319,8.900417199102044,-4.036158427338302
1776021877357375700,3.102375732421875,-0.8274147733140736,8.90245834954083,-4.028898957729339
1776021877367438000,3.11243798828125,-0.8323392971694469,8.904111961966752,-4.024227751047909
1776021877377499100,3.1224990234375,-0.83369480343163,8.905286266443133,-4.0213466426536435
1776021877387560000,3.132559814453125,-0.8378369447376579,8.906182923021913,-4.018497098441422
1776021877397621000,3.14262109375,-0.8494993254806846,8.9066143001765,-4.015092258433997
1776021877407682000,3.15268212890625,-0.8695216113552451,8.906488043448329,-4.011084191836416
1776021877417744000,3.162743896484375,-0.8935455340865999,8.905980678448081,-4.006929410244524
1776021877427805000,3.172804931640625,-0.9152519736558198,8.905370437595248,-4.00338516176641
1776021877437866000,3.182865966796875,-0.9277945712994784,8.905226645210385,-4.000816772583127
1776021877447927000,3.192927001953125,-0.9260204012338071,8.90556917503774,-4.000464598144591
1776021877457988000,3.202988037109375,-0.9066588442903012,8.905489095538854,-4.005073260983824
1776021877468049200,3.213049072265625,-0.8686909326847642,8.904125405970214,-4.016503294275701
1776021877478111000,3.223111083984375,-0.8113471433494239,8.901047313699125,-4.035277845111489
1776021877488172000,3.233172119140625,-0.7377429779563098,8.896627743691205,-4.059078991937637
1776021877498233000,3.243233154296875,-0.6570526536945254,8.889709927126765,-4.087997920168936
1776021877508294100,3.253294189453125,-0.5842584895100444,8.879398376470803,-4.121323851187527
1776021877518355000,3.26335498046875,-0.5325711550338194,8.866205717420577,-4.156577827659249
1776021877528416000,3.273416015625,-0.5072279663974419,8.850805903714894,-4.19241281888932
1776021877538477800,3.283477783203125,-0.5043721020422876,8.83334214321673,-4.229427083031833
1776021877548539000,3.293538818359375,-0.515665284146741,8.814004405540228,-4.268233491288125
1776021877558600000,3.303599853515625,-0.5322567918550223,8.793932508370279,-4.3074183774679895
1776021877568661000,3.313660888671875,-0.5454616162670776,8.774262177738548,-4.345707776112854
1776021877578722000,3.32372216796875,-0.5484925814608111,8.755888316658138,-4.382235718043148
1776021877588783000,3.333783203125,-0.537115301269479,8.739840268176794,-4.415552296711504
1776021877598845000,3.343844970703125,-0.5112703736560419,8.727043914967775,-4.443837018692493
1776021877608906000,3.353906005859375,-0.4749432880600914,8.717856399905681,-4.4658457291439175
1776021877618967000,3.363967041015625,-0.4357445925505832,8.711884339758754,-4.481471168299019
1776021877629028000,3.374028076171875,-0.39896848454549905,8.707897315949202,-4.4926329060435295
1776021877639089200,3.384089111328125,-0.36609395055621863,8.705141879761218,-4.500764774572849
1776021877649151000,3.39415087890625,-0.3353442267011851,8.703282515630125,-4.506752909071743
1776021877659212000,3.4042119140625,-0.30362472623223435,8.701502061954141,-4.512430077925324
1776021877669272800,3.41427294921875,-0.2687350895608775,8.699048823583125,-4.519371859887242
1776021877679334000,3.424333984375,-0.2312558565214276,8.695677885845303,-4.52792546095997
1776021877689395000,3.43439501953125,-0.1933915148882195,8.690845058861374,-4.538965033629537
1776021877699456000,3.4444560546875,-0.15838776858421041,8.684190861669181,-4.553036521340906
1776021877709518000,3.45451806640625,-0.1290524050391279,8.675475055772065,-4.570544413241744
1776021877719579000,3.464578857421875,-0.10628419972360134,8.665069397091864,-4.590824400204419
1776021877729640000,3.474639892578125,-0.08941642322405241,8.653598155006765,-4.612767644204199
1776021877739701000,3.484700927734375,-0.07762788621755316,8.641301568013429,-4.635978716182708
1776021877749762000,3.494761962890625,-0.06859974013536703,8.628665958324074,-4.659592231482267
1776021877759823000,3.504822998046875,-0.059207774842623614,8.61591636686623,-4.68325367757678
1776021877769885200,3.51488525390625,-0.04726287823063321,8.603027659198641,-4.707020629872382
1776021877779946000,3.524946044921875,-0.031309120436618106,8.5902722225219,-4.730392445370555
1776021877790007000,3.535007080078125,-0.011479991647135465,8.5776108938694,-4.753400395992398
1776021877800067800,3.54506787109375,0.011311965578381204,8.564808110919595,-4.776432896533608
1776021877810129000,3.55512890625,0.03511664807697525,8.551694946846366,-4.799758534802496
1776021877820191000,3.56519091796875,0.05818883445789106,8.538291275393963,-4.823339024615287
1776021877830252000,3.575251953125,0.07962949923039414,8.524342245018481,-4.847644613832235
1776021877840312800,3.585312744140625,0.09956765048545785,8.509794079706072,-4.872770579521358
1776021877850374000,3.595373779296875,0.11806747603309341,8.49493494874835,-4.898215694162249
1776021877860435000,3.60543505859375,0.13483762824391013,8.47980986033082,-4.9239241359144446
1776021877870496000,3.61549609375,0.15020261723138392,8.464433427500724,-4.9498663864225145
1776021877880558000,3.62555810546875,0.16456329714767634,8.448611004468798,-4.9763727005541325
1776021877890619100,3.635619140625,0.1782716689013876,8.432668754449486,-5.002869077813625
1776021877900680200,3.64568017578125,0.19146009016791357,8.417703825029731,-5.027525964686275
1776021877910741000,3.655740966796875,0.20394516720436512,8.404403613951802,-5.0492356921911234
1776021877920802000,3.665802001953125,0.2153245845538564,8.392971534833311,-5.067745746871829
1776021877930862800,3.67586279296875,0.2260032514891587,8.383070318543911,-5.083645326793193
1776021877940925000,3.685925048828125,0.2353825445299968,8.373737257531285,-5.098578692030906
1776021877950986000,3.695986083984375,0.2408597520983778,8.364301320666074,-5.1137879516005516
1776021877961047000,3.706047119140625,0.239254508858826,8.354825636312365,-5.129331557691097
1776021877971107800,3.71610791015625,0.22917238304456694,8.346171789735555,-5.143857511171698
1776021877981169000,3.7261689453125,0.21154839048339052,8.338430381828546,-5.1571507079869505
1776021877991231000,3.73623095703125,0.18886899596247822,8.331227903103828,-5.169656553816795
1776021878001292000,3.7462919921875,0.16480285979090256,8.324365616118907,-5.181523517221212
1776021878011353000,3.75635302734375,0.1426617368651554,8.31845142363906,-5.191665556529164
1776021878021414100,3.7664140625,0.125383808662137,8.313987429967522,-5.199257911354303
1776021878031475000,3.776474853515625,0.11551846740371546,8.311189908203483,-5.2039580518692725
1776021878041536000,3.786535888671875,0.11448782744803465,8.309922080224752,-5.206002709439397
1776021878051598000,3.79659814453125,0.12163027394805102,8.309550324302911,-5.206435840159655
1776021878061659100,3.8066591796875,0.13446747062411157,8.309034775996208,-5.206943205159902
1776021878071720000,3.816719970703125,0.14889126977133563,8.307513265517354,-5.208976756814122
1776021878081781000,3.826781005859375,0.16197905280813574,8.305107373419403,-5.212421928831935
1776021878091842000,3.836842041015625,0.17259749572249128,8.302926522248983,-5.215553212594986
1776021878101902800,3.84690283203125,0.18341951665123923,8.302323880180715,-5.216143579703569
1776021878111965000,3.85696484375,0.19860208914335817,8.302908402070402,-5.214656556016206
1776021878122026000,3.86702587890625,0.22213817355884238,8.30285637962222,-5.213789125531911
1776021878132087000,3.877087158203125,0.25518875823477283,8.301092292559147,-5.215087933170795
1776021878142148000,3.887148193359375,0.2968170737776905,8.298159161716699,-5.217551692935824
1776021878152209200,3.897209228515625,0.34616887797843665,8.295520045384764,-5.218708461755514
1776021878162270000,3.90727001953125,0.4013295511210337,8.294377305090427,-5.216569696161151
1776021878172332000,3.91733203125,0.45645285139530895,8.294869472521542,-5.2112534695744515
1776021878182393000,3.92739306640625,0.5001156136415899,8.296562247914075,-5.204548418977856
1776021878192454100,3.9374541015625,0.5214459499074146,8.300157057535648,-5.196715825656056
1776021878202515000,3.947514892578125,0.5177164445228875,8.3050793163687,-5.1892181633770464
1776021878212576000,3.957575927734375,0.49449704310744996,8.310015019205212,-5.183579865229129
1776021878222637800,3.967637939453125,0.46191889824885873,8.314472583135961,-5.179433266943692
1776021878232699000,3.977698974609375,0.43046928249616173,8.317935290810466,-5.176586060819029
1776021878242760000,3.987760009765625,0.4075171902474016,8.31859872315526,-5.177376334413886
1776021878252821000,3.997821044921875,0.3957508376732468,8.315190376016497,-5.183761651536822
1776021878262882000,4.007882080078125,0.3948210094772279,8.3083041236341,-5.194864060309529
1776021878272943000,4.017943115234375,0.4028646517338231,8.299339895933866,-5.208558239141106
1776021878283005000,4.0280048828125,0.41705012121368196,8.289113685473799,-5.223699694171548
1776021878293066000,4.03806591796875,0.4319896239312365,8.278177865439654,-5.239803856754302
1776021878303127000,4.048126953125,0.4425543821632862,8.268344453689455,-5.25442917895615
1776021878313188000,4.05818798828125,0.4473422374943271,8.261362339717149,-5.264992074024677
1776021878323249200,4.068249267578125,0.44733175263293085,8.257412140786647,-5.271188590577244
1776021878333310000,4.07831005859375,0.4452758430164307,8.255404308095574,-5.2745057523012155
1776021878343372000,4.0883720703125,0.44472368902638554,8.255546931436658,-5.27432981121242
1776021878353432800,4.098432861328125,0.4492023322777822,8.258291846230625,-5.269651298007369
1776021878363494000,4.108493896484375,0.4600581824108958,8.262141507396102,-5.262672691166401
1776021878373555000,4.118554931640625,0.4759698911614716,8.265029045531152,-5.2567222583293916
1776021878383616000,4.128615966796875,0.49457332321405406,8.266239005842804,-5.253102898788452
1776021878393676800,4.1386767578125,0.5112054186610505,8.266409686234592,-5.25124236561358
1776021878403739000,4.14873876953125,0.522365548970364,8.265954343682527,-5.250857750210166
1776021878413799700,4.158799560546875,0.5253859562374651,8.265048334753512,-5.251985292935371
1776021878423860700,4.16886083984375,0.5191241558963433,8.263779922252892,-5.254600443869829
1776021878433921800,4.178921875,0.5038728107506409,8.261858598801494,-5.2591036005079745
1776021878443982800,4.18898291015625,0.4806863982893526,8.25919668611586,-5.265451508229971
1776021878454045000,4.199044921875,0.45281602926291525,8.255964864587783,-5.272985410866141
1776021878464105700,4.209105712890625,0.42383473985251036,8.252308095645905,-5.281113187742233
1776021878474166800,4.219166748046875,0.3977230875942856,8.24811765821874,-5.289682863166928
1776021878484227800,4.229227783203125,0.379356679167971,8.243057452219723,-5.298913048326969
1776021878494289000,4.239288818359375,0.3732817431684583,8.236863858276605,-5.308965071263909
1776021878504350000,4.249349853515625,0.38206630345284937,8.229566102483869,-5.31965071592927
1776021878514412000,4.259412109375,0.4022096218911931,8.22169434619546,-5.330321747547388
1776021878524472800,4.269472900390625,0.4258275941701606,8.213722636663913,-5.340768322759867
1776021878534534000,4.279533935546875,0.44624238649364556,8.20598765849769,-5.350981089216471
1776021878544594700,4.2895947265625,0.4612881991298869,8.198201826927065,-5.36163107804656
1776021878554655700,4.29965576171875,0.47022250661589204,8.189792895022034,-5.373695025327802
1776021878564716800,4.309716796875,0.4733981044447049,8.18051361002326,-5.387529489412904
1776021878574779000,4.31977880859375,0.4720584533387795,8.171060722023249,-5.40197127174139
1776021878584840000,4.32983984375,0.4672676023330539,8.162021090999245,-5.416035452929139
1776021878594900700,4.339900634765625,0.46071690204795446,8.153456091749668,-5.429480625435709
1776021878604961800,4.3499619140625,0.4535227892927825,8.145038392016291,-5.4427048486679785
1776021878615022800,4.36002294921875,0.44594968715738503,8.136732920485734,-5.455741440373659
1776021878625085000,4.3700849609375,0.43778055535759774,8.1282731351763,-5.468994889700412
1776021878635146000,4.38014599609375,0.4289885424191132,8.119334041917323,-5.482951518860459
1776021878645207000,4.39020703125,0.4202329525008797,8.109599998888372,-5.498014647957683
1776021878655267800,4.400267822265625,0.4140021318199113,8.099249285265802,-5.513724258264899
1776021878665329000,4.410328857421875,0.4145736846301704,8.08880797075033,-5.528989047414064
1776021878675389700,4.4203896484375,0.4250887219689786,8.077942877864837,-5.544053930076957
1776021878685452000,4.4304521484375,0.4441763938745483,8.065667918181418,-5.56040359185338
1776021878695512800,4.440512939453125,0.4669567097529769,8.052098827034234,-5.578174810865521
1776021878705574000,4.450573974609375,0.48994394638035443,8.037909558162093,-5.596637519273162
1776021878715635000,4.460635009765625,0.5122078371692449,8.023674696582555,-5.615038268360495
1776021878725695700,4.47069580078125,0.5342042726609856,8.009446264743804,-5.633274766796827
1776021878735756800,4.4807568359375,0.5563495785715058,7.99565330171287,-5.650697026240826
1776021878745819000,4.49081884765625,0.57869515629448,7.98306328473091,-5.666231279981136
1776021878755880000,4.5008798828125,0.6002793577235191,7.972394006678462,-5.678994315442442
1776021878765941000,4.51094091796875,0.6184896257400513,7.964253954842686,-5.688451295095682
1776021878776002000,4.521001953125,0.6310953517477959,7.958350868278742,-5.695329364171624
1776021878786062800,4.531062744140625,0.6388442853741347,7.953957017233967,-5.700600582572817
1776021878796125000,4.541125,0.6443428097251802,7.950251148453354,-5.70514640930891
1776021878806186000,4.55118603515625,0.650892596694827,7.946031484931707,-5.7102820186316965
1776021878816247000,4.5612470703125,0.6604983371689915,7.939975838154554,-5.717600232690573
1776021878826307800,4.571307861328125,0.6731485599055886,7.930738638731837,-5.728927682390808
1776021878836369000,4.581368896484375,0.6907358006529509,7.919880560109019,-5.7418426935434335
1776021878846430000,4.591429931640625,0.7175858136557042,7.90883660352528,-5.753758756786585
1776021878856491800,4.60149169921875,0.7577885716412216,7.897788555288314,-5.763773954844474
1776021878866552800,4.611552734375,0.8099668679721653,7.886148386377096,-5.7726072496414185
1776021878876614000,4.62161376953125,0.8624274883758276,7.874571930351853,-5.780804000100493
1776021878886675000,4.631675048828125,0.8977852905482053,7.865906977859139,-5.787216789752245
1776021878896736000,4.641736083984375,0.9030234103973954,7.862388740605115,-5.791181601729988
1776021878906797000,4.651797119140625,0.8788154363360255,7.863683456590771,-5.793145595279336
1776021878916859000,4.66185888671875,0.8380562135115265,7.868765874421596,-5.792285179057717
1776021878926920000,4.671919921875,0.7944151516404002,7.876614249834418,-5.78776507128477
1776021878936981000,4.68198095703125,0.7556927684057504,7.885877752742171,-5.780332875457406
1776021878947042000,4.6920419921875,0.7251042995270341,7.894974082389473,-5.771826912918686
1776021878957102800,4.702102783203125,0.7037794066213071,7.9030831545650955,-5.763361282390356
1776021878967164000,4.712163818359375,0.6914822351060808,7.910390262708067,-5.754819079494476
1776021878977225700,4.722225830078125,0.6875294058270752,7.917614953264594,-5.745351578447222
1776021878987286800,4.732286865234375,0.6902753435343504,7.925041888394952,-5.734772316765785
1776021878997347800,4.742347900390625,0.6959272318162023,7.932026924976706,-5.724421018621325
1776021879007409000,4.752408935546875,0.7003341615382581,7.937565269881486,-5.716201471808552
1776021879017470000,4.762469970703125,0.6992641211539506,7.941478059411049,-5.710895182093978
1776021879027531800,4.77253173828125,0.6913456761796027,7.944339294061065,-5.707880802708864
1776021879037592800,4.7825927734375,0.678175740417838,7.946768567034602,-5.70607930624485
1776021879047654000,4.79265380859375,0.6638461862921714,7.9478452563554045,-5.70626459968388
1776021879057715000,4.80271484375,0.6514591445364057,7.946243666377663,-5.709921953147649
1776021879067776000,4.81277587890625,0.6415892732333391,7.94334093067348,-5.7150739290833465
1776021879077837000,4.822837158203125,0.6361839070584625,7.941368753817677,-5.718419732379913
1776021879087899000,4.83289892578125,0.636789910127595,7.9403002478033295,-5.719836028918624
1776021879097959700,4.842959716796875,0.6418119030080736,7.939305976068973,-5.720654944086075
1776021879108020700,4.853020751953125,0.6466299708142876,7.9386016271919,-5.721090412893891
1776021879118081800,4.863081787109375,0.6477552485171705,7.939361505648494,-5.719906171545386
1776021879128142800,4.873142822265625,0.6442572503335774,7.942281192487478,-5.7162494026035064
1776021879138204000,4.883203857421875,0.6393320688910782,7.946680888751149,-5.710683585169911
1776021879148265700,4.893265625,0.6365724679846316,7.952388160482048,-5.703042130506038
1776021879158326800,4.903326904296875,0.6375597985215484,7.959999804529547,-5.692300371739268
1776021879168387800,4.913387939453125,0.6425508848071098,7.969204855248331,-5.678845846882462
1776021879178449000,4.923448974609375,0.6518932981699704,7.9784958306849,-5.664719121852516
1776021879188510000,4.933510009765625,0.6674141079068183,7.986971398085355,-5.650950708740949
1776021879198571000,4.943571044921875,0.6921230172276497,7.994271491965651,-5.637641729834676
1776021879208632800,4.9536328125,0.7270986882146447,8.000039553973078,-5.625040606936812
1776021879218694000,4.96369384765625,0.7712924155324697,8.004540372523666,-5.612738759246469
1776021879228754700,4.973754638671875,0.8206311775885522,8.00816849989295,-5.6005508933246135
1776021879238815700,4.983815673828125,0.8660542275056242,8.012817202481626,-5.587046684107184
1776021879248876800,4.993876708984375,0.8967324204944074,8.021939251092077,-5.569090756177902
1776021879258937900,5.003937744140625,0.9074755675006657,8.036906518599391,-5.545720986506343
1776021879269000000,5.014,0.900630889237672,8.055528801482916,-5.519755939644575
1776021879279060700,5.024060791015625,0.8807100179109721,8.07433579328358,-5.495436321902274
1776021879289121800,5.034121826171875,0.8488544517058879,8.091995953136681,-5.474434450405836
1776021879299182800,5.044182861328125,0.8063619753479957,8.110641032373906,-5.453227411726117
1776021879309244000,5.054243896484375,0.7591830947395414,8.130918096727132,-5.429754181680083
1776021879319306000,5.064305908203125,0.7172437952850014,8.151763316357135,-5.404138094386458
1776021879329367000,5.074366943359375,0.6894734525669366,8.172309260779619,-5.376650368002057
1776021879339427800,5.084427734375,0.6790777307588607,8.192021676987409,-5.347896567204594
1776021879349489000,5.094489013671875,0.6823462310355156,8.210011507186293,-5.319819642755389
1776021879359549700,5.1045498046875,0.6956657313358038,8.226025653398036,-5.293292285835743
1776021879369610800,5.11461083984375,0.7172549742661416,8.240151793906092,-5.2683799628973
1776021879379672800,5.1246728515625,0.7425082926619797,8.253111228722334,-5.244542575713992
1776021879389734000,5.13473388671875,0.7664748591829091,8.266338374564052,-5.22020776040256
1776021879399795000,5.144794921875,0.7849447279836982,8.281007535907627,-5.1941474364727735
1776021879409855700,5.154855712890625,0.7948809425212442,8.296127363628148,-5.168443086373806
1776021879419916800,5.164916748046875,0.7959117468737066,8.310545180559158,-5.1450709786146875
1776021879429977900,5.174977783203125,0.7909062667366117,8.324142328757047,-5.123819516271353
1776021879440040000,5.1850400390625,0.7831601095892489,8.335913430571555,-5.105837869378924
1776021879450101000,5.19510107421875,0.7750804827038198,8.344536297488212,-5.092969619977474
1776021879460161800,5.205161865234375,0.7689983863111585,8.34955734052062,-5.085658420181274
1776021879470222600,5.21522265625,0.7655986608702688,8.352254909041523,-5.0817397854328155
1776021879480283600,5.22528369140625,0.7632540705054998,8.353973987919092,-5.0792655042737715
1776021879490345700,5.235345703125,0.761641886068508,8.355515372142195,-5.076970086812973
1776021879500406800,5.24540673828125,0.7635408515576273,8.356936929377913,-5.07434616805017
1776021879510467800,5.2554677734375,0.7722980123784393,8.357810205081105,-5.071583133077621
1776021879520529000,5.26552880859375,0.7872476711638271,8.35694277459681,-5.070713949027657
1776021879530589700,5.275589599609375,0.7997398537945002,8.353781095695496,-5.073966228821873
1776021879540650800,5.285650634765625,0.7991599350146948,8.350019112813472,-5.080247501048445
1776021879550712800,5.295712890625,0.7835986471369862,8.347184766170383,-5.087324307566881
1776021879560774000,5.30577392578125,0.7595777931455522,8.345423601716757,-5.093855755162239
1776021879570835000,5.3158349609375,0.7332390176005661,8.343673543179035,-5.100576587849855
1776021879580896000,5.32589599609375,0.7080189438872039,8.341504966968298,-5.107682035940885
1776021879590956800,5.335956787109375,0.6881586436413228,8.338935993263124,-5.114584654936194
1776021879601017600,5.346017578125,0.6785175395928323,8.335635782673954,-5.121247035434842
1776021879611079700,5.35607958984375,0.6796903096992523,8.330842118656635,-5.128887905576825
1776021879621140700,5.366140625,0.6874669350501149,8.32481102179885,-5.137634691134095
1776021879631201800,5.376201904296875,0.6973091146286576,8.317860472008585,-5.147558119255304
1776021879641262800,5.386262939453125,0.7068581564795225,8.310497249764204,-5.158136211892963
1776021879651324000,5.396323974609375,0.7143765692856162,8.302699143233895,-5.169645447900891
1776021879661384700,5.406384765625,0.7188177666034549,8.294956566283107,-5.181444022244214
1776021879671446800,5.41644677734375,0.7167072041902691,8.289697622841596,-5.190146968659758
1776021879681507800,5.4265078125,0.7051728337410837,8.288444992431998,-5.1937259961903095
1776021879691569000,5.43656884765625,0.6861823751322925,8.291385722059012,-5.191574371114373
1776021879701630000,5.4466298828125,0.6657828534431756,8.29860749000609,-5.182687300303578
1776021879711691000,5.45669091796875,0.6519117106094956,8.311149576193094,-5.164318115398287
1776021879721752800,5.4667529296875,0.6507675820756703,8.329929095464944,-5.134116453880071
1776021879731814000,5.47681396484375,0.6627882747370749,8.35604611801803,-5.089949395373464
1776021879741874700,5.486874755859375,0.6833370687037706,8.390584347435832,-5.030063374209404
1776021879751935700,5.496935791015625,0.7085490321759134,8.434612289732694,-4.9523406675815576
1776021879761996800,5.506996826171875,0.7382280580595135,8.49047504673004,-4.851518240395188
1776021879772057900,5.517057861328125,0.7724861553616821,8.561084121960402,-4.720327562952042
1776021879782119000,5.527118896484375,0.8130891647111624,8.647111131075023,-4.553760743962228
1776021879792180700,5.5371806640625,0.8578520702190696,8.745934493398666,-4.352366064958274
1776021879802241800,5.54724169921875,0.884694849763438,8.857875695970653,-4.114088346976041
1776021879812302800,5.557302734375,0.846468360286951,8.97567789953053,-3.8588963190719485
1776021879822364000,5.567364013671875,0.7376457281269133,9.077734836947917,-3.636073067592084
1776021879832425000,5.577425048828125,0.6155860863182694,9.15126593710482,-3.4707062720417974
1776021879842486800,5.58748681640625,0.4988380679864436,9.199932645118237,-3.3589836806565523
1776021879852547800,5.5975478515625,0.36835784036759284,9.232564748653768,-3.2854888208568096
1776021879862609000,5.60760888671875,0.22213134195925666,9.253328135219215,-3.2399004973754284
1776021879872669700,5.617669677734375,0.06544119390605482,9.264571413767337,-3.2146319083452224
1776021879882730800,5.627730712890625,-0.10102811495945788,9.268262669500707,-3.203042885099351
1776021879892791800,5.637791748046875,-0.2740887803474441,9.269053527617453,-3.190596075980365
1776021879902853600,5.647853515625,-0.43443011241853235,9.271682707077264,-3.1650542229667304
1776021879912914700,5.657914794921875,-0.5360118700722232,9.280594327807426,-3.12308350546062
1776021879922975700,5.667975830078125,-0.5579228557702154,9.296433701974152,-3.0717145527511835
1776021879933036800,5.678036865234375,-0.5424482963278889,9.312095381486415,-3.0267165963783857
1776021879943097900,5.688097900390625,-0.5262947051128373,9.325824631631374,-2.987038373723626
1776021879953159000,5.698158935546875,-0.512141347804293,9.340039619466662,-2.944784455361962
1776021879963220700,5.708220703125,-0.49480618212185795,9.355382150027156,-2.898687597836554
1776021879973281800,5.71828173828125,-0.471248342532292,9.370133728957176,-2.854628091357648
1776021879983342800,5.7283427734375,-0.43998402021862565,9.381833519101143,-2.8209941173031923
1776021879993403600,5.738403564453125,-0.4043383410155773,9.391578668045996,-2.7937726406395433
1776021880003464700,5.748464599609375,-0.36942104915231466,9.402104738235472,-2.763032342199981
1776021880013525800,5.75852587890625,-0.34020142094139005,9.414282667285203,-2.725057416331768
1776021880023587600,5.768587646484375,-0.32016119755133987,9.427302307856083,-2.682132759101689
1776021880033648600,5.778648681640625,-0.30680103644710033,9.439626951900124,-2.6400208795592186
1776021880043709700,5.788709716796875,-0.29954478170853105,9.450092231813073,-2.603156837542355
1776021880053770800,5.798770751953125,-0.31044085425417867,9.458791671097279,-2.570072898586094
1776021880063831800,5.808831787109375,-0.3476005912819877,9.46628699528873,-2.5375129835039374
1776021880073894000,5.818893798828125,-0.40272776401378213,9.473011919629574,-2.5040415065348145
1776021880083954700,5.82895458984375,-0.4612443599881604,9.479076918756961,-2.470774904488027
1776021880094015700,5.839015625,-0.5141261284133419,9.484768408396839,-2.4382865933373568
1776021880104076800,5.849076904296875,-0.5620835556462407,9.490300908082723,-2.405958733445406
1776021880114137900,5.859137939453125,-0.6095860056532546,9.495582647877931,-2.373333644172549
1776021880124198700,5.86919873046875,-0.658519219115749,9.499972407269476,-2.3424976302735505
1776021880134261000,5.879260986328125,-0.7083128122672439,9.503463756516576,-2.3136269250981507
1776021880144321800,5.88932177734375,-0.7529035760786383,9.508178510078787,-2.2799255848959086
1776021880154382600,5.899382568359375,-0.788278329385817,9.51645534003675,-2.232951067753136
1776021880164443600,5.909443603515625,-0.8141649772491305,9.528481293395162,-2.171534768281877
1776021880174504700,5.919504638671875,-0.8316158052004873,9.542464226040243,-2.102420753914863
1776021880184565800,5.929565673828125,-0.8465608608759939,9.556218610626459,-2.0328318155124783
1776021880194627800,5.9396279296875,-0.8609422913193702,9.568592354509233,-1.9675404281735418
1776021880204689000,5.94968896484375,-0.8734478448882699,9.579241174295545,-1.9093525892294942
1776021880214749700,5.959749755859375,-0.8925232783667743,9.587675825163721,-1.8574869390442967
1776021880224810800,5.969810791015625,-0.9251827083006501,9.594095629078149,-1.8076928344361483
1776021880234871800,5.979871826171875,-0.967797788124904,9.599585458666086,-1.755477932421863
1776021880244932900,5.989932861328125,-1.01561007126607,9.6051729034096,-1.6969303202547132
1776021880254995000,5.999994873046875,-1.065547164541483,9.611157238516212,-1.6311549487911163
1776021880265056000,6.010055908203125,-1.118068063765019,9.616943420702219,-1.5603643795140087
1776021880275116800,6.02011669921875,-1.1754607337433844,9.622581718850135,-1.481417976310104
1776021880285177600,6.030177490234375,-1.2350108740165828,9.629055883300303,-1.3879640320651232
1776021880295238700,6.04023876953125,-1.292995737734437,9.63607599119544,-1.2824144302263856
1776021880305299700,6.0502998046875,-1.3478633462145924,9.64243325126767,-1.1735133990678936
1776021880315361800,6.06036181640625,-1.3960083684414624,9.647848846575616,-1.067965550794825
1776021880325422800,6.0704228515625,-1.4328342704050243,9.652829557597636,-0.9696589788869022
1776021880335484000,6.08048388671875,-1.4588108615741133,9.657526775503158,-0.8800165557540952
1776021880345544700,6.090544677734375,-1.4883534746617078,9.66050900618434,-0.7935720518797635
1776021880355605800,6.100605712890625,-1.5384411553889512,9.659522917756437,-0.7051151852697134
1776021880365667000,6.1106669921875,-1.6180184038423,9.652491119423509,-0.6179007930014282
1776021880375729200,6.120729248046875,-1.7259554853394627,9.638709846830368,-0.5354855446431785
1776021880385790200,6.130790283203125,-1.8456328351214526,9.620812371090054,-0.45166090441104023
1776021880395851000,6.14085107421875,-1.9560629024781286,9.603004327198862,-0.3556975346283987
1776021880405911800,6.150911865234375,-2.0410383567132055,9.588840777289867,-0.24225948109477757
1776021880415972900,6.160972900390625,-2.09884099573195,9.578766542521118,-0.11166061379862949
1776021880426035000,6.171034912109375,-2.139528541559726,9.570366378444433,0.02955147681406233
1776021880436096000,6.181095947265625,-2.1716418819181618,9.561716038998961,0.16717391803748904
1776021880446157000,6.191156982421875,-2.199559524152428,9.552297053268552,0.29317139248540625
1776021880456218000,6.201218017578125,-2.2271596248701213,9.54164881800413,0.4087595184586942
1776021880466279000,6.21127880859375,-2.2647337148524818,9.527614447432756,0.5156785820197314
1776021880476340000,6.221340087890625,-2.3244873418085277,9.507341474732756,0.6145101276498287
1776021880486402000,6.231402099609375,-2.4165922095321117,9.478112457638979,0.7041640220247208
1776021880496463000,6.241463134765625,-2.537829209846258,9.439214279446006,0.7943790574137121
1776021880506524200,6.251524169921875,-2.6681436889767647,9.394225967684388,0.8943781124532222
1776021880516585200,6.261585205078125,-2.7857375104829667,9.348739058750867,1.005558486720547
1776021880526646000,6.27164599609375,-2.8744784547314044,9.307547801184654,1.130180307167396
1776021880536706800,6.281706787109375,-2.92776989993602,9.274155234670639,1.2603913989886641
1776021880546769200,6.29176904296875,-2.945749501001835,9.250202696675062,1.388059601394087
1776021880556830000,6.301829833984375,-2.9522590290263295,9.229694161653518,1.5057485538378357
1776021880566891000,6.31189111328125,-2.9808479946509,9.202606832763552,1.6115081451654434
1776021880576952000,6.3219521484375,-3.039522886459529,9.166447139623761,1.705265602401644
1776021880587013000,6.33201318359375,-3.1340307236716147,9.118671827492117,1.7883143263578414
1776021880597074000,6.342073974609375,-3.262309313060343,9.057461864247918,1.8681816437989471
1776021880607136000,6.352135986328125,-3.4076410363197325,8.987548954588174,1.9448209391042588
1776021880617197000,6.362197021484375,-3.5509944452434774,8.914788254281879,2.021728968348354
1776021880627258000,6.372258056640625,-3.6767096138849853,8.844225356280804,2.1052001555003224
1776021880637319200,6.382319091796875,-3.777620303876698,8.779940223374963,2.1937689580522477
1776021880647380200,6.392380126953125,-3.850366391135752,8.72478006168902,2.28544829384014
1776021880657441000,6.40244091796875,-3.8927737464934586,8.678653101286292,2.3869820841662586
1776021880667503000,6.412503173828125,-3.936927068735659,8.63069015762806,2.4863977132946253
1776021880677564200,6.422564208984375,-3.9985982197508214,8.574138249322772,2.5818118516966697
1776021880687625000,6.432625,-4.064157902637124,8.514487790480256,2.6751652581766248
1776021880697686000,6.44268603515625,-4.114311634337902,8.461593235638738,2.764825947618484
1776021880707747000,6.4527470703125,-4.168575139445066,8.408077334028482,2.8456267465174196
1776021880717808000,6.46280810546875,-4.201599457168578,8.361356499385833,2.9333699119001624
1776021880727870000,6.472869873046875,-4.19528399041146,8.332674010258913,3.0226664442047473
1776021880737931000,6.482930908203125,-4.203868571144342,8.29882668571472,3.1027979655399918
1776021880747992000,6.492991943359375,-4.248357408951223,8.250223690587282,3.1710645692974326
1776021880758053000,6.50305322265625,-4.319740975685417,8.192379988905786,3.224146171143651
1776021880768114200,6.5131142578125,-4.386471455916762,8.134462052944302,3.2802108804538843
1776021880778175200,6.52317529296875,-4.434230693696439,8.08724437469542,3.3323359122276304
1776021880788237000,6.533237060546875,-4.506502441442013,8.03049314442575,3.372389397935569
1776021880798298000,6.543298095703125,-4.575488299384713,7.976179954957962,3.4082004237681627
1776021880808359200,6.553359130859375,-4.602774073456228,7.938451405066251,3.4591678099393843
1776021880818420000,6.563419921875,-4.635896298596263,7.900889443913102,3.5006866920247672
1776021880828481000,6.57348095703125,-4.680719775184989,7.8543936501979825,3.5453844964072108
1776021880838542000,6.5835419921875,-4.71716792987734,7.812050884509087,3.590345335640013
1776021880848604000,6.59360400390625,-4.766742692646384,7.765800589987635,3.6250378788366913
1776021880858665000,6.6036650390625,-4.832921384213864,7.71422296296358,3.647467152787745
1776021880868726000,6.61372607421875,-4.898267132088542,7.666793103268742,3.6602792880877852
1776021880878787000,6.623787109375,-4.9404813029617065,7.630870141494274,3.6785648863628504
1776021880888848100,6.63384814453125,-4.951369192200898,7.616677365490793,3.693311204595864
1776021880898909200,6.6439091796875,-5.004871065285801,7.583727282047271,3.689000355659425
1776021880908970200,6.65397021484375,-5.05679531379044,7.558453140059113,3.670012162072956
1776021880919032000,6.664031982421875,-5.107870836511254,7.535964244875311,3.645447045136988
1776021880929093000,6.674093017578125,-5.154983300819993,7.517841728207468,3.6164334243595597
1776021880939154200,6.684154296875,-5.1982186314344405,7.504554376611113,3.5819802428767082
1776021880949215000,6.694215087890625,-5.232192212706804,7.498764102771878,3.5444442929476496
1776021880959276000,6.704276123046875,-5.248950455284119,7.503811449289321,3.5088045320287344
1776021880969337000,6.714337158203125,-5.251103833925724,7.517719563132524,3.4756568801864978
1776021880979399000,6.72439892578125,-5.237997099593281,7.53727357390821,3.4530104563534256
1776021880989460000,6.7344599609375,-5.20167023319304,7.566189871791004,3.4446763432502743
1776021880999521000,6.74452099609375,-5.1477019116401665,7.600056485557555,3.451185579013824
1776021881009582000,6.75458203125,-5.084878083458542,7.63235073544085,3.472985907411575
1776021881019643100,6.76464306640625,-5.020188461405039,7.659792869117855,3.50651905144006
1776021881029704200,6.7747041015625,-4.962307934844493,7.679183798286318,3.546267708982527
1776021881039766000,6.78476611328125,-4.92055787435174,7.689827941897511,3.5812066281557082
1776021881049827000,6.7948271484375,-4.879212595267593,7.6981877739638085,3.6196103008300065
1776021881059888000,6.80488818359375,-4.833171267321705,7.707067245990038,3.662234513808787
1776021881069949200,6.81494921875,-4.80750871053785,7.704030654773115,3.7021810320109125
1776021881080010000,6.825010009765625,-4.822855040490627,7.67235482904911,3.7477225937411185
1776021881090071000,6.835071044921875,-4.856920099438726,7.626016856244206,3.7979718947708605
1776021881100132900,6.8451328125,-4.875345690706372,7.59519852413237,3.8359284081995484
1776021881110194000,6.85519384765625,-4.918508540606498,7.558286551320553,3.853694951036572
1776021881120255000,6.8652548828125,-4.995769474941492,7.508790991267562,3.8510707400128243
1776021881130316000,6.87531591796875,-5.086273921731114,7.454152223107219,3.838727099007368
1776021881140377000,6.885377197265625,-5.184858799123764,7.3958765597492455,3.8195065579697487
1776021881150438100,6.895438232421875,-5.2978667541444295,7.32641431646645,3.798243112927675
1776021881160500000,6.9055,-5.416207302364707,7.248581135201453,3.7806291303038595
1776021881170561000,6.91556103515625,-5.52487459783256,7.182941080555319,3.748533325602114
1776021881180622000,6.9256220703125,-5.614837777352332,7.155750291290879,3.6659549956366417
1776021881190683100,6.93568310546875,-5.686860226511955,7.175262801012396,3.51363414414227
1776021881200744200,6.945744140625,-5.734029973965883,7.2312202505558725,3.316735607513785
1776021881210805000,6.955804931640625,-5.740800491014123,7.315928578287362,3.113002840951085
1776021881220867000,6.9658671875,-5.700941943356394,7.429841957715153,2.9098280005320905
1776021881230928000,6.975927978515625,-5.606317201766371,7.572921225872635,2.718542335349321
1776021881240989000,6.985989013671875,-5.446852615997195,7.721904749637842,2.6219036235883832
1776021881251050000,6.996050048828125,-5.190744350031018,7.82509975117445,2.8274323336571454
1776021881261111000,7.006111083984375,-4.861900810460746,7.9513599864780895,3.0509321692243216
1776021881271172000,7.016172119140625,-4.64394721084386,8.084882321739196,3.0395445137694477
1776021881281234000,7.02623388671875,-4.695126486200094,8.034858938419818,3.093093733127415
1776021881291295000,7.036294921875,-4.950202486509085,7.784442162093519,3.326911549091339
1776021881301356000,7.04635595703125,-5.229854125148058,7.539723305147886,3.459997831022739
1776021881311417000,7.0564169921875,-5.416144758522511,7.420978267779946,3.4299893539890647
1776021881321478100,7.06647802734375,-5.560322927832603,7.376901810166239,3.2915818770349023
1776021881331539200,7.076539306640625,-5.620276169013977,7.376469263967871,3.1891362325608728
1776021881341601000,7.08660107421875,-5.577623606723547,7.437707284262776,3.121057844851911
1776021881351662000,7.096662109375,-5.483066669672727,7.529449163892865,3.0681843327984213
1776021881361723000,7.106722900390625,-5.403682751834392,7.590619964170456,3.0582787325948475
1776021881371783000,7.116782958984375,-5.3603205799698825,7.616388611677289,3.0705016698300835
1776021881381844000,7.126843994140625,-5.32345419986546,7.640375636464357,3.0750425281301137
1776021881391905000,7.136905029296875,-5.2835751939415925,7.661860907563566,3.09032426841408
1776021881401967000,7.146967041015625,-5.2474353745460505,7.673444377851486,3.1229885206535455
1776021881412028200,7.157028076171875,-5.224135162979364,7.672026327747106,3.1652497455388304
1776021881422089200,7.167089111328125,-5.221989967644214,7.654175029236078,3.211667505581677
1776021881432150000,7.17714990234375,-5.239135163712501,7.6256217194467775,3.251421716082096
1776021881442211000,7.187211181640625,-5.28354362975955,7.5822309060096735,3.280903538893163
1776021881452272000,7.197272216796875,-5.3335506464660165,7.534431043958664,3.3099799957737326
1776021881462334200,7.207334228515625,-5.386534633156657,7.495258140477538,3.3131162479728458
1776021881472395300,7.217395263671875,-5.469736647978425,7.443584651863574,3.29323695076555
1776021881482456300,7.227456298828125,-5.594706843471527,7.360510062813758,3.2699419998958703
1776021881492517000,7.23751708984375,-5.744592869034409,7.250918053716421,3.2548762404501437
1776021881502578000,7.247577880859375,-5.913482870274782,7.113167871627211,3.2563682325735686
1776021881512639000,7.257638916015625,-6.109093705180287,6.9394543957531445,3.2700662107974288
1776021881522701000,7.267701171875,-6.340300754123926,6.721340052616596,3.2855075255572794
1776021881532762000,7.27776220703125,-6.6342474600970744,6.440639197185635,3.267307559739053
1776021881542823200,7.2878232421875,-7.008299383920431,6.079151571381091,3.177740686060488
1776021881552884200,7.29788427734375,-7.433575299024581,5.645622791716456,3.0065397775292393
1776021881562945000,7.307945068359375,-7.829539779448509,5.199969859015941,2.7980355587810277
1776021881573006000,7.318006103515625,-8.12385181160271,4.824946167550981,2.625512169474363
1776021881583068200,7.328068115234375,-8.300617076262832,4.569381506942213,2.528022393842041
1776021881593129200,7.338129150390625,-8.376796645101905,4.458317379465699,2.4744834036171435
1776021881603190300,7.348190185546875,-8.37141670562923,4.487143076455593,2.44035112465173
1776021881613251300,7.358251220703125,-8.30747936324775,4.616921549013257,2.416652853678167
1776021881623312100,7.36831201171875,-8.211392147889732,4.800473697334528,2.3872309443607924
1776021881633373000,7.378373046875,-8.08537974986732,5.022968447512388,2.359406971759349
1776021881643434000,7.38843408203125,-7.927303403586149,5.284999673786759,2.323149371203035
1776021881653496000,7.39849609375,-7.73736944527328,5.5830988232642405,2.2655016304850575
1776021881663557000,7.40855712890625,-7.506945071139931,5.9091030477553605,2.213292573689669
1776021881673618200,7.4186181640625,-7.13750794763565,6.227427239137888,2.5388012697488067
1776021881683679000,7.428678955078125,-6.702575730913877,6.457038543322682,3.09071531355828
1776021881693740000,7.438739990234375,-6.486824025255442,6.6875096792072055,3.060836600384116
1776021881703801000,7.448801025390625,-6.492860967332124,6.6489096071779725,3.1313179575815795
1776021881713863200,7.45886328125,-6.928779857003688,6.191101541781425,3.1357062556684014
1776021881723924200,7.46892431640625,-7.443142753314971,5.668416222804784,2.9392282825395464
1776021881733985300,7.4789853515625,-7.82489399946928,5.282803625047206,2.652055308485031
1776021881744046300,7.48904638671875,-8.042137404990196,5.0309237904310224,2.4868089244440195
1776021881754107100,7.499107177734375,-8.068100698286294,4.964910226297378,2.534915660487115
1776021881764168000,7.50916796875,-7.94723735359013,5.081670811849833,2.6811238743200896
1776021881774230300,7.519230224609375,-7.869042353275418,5.184396442309022,2.7148823515370486
1776021881784291000,7.529291015625,-7.8465774234890935,5.220883467707037,2.709978797404468
1776021881794352000,7.53935205078125,-7.846016866996884,5.199193613946438,2.7529604455187915
1776021881804413200,7.5494130859375,-7.88988991099298,5.125421106249093,2.7658763334542513
1776021881814474000,7.559473876953125,-7.949522834178805,5.041995804065466,2.7484099426075814
1776021881824535000,7.56953515625,-7.998650145441293,4.9782408325135705,2.7219655877962707
1776021881834597000,7.57959716796875,-8.021760387393831,4.9457086822211735,2.7132465670287607
1776021881844658200,7.589658203125,-8.018841285076737,4.9418426544427865,2.7288755133152005
1776021881854719200,7.59971923828125,-8.004343388646841,4.948917122873664,2.758457873891294
1776021881864780300,7.6097802734375,-7.989322929647565,4.956031338793039,2.78906080968678
1776021881874841000,7.619841064453125,-7.984595316603779,4.952005152016878,2.8096748509094116
1776021881884902100,7.629902099609375,-7.991324917119741,4.934352590948343,2.8215716249302027
1776021881894964200,7.639964111328125,-7.983641961401701,4.9308185716032975,2.849362133653462
1776021881905025000,7.65002490234375,-7.978473034331202,4.9275534323275085,2.8694191255152224
1776021881915086000,7.660086181640625,-7.963764125499129,4.935992759370803,2.895655390533805
1776021881925147100,7.670147216796875,-7.938594612929225,4.958045016703009,2.9269261425882576
1776021881935208200,7.680208251953125,-7.898522130259871,4.993354230493307,2.9749200659066437
1776021881945269000,7.69026904296875,-7.8360092677235595,5.049244460019469,3.0450729218021033
1776021881955330000,7.700330078125,-7.78865656491816,5.09379730297327,3.091996877801418
1776021881965392100,7.71039208984375,-7.744165096762776,5.13441689813137,3.136248107460141
1776021881975453200,7.720453125,-7.706144285926222,5.168694430786371,3.1733754765883084
1776021881985514200,7.73051416015625,-7.675093898624182,5.196474418115615,3.2031188729450104
1776021881995575300,7.7405751953125,-7.6530065699785945,5.217736401852965,3.2213509874671695
1776021882005636000,7.750635986328125,-7.6403908340334885,5.230730323460698,3.2302111702710388
1776021882015697200,7.760697265625,-7.631989500913024,5.239959339576959,3.235111509533226
1776021882025759200,7.77075927734375,-7.626017440766096,5.247109211331606,3.2376059566974638
1776021882035820000,7.780820068359375,-7.623288308063149,5.249772293061017,3.2397157884582874
1776021882045881000,7.790881103515625,-7.621810636726021,5.251116108885407,3.241012842531502
1776021882055942100,7.800942138671875,-7.620000372433662,5.25335015154779,3.2416502636522053
1776021882066003200,7.811003173828125,-7.616724711763858,5.255912110990286,3.2451933430865405
1776021882076064000,7.82106396484375,-7.61026866749227,5.260289595422148,3.2532366565495727
1776021882086126000,7.8311259765625,-7.600769017741084,5.266728104037046,3.265006297059357
1776021882096187100,7.841187255859375,-7.589597050863504,5.274771709761024,3.277983559793234
1776021882106248200,7.851248291015625,-7.575235348033905,5.285718635711073,3.29353505692929
1776021882116309200,7.861309326171875,-7.558558353999256,5.298513819876313,3.31124343983829
1776021882126370300,7.871370361328125,-7.540084539675712,5.3138469980865715,3.328744609737396
1776021882136431000,7.88143115234375,-7.521782574787736,5.329987401026487,3.3443107199206947
1776021882146492200,7.8914921875,-7.507994287931918,5.343085367530584,3.354377648165822
1776021882156554200,7.90155419921875,-7.502406843188405,5.3499307033807035,3.3559669631838798
1776021882166615000,7.911614990234375,-7.502543621310592,5.352075898715853,3.3522403438761827
1776021882176676000,7.921676025390625,-7.505635742107033,5.350688243749738,3.347530851010978
1776021882186737200,7.931737060546875,-7.511036139845848,5.3467561649978155,3.3416946922034025
1776021882196798200,7.941798095703125,-7.5189213401377195,5.340950693589448,3.333235491415858
1776021882206859000,7.95185888671875,-7.525885918453335,5.337109215730428,3.323656638948619
1776021882216921000,7.961921142578125,-7.527899596363306,5.337440055119991,3.3185610693752765
1776021882226982100,7.971982177734375,-7.524016032928228,5.343031591516733,3.318371099761128
1776021882237043200,7.982043212890625,-7.515689518609642,5.353576950928568,3.3202412775471806
1776021882247104300,7.992104248046875,-7.504248671662807,5.367897152704,3.322997005996108
1776021882257165300,8.002165283203125,-7.491613646495342,5.384577653869986,3.3245196855187413
1776021882267226000,8.01222607421875,-7.479030059254169,5.401618805041909,3.3252076677829026
1776021882277287000,8.022286865234374,-7.468830736801028,5.415569588983058,3.325440015234053
1776021882287349200,8.032349365234374,-7.464606397104263,5.4221887148618695,3.3241409153342243
1776021882297410000,8.04241015625,-7.470452785044908,5.416783640947938,3.319815453350544
1776021882307471000,8.05247119140625,-7.486186360749602,5.400469635006785,3.3109403652384874
1776021882317532200,8.0625322265625,-7.505610023143887,5.37867632087171,3.3024308955684303
1776021882327593200,8.07259326171875,-7.523683439972996,5.356901126915216,3.2966938132211565
1776021882337654000,8.082654052734375,-7.53611738961041,5.339193036267161,3.297020268696546
1776021882347716000,8.092716064453125,-7.542983183726668,5.32817246055901,3.2991461748093363
1776021882357777200,8.102777099609375,-7.542053209400176,5.324063271674514,3.3078947139322756
1776021882367838500,8.11283837890625,-7.5390516894966355,5.322087587687373,3.3179011441618202
1776021882377899500,8.1228994140625,-7.540601257026195,5.317068882742523,3.3224244668051597
1776021882387960300,8.132960205078126,-7.548377736246586,5.304234535610676,3.32527751814872
1776021882398021400,8.143021484375,-7.560339976719021,5.28865410464108,3.32291868006289
1776021882408082400,8.15308251953125,-7.573591672480106,5.276837994641065,3.3115070592105385
1776021882418144500,8.16314453125,-7.583020010560751,5.265354477596283,3.3082059718385337
1776021882428205600,8.17320556640625,-7.59027568077743,5.256018493974208,3.306414412246644
1776021882438266600,8.1832666015625,-7.596055433222651,5.24769782487452,3.3063559600576755
1776021882448327400,8.193327392578125,-7.604723308324814,5.236163454425335,3.3047181297227737
1776021882458388200,8.20338818359375,-7.620453961420059,5.219972782602906,3.2940786622866987
1776021882468449300,8.21344921875,-7.641932802778482,5.193636564341187,3.2859377336680886
1776021882478511400,8.223511474609374,-7.666385106989741,5.1594829503268,3.2827824845075604
1776021882488572400,8.233572509765626,-7.694349803236126,5.130324660381675,3.2629946649760004
1776021882498633500,8.243633544921876,-7.725093901067972,5.094751242697239,3.2460473295673724
1776021882508694500,8.253694580078125,-7.756239565438031,5.055550282165408,3.233038210390508
1776021882518755300,8.26375537109375,-7.789081512331962,5.021013221791386,3.2078058617174623
1776021882528816400,8.27381640625,-7.823824324411153,4.980011933839321,3.1871044344723223
1776021882538877400,8.28387744140625,-7.859751962360739,4.9315901404976845,3.1739728579595683
1776021882548939500,8.293939453125,-7.894170949313044,4.8848593689829105,3.1607904280424117
1776021882559000600,8.30400048828125,-7.927530198079348,4.840518999736011,3.1454771235764025
1776021882569061600,8.3140615234375,-7.960075792375206,4.798249883805215,3.127997580987215
1776021882579122400,8.324122314453126,-7.992230926048755,4.760729715967178,3.103236941479146
1776021882589183200,8.334183349609376,-8.020665577894448,4.717937745206058,3.0952167166307567
1776021882599244300,8.344244384765625,-8.043534996828436,4.681837965559959,3.0906828725934026
1776021882609305300,8.354305419921875,-8.063661254534125,4.6503664302363985,3.085749215583503
1776021882619367400,8.364367431640625,-8.080611220291257,4.623078902599215,3.082408672983944
1776021882629428500,8.374428466796875,-8.095856135696172,4.598754608681798,3.078790774747729
1776021882639489500,8.384489501953125,-8.109147578945755,4.578038568389416,3.074682462646067
1776021882649550300,8.39455029296875,-8.120318376779556,4.561616425898671,3.0696029674246907
1776021882659611400,8.404611328125,-8.129292541351914,4.550311772552132,3.062620853452384
1776021882669672400,8.41467236328125,-8.136352396735548,4.543800783222913,3.0535259851098058
1776021882679734500,8.424734619140626,-8.143262029993533,4.5387920151501895,3.042537558105588
1776021882689795600,8.434795654296876,-8.151639397716522,4.532919908246398,3.028828766226768
1776021882699856600,8.444856689453125,-8.16068896561265,4.527095147615671,3.013130261835456
1776021882709917200,8.454917236328125,-8.167729531773924,4.525569837744534,2.996296908195317
1776021882719978200,8.464978271484375,-8.171221465542912,4.529442879785597,2.9808845272690054
1776021882730039300,8.475039306640625,-8.173206501880287,4.5354587790742515,2.966258620545268
1776021882740100400,8.485100341796874,-8.174935517629981,4.541701472856104,2.951909192675352
1776021882750162400,8.495162353515624,-8.17698543589711,4.546697089186311,2.938509028354287
1776021882760223500,8.505223388671874,-8.17795691127777,4.551760217794776,2.9279481791123745
1776021882770284300,8.5152841796875,-8.175847371777891,4.5594554484725,2.9218603836312886
1776021882780345300,8.525345458984376,-8.171943350076674,4.5679356920480725,2.919536324597895
1776021882790406400,8.535406494140625,-8.166387469515204,4.576461236070096,2.921729450727999
1776021882800467500,8.545467529296875,-8.157955156734586,4.587515714047849,2.9279429184153676
1776021882810528500,8.555528564453125,-8.14751851839423,4.601012032219767,2.9358143824428318
1776021882820590600,8.565590576171875,-8.136511971211434,4.614578785279393,2.945032877165079
1776021882830651600,8.575651611328125,-8.125164647766947,4.628328785951435,2.9547692582815883
1776021882840712200,8.585712158203124,-8.11195562210381,4.644851173946261,2.965116757033765
1776021882850773200,8.595773193359374,-8.09649326455593,4.664560667544603,2.976417318727076
1776021882860834300,8.605834228515626,-8.079331117352842,4.686641566449404,2.9883418575376273
1776021882870895400,8.615895263671876,-8.062256063911319,4.707632039768994,3.0014351478666064
1776021882880956400,8.625956298828125,-8.044282015803455,4.728756660862267,3.016418197464943
1776021882891018500,8.6360185546875,-8.02079358818829,4.755084988078475,3.0375027788087725
1776021882901079300,8.646079345703125,-7.988368405401706,4.790388941171765,3.0673312231004237
1776021882911140400,8.656140380859375,-7.9489786442995065,4.831369478596747,3.105155926842987
1776021882921201400,8.666201416015625,-7.908664169567823,4.870588851568103,3.1465503057658673
1776021882931262500,8.676262451171874,-7.870511256784201,4.906556821528077,3.186084736035764
1776021882941323500,8.686323486328124,-7.832502136385441,4.945318806120753,3.21964389128834
1776021882951385600,8.696385498046874,-7.79044695546627,4.991517078194022,3.2502418586477635
1776021882961446400,8.7064462890625,-7.747936431995034,5.0411429866284125,3.2751708404600617
1776021882971507200,8.716507080078125,-7.710393760064243,5.087711845579743,3.291715440286696
1776021882981568300,8.726568359375,-7.676144284459948,5.13301872177124,3.3014106126099825
1776021882991629300,8.73662939453125,-7.64219759119451,5.179700977969169,3.3072494017660614
1776021883001690400,8.7466904296875,-7.608952324196696,5.225906264305115,3.311213629221916
1776021883011751400,8.75675146484375,-7.578889778888225,5.2665469022512434,3.3157664702206846
1776021883021813500,8.7668134765625,-7.554885802966356,5.300139959773421,3.3170173470646143
1776021883031874300,8.776874267578124,-7.534861252069473,5.33296729362011,3.309941709589958
1776021883041935400,8.786935302734374,-7.511966698694229,5.370494767981767,3.3012931237101553
1776021883051996400,8.796996337890626,-7.485323021918535,5.414285978913306,3.29026261112988
1776021883062057500,8.807057373046876,-7.455176305457949,5.464594608914852,3.2755034334152935
1776021883072118500,8.817118408203125,-7.424749018490314,5.516843267068267,3.256981103774905
1776021883082180600,8.8271806640625,-7.398604523408412,5.567149558982253,3.2307711422413585
1776021883092241400,8.837241455078125,-7.377889652159809,5.612537099194526,3.1994623962640762
1776021883102302200,8.84730224609375,-7.361790750274062,5.6522202902853484,3.1665158199518917
1776021883112363300,8.85736328125,-7.346111535105109,5.689996770972013,3.1351170576035976
1776021883122424300,8.86742431640625,-7.329163907435536,5.727821182453632,3.1057711361318825
1776021883132485400,8.8774853515625,-7.311607792478799,5.765225907218456,3.077815792235732
1776021883142546400,8.88754638671875,-7.292422030493617,5.801636360248923,3.054829761184752
1776021883152608500,8.8976083984375,-7.275536362144351,5.833417399913072,3.034501551166177
1776021883162669300,8.90766943359375,-7.264722122663259,5.857392149740457,3.014159604883194
1776021883172730400,8.91773046875,-7.260218381503224,5.875706389588117,2.9892621872529386
1776021883182791400,8.92779150390625,-7.258727850684523,5.892520746266841,2.959637156578898
1776021883192852500,8.9378525390625,-7.257755206260085,5.910401270872354,2.9261788313522934
1776021883202913500,8.94791357421875,-7.258786302873492,5.927552312159538,2.8886884741306305
1776021883212975600,8.9579755859375,-7.263575290715694,5.941831012880802,2.8470179086148737
1776021883223036400,8.968036376953124,-7.273651279050111,5.951767300483584,2.8001524048045274
1776021883233097200,8.97809716796875,-7.287367085191607,5.955995147311687,2.7551404199063776
1776021883243158300,8.988158203125,-7.301258832421898,5.9552826151281595,2.7196716316401957
1776021883253219300,8.99821923828125,-7.3124354754745955,5.953741230905056,2.6928873773500324
1776021883263280400,9.0082802734375,-7.317914199146628,5.954876372414827,2.6754393989428875
1776021883273341400,9.018341552734375,-7.31841338084042,5.958568797191977,2.6658345352515576
1776021883283403500,9.028403564453125,-7.316482705038785,5.9629053650915615,2.661433085422218
1776021883293464300,9.03846435546875,-7.3130644210278986,5.967747544425726,2.65997353426367
1776021883303525400,9.048525390625,-7.308494044372439,5.972611935591697,2.6616163330346345
1776021883313586400,9.05858642578125,-7.30356827840805,5.976363981601596,2.666711902607977
1776021883323647500,9.0686474609375,-7.298478261792659,5.978766366568207,2.6752494293287397
1776021883333708500,9.07870849609375,-7.2923051261156795,5.979652501752972,2.690062090796232
1776021883343770600,9.0887705078125,-7.285996381360292,5.978057926037907,2.710621479222178
1776021883353831400,9.09883154296875,-7.279598789277673,5.973785071024298,2.7371006130859254
1776021883363892200,9.108892333984375,-7.27320528884828,5.967276419782638,2.768118851684034
1776021883373953300,9.118953369140625,-7.266188103562593,5.95981324429512,2.8024124586910006
1776021883384014300,9.129014404296875,-7.25766986606419,5.952220304948091,2.8403678030759094
1776021883394075400,9.139075439453125,-7.245944941478967,5.945509409132599,2.884022528146207
1776021883404136400,9.149136474609374,-7.232457683396339,5.938543077251315,2.931833788374066
1776021883414198300,9.1591982421875,-7.220193829628824,5.929459607085585,2.9800492454886434
1776021883424259300,9.16925927734375,-7.210816344952583,5.917450604861974,3.026266806784272
1776021883434320400,9.1793203125,-7.205613515612483,5.901740410032868,3.0690359811916945
1776021883444381400,9.18938134765625,-7.205361586678028,5.881264023715257,3.1086785480111834
1776021883454442200,9.199442138671875,-7.210286768120527,5.856442886191606,3.1439182036966082
1776021883464503300,9.20950341796875,-7.219619829133152,5.8285132612586015,3.174257227858901
1776021883474565400,9.2195654296875,-7.231455228355527,5.79914278986752,3.2009964739635586
1776021883484626200,9.229626220703125,-7.24192869157493,5.771076971334218,3.227928320030868
1776021883494687200,9.239687255859375,-7.25211281645894,5.743422071689367,3.2542820739492773
1776021883504748300,9.249748291015624,-7.263076109021902,5.714930721220374,3.279889101153612
1776021883514809300,9.259809326171874,-7.274667762616276,5.6858881666094065,3.3045828129053114
1776021883524870400,9.269870361328126,-7.287602062991261,5.656205560529232,3.326948666231334
1776021883534931500,9.279931396484375,-7.301021516534686,5.626262257686257,3.348229939191043
1776021883544993300,9.2899931640625,-7.314360306057334,5.596318954843283,3.369232687470317
1776021883555054300,9.300054443359375,-7.328508073875308,5.565740276706219,3.3890839276269076
1776021883565115400,9.310115478515625,-7.344127667811512,5.534695150101185,3.4060701337411996
1776021883575176400,9.320176513671875,-7.361966106840968,5.502908265218139,3.419040674473345
1776021883585237200,9.3302373046875,-7.382857503700256,5.470083269459009,3.426656994695961
1776021883595298300,9.34029833984375,-7.404245744165777,5.436785395491123,3.433494731761515
1776021883605360400,9.3503603515625,-7.425457459020614,5.402178777012229,3.442299969507754
1776021883615421200,9.360421142578126,-7.447516146093607,5.365470802339911,3.452045118452608
1776021883625482200,9.370482177734376,-7.468985050579905,5.328226236572862,3.4633287290111183
1776021883635543300,9.380543212890625,-7.4872396691948175,5.293421465173363,3.4772578856423495
1776021883645604400,9.390604248046875,-7.5026266234189265,5.261189174610376,3.4929742179512977
1776021883655665400,9.40066552734375,-7.516995340511202,5.230225881069899,3.5085473423972724
1776021883665726500,9.4107265625,-7.532188817989826,5.198755222529172,3.5227073851749298
1776021883675788300,9.420788330078125,-7.550491367399692,5.164719097414612,3.533572478060424
1776021883685849300,9.430849365234375,-7.571111546102165,5.128758726239204,3.541819789662957
1776021883695910400,9.440910400390624,-7.5927277501046655,5.091068170270323,3.5499145410522814
1776021883705971500,9.450971435546874,-7.6144421537846325,5.0522816357582805,3.5588071648210287
1776021883716032300,9.4610322265625,-7.635928593927622,5.013530757081508,3.5675595033362506
1776021883726093300,9.47109326171875,-7.655389081200957,4.976463301447033,3.577738367523253
1776021883736154400,9.481154296875,-7.67254012248814,4.941355163186788,3.589640402241051
1776021883746216200,9.49121630859375,-7.6879621480256315,4.907997667986154,3.602385609784722
1776021883756277200,9.50127734375,-7.700354596608877,4.877946228593587,3.6167063960820434
1776021883766338300,9.51133837890625,-7.709059881111979,4.85182306856066,3.633262686346471
1776021883776399400,9.5213994140625,-7.715378562739491,4.828369127736986,3.651050856493413
1776021883786460400,9.53146044921875,-7.72021138972342,4.807310265356302,3.6685818370088934
1776021883796521500,9.541521484375,-7.723736641240119,4.787589081320166,3.686904552423954
1776021883806583300,9.551583251953126,-7.725845011696219,4.769379178629816,3.706038876482844
1776021883816644400,9.561644287109376,-7.726012769478559,4.753507948020101,3.726027771544456
1776021883826705400,9.571705322265625,-7.724727405843138,4.738740294738114,3.747440561929345
1776021883836766500,9.581766357421875,-7.723582911983132,4.724071133394539,3.7682632774665947
1776021883846827300,9.5918271484375,-7.722811343088746,4.710191953384876,3.787170807032287
1776021883856888300,9.601888427734375,-7.721240732771157,4.698236434914171,3.805181387758255
1776021883866949400,9.611949462890625,-7.717714312210679,4.689176930145919,3.8234649402067062
1776021883877011200,9.62201123046875,-7.710466825300455,4.68547310719192,3.842579975043237
1776021883887072300,9.632072265625,-7.698622658249735,4.688057278466224,3.8631221200734376
1776021883897133300,9.64213330078125,-7.684561399671435,4.693429326893389,3.8845363717630503
1776021883907194400,9.6521943359375,-7.6713032741695635,4.699240351259708,3.903668942256272
1776021883917255400,9.66225537109375,-7.659400070407986,4.703993391005695,3.9212782487049695
1776021883927316500,9.67231640625,-7.64812815028727,4.7076858157828445,3.938808936959505
1776021883937377500,9.68237744140625,-7.636295089152455,4.711812832584977,3.9567923374176024
1776021883947439400,9.692439453125,-7.623508088293671,4.717112692558765,3.97509196421802
1776021883957500400,9.70250048828125,-7.610036027780175,4.725316457280516,3.99113124487102
1776021883967561500,9.7125615234375,-7.596565720832348,4.73594861819297,4.004169005620479
1776021883977622300,9.722622314453124,-7.583349096384644,4.747105972023308,4.0159918376222254
1776021883987683300,9.732683349609376,-7.569364410173892,4.758550326101481,4.028809818141162
1776021883997744400,9.742744384765626,-7.553595763155817,4.771757890459895,4.042759140777588
1776021884007805400,9.752805419921875,-7.536636445048451,4.785763034936785,4.0578269460499286
1776021884017867300,9.7628671875,-7.51914521202147,4.800463468201458,4.0728845221892
1776021884027928300,9.77292822265625,-7.503064430314302,4.815245734530687,4.085072972632944
1776021884037989400,9.7829892578125,-7.488488792473078,4.830024493728578,4.094360440938175
1776021884048050400,9.793050537109375,-7.474464943295716,4.845019526025653,4.102261131060123
1776021884058111500,9.803111572265625,-7.458773453167081,4.862122928778827,4.110577708506584
1776021884068172500,9.813172607421874,-7.440399592086672,4.882433018618822,4.119791819314658
1776021884078233600,9.823233642578124,-7.419865338101983,4.905950672328472,4.128878212089837
1776021884088295400,9.83329541015625,-7.3991644953787326,4.930613988941907,4.136641539567709
1776021884098356500,9.8433564453125,-7.380286776429414,4.955630356776714,4.140469281162321
1776021884108417300,9.853417236328125,-7.362411512520909,4.983371765661239,4.138995993739366
1776021884118478300,9.863478271484375,-7.3450669944882385,5.01358394857347,4.133322916539013
1776021884128539400,9.873539306640625,-7.328893858322501,5.046366274234652,4.122122015827894
1776021884138600400,9.883600341796875,-7.31591338071823,5.078843479469418,4.105258559310436
1776021884148662300,9.893662353515625,-7.3059396837145085,5.114450799423456,4.078727402998507
1776021884158723300,9.903723388671875,-7.300971832174063,5.152459335300326,4.039598630920052
1776021884168784400,9.913784423828124,-7.295837976416945,5.195892818835377,3.9929736578673123
1776021884178845400,9.923845458984376,-7.288235684719681,5.247995346516371,3.938343949796259
1776021884188906500,9.933906494140626,-7.272461777004599,5.315986932724714,3.8758188123002646
1776021884198967600,9.943967529296875,-7.246411974468827,5.395991028288006,3.8135520334795117
1776021884209028600,9.954028564453125,-7.2073816943287845,5.493608521953225,3.7475732483983037
1776021884219090400,9.96409033203125,-7.161215570959448,5.596039553380012,3.6839813584536314
1776021884229151500,9.9741513671875,-7.116010401576757,5.698056743308902,3.6145445418730375
1776021884239212300,9.98421240234375,-7.075597727167606,5.796711178806424,3.5361619100317356
1776021884249273300,9.9942734375,-7.041551080659032,5.890730355718731,3.4476433763623238
1776021884259334400,10.00433447265625,-7.020719305032491,5.971835690522194,3.349189139612019
1776021884269395500,10.0143955078125,-7.0216907804131505,6.028222179132699,3.244500684647262
1776021884279456300,10.024456298828126,-7.041781966805457,6.071309041187167,3.1181571549743414
1776021884289518300,10.034518310546876,-7.061524193629622,6.110529875463247,2.9944422202393413
1776021884299579400,10.044579345703125,-7.0521537232160565,6.173038061824441,2.886366753184795
1776021884309640400,10.054640380859375,-6.99233492206931,6.275069864800572,2.810894455832243
1776021884319701500,10.064701416015625,-6.855362738615274,6.44756753514409,2.7573995970100165
1776021884329762600,10.074762451171875,-6.6182163627505295,6.706453449130058,2.7190207665160298
1776021884339823400,10.0848232421875,-6.3068994197815655,6.999193701922893,2.721155440457165
1776021884349885400,10.094885498046875,-6.093606213191151,7.179760112431645,2.7366768347159027
1776021884359946500,10.104946533203124,-6.0083805835872885,7.2814441248834125,2.655244167654216
1776021884370007300,10.11500732421875,-5.9347372552275655,7.378585233208537,2.5506410528853536
1776021884380068400,10.125068359375,-5.831061776697635,7.485560922327637,2.4769892489582297
1776021884390129400,10.13512939453125,-5.70550062957406,7.603878674194216,2.408041969460249
1776021884400190500,10.1451904296875,-5.564890381878614,7.72990919239521,2.3347122370943425
1776021884410252300,10.155252197265625,-5.410901597172021,7.858285396939515,2.267130985252559
1776021884420313300,10.165313232421875,-5.254911409515143,7.982775699961185,2.1980855060771107
1776021884430374400,10.17537451171875,-5.112741072896123,8.095320713645219,2.120388080020994
1776021884440435500,10.185435546875,-4.994623812037706,8.190220180523395,2.035780728445947
1776021884450496500,10.19549658203125,-4.912687871628999,8.265085744154453,1.9298329210698604
1776021884460557600,10.2055576171875,-4.864808514600992,8.323575342524052,1.7950256605647503
1776021884470618400,10.215618408203126,-4.8351034044280645,8.370940904811023,1.6490949484989046
1776021884480680400,10.225680419921876,-4.803832067851722,8.416545887166262,1.501782134424895
1776021884490741500,10.235741455078125,-4.7519984202399845,8.470441143482923,1.3566589393496513
1776021884500802300,10.24580224609375,-4.672870522989332,8.533425715184212,1.2309744581073523
1776021884510863400,10.25586328125,-4.5746886734396215,8.59998931441605,1.132598693420738
1776021884520924400,10.26592431640625,-4.471878579567372,8.665603650099039,1.0392284088712185
1776021884530985500,10.2759853515625,-4.374066440112888,8.726018079051375,0.9457955074142664
1776021884541047300,10.28604736328125,-4.28371309223175,8.781089393410086,0.8441932549618184
1776021884551108400,10.2961083984375,-4.193869155177474,8.834558533269167,0.7296769412048161
1776021884561169400,10.30616943359375,-4.098526036185026,8.888139316809177,0.6111029495548457
1776021884571230500,10.31623046875,-3.998180871121585,8.940618861109018,0.5002770878136158
1776021884581291500,10.32629150390625,-3.89881361117959,8.989830343523622,0.39064112997669725
1776021884591352600,10.3363525390625,-3.8072450422897934,9.03334390655756,0.27199487680811435
1776021884601414400,10.346414306640625,-3.723265613354742,9.071289898592234,0.13924259433774278
1776021884611475500,10.356475341796875,-3.6360415034100413,9.107664111265539,-0.007041675268727703
1776021884621536500,10.36653662109375,-3.5423467361465093,9.143272600263357,-0.15079692986272275
1776021884631597300,10.376597412109374,-3.4455808908745644,9.176897221967577,-0.28794414109010247
1776021884641658400,10.386658447265624,-3.3454075752466914,9.208575970301032,-0.42515364043135195
1776021884651719400,10.396719482421876,-3.2482319801300763,9.236414409819245,-0.5549958258749916
1776021884661781200,10.40678125,-3.15513313293308,9.26005422860384,-0.6833178525466471
1776021884671842300,10.41684228515625,-3.052832157626748,9.282816095510125,-0.8245802074752747
1776021884681903400,10.4269033203125,-2.9368220981806514,9.305997649133205,-0.9715351480223238
1776021884691964400,10.43696435546875,-2.8074913693904877,9.32956264911592,-1.1169807069197297
1776021884702025500,10.447025390625,-2.665201498045027,9.353102514657378,-1.2595834436066449
1776021884712086500,10.45708642578125,-2.512371527984738,9.376682712209224,-1.3914732092298567
1776021884722147600,10.467147705078125,-2.351898788086325,9.400175231477618,-1.5085262018576264
1776021884732209400,10.47720947265625,-2.190086470147222,9.421533076804876,-1.615124874357879
1776021884742270500,10.4872705078125,-2.0256405888341367,9.438988653996587,-1.724144052003324
1776021884752331300,10.497331298828126,-1.8498105591975151,9.45076852363944,-1.8524493832685052
1776021884762392300,10.507392333984376,-1.6630488011799751,9.455044885784387,-2.0017000335372983
1776021884772453400,10.517453369140625,-1.470664234844595,9.451684469440579,-2.1617546941541135
1776021884782514400,10.527514404296875,-1.2862617533043026,9.440869060915707,-2.3207537082381546
1776021884792576300,10.537576171875,-1.121675513672456,9.42359585455358,-2.4714494427487255
1776021884802637300,10.54763720703125,-0.9797695270780473,9.401429030930995,-2.6121917923912403
1776021884812698400,10.557698486328125,-0.8605793032258748,9.375382151004672,-2.744447468717396
1776021884822759400,10.567759521484374,-0.7689772704578935,9.345930431070924,-2.86925545938611
1776021884832820500,10.577820556640624,-0.7087848867584019,9.313556686210632,-2.987583440385759
1776021884842881500,10.587881591796876,-0.670185837642476,9.277944105559587,-3.1049951833233234
1776021884852942600,10.597942626953126,-0.6384751598007976,9.238967601433396,-3.2255592528119683
1776021884863004400,10.60800439453125,-0.5983664367742836,9.1966587380141,-3.3516873861685395
1776021884873065500,10.6180654296875,-0.5397258856266737,9.151928200405836,-3.4815649351865052
1776021884883126300,10.628126220703125,-0.45812202671654517,9.106866823408007,-3.6090871532499786
1776021884893187300,10.638187255859375,-0.2646059356005862,9.070357001656294,-3.718736445492506
1776021884903248400,10.648248291015625,-0.0023640957860210617,9.044647390860318,-3.7900849409133195
1776021884913309400,10.658309326171874,0.22240979357445612,9.021030952951312,-3.8395240946039557
1776021884923371300,10.668371337890624,0.36633923055417833,8.991683277913927,-3.896896671642363
1776021884933432300,10.678432373046874,0.3938563291635364,8.95810658700466,-3.9708424900799986
1776021884943493400,10.688493408203126,0.32412911480162293,8.928969339847564,-4.042129026180506
1776021884953554400,10.698554443359376,0.23345018822792915,8.903293046799302,-4.104539305125177
1776021884963615500,10.708615478515625,0.1597115645338781,8.877498680329323,-4.163516979272663
1776021884973676500,10.718676513671875,0.10139462845060042,8.846350093349814,-4.231100276941061
1776021884983738400,10.72873828125,0.042092741017160006,8.807403399839997,-4.312571522447467
1776021884993799400,10.73879931640625,-0.02048144608521834,8.762072558251022,-4.404092452803254
1776021885003860500,10.748860595703125,-0.06327330268190708,8.71347540834248,-4.4990790134429925
1776021885013921300,10.75892138671875,-0.06861784204763825,8.664318286463617,-4.59295819736272
1776021885023982300,10.768982421875,-0.04125300682396628,8.615769651871918,-4.6837154498696325
1776021885034043400,10.77904345703125,0.0014115434453073248,8.568537945097685,-4.769752103595436
1776021885044104400,10.7891044921875,0.043673110110359264,8.525621763435005,-4.845847501282393
1776021885054166300,10.799166259765625,0.07793601145180873,8.492985568246246,-4.902397948282957
1776021885064227300,10.809227294921875,0.10196110322694293,8.47589414819181,-4.93144868620038
1776021885074288400,10.819288330078125,0.12062787370616569,8.470292674922943,-4.94064380004704
1776021885084349400,10.829349365234375,0.14095756329577416,8.467796766453981,-4.944382402053475
1776021885094410500,10.839410400390625,0.16876668538795783,8.464136490380763,-4.949778123617172
1776021885104471600,10.849471435546874,0.2069399833724834,8.457305183055997,-4.959997319814563
1776021885114533400,10.859533447265624,0.2538776391035877,8.447015259709953,-4.975325821849704
1776021885124594400,10.869594482421874,0.3030751477917656,8.434479603263735,-4.993807819479704
1776021885134655500,10.879655517578126,0.34801256961636245,8.421886079150438,-5.0120975094079965
1776021885144716300,10.88971630859375,0.38629013169296084,8.412163726559282,-5.025602887669205
1776021885154777300,10.89977734375,0.42019247436001894,8.4064044323802,-5.0325142744928595
1776021885164838400,10.90983837890625,0.4550159504599869,8.401577450615168,-5.037544085353613
1776021885174899500,10.9198994140625,0.49100138301141555,8.396190496879816,-5.0431443895787
1776021885184961300,10.929961181640625,0.5205790308797732,8.39118289785087,-5.048505624350905
1776021885195022300,10.940022216796875,0.5345799741055816,8.388968728932738,-5.050723300400376
1776021885205083400,10.95008349609375,0.5293526313787326,8.390242402130365,-5.049159119823575
1776021885215144400,10.96014453125,0.5067767154986038,8.393453765392303,-5.046136557132005
1776021885225205500,10.97020556640625,0.4729852858601138,8.396486849477887,-5.044371885547042
1776021885235266600,10.9802666015625,0.4360404702246189,8.398058628839253,-5.045084417730569
1776021885245328400,10.990328369140625,0.4098076027395203,8.398065058580041,-5.047272867685556
1776021885255389400,11.000389404296875,0.40834622495006767,8.397907822191716,-5.047651637870073
1776021885265450500,11.010450439453125,0.43362789265755564,8.397852292612194,-5.045634452828764
1776021885275511300,11.02051123046875,0.47290896922089154,8.397567630451917,-5.042578572389483
1776021885285572400,11.030572265625,0.5081306143255904,8.396398586672545,-5.041102654618024
1776021885295633400,11.04063330078125,0.5263897995177657,8.394837328705192,-5.041827461761236
1776021885305694500,11.050694580078124,0.5248883819788694,8.394164544010161,-5.043101134958863
1776021885315756300,11.06075634765625,0.5062691678352653,8.395710019886494,-5.042433026438951
1776021885325817300,11.0708173828125,0.4758911633694544,8.39983908251524,-5.038511469081044
1776021885335878400,11.08087841796875,0.4421442304598167,8.4064044323802,-5.0306303604424
1776021885345939500,11.090939453125,0.4136695388646796,8.414636838674545,-5.019276607257128
1776021885356000500,11.10100048828125,0.3960078811742365,8.42311357511878,-5.006467979088425
1776021885366061600,11.1110615234375,0.39047666012998666,8.430830433106422,-4.993899589416384
1776021885376123400,11.121123291015625,0.3959420859290287,8.437505673086642,-4.982182263615727
1776021885386184400,11.131184326171875,0.41101807450782507,8.443426295307278,-4.970915604192018
1776021885396245500,11.14124560546875,0.4383317229669541,8.44541542329788,-4.965199564632773
1776021885406306600,11.151306640625,0.4795531930083409,8.44427969726622,-4.96332032675743
1776021885416367600,11.16136767578125,0.5191218178087845,8.445480305227637,-4.957293321552872
1776021885426428400,11.171428466796876,0.537731862265244,8.446991294312477,-4.952731128203869
1776021885436489200,11.1814892578125,0.527386007480882,8.447830667746066,-4.952413148295879
1776021885446551300,11.19155126953125,0.4957104740178212,8.447751757290959,-4.955818572825193
1776021885456612400,11.2016123046875,0.4576549937266856,8.446264149081706,-4.962011582246422
1776021885466673400,11.21167333984375,0.42626949271876363,8.443437401223182,-4.969614458465576
1776021885476734500,11.221734375,0.40964649389367547,8.439519935518502,-4.977659817755222
1776021885486795500,11.23179541015625,0.41002774829622357,8.435541095015406,-4.984368960005044
1776021885496856600,11.241856689453124,0.42381625434774906,8.432173079887033,-4.988913033175468
1776021885506918400,11.25191845703125,0.4449247645564377,8.428957040449976,-4.992506673753261
1776021885516979500,11.2619794921875,0.46364597776979205,8.426810091549157,-4.994425074595212
1776021885527040500,11.27204052734375,0.47136557570379223,8.42631850863993,-4.994533795666694
1776021885537101600,11.2821015625,0.46544966619089245,8.427530222517252,-4.993043264847993
1776021885547162600,11.29216259765625,0.451884374435991,8.42984492920041,-4.990380767640471
1776021885557223400,11.302223388671875,0.4390648960797116,8.432412149339914,-4.987185770991444
1776021885567284200,11.3122841796875,0.43292938899938016,8.434758420205116,-4.983750535845756
1776021885577346300,11.32234619140625,0.4356550876362249,8.436227908235788,-4.981026663839817
1776021885587407400,11.332407470703124,0.44609614642336964,8.436618368858099,-4.979442609518766
1776021885597468400,11.342468505859374,0.46129126786980773,8.436594987982511,-4.978099962738156
1776021885607529500,11.352529541015626,0.4775436432842165,8.43609288367927,-4.977415487605333
1776021885617590500,11.362590576171876,0.491154381616041,8.435036068102717,-4.977884858682751
1776021885627651300,11.3726513671875,0.49907012317664917,8.433679392796755,-4.9793946787238115
1776021885637713400,11.38271337890625,0.4989718139013275,8.432704410284757,-4.981055889934301
1776021885647774500,11.3927744140625,0.48985772940162564,8.432657064011693,-4.982040224796533
1776021885657835500,11.40283544921875,0.4741223270660266,8.434128890129923,-4.981068164893984
1776021885667896600,11.412896484375,0.4570466525699943,8.436810092037916,-4.978123343613744
1776021885677957600,11.42295751953125,0.4448880492752418,8.440207917782663,-4.973463535109162
1776021885688018400,11.433018310546874,0.44134581009112295,8.443912617519498,-4.967489136874676
1776021885698080300,11.443080322265626,0.4477157469818368,8.447221011415124,-4.9612891131907695
1776021885708141300,11.453141357421876,0.46176155226267873,8.449023092401028,-4.9569326715469355
1776021885718202400,11.463202392578125,0.4787073898339644,8.448954118818044,-4.955440971684456
1776021885728263400,11.473263427734375,0.49164939859136936,8.447392276328802,-4.956835640913248
1776021885738324500,11.483324462890625,0.49543121868502343,8.444567866557836,-4.961272746577858
1776021885748385500,11.493385498046875,0.4890691728398204,8.441061904263496,-4.967864399927854
1776021885758446300,11.5034462890625,0.47699729798045004,8.437425593587756,-4.975208332949877
1776021885768508400,11.51350830078125,0.4667545017117634,8.433933075296878,-4.982098676985502
1776021885778569500,11.523569580078124,0.4638918788222596,8.430828679540753,-4.987616563624143
1776021885788630500,11.533630615234374,0.47080512880943715,8.427875674954056,-4.991958976742625
1776021885798691600,11.543691650390626,0.4861456500759348,8.424398354232311,-4.996354581353068
1776021885808752400,11.55375244140625,0.5057194249980151,8.420742169812321,-5.000573660352826
1776021885818813400,11.5638134765625,0.524424856120348,8.41706786521375,-5.004831902319193
1776021885828875300,11.573875244140625,0.538160901332274,8.4139026791811,-5.008693253922462
1776021885838936300,11.583936279296875,0.5441906830158084,8.41205208287835,-5.0111511684685945
1776021885848997400,11.593997314453125,0.5416697497034445,8.412079555407166,-5.011376793918013
1776021885859058400,11.604058349609375,0.5327009188933298,8.413982174158097,-5.009140997689962
1776021885869119500,11.614119384765624,0.5215886828463524,8.41735018928647,-5.004651869577169
1776021885879180500,11.6241806640625,0.5129700537133962,8.421343642836808,-4.998818925639987
1776021885889241300,11.634241455078126,0.5103878917330875,8.424719256749748,-4.993393977981805
1776021885899303400,11.644303466796876,0.5153504095112904,8.426386897701024,-4.990068048429489
1776021885909364500,11.654364501953125,0.525893321237713,8.42579945320189,-4.989960496401786
1776021885919425500,11.664425537109375,0.5374649549573659,8.423118835815787,-4.993251939162612
1776021885929486600,11.674486572265625,0.5462043609257787,8.418760056084395,-4.999650700289011
1776021885939547400,11.68454736328125,0.5510420832805335,8.412826574382185,-5.0091024192452425
1776021885949608400,11.6946083984375,0.5528916566699743,8.40562000400424,-5.020981073087453
1776021885959670300,11.704670166015624,0.5533142659962177,8.397840602174401,-5.033936416250467
1776021885969731300,11.7147314453125,0.5529385645516216,8.39043821696341,-5.046303145870566
1776021885979792400,11.72479248046875,0.5520135221285745,8.384289046683907,-5.0566176191359755
1776021885989853400,11.734853515625,0.5495560825064778,8.379944295477866,-5.064080794623494
1776021885999914500,11.74491455078125,0.545664847221598,8.377799684664607,-5.0680491137325765
1776021886009975600,11.7549755859375,0.5410657193956896,8.378015957763791,-5.068181800201535
1776021886020036400,11.765036376953125,0.5363481893545017,8.380562719637155,-5.064473593333363
1776021886030098400,11.775098388671875,0.5319948895158246,8.385773147761821,-5.056297885662317
1776021886040159500,11.785159423828125,0.5285349948529153,8.393164427056908,-5.0443864985942835
1776021886050220500,11.795220458984375,0.5260937026480212,8.401679741945863,-5.030446820569038
1776021886060281600,11.805281494140624,0.5243738931180909,8.410660920780897,-5.015598211005329
1776021886070342400,11.81534228515625,0.5232736767912283,8.419791737219692,-5.000367324125767
1776021886080403200,11.8254033203125,0.5223036261826753,8.428291270017624,-4.986129539936781
1776021886090464300,11.83546435546875,0.5178344083467498,8.435307286259532,-4.9747173345625395
1776021886100526300,11.8455263671875,0.4653474479254335,8.443986851799487,-4.965172092103958
1776021886110587400,11.85558740234375,0.33574243223853406,8.45571411447227,-4.955661336436868
1776021886120648400,11.8656484375,0.235826580236759,8.462252576330304,-4.950260938698053
1776021886130709500,11.87570947265625,0.14747558515397832,8.473475396612287,-4.934454882279038
1776021886140770600,11.8857705078125,0.103857045641914,8.48898393138945,-4.908842886638641
1776021886150831400,11.895831298828124,0.12247355637177824,8.503281336811185,-4.883603815963864
1776021886160893400,11.9058935546875,0.18385182538758962,8.508721482038498,-4.872191026067734
1776021886170954500,11.91595458984375,0.24511454173233357,8.510054191946983,-4.867164137816429
1776021886181015600,11.926015625,0.2687491546188481,8.513270231384038,-4.8602881145671
1776021886191076600,11.93607666015625,0.24565277679488062,8.51817320099473,-4.8529161244943735
1776021886201137400,11.946137451171875,0.19822985829748213,8.521052555823326,-4.850028878620266
1776021886211198200,11.9561982421875,0.15861540332762525,8.519372639912365,-4.85443295879811
1776021886221259300,11.96625927734375,0.1412764930518344,8.514148183262348,-4.864125208511949
1776021886231321300,11.9763212890625,0.1376180253432132,8.507836515897512,-4.875262104076147
1776021886241382400,11.98638232421875,0.13199172816034405,8.502192372530699,-4.885252459953725
1776021886251443500,11.996443359375,0.11841700185681693,8.49739695494771,-4.89393436358124
1776021886261504500,12.00650439453125,0.10057907428401522,8.493185474732517,-4.9016392388701435
1776021886271565300,12.0165654296875,0.08551625571404584,8.489631581643224,-4.9080800855726
1776021886281626400,12.02662646484375,0.07874954719124361,8.487088326901198,-4.912587918385863
1776021886291687400,12.0366875,0.08173079149173572,8.485991763836145,-4.914433253991604
1776021886301749500,12.04674951171875,0.09255185343925841,8.486900695374608,-4.912670335972309
1776021886311810600,12.056810546875,0.10883807632434181,8.490109136027097,-4.906789461240172
1776021886321871600,12.06687158203125,0.12796635423493571,8.495238900130987,-4.897442956224084
1776021886331932400,12.076932373046875,0.1481947206082288,8.501166536614297,-4.886573479424417
1776021886341993200,12.0869931640625,0.16732529094060883,8.505836866512894,-4.877819971865415
1776021886352054300,12.09705419921875,0.18260657456684856,8.507034551864862,-4.8751826090991495
1776021886362116400,12.107116455078126,0.19357273494033142,8.506368781432508,-4.875919691202045
1776021886372177200,12.11717724609375,0.20182912489846347,8.505393214398621,-4.877288349206745
1776021886382238200,12.12723828125,0.21116783020058646,8.503445587462187,-4.880289869110286
1776021886392299300,12.13729931640625,0.22256770581621677,8.498937170127034,-4.887628249174356
1776021886402360300,12.1473603515625,0.23532601030347866,8.491563426488637,-4.8998316049262876
1776021886412421000,12.157421142578125,0.24812643689941613,8.48307149247527,-4.913889648634195
1776021886422483200,12.167483154296875,0.2603945284506306,8.474708153277636,-4.927668583139777
1776021886432544300,12.177544189453124,0.2712778511125594,8.467225688567757,-4.939927176210284
1776021886442605300,12.187605224609374,0.2811035179477185,8.461405604112148,-4.949342070287466
1776021886452666400,12.197666259765626,0.2908296699311584,8.45675807056725,-4.956715229403972
1776021886462727200,12.20772705078125,0.30106532407300546,8.452126319113374,-4.9640001257151365
1776021886472788000,12.2177880859375,0.31125348581131546,8.447455989214777,-4.971317755252122
1776021886482849000,12.22784912109375,0.3202330937437713,8.44362620179355,-4.977248314344883
1776021886492911000,12.2379111328125,0.32773188853394236,8.441287529712914,-4.980726804110407
1776021886502972200,12.24797216796875,0.33491741612385956,8.440541679781674,-4.981512986052036
1776021886513033200,12.258033203125,0.34320509626939893,8.441273501187563,-4.979707397934794
1776021886523094300,12.26809423828125,0.35377869539503004,8.44314397123456,-4.975795777449012
1776021886533155300,12.2781552734375,0.36580797322168945,8.445946753695607,-4.97016683165133
1776021886543216000,12.288216064453126,0.37639585660099983,8.449470836168526,-4.963380532512068
1776021886553277200,12.298277099609376,0.3824258940128609,8.452925945058464,-4.957030871224403
1776021886563339300,12.30833935546875,0.381958386098966,8.455794193971157,-4.952175832408666
1776021886573400300,12.318400390625,0.3758400858817622,8.457923022693395,-4.9490106463760135
1776021886583461400,12.32846142578125,0.36735860019717365,8.459782971346378,-4.9464650535464285
1776021886593522200,12.338522216796875,0.36041353029962625,8.461800156387687,-4.943525492963195
1776021886603583000,12.3485830078125,0.3579553234925493,8.464206633007526,-4.939581723773479
1776021886613644000,12.35864404296875,0.3597056012259796,8.466617785802484,-4.935321143719554
1776021886623706000,12.3687060546875,0.3629006709402427,8.46878577749133,-4.931368022179603
1776021886633767200,12.37876708984375,0.36465514992475506,8.47025935717523,-4.928702017840743
1776021886643828200,12.388828125,0.3633997065035626,8.470866675418614,-4.9277533388137815
1776021886653889300,12.39888916015625,0.3594157514339313,8.470454002964496,-4.928755209332704
1776021886663950000,12.4089501953125,0.3546316224299371,8.468781685838103,-4.931973002335429
1776021886674011100,12.41901123046875,0.35064547540321944,8.466118019586801,-4.936829210194945
1776021886684072200,12.429072265625,0.3476263102451339,8.462977967995405,-4.9424219156354665
1776021886694134300,12.43913427734375,0.3449150785250589,8.45987357223928,-4.947925773748755
1776021886704195300,12.4491953125,0.34206984516177324,8.45712982648909,-4.952812376746535
1776021886714256100,12.459256103515624,0.3392543858822435,8.455013857248424,-4.956618198770284
1776021886724317200,12.469317138671874,0.3377337156536057,8.453651921245456,-4.959041626524925
1776021886734378000,12.4793779296875,0.33896990638505664,8.453016545951366,-4.960037067303062
1776021886744439000,12.48943896484375,0.34329978881552814,8.453067399355769,-4.959653620943427
1776021886754501000,12.499501220703126,0.34939989578891545,8.454363868907093,-4.95701742722094
1776021886764562200,12.509562255859375,0.35476226307228204,8.457386431598662,-4.95147908231616
1776021886774623200,12.519623291015625,0.3565125773383304,8.46203513418734,-4.9434062504976986
1776021886784684300,12.529684326171875,0.3524323222873732,8.467986736068129,-4.933496266379952
1776021886794745000,12.5397451171875,0.3415960171049461,8.474732703197002,-4.92266390672028
1776021886804806100,12.54980615234375,0.3254950328599661,8.481681499421596,-4.91177309487164
1776021886814867200,12.5598671875,0.3075610245015472,8.488064478456973,-4.9018932136312126
1776021886824929300,12.56992919921875,0.29113044297602025,8.493689917123318,-4.893141751898825
1776021886834990300,12.579990234375,0.27538446444747966,8.498599316474795,-4.8855260161980985
1776021886845051100,12.590051025390625,0.23687172364182768,8.504647364467383,-4.877012162613869
1776021886855112200,12.6001123046875,0.1769009102711454,8.510151807102561,-4.869948507837951
1776021886865173000,12.610173095703125,0.13758049721126445,8.511491531273721,-4.868876494692266
1776021886875234000,12.620234130859375,0.10089484396860934,8.515659756869077,-4.862484455567598
1776021886885295000,12.630295166015625,0.0768154007908888,8.521429572442173,-4.852807403422892
1776021886895357200,12.640357177734375,0.06723473539247643,8.5266592897892,-4.843752867090702
1776021886905418200,12.650418212890624,0.075410639426345,8.531481595379114,-4.835133215044438
1776021886915479300,12.660479248046874,0.09745779132517055,8.53628110461533,-4.826263095368445
1776021886925540000,12.6705400390625,0.12463215004461817,8.540710026973485,-4.81779483449161
1776021886935601200,12.68060107421875,0.14692580578410996,8.544735629227757,-4.810020693358779
1776021886945662200,12.690662109375,0.15850965966451913,8.54756471517384,-4.80462000335902
1776021886955723000,12.700722900390625,0.16181567893996834,8.549146431407332,-4.801695055823028
1776021886965785300,12.710785400390625,0.16376465758327394,8.549918584823608,-4.800256547452509
1776021886975846100,12.72084619140625,0.17106705301851033,8.550085758084059,-4.799703297483921
1776021886985907200,12.7309072265625,0.18689470021482557,8.550335933452844,-4.798666647912562
1776021886995968000,12.740968017578124,0.20820824974263086,8.552128077566623,-4.794592822602391
1776021887006029000,12.751029052734374,0.23114971099952233,8.556066001537442,-4.78651034617275
1776021887016090000,12.761090087890626,0.25595535869309677,8.561714236557483,-4.775134965677559
1776021887026152200,12.771152099609376,0.28411992489313703,8.568622700771689,-4.761130113461613
1776021887036213200,12.781213134765625,0.31303960204310716,8.576354171806573,-4.745370526532828
1776021887046274300,12.7912744140625,0.3363171268539503,8.58406167744398,-4.729815522265434
1776021887056335000,12.801335205078125,0.34765283292587845,8.590717628201842,-4.716894665893912
1776021887066396200,12.811396240234375,0.3453935462243855,8.59501269504726,-4.709230414876342
1776021887076457200,12.821457275390625,0.33282132062744346,8.596272924241424,-4.707836330169439
1776021887086518000,12.83151806640625,0.3188411279287189,8.595447579333186,-4.710309734545648
1776021887096580400,12.841580322265624,0.3093780107956379,8.5930720823735,-4.715272617650032
1776021887106641200,12.85164111328125,0.30529675109768284,8.588667709934711,-4.723553539261221
1776021887116702000,12.861701904296876,0.30661282039862126,8.582527892005443,-4.73461620054543
1776021887126763000,12.871762939453125,0.3158301826097071,8.575011525025964,-4.7476127525016665
1776021887136824000,12.881823974609375,0.3337464726483449,8.565640470090507,-4.763275601057708
1776021887146885000,12.891885009765625,0.3563335675096139,8.555262868461012,-4.780257715518772
1776021887156946200,12.9019462890625,0.37687216887585817,8.547458332189917,-4.792628244531154
1776021887167008300,12.91200830078125,0.38827703119385987,8.544667240166664,-4.796696224622428
1776021887177069300,12.9220693359375,0.3845903055051341,8.546851013946533,-4.793103168566525
1776021887187130000,12.932130126953124,0.3646397331599146,8.55320009071231,-4.783326747700571
1776021887197191200,12.942191162109374,0.3335659649822861,8.562742410561443,-4.768496842837333
1776021887207252200,12.952252197265626,0.29999510102560745,8.574977038234472,-4.748700839999318
1776021887217313000,12.96231298828125,0.27156402937648816,8.589366798114776,-4.724341767029464
1776021887227375400,12.972375244140625,0.2505802415260114,8.605338274228572,-4.696358366082609
1776021887237436200,12.982436279296875,0.23240590333938596,8.622199977180362,-4.666265133374929
