time,seconds_elapsed,z,y,x
1776020494892515000,0.07551513671875,-58.22755432128906,2.988584518432617,-15.088340759277344
1776020494902576000,0.085576171875,-57.897674560546875,3.367887496948242,-15.00048828125
1776020494912637200,0.09563720703125,-57.880950927734375,3.346101760864258,-14.979103088378906
1776020494922697200,0.105697265625,-58.1600341796875,2.9000930786132812,-14.675682067871094
1776020494932758300,0.11575830078125,-58.215087890625,2.7907962799072266,-14.693069458007812
1776020494942818000,0.125818115234375,-58.25006103515625,2.878498077392578,-14.373741149902344
1776020494952879000,0.135879150390625,-58.24440002441406,2.442422866821289,-14.113807678222656
1776020494962940200,0.145940185546875,-58.62440490722656,2.541576385498047,-14.033538818359375
1776020494973000200,0.156000244140625,-58.803131103515625,2.5987548828125,-13.827537536621094
1776020494983061200,0.166061279296875,-58.60545349121094,2.5250167846679688,-13.509880065917969
1776020494993122300,0.176122314453125,-58.23980712890625,2.2813968658447266,-13.298110961914062
1776020495003182000,0.18618212890625,-58.26905822753906,1.9353408813476562,-13.228431701660156
1776020495013243100,0.1962431640625,-58.41313171386719,1.8809185028076172,-13.337570190429688
1776020495023304200,0.20630419921875,-58.29301452636719,1.5940895080566406,-13.399894714355469
1776020495033364200,0.2163642578125,-58.444091796875,1.6815223693847656,-13.106964111328125
1776020495043425300,0.22642529296875,-58.110198974609375,1.3666362762451172,-13.069290161132812
1776020495053485000,0.236485107421875,-58.34141540527344,1.180868148803711,-13.19696044921875
1776020495063546000,0.246546142578125,-58.332916259765625,0.957183837890625,-12.903968811035156
1776020495073607200,0.256607177734375,-58.40513610839844,0.7592868804931641,-12.245338439941406
1776020495083667200,0.266667236328125,-58.77540588378906,0.9135875701904297,-11.700401306152344
1776020495093728300,0.276728271484375,-58.615875244140625,1.0545997619628906,-11.03619384765625
1776020495103789300,0.286789306640625,-58.753570556640625,1.6130142211914062,-10.552444458007812
1776020495113849000,0.29684912109375,-58.62004089355469,2.040498733520508,-9.760284423828125
1776020495123910100,0.30691015625,-58.974456787109375,2.625080108642578,-8.926177978515625
1776020495133970200,0.31697021484375,-58.89915466308594,3.5499439239501953,-7.192802429199219
1776020495144031200,0.32703125,-59.0731201171875,4.701686859130859,-5.459541320800781
1776020495154092300,0.33709228515625,-58.968231201171875,5.838567733764648,-2.8085784912109375
1776020495164152000,0.347152099609375,-58.907257080078125,7.305835723876953,0.0390472412109375
1776020495174213000,0.357213134765625,-58.52815246582031,8.897208213806152,3.0489730834960938
1776020495184274200,0.367274169921875,-57.752838134765625,10.5410737991333,6.0408477783203125
1776020495194334200,0.377334228515625,-57.52702331542969,12.104025840759277,8.434913635253906
1776020495204395300,0.387395263671875,-57.0513916015625,13.33475399017334,10.457832336425781
1776020495214456300,0.397456298828125,-56.18330383300781,13.842002868652344,11.466423034667969
1776020495224516000,0.40751611328125,-56.05659484863281,14.213107109069824,12.362922668457031
1776020495234577200,0.4175771484375,-55.818756103515625,14.17403507232666,14.099601745605469
1776020495244638200,0.42763818359375,-55.293731689453125,14.081110954284668,16.92664337158203
1776020495254698200,0.4376982421875,-54.228546142578125,13.766044616699219,19.983306884765625
1776020495264759300,0.44775927734375,-53.570709228515625,13.388442993164062,22.44300079345703
1776020495274819000,0.457819091796875,-52.86708068847656,12.9087495803833,23.96814727783203
1776020495284880100,0.467880126953125,-52.36570739746094,12.278570175170898,25.19452667236328
1776020495294941200,0.477941162109375,-52.16632080078125,12.406816482543945,25.870033264160156
1776020495305000200,0.488000244140625,-52.27445983886719,12.264556884765625,26.082000732421875
1776020495315061200,0.498061279296875,-52.55348205566406,12.225356101989746,26.18524932861328
1776020495325122300,0.508122314453125,-52.37910461425781,12.208468437194824,26.213661193847656
1776020495335182000,0.51818212890625,-52.57453918457031,12.357206344604492,25.931610107421875
1776020495345243100,0.5282431640625,-52.79814147949219,12.223430633544922,25.84752655029297
1776020495355304200,0.53830419921875,-53.14886474609375,11.855148315429688,25.538536071777344
1776020495365364200,0.5483642578125,-53.60600280761719,11.103461265563965,25.43585968017578
1776020495375425300,0.55842529296875,-53.75103759765625,10.703929901123047,25.29511260986328
1776020495385485000,0.568485107421875,-53.60296630859375,10.320059776306152,25.074356079101562
1776020495395546000,0.578546142578125,-53.70899963378906,9.875248908996582,24.875999450683594
1776020495405607200,0.588607177734375,-54.14607238769531,9.770035743713379,24.860008239746094
1776020495415667200,0.598667236328125,-54.65547180175781,9.781310081481934,24.605804443359375
1776020495425728300,0.608728271484375,-54.97657775878906,9.683632850646973,24.105453491210938
1776020495435789300,0.618789306640625,-55.14634704589844,9.943033218383789,23.853439331054688
1776020495445849000,0.62884912109375,-55.2694091796875,10.255986213684082,23.257965087890625
1776020495455910100,0.63891015625,-55.764312744140625,10.223156929016113,22.459640502929688
1776020495465971200,0.64897119140625,-56.175323486328125,10.554643630981445,21.50580596923828
1776020495476031200,0.65903125,-57.12956237792969,10.582127571105957,20.337303161621094
1776020495486092300,0.66909228515625,-57.7843017578125,10.385002136230469,19.16791534423828
1776020495496152000,0.679152099609375,-57.93994140625,10.455435752868652,17.961929321289062
1776020495506213000,0.689213134765625,-58.53779602050781,10.431262016296387,16.759254455566406
1776020495516274200,0.699274169921875,-59.63494873046875,10.733806610107422,15.691810607910156
1776020495526334200,0.709334228515625,-59.67988586425781,10.8084077835083,14.695289611816406
1776020495536395300,0.719395263671875,-60.17964172363281,10.905506134033203,13.700584411621094
1776020495546456300,0.729456298828125,-60.84049987792969,11.372029304504395,12.827072143554688
1776020495556516000,0.73951611328125,-61.01348876953125,11.759859085083008,12.089614868164062
1776020495566577200,0.7495771484375,-61.537841796875,12.138073921203613,11.261161804199219
1776020495576638200,0.75963818359375,-62.125518798828125,12.299729347229004,10.829727172851562
1776020495586698200,0.7696982421875,-62.377410888671875,12.941522598266602,10.828681945800781
1776020495596759300,0.77975927734375,-62.653656005859375,13.292474746704102,10.531669616699219
1776020495606820400,0.7898203125,-63.18272399902344,14.07954216003418,10.482337951660156
1776020495616880000,0.799880126953125,-64.17904663085938,15.224977493286133,10.282844543457031
1776020495626941200,0.809941162109375,-64.41299438476562,15.53924560546875,10.372543334960938
1776020495637001200,0.820001220703125,-65.1884765625,16.21650505065918,10.267318725585938
1776020495647062300,0.830062255859375,-65.85678100585938,17.1417236328125,10.265655517578125
1776020495657123300,0.840123291015625,-66.3369140625,17.74105453491211,10.257858276367188
1776020495667183000,0.85018310546875,-66.53829956054688,19.02747344970703,10.205772399902344
1776020495677244200,0.860244140625,-66.97599792480469,20.076536178588867,10.5574951171875
1776020495687305200,0.87030517578125,-67.96267700195312,21.381620407104492,10.967987060546875
1776020495697365200,0.880365234375,-68.28935241699219,22.901792526245117,11.480705261230469
1776020495707426300,0.89042626953125,-68.38612365722656,24.832263946533203,12.072799682617188
1776020495717487400,0.9004873046875,-68.56072998046875,26.960025787353516,12.630294799804688
1776020495727547100,0.910547119140625,-68.80790710449219,29.272510528564453,12.968765258789062
1776020495737608200,0.920608154296875,-68.80105590820312,31.333980560302734,12.922080993652344
1776020495747669200,0.930669189453125,-68.4964599609375,33.7544059753418,12.728187561035156
1776020495757729300,0.940729248046875,-68.2294921875,36.283775329589844,12.066352844238281
1776020495767790300,0.950790283203125,-67.27426147460938,38.899559020996094,11.266548156738281
1776020495777850000,0.96085009765625,-66.511962890625,41.82844543457031,10.244537353515625
1776020495787911200,0.9709111328125,-65.00257873535156,44.055458068847656,9.328285217285156
1776020495797972200,0.98097216796875,-63.48323059082031,46.41944885253906,8.016510009765625
1776020495808032300,0.9910322265625,-61.49180603027344,48.00985336303711,7.3063507080078125
1776020495818093300,1.00109326171875,-59.3197021484375,49.50762939453125,6.9709930419921875
1776020495828154400,1.011154296875,-56.73777770996094,51.07289123535156,6.948448181152344
1776020495838214100,1.021214111328125,-55.05070495605469,51.864898681640625,7.166694641113281
1776020495848275200,1.031275146484375,-53.35002136230469,52.75199890136719,7.312736511230469
1776020495858336300,1.041336181640625,-51.072296142578125,53.188987731933594,7.890289306640625
1776020495868396300,1.051396240234375,-49.507843017578125,53.507049560546875,8.432273864746094
1776020495878457300,1.061457275390625,-48.46607971191406,53.885398864746094,9.04803466796875
1776020495888518400,1.071518310546875,-47.31275939941406,54.391510009765625,9.715446472167969
1776020495898578200,1.081578125,-45.91398620605469,54.720497131347656,10.218299865722656
1776020495908639200,1.09163916015625,-44.52264404296875,55.348167419433594,10.954078674316406
1776020495918699300,1.10169921875,-42.888885498046875,56.431846618652344,11.677230834960938
1776020495928760300,1.11176025390625,-41.05615234375,57.229209899902344,12.786094665527344
1776020495938821400,1.1218212890625,-39.429412841796875,58.46533203125,13.678192138671875
1776020495948881200,1.131881103515625,-37.382965087890625,59.34519958496094,14.402198791503906
1776020495958942200,1.141942138671875,-36.110076904296875,59.85343933105469,15.232818603515625
1776020495969003300,1.152003173828125,-34.87522888183594,60.215721130371094,16.048873901367188
1776020495979063300,1.162063232421875,-33.835845947265625,60.624267578125,16.787185668945312
1776020495989124400,1.172124267578125,-33.21690368652344,61.14759063720703,17.67267608642578
1776020495999185400,1.182185302734375,-32.66770935058594,61.43547058105469,18.526626586914062
1776020496009245200,1.1922451171875,-32.762176513671875,61.640525817871094,19.431678771972656
1776020496019306200,1.20230615234375,-32.68792724609375,61.60679626464844,20.29914093017578
1776020496029367300,1.2123671875,-33.18516540527344,61.32862091064453,21.264450073242188
1776020496039427300,1.22242724609375,-33.62837219238281,61.12860107421875,22.28424072265625
1776020496049488400,1.23248828125,-34.258392333984375,60.745140075683594,23.182701110839844
1776020496059548200,1.242548095703125,-35.21783447265625,60.327247619628906,24.31182098388672
1776020496069609200,1.252609130859375,-36.23417663574219,59.84111785888672,25.575424194335938
1776020496079670300,1.262670166015625,-37.34632873535156,59.19273376464844,27.167617797851562
1776020496089730300,1.272730224609375,-38.09870910644531,58.600181579589844,29.12798309326172
1776020496099791400,1.282791259765625,-38.97218322753906,57.983909606933594,30.62488555908203
1776020496109852400,1.292852294921875,-39.56024169921875,57.61248779296875,32.339576721191406
1776020496119912200,1.302912109375,-40.42439270019531,57.23109436035156,33.88804626464844
1776020496129973200,1.31297314453125,-40.76617431640625,56.68980407714844,35.172088623046875
1776020496140034300,1.323034423828125,-41.17347717285156,56.209259033203125,36.53723907470703
1776020496150094300,1.33309423828125,-41.89613342285156,55.700286865234375,38.07213592529297
1776020496160155400,1.3431552734375,-42.12440490722656,55.31532287597656,40.15449523925781
1776020496170216400,1.353216552734375,-42.06117248535156,54.8404541015625,41.78504180908203
1776020496180276200,1.363276123046875,-41.88812255859375,54.516998291015625,42.93714904785156
1776020496190337300,1.373337158203125,-41.640869140625,54.138824462890625,44.24212646484375
1776020496200397300,1.383397216796875,-42.01258850097656,54.080970764160156,45.03672790527344
1776020496210458400,1.393458251953125,-42.84034729003906,54.30683898925781,45.855201721191406
1776020496220519400,1.40351953125,-43.9346923828125,54.323429107666016,46.53954315185547
1776020496230579200,1.4135791015625,-45.36891174316406,54.8321533203125,46.73950958251953
1776020496240640300,1.42364013671875,-49.36106872558594,56.25096893310547,46.331748962402344
1776020496250701300,1.433701416015625,-55.82600402832031,58.17680358886719,44.10499572753906
1776020496260761300,1.44376123046875,-62.918304443359375,61.913490295410156,42.263427734375
1776020496270822400,1.453822509765625,-70.09669494628906,68.3742904663086,42.42823028564453
1776020496280883200,1.46388330078125,-77.74855041503906,77.67967224121094,44.22674560546875
1776020496290943200,1.473943115234375,-86.34808349609375,90.00251770019531,48.435752868652344
1776020496301004300,1.48400439453125,-96.34480285644531,104.52716064453125,55.36737823486328
1776020496311064300,1.494064208984375,-104.99942016601562,119.2645034790039,64.32439422607422
1776020496321125400,1.50412548828125,-112.9759521484375,128.66921997070312,72.2413101196289
1776020496331186200,1.514186279296875,-117.91976928710938,127.94717407226562,74.53119659423828
1776020496341246500,1.52424658203125,-120.664306640625,121.41756439208984,73.40084075927734
1776020496351307500,1.5343076171875,-121.03366088867188,113.17314910888672,71.74909210205078
1776020496361368300,1.544368408203125,-120.7158203125,105.3503646850586,71.1970443725586
1776020496371428400,1.554428466796875,-120.89895629882812,99.71256256103516,70.9797134399414
1776020496381489200,1.5644892578125,-119.798095703125,96.6155014038086,71.28560638427734
1776020496391550200,1.57455029296875,-118.0660400390625,95.95796203613281,72.29825592041016
1776020496401610500,1.584610595703125,-116.36331176757812,96.202392578125,73.26245880126953
1776020496411671300,1.59467138671875,-116.07058715820312,96.46204376220703,73.36786651611328
1776020496421732400,1.604732421875,-116.16104125976562,96.7686538696289,72.60826873779297
1776020496431792400,1.61479248046875,-116.5826416015625,96.86640930175781,71.62342071533203
1776020496441853200,1.624853271484375,-117.318359375,97.37957763671875,70.45282745361328
1776020496451914200,1.634914306640625,-118.18197631835938,98.09295654296875,69.19110870361328
1776020496461974300,1.644974365234375,-119.08932495117188,98.5469741821289,68.71399688720703
1776020496472035300,1.655035400390625,-119.38116455078125,99.1259994506836,68.23409271240234
1776020496482095400,1.665095458984375,-119.64224243164062,100.2173080444336,67.93924713134766
1776020496492156200,1.67515625,-120.2001953125,101.5794677734375,67.85152435302734
1776020496502217200,1.68521728515625,-120.83297729492188,103.43864440917969,67.44759368896484
1776020496512277200,1.69527734375,-121.7452392578125,105.6014404296875,66.6741714477539
1776020496522338300,1.70533837890625,-122.3406982421875,107.38943481445312,66.49944305419922
1776020496532399400,1.7153994140625,-122.35836791992188,108.97944641113281,66.41608428955078
1776020496542459100,1.725459228515625,-122.315185546875,110.34008026123047,67.49604034423828
1776020496552520200,1.735520263671875,-121.56134033203125,111.39446258544922,68.1023178100586
1776020496562581200,1.745581298828125,-121.028564453125,112.39793395996094,67.91979217529297
1776020496572641300,1.755641357421875,-121.06442260742188,113.2105941772461,67.2983627319336
1776020496582702300,1.765702392578125,-121.6385498046875,114.33678436279297,66.4854965209961
1776020496592763400,1.775763427734375,-122.59429931640625,115.55418395996094,66.07347869873047
1776020496602823200,1.7858232421875,-123.78158569335938,116.29898071289062,66.08177947998047
1776020496612884200,1.79588427734375,-124.60989379882812,116.34180450439453,67.13097381591797
1776020496622944300,1.8059443359375,-125.83514404296875,115.20819854736328,68.4809799194336
1776020496633005300,1.81600537109375,-128.27511596679688,113.37471771240234,70.9187240600586
1776020496643066400,1.82606640625,-131.40316772460938,112.67742919921875,75.39099884033203
1776020496653126100,1.836126220703125,-133.60784912109375,112.68720245361328,81.98035430908203
1776020496663187200,1.846187255859375,-136.40206909179688,110.2796859741211,85.4754409790039
1776020496673248300,1.856248291015625,-138.1832275390625,106.63160705566406,88.31763458251953
1776020496683308300,1.866308349609375,-140.41644287109375,102.53506469726562,90.65758514404297
1776020496693369300,1.876369384765625,-144.172119140625,98.21540069580078,93.62548065185547
1776020496703430400,1.886430419921875,-148.09844970703125,92.86444091796875,96.8958511352539
1776020496713490200,1.896490234375,-152.19699096679688,85.40115356445312,100.03263092041016
1776020496723551200,1.90655126953125,-155.5880126953125,75.93354797363281,101.64928436279297
1776020496733612300,1.9166123046875,-158.40316772460938,65.54215240478516,101.04598236083984
1776020496743672300,1.92667236328125,-160.00241088867188,54.626953125,99.12459564208984
1776020496753733400,1.9367333984375,-160.9320068359375,44.446632385253906,96.47220611572266
1776020496763793200,1.946793212890625,-160.99942016601562,35.46514129638672,93.2528305053711
1776020496773854200,1.956854248046875,-160.328857421875,27.47890853881836,90.28861236572266
1776020496783915300,1.966915283203125,-159.37771606445312,20.46710968017578,86.31926727294922
1776020496793975300,1.976975341796875,-158.00161743164062,13.751224517822266,81.81732940673828
1776020496804036400,1.987036376953125,-157.89407348632812,7.256085395812988,77.06464385986328
1776020496814097400,1.997097412109375,-158.15878295898438,0.4253063201904297,71.64473724365234
1776020496824157200,2.0071572265625,-159.27590942382812,-5.424201965332031,65.69945526123047
1776020496834218200,2.01721826171875,-160.87103271484375,-9.943048477172852,60.505653381347656
1776020496844279300,2.027279296875,-162.08328247070312,-12.639730453491211,56.433021545410156
1776020496854339300,2.03733935546875,-162.53695678710938,-14.025873184204102,52.260963439941406
1776020496864400400,2.047400390625,-162.639404296875,-15.118078231811523,48.21009063720703
1776020496874461400,2.05746142578125,-162.628173828125,-15.858102798461914,43.46869659423828
1776020496884521200,2.067521240234375,-162.27066040039062,-15.881502151489258,38.67200469970703
1776020496894582300,2.077582275390625,-161.054443359375,-15.839628219604492,34.00623321533203
1776020496904642300,2.087642333984375,-160.24844360351562,-14.886575698852539,30.28754425048828
1776020496914703400,2.097703369140625,-159.25079345703125,-14.65492057800293,27.461380004882812
1776020496924764400,2.107764404296875,-158.46389770507812,-14.278440475463867,26.262107849121094
1776020496934824200,2.11782421875,-158.59146118164062,-13.84898567199707,25.802719116210938
1776020496944885200,2.12788525390625,-158.38653564453125,-13.826791763305664,25.60894012451172
1776020496954946300,2.1379462890625,-157.90606689453125,-13.732854843139648,25.393569946289062
1776020496965006300,2.14800634765625,-157.1719970703125,-14.056707382202148,24.59143829345703
1776020496975067400,2.1580673828125,-155.19296264648438,-14.63585090637207,22.845176696777344
1776020496985128400,2.16812841796875,-152.96078491210938,-15.976289749145508,21.12598419189453
1776020496995188200,2.178188232421875,-150.15725708007812,-17.918508529663086,19.077377319335938
1776020497005249300,2.188249267578125,-148.62643432617188,-20.09760093688965,17.210105895996094
1776020497015310300,2.198310302734375,-147.7113037109375,-22.591890335083008,15.547622680664062
1776020497025370400,2.208370361328125,-146.91696166992188,-24.372724533081055,13.932891845703125
1776020497035431400,2.218431396484375,-145.87200927734375,-26.213796615600586,12.381027221679688
1776020497045491200,2.2284912109375,-145.30929565429688,-27.328569412231445,10.646774291992188
1776020497055552300,2.23855224609375,-144.80068969726562,-28.771825790405273,8.629425048828125
1776020497065613300,2.24861328125,-144.09539794921875,-29.994184494018555,6.674591064453125
1776020497075673300,2.25867333984375,-142.6126708984375,-32.68885803222656,3.8290634155273438
1776020497085734400,2.268734375,-142.15982055664062,-33.86334228515625,3.366058349609375
1776020497095795500,2.27879541015625,-142.90884399414062,-33.76068878173828,3.9670333862304688
1776020497105855200,2.288855224609375,-145.1190185546875,-31.87886619567871,5.993186950683594
1776020497115916300,2.298916259765625,-147.65997314453125,-29.127126693725586,9.213958740234375
1776020497125977300,2.308977294921875,-148.75717163085938,-27.789400100708008,11.841941833496094
1776020497136037400,2.319037353515625,-148.462158203125,-28.69761085510254,14.149993896484375
1776020497146098400,2.329098388671875,-148.63034057617188,-29.09018898010254,15.639564514160156
1776020497156159500,2.339159423828125,-149.11785888671875,-28.5364933013916,16.60314178466797
1776020497166219300,2.34921923828125,-149.47750854492188,-28.380159378051758,18.10650634765625
1776020497176280300,2.3592802734375,-149.53182983398438,-28.434946060180664,19.059829711914062
1776020497186340400,2.36934033203125,-149.79949951171875,-28.389738082885742,19.885704040527344
1776020497196401400,2.3794013671875,-150.31207275390625,-28.515764236450195,20.18476104736328
1776020497206462500,2.38946240234375,-150.83200073242188,-28.55946159362793,20.389450073242188
1776020497216522200,2.399522216796875,-150.69747924804688,-28.862951278686523,20.455795288085938
1776020497226583300,2.409583251953125,-150.92575073242188,-28.9387149810791,20.649452209472656
1776020497236644400,2.419644287109375,-151.2518310546875,-29.057836532592773,20.627029418945312
1776020497246704400,2.429704345703125,-151.505859375,-29.01401710510254,20.56133270263672
1776020497256765400,2.439765380859375,-151.633544921875,-29.005441665649414,20.43181610107422
1776020497266826500,2.449826416015625,-151.71438598632812,-29.199979782104492,20.488250732421875
1776020497276886300,2.45988623046875,-151.62124633789062,-29.321664810180664,20.3642578125
1776020497286947300,2.469947265625,-151.714111328125,-29.248369216918945,20.15673065185547
1776020497297008400,2.48000830078125,-151.59951782226562,-29.272920608520508,19.714370727539062
1776020497307068400,2.490068359375,-151.94302368164062,-29.026525497436523,19.29596710205078
1776020497317129500,2.50012939453125,-152.1134033203125,-28.9781551361084,18.65491485595703
1776020497327190300,2.510190185546875,-151.80804443359375,-28.62559700012207,18.110580444335938
1776020497337250300,2.520250244140625,-152.17044067382812,-28.289766311645508,17.62237548828125
1776020497347311400,2.530311279296875,-152.37631225585938,-27.561471939086914,17.329505920410156
1776020497357371400,2.540371337890625,-152.67843627929688,-27.104021072387695,17.55310821533203
1776020497367432400,2.550432373046875,-153.24151611328125,-26.090177536010742,18.239089965820312
1776020497377493500,2.560493408203125,-154.03631591796875,-25.210298538208008,18.99217987060547
1776020497387553300,2.57055322265625,-154.98178100585938,-24.502199172973633,20.248672485351562
1776020497397614300,2.5806142578125,-155.2904052734375,-24.255441665649414,20.912399291992188
1776020497407675400,2.59067529296875,-156.22640991210938,-23.78324317932129,21.768470764160156
1776020497417735400,2.6007353515625,-157.3499755859375,-22.80800437927246,23.126930236816406
1776020497427796500,2.61079638671875,-158.68026733398438,-21.461591720581055,24.37188720703125
1776020497437857300,2.620857177734375,-160.4345703125,-19.89238929748535,25.88713836669922
1776020497447917300,2.630917236328125,-161.7264404296875,-18.337060928344727,27.130348205566406
1776020497457978400,2.640978271484375,-163.584228515625,-17.001920700073242,28.407913208007812
1776020497468039200,2.6510390625,-164.92428588867188,-15.655874252319336,29.083389282226562
1776020497478099500,2.661099365234375,-166.74838256835938,-14.010011672973633,29.768592834472656
1776020497488160300,2.67116015625,-168.74615478515625,-11.577341079711914,30.408248901367188
1776020497498220500,2.681220458984375,-170.94766235351562,-8.67936897277832,31.10638427734375
1776020497508281300,2.69128125,-172.58035278320312,-4.972570419311523,31.85478973388672
1776020497518342100,2.701342041015625,-174.7576904296875,-1.7766704559326172,32.31859588623047
1776020497528402400,2.71140234375,-177.01919555664062,1.2617721557617188,33.07667541503906
1776020497538463200,2.721463134765625,-180.10333251953125,3.3069419860839844,34.05126190185547
1776020497548524300,2.731524169921875,-182.74346923828125,4.927509307861328,35.179481506347656
1776020497558584300,2.741584228515625,-185.13021850585938,5.615179061889648,36.01494598388672
1776020497568645000,2.75164501953125,-187.41061401367188,6.090860366821289,36.455055236816406
1776020497578706200,2.7617060546875,-189.6787109375,6.047143936157227,36.58758544921875
1776020497588766500,2.771766357421875,-190.70333862304688,5.128074645996094,36.60455322265625
1776020497598827300,2.7818271484375,-191.03411865234375,3.536428451538086,36.26500701904297
1776020497608888300,2.791888427734375,-191.08853149414062,2.2816848754882812,35.86802673339844
1776020497618948000,2.801947998046875,-190.8515625,0.660980224609375,35.318687438964844
1776020497629009200,2.812009033203125,-191.08078002929688,0.3667716979980469,35.08573913574219
1776020497639069400,2.8220693359375,-190.86077880859375,0.43387413024902344,35.060462951660156
1776020497649130200,2.832130126953125,-190.93148803710938,1.0913715362548828,35.29212951660156
1776020497659191300,2.84219140625,-191.4271240234375,1.8242244720458984,35.673805236816406
1776020497669251300,2.852251220703125,-191.07745361328125,1.6854667663574219,36.102081298828125
1776020497679312100,2.86231201171875,-191.29452514648438,1.4213237762451172,36.38227081298828
1776020497689373200,2.872373291015625,-190.513427734375,0.044696807861328125,37.25584411621094
1776020497699433200,2.88243310546875,-190.899658203125,-1.2706298828125,38.286285400390625
1776020497709494300,2.892494384765625,-190.85379028320312,-3.143892288208008,39.48967742919922
1776020497719555300,2.902555419921875,-190.58370971679688,-5.682340621948242,40.77100372314453
1776020497729615000,2.912614990234375,-188.79550170898438,-10.349584579467773,41.94267272949219
1776020497739676200,2.92267626953125,-186.97341918945312,-16.215673446655273,43.45787048339844
1776020497749737200,2.9327373046875,-185.48471069335938,-21.784879684448242,45.13825225830078
1776020497759797200,2.94279736328125,-184.26177978515625,-25.445398330688477,46.575096130371094
1776020497769858300,2.9528583984375,-184.189697265625,-26.646326065063477,48.12487030029297
1776020497779919400,2.96291943359375,-184.0904541015625,-27.178857803344727,48.55120086669922
1776020497789979100,2.972979248046875,-183.62100219726562,-27.229589462280273,48.862327575683594
1776020497800040200,2.983040283203125,-183.48751831054688,-27.540987014770508,49.55854034423828
1776020497810101200,2.993101318359375,-183.63186645507812,-27.9196720123291,49.40699005126953
1776020497820161300,3.003161376953125,-183.92071533203125,-28.914472579956055,49.259239196777344
1776020497830222300,3.013222412109375,-184.54937744140625,-29.303071975708008,48.78687286376953
1776020497840282400,3.023282470703125,-184.540283203125,-29.48737907409668,48.77910614013672
1776020497850343200,3.03334326171875,-184.30264282226562,-29.818693161010742,48.56464385986328
1776020497860404200,3.043404296875,-184.15863037109375,-29.72809410095215,48.457618713378906
1776020497870464300,3.05346435546875,-184.22311401367188,-29.521059036254883,48.406822204589844
1776020497880525300,3.063525390625,-184.04879760742188,-29.349218368530273,48.090049743652344
1776020497890586400,3.07358642578125,-183.96072387695312,-29.401830673217773,47.543235778808594
1776020497900646100,3.083646240234375,-183.9251708984375,-29.640867233276367,46.763511657714844
1776020497910707200,3.093707275390625,-184.19964599609375,-30.179868698120117,44.979896545410156
1776020497920768300,3.103768310546875,-183.65530395507812,-30.522733688354492,42.48889923095703
1776020497930828300,3.113828369140625,-182.95828247070312,-30.516569137573242,39.07075500488281
1776020497940889300,3.123889404296875,-181.6170654296875,-30.299909591674805,35.08888244628906
1776020497950950400,3.133950439453125,-179.57559204101562,-29.743337631225586,30.294593811035156
1776020497961010200,3.14401025390625,-176.70510864257812,-29.11861228942871,25.797698974609375
1776020497971071200,3.1540712890625,-173.31512451171875,-27.9143123626709,21.94574737548828
1776020497981131300,3.16413134765625,-170.15545654296875,-26.338903427124023,18.308876037597656
1776020497991192300,3.1741923828125,-167.39202880859375,-24.9775447845459,14.967231750488281
1776020498001253400,3.18425341796875,-165.26400756835938,-23.185102462768555,12.768653869628906
1776020498011313400,3.1943134765625,-163.67562866210938,-21.081167221069336,11.405632019042969
1776020498021374200,3.204374267578125,-162.35842895507812,-19.303930282592773,10.579627990722656
1776020498031435300,3.214435302734375,-161.5540771484375,-17.4085636138916,10.303779602050781
1776020498041495300,3.224495361328125,-161.44747924804688,-16.07615089416504,10.224090576171875
1776020498051556400,3.234556396484375,-160.85919189453125,-15.157915115356445,10.307632446289062
1776020498061617400,3.244617431640625,-160.7794189453125,-14.809576034545898,10.167488098144531
1776020498071677200,3.25467724609375,-160.91812133789062,-14.667097091674805,10.587600708007812
1776020498081738200,3.26473828125,-161.211181640625,-14.793279647827148,11.386741638183594
1776020498091799300,3.27479931640625,-161.34622192382812,-14.869939804077148,11.734451293945312
1776020498101859300,3.284859375,-161.38204956054688,-14.841676712036133,12.116142272949219
1776020498111920400,3.29492041015625,-161.65219116210938,-14.333833694458008,12.752754211425781
1776020498121981400,3.3049814453125,-162.54037475585938,-14.205789566040039,13.672187805175781
1776020498132041200,3.315041259765625,-162.48800659179688,-14.048364639282227,14.537025451660156
1776020498142102300,3.325102294921875,-162.91094970703125,-13.515745162963867,15.649856567382812
1776020498152163300,3.335163330078125,-163.2366943359375,-13.178682327270508,16.499679565429688
1776020498162223400,3.345223388671875,-163.646240234375,-13.060155868530273,17.043922424316406
1776020498172284400,3.355284423828125,-163.61398315429688,-12.840021133422852,17.38800811767578
1776020498182344400,3.365344482421875,-163.48300170898438,-12.901975631713867,18.01091766357422
1776020498192405200,3.3754052734375,-163.91781616210938,-12.986753463745117,18.398338317871094
1776020498202466300,3.38546630859375,-163.74395751953125,-13.274557113647461,18.309059143066406
1776020498212526300,3.3955263671875,-163.56655883789062,-13.479764938354492,18.374740600585938
1776020498222587400,3.40558740234375,-163.55731201171875,-13.78211784362793,18.326202392578125
1776020498232648400,3.4156484375,-163.63214111328125,-13.961404800415039,18.53339385986328
1776020498242708200,3.425708251953125,-162.7821044921875,-14.27073860168457,18.66417694091797
1776020498252769300,3.435769287109375,-162.65658569335938,-14.576189041137695,18.82488250732422
1776020498262830300,3.445830322265625,-162.94818115234375,-15.204961776733398,19.377098083496094
1776020498272890400,3.455890380859375,-162.6824951171875,-15.561029434204102,19.6873779296875
1776020498282951400,3.465951416015625,-162.81515502929688,-15.523015975952148,20.210060119628906
1776020498293012500,3.476012451171875,-162.64114379882812,-15.61890983581543,20.633750915527344
1776020498303072300,3.486072265625,-162.76327514648438,-15.541200637817383,21.178695678710938
1776020498313133800,3.4961337890625,-163.01272583007812,-15.857751846313477,21.240585327148438
1776020498323193600,3.506193603515625,-162.97500610351562,-15.958051681518555,21.48870086669922
1776020498333254700,3.516254638671875,-162.7425537109375,-16.350038528442383,21.462265014648438
1776020498343315700,3.526315673828125,-162.301025390625,-16.60941505432129,21.58013916015625
1776020498353375700,3.536375732421875,-162.37103271484375,-17.02569007873535,21.273834228515625
1776020498363436800,3.546436767578125,-162.4913330078125,-17.27324867248535,21.471656799316406
1776020498373497600,3.55649755859375,-162.16806030273438,-17.18488883972168,21.78443145751953
1776020498383557600,3.5665576171875,-162.17416381835938,-17.18540382385254,21.96137237548828
1776020498393618700,3.57661865234375,-162.4200439453125,-17.130250930786133,22.205345153808594
1776020498403679500,3.586679443359375,-162.65554809570312,-17.063268661499023,22.47486114501953
1776020498413739800,3.59673974609375,-162.33889770507812,-16.848833084106445,22.506813049316406
1776020498423800800,3.60680078125,-162.50241088867188,-16.526254653930664,22.724098205566406
1776020498433861600,3.616861572265625,-162.73318481445312,-16.700075149536133,23.231002807617188
1776020498443921700,3.626921630859375,-162.88531494140625,-16.132726669311523,23.543251037597656
1776020498453982500,3.636982421875,-162.84906005859375,-16.09528160095215,23.6927490234375
1776020498464043500,3.64704345703125,-162.99655151367188,-16.144620895385742,23.446510314941406
1776020498474103800,3.657103759765625,-162.98825073242188,-16.09236717224121,23.277854919433594
1776020498484164600,3.66716455078125,-163.08016967773438,-16.479719161987305,23.301727294921875
1776020498494224600,3.677224609375,-163.12161254882812,-16.45905876159668,23.27880096435547
1776020498504285700,3.68728564453125,-162.75814819335938,-16.709985733032227,23.18236541748047
1776020498514346500,3.697346435546875,-163.1942138671875,-16.66788673400879,23.05005645751953
1776020498524406800,3.70740673828125,-162.662841796875,-16.54779624938965,22.991622924804688
1776020498534467600,3.717467529296875,-162.91244506835938,-16.53013038635254,23.06494140625
1776020498544528600,3.727528564453125,-163.2806396484375,-16.371458053588867,23.221580505371094
1776020498554588700,3.737588623046875,-163.0648193359375,-16.25865364074707,23.496322631835938
1776020498564649500,3.7476494140625,-163.09536743164062,-16.318506240844727,23.57598114013672
1776020498574710500,3.75771044921875,-163.2991943359375,-16.285295486450195,23.583763122558594
1776020498584770600,3.7677705078125,-162.95254516601562,-16.102006912231445,23.621780395507812
1776020498594831600,3.77783154296875,-162.62472534179688,-15.98985481262207,23.519699096679688
1776020498604892700,3.787892578125,-162.7236328125,-16.002450942993164,23.808204650878906
1776020498614952400,3.797952392578125,-162.59759521484375,-15.937570571899414,23.910629272460938
1776020498625013500,3.808013427734375,-162.57217407226562,-16.00507926940918,23.88195037841797
1776020498635074600,3.818074462890625,-162.43646240234375,-16.035112380981445,23.952804565429688
1776020498645134600,3.828134521484375,-162.878173828125,-15.865228652954102,23.933883666992188
1776020498655195600,3.838195556640625,-162.82705688476562,-15.75554084777832,23.963973999023438
1776020498665256400,3.84825634765625,-162.49407958984375,-15.657896041870117,23.986534118652344
1776020498675316500,3.85831640625,-162.56521606445312,-15.767145156860352,23.956954956054688
1776020498685377500,3.86837744140625,-162.955078125,-15.78169059753418,23.85735321044922
1776020498695437600,3.8784375,-162.38934326171875,-15.932466506958008,23.868507385253906
1776020498705498600,3.88849853515625,-162.6893310546875,-15.887960433959961,23.866851806640625
1776020498715559700,3.8985595703125,-163.0714111328125,-15.753877639770508,23.79901123046875
1776020498725619500,3.908619384765625,-162.8687744140625,-15.628759384155273,23.832809448242188
1776020498735680500,3.918680419921875,-162.66946411132812,-15.927865982055664,23.766250610351562
1776020498745741600,3.928741455078125,-162.77767944335938,-15.945261001586914,23.72992706298828
1776020498755801600,3.938801513671875,-162.61410522460938,-15.68583869934082,23.831588745117188
1776020498765862700,3.948862548828125,-162.794921875,-15.704996109008789,23.85106658935547
1776020498775923700,3.958923828125,-162.97637939453125,-15.709150314331055,24.003074645996094
1776020498785983500,3.9689833984375,-162.28567504882812,-15.64702033996582,23.942764282226562
1776020498796044500,3.97904443359375,-162.74658203125,-15.756147384643555,23.917205810546875
1776020498806105600,3.989105712890625,-162.679443359375,-15.746248245239258,24.056182861328125
1776020498816165600,3.99916552734375,-162.47860717773438,-15.787359237670898,24.137611389160156
1776020498826226700,4.009226806640625,-162.98300170898438,-16.45454216003418,23.891357421875
1776020498836287500,4.01928759765625,-162.88357543945312,-17.44753074645996,23.550827026367188
1776020498846347500,4.029347412109375,-162.43588256835938,-18.371129989624023,23.312332153320312
1776020498856408600,4.03940869140625,-162.263671875,-18.61097526550293,22.853614807128906
1776020498866468600,4.049468505859375,-161.74081420898438,-18.602506637573242,22.35211181640625
1776020498876529700,4.05952978515625,-161.89028930664062,-18.731874465942383,22.342269897460938
1776020498886590700,4.0695908203125,-161.62368774414062,-18.73305320739746,22.044631958007812
1776020498896650500,4.079650390625,-161.31719970703125,-18.709699630737305,21.75432586669922
1776020498906711600,4.089711669921875,-161.2459716796875,-18.73029136657715,22.15508270263672
1776020498916772600,4.099772705078125,-161.71273803710938,-18.5948429107666,22.173561096191406
1776020498926832600,4.10983251953125,-162.01455688476562,-18.434328079223633,22.507843017578125
1776020498936893700,4.119893798828125,-161.68826293945312,-18.401723861694336,22.78472137451172
1776020498946954800,4.129954833984375,-161.74655151367188,-18.28081703186035,22.927589416503906
1776020498957014500,4.1400146484375,-161.49526977539062,-18.344690322875977,22.893348693847656
1776020498967075600,4.15007568359375,-161.53216552734375,-18.228822708129883,22.746047973632812
1776020498977136600,4.16013671875,-161.71047973632812,-18.12567710876465,22.648147583007812
1776020498987196700,4.17019677734375,-161.9510498046875,-18.13178825378418,22.74713134765625
1776020498997257700,4.1802578125,-161.70816040039062,-18.000757217407227,22.846153259277344
1776020499007318800,4.19031884765625,-161.74395751953125,-17.85774040222168,23.014541625976562
1776020499017378600,4.200378662109375,-161.57958984375,-17.810827255249023,23.08415985107422
1776020499027439600,4.210439697265625,-161.64962768554688,-17.404008865356445,23.339462280273438
1776020499037500700,4.220500732421875,-161.70132446289062,-17.291147232055664,23.424659729003906
1776020499047560700,4.230560791015625,-161.77008056640625,-17.16457176208496,23.534103393554688
1776020499057621800,4.240621826171875,-161.22354125976562,-16.98975944519043,23.704849243164062
1776020499067681500,4.250681640625,-161.60659790039062,-16.86513328552246,23.881729125976562
1776020499077742600,4.26074267578125,-161.80691528320312,-16.84352684020996,23.89777374267578
1776020499087803600,4.2708037109375,-162.04928588867188,-16.67112922668457,24.13458251953125
1776020499097863700,4.28086376953125,-161.83920288085938,-16.558191299438477,24.373825073242188
1776020499107924700,4.2909248046875,-161.908447265625,-16.455739974975586,24.129112243652344
1776020499117985800,4.30098583984375,-161.59017944335938,-16.54877281188965,24.3662109375
1776020499128045600,4.311045654296875,-162.08847045898438,-16.384584426879883,24.41796875
1776020499138106600,4.321106689453125,-162.30780029296875,-16.645170211791992,24.30901336669922
1776020499148167700,4.331167724609375,-161.88150024414062,-16.76982307434082,24.10588836669922
1776020499158227700,4.341227783203125,-162.16802978515625,-16.5866756439209,24.251266479492188
1776020499168288800,4.351288818359375,-162.28836059570312,-16.915712356567383,24.034881591796875
1776020499178349800,4.361349853515625,-162.14361572265625,-16.525815963745117,24.057464599609375
1776020499188409600,4.37140966796875,-162.49700927734375,-16.790868759155273,24.189895629882812
1776020499198470700,4.381470703125,-162.27658081054688,-16.853525161743164,24.343894958496094
1776020499208531700,4.39153173828125,-162.2723388671875,-17.201738357543945,24.217567443847656
1776020499218591700,4.401591796875,-162.22189331054688,-16.983671188354492,24.30120849609375
1776020499228652800,4.41165283203125,-162.15304565429688,-17.0527286529541,24.134971618652344
1776020499238713600,4.421713623046875,-162.08453369140625,-17.251195907592773,24.05988311767578
1776020499248773600,4.431773681640625,-161.955322265625,-17.205411911010742,24.027618408203125
1776020499258834700,4.441834716796875,-162.09780883789062,-17.543275833129883,23.825393676757812
1776020499268894700,4.451894775390625,-161.84732055664062,-17.359285354614258,24.174949645996094
1776020499278955800,4.461955810546875,-162.03726196289062,-17.316373825073242,23.92652130126953
1776020499289016800,4.472016845703125,-162.08782958984375,-17.485292434692383,23.923858642578125
1776020499299076600,4.48207666015625,-162.10726928710938,-17.54111671447754,23.702781677246094
1776020499309137400,4.492137451171875,-162.5081787109375,-17.66063117980957,23.76496124267578
1776020499319198500,4.502198486328125,-162.744873046875,-17.564855575561523,23.84070587158203
1776020499329258500,4.512258544921875,-162.27493286132812,-17.759977340698242,23.830612182617188
1776020499339319300,4.5223193359375,-162.55722045898438,-17.764719009399414,23.788101196289062
1776020499349380400,4.53238037109375,-162.52499389648438,-17.720788955688477,23.51050567626953
1776020499359440400,4.5424404296875,-162.50057983398438,-17.64145851135254,23.500198364257812
1776020499369501400,4.55250146484375,-162.32672119140625,-17.86366081237793,23.497314453125
1776020499379562500,4.5625625,-162.27264404296875,-17.876283645629883,23.442718505859375
1776020499389622300,4.572622314453125,-162.33050537109375,-17.959714889526367,23.67005157470703
1776020499399683300,4.582683349609375,-162.29217529296875,-17.7415714263916,23.705421447753906
1776020499409744400,4.592744384765625,-162.29708862304688,-17.744260787963867,23.8177490234375
1776020499419804400,4.602804443359375,-162.31243896484375,-17.62409019470215,23.760902404785156
1776020499429865500,4.612865478515625,-162.5848388671875,-17.56911277770996,23.73351287841797
1776020499439925500,4.622925537109375,-162.41424560546875,-17.684110641479492,23.832847595214844
1776020499449986300,4.632986328125,-161.95223999023438,-17.7530574798584,23.841232299804688
1776020499460047400,4.64304736328125,-161.8797607421875,-17.75986671447754,23.78551483154297
1776020499470107400,4.653107421875,-162.316650390625,-17.6904354095459,23.9796142578125
1776020499480168400,4.66316845703125,-162.25048828125,-17.715879440307617,23.869117736816406
1776020499490229200,4.673229248046875,-162.37057495117188,-17.63496208190918,23.94249725341797
1776020499500289500,4.68328955078125,-162.506103515625,-17.748197555541992,23.814285278320312
1776020499510350300,4.693350341796875,-162.63589477539062,-17.703893661499023,23.77404022216797
1776020499520411100,4.7034111328125,-162.58560180664062,-17.68532371520996,23.87946319580078
1776020499530471400,4.713471435546875,-162.80859375,-17.873292922973633,23.827011108398438
1776020499540532200,4.7235322265625,-162.79519653320312,-17.624975204467773,23.873924255371094
1776020499550593300,4.73359326171875,-162.32461547851562,-17.764970779418945,23.920021057128906
1776020499560653300,4.7436533203125,-162.14358520507812,-17.752405166625977,23.7208251953125
1776020499570714000,4.753714111328125,-162.65985107421875,-17.673433303833008,23.912010192871094
1776020499580775200,4.763775146484375,-162.6400146484375,-17.9453067779541,23.799095153808594
1776020499590835500,4.77383544921875,-162.67535400390625,-17.794660568237305,23.746841430664062
1776020499600896300,4.783896240234375,-162.61639404296875,-17.7659969329834,23.740921020507812
1776020499610957300,4.793957275390625,-162.80905151367188,-17.82783317565918,23.910964965820312
1776020499621017300,4.804017333984375,-162.3153076171875,-17.74363136291504,23.958290100097656
1776020499631078100,4.814078125,-162.1046142578125,-17.787965774536133,23.82469940185547
1776020499641138400,4.824138427734375,-162.20986938476562,-17.91973304748535,23.93553924560547
1776020499651199200,4.83419921875,-162.33096313476562,-17.840421676635742,23.911949157714844
1776020499661260300,4.84426025390625,-162.60391235351562,-17.89726448059082,23.89472198486328
1776020499671320300,4.8543203125,-162.2747802734375,-17.939279556274414,23.909011840820312
1776020499681381000,4.864381103515625,-162.714111328125,-18.113515853881836,23.816818237304688
1776020499691442200,4.874442138671875,-162.75177001953125,-17.902101516723633,24.00311279296875
1776020499701502200,4.884502197265625,-162.59194946289062,-17.96623420715332,23.814346313476562
1776020499711563300,4.894563232421875,-162.41580200195312,-18.249876022338867,24.056411743164062
1776020499721624300,4.904624267578125,-162.46469116210938,-18.368349075317383,23.831069946289062
1776020499731684000,4.91468408203125,-162.51434326171875,-18.28871726989746,23.864944458007812
1776020499741745200,4.9247451171875,-162.17034912109375,-18.38487434387207,24.04041290283203
1776020499751806200,4.93480615234375,-162.78427124023438,-18.18161964416504,24.099098205566406
1776020499761866200,4.9448662109375,-162.82797241210938,-18.054201126098633,23.936058044433594
1776020499771927300,4.95492724609375,-162.82040405273438,-18.03215217590332,23.976394653320312
1776020499781988400,4.96498828125,-162.88064575195312,-17.94553565979004,23.937965393066406
1776020499792048000,4.975048095703125,-162.50418090820312,-17.827428817749023,23.820663452148438
1776020499802109200,4.985109130859375,-162.66329956054688,-17.78776741027832,24.01984405517578
1776020499812170200,4.995170166015625,-162.32803344726562,-17.934171676635742,23.9476318359375
1776020499822230300,5.005230224609375,-162.39999389648438,-18.045801162719727,24.319686889648438
1776020499832291300,5.015291259765625,-162.24288940429688,-18.2089900970459,24.01703643798828
1776020499842351400,5.025351318359375,-162.57870483398438,-17.94511604309082,24.12065887451172
1776020499852412200,5.035412109375,-162.73257446289062,-17.71750831604004,24.008506774902344
1776020499862473200,5.04547314453125,-162.26138305664062,-17.81145668029785,23.834800720214844
1776020499872533200,5.055533203125,-162.43975830078125,-17.858312606811523,23.765869140625
1776020499882594300,5.06559423828125,-162.33670043945312,-17.8212833404541,24.249244689941406
1776020499892655400,5.0756552734375,-162.6864013671875,-17.72783851623535,23.99024200439453
1776020499902715100,5.085715087890625,-162.3582763671875,-17.616304397583008,24.032501220703125
1776020499912776200,5.095776123046875,-162.14736938476562,-17.968061447143555,23.992881774902344
1776020499922837200,5.105837158203125,-162.421630859375,-17.856698989868164,23.92035675048828
1776020499932897300,5.115897216796875,-162.58267211914062,-17.735437393188477,23.974609375
1776020499942958300,5.125958251953125,-162.4696044921875,-17.618356704711914,23.713470458984375
1776020499953019400,5.136019287109375,-162.75222778320312,-17.590295791625977,23.89874267578125
1776020499963079200,5.1460791015625,-162.68505859375,-17.340673446655273,23.843826293945312
1776020499973140200,5.15614013671875,-162.5162353515625,-17.48866844177246,23.85143280029297
1776020499983201300,5.166201171875,-162.25552368164062,-17.64255714416504,24.172409057617188
1776020499993261300,5.17626123046875,-162.49517822265625,-17.4689884185791,24.077049255371094
1776020500003322400,5.186322265625,-162.78155517578125,-17.5982608795166,24.087722778320312
1776020500013383400,5.196383544921875,-162.45318603515625,-17.72962760925293,24.046836853027344
1776020500023443200,5.206443115234375,-162.31539916992188,-17.416723251342773,24.155120849609375
1776020500033504300,5.216504150390625,-162.02627563476562,-17.45600700378418,24.195823669433594
1776020500043564300,5.226564208984375,-162.7589111328125,-17.211435317993164,23.97893524169922
1776020500053625300,5.236625244140625,-162.62246704101562,-17.30238151550293,24.146507263183594
1776020500063686400,5.246686279296875,-162.615966796875,-17.47764015197754,24.114707946777344
1776020500073746400,5.256746337890625,-162.43942260742188,-17.495798110961914,24.073883056640625
1776020500083807200,5.26680712890625,-162.72409057617188,-17.56867790222168,24.00086212158203
1776020500093868300,5.276868408203125,-162.80618286132812,-17.54483985900879,23.71538543701172
1776020500103928300,5.28692822265625,-162.72116088867188,-17.60508918762207,23.981399536132812
1776020500113989400,5.2969892578125,-162.79757690429688,-17.563249588012695,23.815711975097656
1776020500124050400,5.307050537109375,-162.85635375976562,-17.567167282104492,23.848724365234375
1776020500134110200,5.317110107421875,-162.96054077148438,-17.629240036010742,24.04589080810547
1776020500144171300,5.327171142578125,-162.9144287109375,-17.642080307006836,24.07048797607422
1776020500154232300,5.337232421875,-162.684814453125,-17.738008499145508,24.089256286621094
1776020500164292400,5.347292236328125,-162.4610595703125,-17.770776748657227,24.06231689453125
1776020500174353400,5.357353515625,-162.62478637695312,-17.691370010375977,24.22785186767578
1776020500184414500,5.36741455078125,-163.32632446289062,-17.524076461791992,24.32019805908203
1776020500194474200,5.37747412109375,-162.98599243164062,-17.39113426208496,24.36786651611328
1776020500204535300,5.387535400390625,-162.92144775390625,-17.656782150268555,24.22125244140625
1776020500214596400,5.397596435546875,-162.56796264648438,-17.438703536987305,24.202491760253906
1776020500224656400,5.407656494140625,-162.74728393554688,-17.694948196411133,24.119888305664062
1776020500234717400,5.417717529296875,-162.95703125,-17.76896858215332,24.161659240722656
1776020500244777500,5.427777587890625,-162.737548828125,-17.448408126831055,24.159637451171875
1776020500254838300,5.43783837890625,-162.48095703125,-17.105966567993164,24.382545471191406
1776020500264899300,5.4478994140625,-162.61199951171875,-17.066686630249023,24.47577667236328
1776020500274959400,5.45795947265625,-162.79598999023438,-17.22369956970215,24.402915954589844
1776020500285020400,5.4680205078125,-162.91815185546875,-17.15854835510254,24.45062255859375
1776020500295081500,5.47808154296875,-162.82455444335938,-17.29254722595215,24.355377197265625
1776020500305141200,5.488141357421875,-162.62014770507812,-17.101625442504883,24.58605194091797
1776020500315202600,5.49820263671875,-162.76324462890625,-17.084138870239258,24.487380981445312
1776020500325263600,5.508263671875,-162.98321533203125,-16.998231887817383,24.46161651611328
1776020500335323600,5.51832373046875,-162.80642700195312,-16.98943519592285,24.583091735839844
1776020500345384700,5.528384765625,-162.50863647460938,-16.98370933532715,24.733009338378906
1776020500355445500,5.538445556640625,-162.29519653320312,-16.94480323791504,24.56731414794922
1776020500365505500,5.548505615234375,-162.93734741210938,-17.215394973754883,24.651771545410156
1776020500375566600,5.558566650390625,-162.6336669921875,-17.234106063842773,24.658226013183594
1776020500385627400,5.56862744140625,-162.37106323242188,-17.34903907775879,24.4345703125
1776020500395687700,5.578687744140625,-162.69110107421875,-17.115453720092773,24.393600463867188
1776020500405748500,5.58874853515625,-162.6787109375,-17.12769889831543,24.354461669921875
1776020500415809500,5.5988095703125,-162.48098754882812,-17.096166610717773,24.233070373535156
1776020500425869600,5.60886962890625,-162.18002319335938,-17.108617782592773,24.322059631347656
1776020500435930400,5.618930419921875,-162.59689331054688,-16.949689865112305,24.371238708496094
1776020500445991400,5.628991455078125,-162.40240478515625,-17.033231735229492,24.15898895263672
1776020500456051700,5.6390517578125,-162.36709594726562,-16.793779373168945,24.32892608642578
1776020500466112500,5.649112548828125,-162.68606567382812,-16.890169143676758,24.358139038085938
1776020500476172800,5.6591728515625,-162.36508178710938,-17.105867385864258,24.350624084472656
1776020500486233600,5.669233642578125,-162.2901611328125,-17.09819221496582,24.433082580566406
1776020500496294400,5.67929443359375,-162.10372924804688,-17.019105911254883,24.505172729492188
1776020500506354700,5.689354736328125,-161.64651489257812,-16.923742294311523,24.18377685546875
1776020500516415500,5.69941552734375,-161.84518432617188,-16.95591926574707,24.280288696289062
1776020500526476500,5.7094765625,-162.40985107421875,-16.62623405456543,24.275672912597656
1776020500536536600,5.71953662109375,-162.52313232421875,-16.659868240356445,24.459640502929688
1776020500546597400,5.729597412109375,-162.71502685546875,-16.59831428527832,24.471824645996094
1776020500556658400,5.739658447265625,-162.73922729492188,-16.791658401489258,24.610488891601562
1776020500566718500,5.749718505859375,-162.73825073242188,-16.560991287231445,24.545753479003906
1776020500576779500,5.759779541015625,-163.08001708984375,-16.558176040649414,24.692909240722656
1776020500586840600,5.769840576171875,-162.61907958984375,-16.471311569213867,24.794174194335938
1776020500596900400,5.779900390625,-162.62075805664062,-16.257524490356445,24.891563415527344
1776020500606961400,5.78996142578125,-163.11196899414062,-16.3374080657959,25.009567260742188
1776020500617022500,5.8000224609375,-163.07510375976562,-16.28351402282715,25.42298126220703
1776020500627082500,5.81008251953125,-163.00131225585938,-16.322874069213867,25.26244354248047
1776020500637143600,5.8201435546875,-163.283203125,-16.224729537963867,25.312644958496094
1776020500647203600,5.83020361328125,-162.74761962890625,-16.210092544555664,25.308319091796875
1776020500657264400,5.840264404296875,-162.97610473632812,-16.021120071411133,25.41521453857422
1776020500667325400,5.850325439453125,-163.50027465820312,-16.009069442749023,25.672012329101562
1776020500677385500,5.860385498046875,-163.23117065429688,-16.143529891967773,25.756973266601562
1776020500687446500,5.870446533203125,-163.12030029296875,-15.84553337097168,25.739913940429688
1776020500697507600,5.880507568359375,-162.76495361328125,-15.809164047241211,25.627853393554688
1776020500707567600,5.890567626953125,-162.82366943359375,-15.712991714477539,25.740478515625
1776020500717628400,5.90062841796875,-163.33132934570312,-15.681699752807617,25.848312377929688
1776020500727689500,5.910689453125,-163.62069702148438,-15.977285385131836,25.67127227783203
1776020500737749500,5.92074951171875,-163.15420532226562,-15.984640121459961,25.615982055664062
1776020500747810600,5.930810546875,-163.01181030273438,-16.15562629699707,25.718246459960938
1776020500757871600,5.94087158203125,-162.712646484375,-15.866735458374023,25.692054748535156
1776020500767931400,5.950931396484375,-162.50198364257812,-15.979001998901367,25.727523803710938
1776020500777992400,5.960992431640625,-162.89437866210938,-15.983129501342773,25.642921447753906
1776020500788053500,5.971053466796875,-162.8465576171875,-15.682085037231445,25.74811553955078
1776020500798113500,5.981113525390625,-163.1798095703125,-15.864545822143555,25.83403778076172
1776020500808174600,5.991174560546875,-162.86785888671875,-15.469541549682617,25.78900909423828
1776020500818235600,6.001235595703125,-162.48342895507812,-15.409048080444336,25.68372344970703
1776020500828295400,6.01129541015625,-162.22421264648438,-15.507211685180664,25.928260803222656
1776020500838356500,6.0213564453125,-162.36416625976562,-15.141115188598633,25.731605529785156
1776020500848417500,6.03141748046875,-162.40753173828125,-15.317167282104492,25.772125244140625
1776020500858477600,6.0414775390625,-162.4654541015625,-15.136117935180664,25.805809020996094
1776020500868538600,6.05153857421875,-162.53094482421875,-14.998483657836914,26.000755310058594
1776020500878598700,6.0615986328125,-163.08718872070312,-15.048364639282227,26.14788055419922
1776020500888659500,6.071659423828125,-162.99246215820312,-15.037542343139648,26.197463989257812
1776020500898720500,6.081720458984375,-162.74038696289062,-14.933477401733398,26.2244873046875
1776020500908780500,6.091780517578125,-162.6041259765625,-14.440889358520508,26.374481201171875
1776020500918841600,6.101841552734375,-163.263427734375,-14.117208480834961,26.94995880126953
1776020500928902700,6.111902587890625,-163.42767333984375,-14.421838760375977,27.408355712890625
1776020500938962400,6.12196240234375,-163.70755004882812,-14.090631484985352,28.106765747070312
1776020500949023500,6.1320234375,-164.0667724609375,-13.687093734741211,29.155624389648438
1776020500959084500,6.14208447265625,-164.455322265625,-13.229425430297852,30.11174774169922
1776020500969144600,6.15214453125,-165.09848022460938,-12.939001083374023,31.068206787109375
1776020500979205600,6.16220556640625,-165.6746826171875,-12.773927688598633,31.843063354492188
1776020500989266700,6.1722666015625,-166.189453125,-12.529333114624023,32.71827697753906
1776020500999326500,6.182326416015625,-166.75479125976562,-12.49140739440918,33.49143981933594
1776020501009387500,6.192387451171875,-167.29031372070312,-12.290468215942383,33.97417449951172
1776020501019448600,6.202448486328125,-167.465576171875,-12.224153518676758,34.487640380859375
1776020501029508600,6.212508544921875,-167.64657592773438,-12.098859786987305,34.70891571044922
1776020501039569700,6.222569580078125,-167.93350219726562,-11.928400039672852,34.83543395996094
1776020501049630700,6.232630615234375,-167.82049560546875,-11.809289932250977,35.046302795410156
1776020501059690500,6.2426904296875,-167.50808715820312,-11.566873550415039,34.99689483642578
1776020501069751600,6.25275146484375,-167.96652221679688,-11.684576034545898,35.2955322265625
1776020501079811600,6.2628115234375,-168.11532592773438,-11.757143020629883,35.22345733642578
1776020501089872600,6.27287255859375,-167.54974365234375,-11.943349838256836,34.92383575439453
1776020501099933700,6.28293359375,-167.58059692382812,-11.996332168579102,34.812538146972656
1776020501109993500,6.292993408203125,-167.71084594726562,-12.017854690551758,34.701324462890625
1776020501120054500,6.303054443359375,-167.25164794921875,-12.039117813110352,34.64857482910156
1776020501130115600,6.313115478515625,-166.96005249023438,-12.191926956176758,34.732582092285156
1776020501140175600,6.323175537109375,-166.8536376953125,-12.19074821472168,34.761009216308594
1776020501150236700,6.333236572265625,-166.52789306640625,-11.96476936340332,34.43944549560547
1776020501160297700,6.343297607421875,-166.5908203125,-12.170686721801758,34.42133331298828
1776020501170357500,6.353357421875,-166.29092407226562,-12.302999496459961,34.108154296875
1776020501180418600,6.36341845703125,-166.26864624023438,-12.337163925170898,33.64079284667969
1776020501190479600,6.373479736328125,-165.98928833007812,-12.700960159301758,33.516990661621094
1776020501200539600,6.38353955078125,-166.02706909179688,-12.878660202026367,33.305328369140625
1776020501210600700,6.3936005859375,-166.0419921875,-12.750814437866211,33.054542541503906
1776020501220661800,6.403661865234375,-165.697998046875,-12.717912673950195,32.97937774658203
1776020501230721500,6.413721435546875,-166.15164184570312,-12.64024543762207,33.241310119628906
1776020501240782600,6.423782470703125,-166.49435424804688,-12.77357292175293,33.498985290527344
1776020501250843600,6.43384375,-166.35498046875,-12.736013412475586,33.393821716308594
1776020501260903700,6.443903564453125,-166.23776245117188,-12.632482528686523,33.50206756591797
1776020501270964700,6.45396484375,-166.16165161132812,-12.75404167175293,33.401206970214844
1776020501281024800,6.464024658203125,-166.49783325195312,-12.89320182800293,33.47461700439453
1776020501291085600,6.47408544921875,-166.23117065429688,-12.81892204284668,33.29246520996094
1776020501301146600,6.484146728515625,-166.02011108398438,-12.943117141723633,33.367591857910156
1776020501311207200,6.494207275390625,-166.13153076171875,-12.839860916137695,33.704986572265625
1776020501321268000,6.50426806640625,-165.65689086914062,-12.675870895385742,33.463844299316406
1776020501331329000,6.5143291015625,-165.8265380859375,-12.791200637817383,33.57530975341797
1776020501341389000,6.52438916015625,-165.91485595703125,-12.725584030151367,33.48632049560547
1776020501351450000,6.5344501953125,-165.71307373046875,-12.56892204284668,33.23533630371094
1776020501361511200,6.54451123046875,-166.14468383789062,-12.445802688598633,33.249305725097656
1776020501371571200,6.5545712890625,-166.08148193359375,-12.389116287231445,33.3892822265625
1776020501381632000,6.564632080078125,-165.92059326171875,-12.44282341003418,33.15528106689453
1776020501391693000,6.574693115234375,-165.93826293945312,-12.377309799194336,33.265708923339844
1776020501401753000,6.584753173828125,-165.98397827148438,-12.264677047729492,33.34919738769531
1776020501411814100,6.594814208984375,-165.77081298828125,-12.196455001831055,33.24620056152344
1776020501421875200,6.604875244140625,-165.75973510742188,-12.072473526000977,33.328590393066406
1776020501431935200,6.614935302734375,-165.29953002929688,-12.028631210327148,33.48802185058594
1776020501441996000,6.62499609375,-165.41140747070312,-12.10285758972168,33.512367248535156
1776020501452057000,6.63505712890625,-165.50787353515625,-12.096158981323242,33.549720764160156
1776020501462117000,6.6451171875,-165.41131591796875,-11.777654647827148,33.83476257324219
1776020501472178200,6.65517822265625,-165.4404296875,-11.88221549987793,33.49689483642578
1776020501482239200,6.6652392578125,-165.0323486328125,-11.975862503051758,33.51801300048828
1776020501492299300,6.67529931640625,-165.12551879882812,-11.600198745727539,33.44288635253906
1776020501502360000,6.685360107421875,-165.40353393554688,-11.626447677612305,33.454307556152344
1776020501512420000,6.695420166015625,-165.34597778320312,-11.476572036743164,33.36004638671875
1776020501522481200,6.705481201171875,-165.48602294921875,-11.68272590637207,33.48748779296875
1776020501532542200,6.715542236328125,-165.11895751953125,-11.543699264526367,33.59132385253906
1776020501542602200,6.725602294921875,-165.31298828125,-11.672937393188477,33.699241638183594
1776020501552663000,6.7356630859375,-165.3394775390625,-11.616453170776367,33.78532409667969
1776020501562724000,6.74572412109375,-165.33367919921875,-11.599569320678711,33.72926330566406
1776020501572784000,6.7557841796875,-165.76907348632812,-11.82966423034668,33.85990905761719
1776020501582845200,6.76584521484375,-165.42715454101562,-11.712331771850586,33.85371398925781
1776020501592906200,6.77590625,-165.66375732421875,-11.555662155151367,33.809051513671875
1776020501602966300,6.78596630859375,-165.53094482421875,-11.597494125366211,33.76434326171875
1776020501613027000,6.796027099609375,-165.796630859375,-11.383943557739258,33.73356628417969
1776020501623088000,6.806088134765625,-165.96603393554688,-11.367055892944336,33.71437072753906
1776020501633148200,6.816148193359375,-166.01296997070312,-11.277463912963867,33.881683349609375
1776020501643209200,6.826209228515625,-165.86923217773438,-11.19593620300293,33.85125732421875
1776020501653270300,6.836270263671875,-165.63400268554688,-11.515024185180664,33.78252410888672
1776020501663330300,6.846330322265625,-165.55621337890625,-11.555059432983398,33.79010772705078
1776020501673391000,6.85639111328125,-165.60824584960938,-11.663549423217773,33.67974853515625
1776020501683452200,6.8664521484375,-165.55563354492188,-11.616411209106445,33.55437469482422
1776020501693512200,6.87651220703125,-165.63958740234375,-11.615888595581055,33.33563232421875
1776020501703573200,6.8865732421875,-165.84060668945312,-11.487356185913086,33.591705322265625
1776020501713634300,6.89663427734375,-165.21939086914062,-11.588567733764648,33.632408142089844
1776020501723694000,6.906694091796875,-165.1851806640625,-11.586000442504883,33.71185302734375
1776020501733755100,6.916755126953125,-165.60104370117188,-11.639608383178711,33.560035705566406
1776020501743815200,6.926815185546875,-165.56405639648438,-11.665914535522461,33.64142608642578
1776020501753876200,6.936876220703125,-165.39065551757812,-11.576913833618164,33.693443298339844
1776020501763937300,6.946937255859375,-165.36895751953125,-11.542337417602539,33.716148376464844
1776020501773997300,6.956997314453125,-165.65029907226562,-11.466825485229492,33.90129089355469
1776020501784058000,6.96705810546875,-165.51443481445312,-11.540491104125977,34.145835876464844
1776020501794119200,6.977119140625,-165.3082275390625,-11.626077651977539,34.027854919433594
1776020501804179200,6.98717919921875,-165.45657348632812,-11.696653366088867,34.17791748046875
1776020501814240300,6.997240234375,-165.91201782226562,-11.411626815795898,34.11952209472656
1776020501824301300,7.00730126953125,-166.03042602539062,-11.520631790161133,34.03699493408203
1776020501834361300,7.017361328125,-165.91152954101562,-11.508066177368164,34.17076110839844
1776020501844422100,7.027422119140625,-165.87985229492188,-11.571874618530273,34.36396026611328
1776020501854483200,7.037483154296875,-165.50686645507812,-11.64750862121582,34.044883728027344
1776020501864543200,7.047543212890625,-165.36642456054688,-11.622686386108398,34.114295959472656
1776020501874604300,7.057604248046875,-165.57888793945312,-11.443979263305664,34.06463623046875
1776020501884665300,7.067665283203125,-165.98440551757812,-11.292131423950195,34.15129089355469
1776020501894725000,7.07772509765625,-165.65887451171875,-11.689146041870117,34.055015563964844
1776020501904786200,7.0877861328125,-165.90921020507812,-11.82304573059082,34.07396697998047
1776020501914847200,7.09784716796875,-165.9161376953125,-11.851919174194336,34.018524169921875
1776020501924907300,7.1079072265625,-165.45193481445312,-11.828641891479492,33.90354919433594
1776020501934968300,7.11796826171875,-165.232666015625,-12.043668746948242,33.97198486328125
1776020501945028400,7.1280283203125,-165.6220703125,-11.942327499389648,34.10211944580078
1776020501955089200,7.138089111328125,-165.52407836914062,-11.738271713256836,34.036842346191406
1776020501965150200,7.148150146484375,-165.70361328125,-11.850736618041992,34.143394470214844
1776020501975210200,7.158210205078125,-165.83642578125,-11.673257827758789,33.98711395263672
1776020501985271300,7.168271240234375,-165.62725830078125,-11.729490280151367,33.97058868408203
1776020501995332400,7.178332275390625,-165.35302734375,-11.891660690307617,34.00464630126953
1776020502005392400,7.188392333984375,-166.0367431640625,-11.935522079467773,33.926666259765625
1776020502015453200,7.198453125,-166.05929565429688,-11.925027847290039,33.91716766357422
1776020502025514200,7.20851416015625,-165.95486450195312,-11.833425521850586,34.01365661621094
1776020502035574300,7.21857421875,-166.18930053710938,-11.46980094909668,34.06437683105469
1776020502045635300,7.22863525390625,-166.05828857421875,-11.528486251831055,33.77564239501953
1776020502055696100,7.238696044921875,-165.78457641601562,-11.728250503540039,34.01005554199219
1776020502065756200,7.248756103515625,-165.69271850585938,-11.619665145874023,34.038909912109375
1776020502075817200,7.258817138671875,-166.10183715820312,-11.635576248168945,34.24114227294922
1776020502085878000,7.2688779296875,-165.58477783203125,-11.458364486694336,34.035804748535156
1776020502095938300,7.278938232421875,-165.933837890625,-11.759077072143555,34.07798767089844
1776020502105999000,7.2889990234375,-166.07009887695312,-11.663347244262695,34.020530700683594
1776020502116060200,7.29906005859375,-165.83798217773438,-11.658468246459961,34.21397399902344
1776020502126120200,7.3091201171875,-166.06015014648438,-11.744375228881836,33.98689270019531
1776020502136181000,7.319180908203125,-165.88284301757812,-11.834627151489258,33.923736572265625
1776020502146242000,7.329241943359375,-165.82919311523438,-11.829736709594727,34.14228057861328
1776020502156302300,7.33930224609375,-165.88888549804688,-11.377534866333008,34.262451171875
1776020502166363100,7.349363037109375,-165.99264526367188,-11.459634780883789,34.17266082763672
1776020502176423400,7.35942333984375,-165.91421508789062,-11.414133071899414,34.38758850097656
1776020502186484200,7.369484130859375,-165.87661743164062,-11.550699234008789,34.37816619873047
1776020502196545000,7.379544921875,-165.89578247070312,-11.559022903442383,34.311546325683594
1776020502206605300,7.389605224609375,-165.59918212890625,-11.78465461730957,34.19165802001953
1776020502216666000,7.399666015625,-165.59799194335938,-11.871820449829102,34.28411865234375
1776020502226727200,7.40972705078125,-165.82949829101562,-12.048807144165039,34.147239685058594
1776020502236787200,7.419787109375,-165.58950805664062,-12.192708969116211,33.972259521484375
1776020502246848000,7.429847900390625,-165.453125,-11.939172744750977,33.78092956542969
1776020502256909000,7.439908935546875,-165.4293212890625,-12.116804122924805,33.94459533691406
1776020502266969000,7.449968994140625,-165.51870727539062,-12.28449821472168,33.73765563964844
1776020502277030100,7.460030029296875,-165.25991821289062,-12.318044662475586,33.50932312011719
1776020502287091200,7.47009130859375,-165.35760498046875,-12.276147842407227,33.62290954589844
1776020502297151000,7.48015087890625,-165.52255249023438,-12.345121383666992,33.6893310546875
1776020502307212000,7.4902119140625,-165.2606201171875,-12.310991287231445,33.49040222167969
1776020502317272600,7.5002724609375,-164.94454956054688,-12.031007766723633,33.58625030517578
1776020502327332600,7.51033251953125,-165.40097045898438,-12.136686325073242,33.458351135253906
1776020502337393400,7.520393310546875,-165.25674438476562,-12.17140007019043,33.57038116455078
1776020502347454500,7.530454345703125,-165.21820068359375,-12.18528938293457,33.678428649902344
1776020502357514500,7.540514404296875,-165.27108764648438,-12.214643478393555,33.45391082763672
1776020502367575600,7.550575439453125,-165.34292602539062,-12.204885482788086,33.34355163574219
1776020502377636600,7.56063671875,-165.45828247070312,-11.842985153198242,33.53857421875
1776020502387696400,7.5706962890625,-165.3629150390625,-11.837324142456055,33.75489044189453
1776020502397757400,7.58075732421875,-165.04397583007812,-11.903848648071289,33.8621826171875
1776020502407817700,7.590817626953125,-165.24050903320312,-11.717451095581055,33.88721466064453
1776020502417878500,7.60087841796875,-165.33352661132812,-11.875364303588867,34.05921936035156
1776020502427939600,7.610939697265625,-165.29534912109375,-11.906370162963867,34.09552764892578
1776020502437999600,7.62099951171875,-165.34988403320312,-12.040048599243164,34.29878234863281
1776020502448060400,7.631060302734375,-165.522216796875,-11.758630752563477,34.330902099609375
1776020502458121500,7.64112158203125,-165.47515869140625,-11.56733512878418,34.21277618408203
1776020502468181500,7.651181396484375,-165.4910888671875,-11.565153121948242,34.365089416503906
1776020502478242600,7.66124267578125,-166.1007080078125,-11.41752815246582,34.471923828125
1776020502488303600,7.6713037109375,-166.09088134765625,-11.63032341003418,34.48774719238281
1776020502498363600,7.68136376953125,-165.6751708984375,-11.870302200317383,34.29997253417969
1776020502508424400,7.691424560546875,-165.91488647460938,-11.52580451965332,34.239906311035156
1776020502518485500,7.701485595703125,-165.65924072265625,-11.870149612426758,34.12067413330078
1776020502528545500,7.711545654296875,-165.51852416992188,-11.834138870239258,34.119529724121094
1776020502538606600,7.721606689453125,-165.9351806640625,-11.877660751342773,34.28297424316406
1776020502548667600,7.731667724609375,-166.08065795898438,-11.855039596557617,34.206871032714844
1776020502558727400,7.7417275390625,-165.9736328125,-11.790857315063477,34.28038024902344
1776020502568788500,7.75178857421875,-165.88253784179688,-12.002481460571289,34.28687286376953
1776020502578848500,7.7618486328125,-165.72198486328125,-12.001951217651367,34.25572204589844
1776020502588909600,7.77190966796875,-165.95361328125,-11.93589973449707,34.173736572265625
1776020502598970600,7.781970703125,-166.190185546875,-11.809843063354492,33.96601867675781
1776020502609030700,7.79203076171875,-166.54806518554688,-11.664445877075195,34.339698791503906
1776020502619091500,7.802091552734375,-166.04043579101562,-11.501886367797852,34.25672912597656
1776020502629152500,7.812152587890625,-165.64144897460938,-11.879816055297852,34.170814514160156
1776020502639212500,7.822212646484375,-165.70834350585938,-12.076025009155273,34.12681579589844
1776020502649273600,7.832273681640625,-165.8541259765625,-11.918710708618164,34.00679016113281
1776020502659334700,7.842334716796875,-165.64486694335938,-11.913869857788086,34.074310302734375
1776020502669394700,7.852394775390625,-165.69900512695312,-11.945817947387695,34.02587890625
1776020502679455500,7.86245556640625,-166.10629272460938,-12.191679000854492,34.03459167480469
1776020502689516500,7.8725166015625,-165.97866821289062,-12.081541061401367,34.13147735595703
1776020502699576600,7.88257666015625,-165.9559326171875,-12.307451248168945,33.930091857910156
1776020502709637600,7.8926376953125,-166.16802978515625,-12.248678207397461,33.92814636230469
1776020502719698700,7.90269873046875,-165.71209716796875,-12.40263557434082,33.84132385253906
1776020502729758500,7.912758544921875,-165.97821044921875,-12.45484733581543,33.724853515625
1776020502739819500,7.922819580078125,-165.68896484375,-12.48234748840332,33.713409423828125
1776020502749880600,7.932880615234375,-165.79586791992188,-12.617685317993164,33.77466583251953
1776020502759940600,7.942940673828125,-166.12765502929688,-12.564878463745117,33.723052978515625
1776020502770001700,7.953001708984375,-166.15347290039062,-12.485052108764648,33.651222229003906
1776020502780062700,7.963062744140625,-166.06329345703125,-12.742578506469727,33.52123260498047
1776020502790122500,7.97312255859375,-165.95144653320312,-12.760354995727539,33.467430114746094
1776020502800183600,7.98318359375,-165.87051391601562,-12.698225021362305,33.558448791503906
1776020502810244600,7.99324462890625,-166.03228759765625,-12.775522232055664,33.700279235839844
1776020502820304600,8.0033046875,-165.88815307617188,-12.627561569213867,33.85907745361328
1776020502830365700,8.01336572265625,-166.31207275390625,-12.827436447143555,34.043601989746094
1776020502840425700,8.02342578125,-165.81552124023438,-13.140783309936523,33.933753967285156
1776020502850486500,8.033486572265625,-165.50332641601562,-12.910650253295898,34.03209686279297
1776020502860547600,8.043547607421875,-166.05419921875,-12.770769119262695,34.06694793701172
1776020502870607600,8.053607666015624,-166.06466674804688,-12.627965927124023,34.050575256347656
1776020502880668700,8.063668701171874,-166.56356811523438,-12.708173751831055,33.890830993652344
1776020502890729700,8.073729736328126,-166.20620727539062,-12.848939895629883,33.99678039550781
1776020502900789500,8.08378955078125,-166.36077880859375,-12.994134902954102,33.97150421142578
1776020502910850600,8.0938505859375,-166.34317016601562,-13.166524887084961,34.055076599121094
1776020502920911600,8.10391162109375,-166.60537719726562,-13.14561653137207,34.08880615234375
1776020502930971600,8.1139716796875,-166.59188842773438,-13.00080680847168,33.819374084472656
1776020502941032700,8.12403271484375,-166.52081298828125,-13.314359664916992,33.75792694091797
1776020502951093800,8.13409375,-166.23489379882812,-13.171735763549805,33.849143981933594
1776020502961153500,8.144153564453125,-166.26715087890625,-13.358083724975586,33.79010772705078
1776020502971214600,8.154214599609375,-166.17971801757812,-13.23051643371582,33.74873352050781
1776020502981275600,8.164275634765625,-166.10379028320312,-13.174997329711914,33.73126983642578
1776020502991335700,8.174335693359374,-166.17984008789062,-12.996454238891602,33.67766571044922
1776020503001396700,8.184396728515624,-165.976318359375,-13.195489883422852,33.7938232421875
1776020503011457800,8.194457763671876,-165.97964477539062,-12.994596481323242,33.8614501953125
1776020503021517600,8.204517578125,-166.35650634765625,-12.985300064086914,33.811004638671875
1776020503031578600,8.21457861328125,-166.38015747070312,-13.197980880737305,33.894691467285156
1776020503041639700,8.2246396484375,-166.19308471679688,-13.167821884155273,33.957061767578125
1776020503051699700,8.23469970703125,-165.74337768554688,-13.181680679321289,33.83815002441406
1776020503061760800,8.2447607421875,-166.10055541992188,-13.256612777709961,33.97747802734375
1776020503071820800,8.25482080078125,-166.36032104492188,-13.140901565551758,34.05540466308594
1776020503081881600,8.264881591796875,-166.4056396484375,-13.139276504516602,33.9083251953125
1776020503091942700,8.274942626953125,-166.19882202148438,-13.206644058227539,33.731414794921875
1776020503102002700,8.285002685546875,-166.60891723632812,-13.236845016479492,33.643096923828125
1776020503112063700,8.295063720703125,-166.72900390625,-13.245222091674805,33.97620391845703
1776020503122124500,8.30512451171875,-166.51718139648438,-13.150659561157227,33.88916015625
1776020503132184600,8.3151845703125,-166.45263671875,-13.21800422668457,33.71482849121094
1776020503142245600,8.32524560546875,-166.23248291015625,-13.320058822631836,33.77368927001953
1776020503152306400,8.335306396484375,-166.130859375,-13.165246963500977,33.72618103027344
1776020503162366700,8.34536669921875,-166.508056640625,-13.277162551879883,33.666542053222656
1776020503172427800,8.355427734375,-166.34381103515625,-13.210966110229492,33.67046356201172
1776020503182488600,8.365488525390624,-166.53176879882812,-13.269651412963867,33.62663269042969
1776020503192548600,8.375548583984376,-166.4986572265625,-12.887212753295898,33.41149139404297
1776020503202609700,8.385609619140626,-166.637939453125,-13.279977798461914,33.90508270263672
1776020503212670500,8.39567041015625,-166.68310546875,-13.373106002807617,33.860023498535156
1776020503222730800,8.405730712890625,-166.9371337890625,-13.488862991333008,33.81463623046875
1776020503232791600,8.41579150390625,-166.89605712890625,-13.273305892944336,33.687599182128906
1776020503242852600,8.4258525390625,-166.88262939453125,-12.977350234985352,33.692970275878906
1776020503252912600,8.43591259765625,-166.7420654296875,-13.506322860717773,33.80345916748047
1776020503262973400,8.445973388671876,-166.38418579101562,-13.556676864624023,33.543548583984375
1776020503273033700,8.45603369140625,-166.90023803710938,-13.369462966918945,33.538108825683594
1776020503283094500,8.466094482421875,-166.73831176757812,-13.521894454956055,33.430442810058594
1776020503293155600,8.476155517578125,-166.42269897460938,-13.548543930053711,33.353790283203125
1776020503303215600,8.486215576171874,-166.78018188476562,-13.636285781860352,33.29278564453125
1776020503313276700,8.496276611328126,-166.5499267578125,-13.544694900512695,33.1790771484375
1776020503323337700,8.506337646484376,-166.20916748046875,-13.515832901000977,33.14729309082031
1776020503333397500,8.5163974609375,-166.35162353515625,-13.375677108764648,33.17125701904297
1776020503343458600,8.52645849609375,-166.44131469726562,-13.57972526550293,33.24877166748047
1776020503353519600,8.53651953125,-166.44515991210938,-13.711584091186523,33.271087646484375
1776020503363579600,8.54657958984375,-166.51544189453125,-13.718328475952148,33.333709716796875
1776020503373640700,8.556640625,-166.666748046875,-13.72877311706543,33.38047790527344
1776020503383701800,8.56670166015625,-166.52212524414062,-13.751646041870117,33.128334045410156
1776020503393761500,8.576761474609375,-166.90689086914062,-13.716730117797852,33.060516357421875
1776020503403822600,8.586822509765625,-167.0081787109375,-13.757036209106445,32.97052001953125
1776020503413883600,8.596883544921875,-166.66424560546875,-13.915655136108398,32.69890594482422
1776020503423943700,8.606943603515624,-166.5682373046875,-13.797422409057617,32.613502502441406
1776020503434004700,8.617004638671874,-166.24615478515625,-14.031396865844727,32.97950744628906
1776020503444065800,8.627065673828126,-166.52847290039062,-13.833059310913086,32.91596221923828
1776020503454125600,8.63712548828125,-166.57644653320312,-13.943975448608398,32.975189208984375
1776020503464186600,8.6471865234375,-166.2877197265625,-14.15568733215332,32.9610595703125
1776020503474247700,8.65724755859375,-166.53741455078125,-14.283285140991211,33.044036865234375
1776020503484307700,8.6673076171875,-167.05154418945312,-14.402563095092773,32.8153076171875
1776020503494368800,8.67736865234375,-166.62167358398438,-14.282770156860352,32.89996337890625
1776020503504429800,8.687429931640626,-166.97909545898438,-14.142210006713867,32.973106384277344
1776020503514489600,8.697489501953125,-166.6982421875,-14.143064498901367,33.21099090576172
1776020503524550700,8.707550537109375,-166.5367431640625,-14.27528190612793,32.9892578125
1776020503534610700,8.717610595703125,-166.6036376953125,-14.353464126586914,33.091575622558594
1776020503544671700,8.727671630859374,-166.57302856445312,-14.347234725952148,32.881439208984375
1776020503554732800,8.73773291015625,-166.5584716796875,-14.162065505981445,32.92316436767578
1776020503564792600,8.74779248046875,-166.63241577148438,-14.268091201782227,32.854766845703125
1776020503574853600,8.757853515625,-166.6693115234375,-14.366579055786133,32.86460876464844
1776020503584914700,8.767914794921875,-166.66238403320312,-14.432294845581055,33.03184509277344
1776020503594974700,8.777974609375,-166.76812744140625,-14.175104141235352,32.992279052734375
1776020503605035800,8.788035888671875,-166.57400512695312,-14.110933303833008,33.22924041748047
1776020503615096800,8.798096923828124,-167.10726928710938,-14.068578720092773,33.237281799316406
1776020503625156600,8.808156494140626,-166.864501953125,-14.291032791137695,33.25819396972656
1776020503635217700,8.8182177734375,-166.64047241210938,-14.508882522583008,32.92536163330078
1776020503645278700,8.82827880859375,-166.82101440429688,-14.355447769165039,33.01478576660156
1776020503655338800,8.8383388671875,-166.63916015625,-14.277490615844727,33.130950927734375
1776020503665399800,8.84839990234375,-166.7637939453125,-14.308191299438477,33.08869934082031
1776020503675460900,8.8584609375,-166.26144409179688,-14.163331985473633,33.067527770996094
1776020503685520600,8.868520751953126,-166.69631958007812,-14.122701644897461,33.055946350097656
1776020503695581700,8.878581787109376,-166.84878540039062,-14.160566329956055,33.085845947265625
1776020503705642800,8.888642822265625,-166.69638061523438,-14.199548721313477,32.98236846923828
1776020503715702800,8.898702880859375,-166.58755493164062,-14.433591842651367,32.97557067871094
1776020503725763800,8.908763916015625,-166.67950439453125,-14.432512283325195,32.77880096435547
1776020503735823600,8.91882373046875,-166.716552734375,-14.414434432983398,32.883636474609375
1776020503745884700,8.928884765625,-166.6070556640625,-14.56413459777832,32.85198211669922
1776020503755945700,8.93894580078125,-166.96029663085938,-14.820169448852539,32.93279266357422
1776020503766005800,8.949005859375,-166.43710327148438,-14.860269546508789,32.673370361328125
1776020503776066800,8.95906689453125,-166.8082275390625,-14.888296127319336,32.811614990234375
1776020503786128000,8.9691279296875,-166.99102783203125,-14.803586959838867,32.88593292236328
1776020503796187600,8.979187744140624,-166.771240234375,-14.880491256713867,33.09736633300781
1776020503806248700,8.989248779296876,-167.31405639648438,-14.62382698059082,33.08171081542969
1776020503816309800,8.999309814453126,-166.76162719726562,-14.575292587280273,32.869407653808594
1776020503826369800,9.009369873046875,-167.03720092773438,-14.718900680541992,33.112586975097656
1776020503836430800,9.019430908203125,-166.8302001953125,-14.694406509399414,33.187416076660156
1776020503846492000,9.029491943359375,-167.00247192382812,-14.744745254516602,33.19159698486328
1776020503856551700,9.0395517578125,-167.1148681640625,-14.650339126586914,33.15570831298828
1776020503866612700,9.04961279296875,-166.99139404296875,-14.911859512329102,33.09722137451172
1776020503876673800,9.059673828125,-166.73129272460938,-14.73939323425293,32.90479278564453
1776020503886733800,9.06973388671875,-166.97042846679688,-14.613893508911133,32.78083038330078
1776020503896795000,9.079794921875,-167.09750366210938,-14.403303146362305,32.97575378417969
1776020503906855700,9.089855712890625,-166.70083618164062,-14.673421859741211,32.80170440673828
1776020503916915700,9.099915771484374,-167.09896850585938,-14.704813003540039,33.01310729980469
1776020503926976800,9.109976806640624,-166.634521484375,-14.724958419799805,32.92767333984375
1776020503937037800,9.120037841796876,-166.53482055664062,-14.735319137573242,33.0380859375
1776020503947097900,9.130097900390625,-166.49447631835938,-14.732526779174805,33.010902404785156
1776020503957159000,9.140158935546875,-166.82843017578125,-14.858785629272461,33.11103820800781
1776020503967219700,9.1502197265625,-166.7896728515625,-14.805536270141602,33.10889434814453
1776020503977279700,9.16027978515625,-166.63430786132812,-14.909635543823242,33.050392150878906
1776020503987340800,9.1703408203125,-166.71527099609375,-14.746706008911133,33.01349639892578
1776020503997400800,9.18040087890625,-166.90383911132812,-14.658025741577148,33.01287078857422
1776020504007462000,9.1904619140625,-167.03826904296875,-14.644193649291992,33.07307434082031
1776020504017522700,9.200522705078125,-167.09033203125,-14.635507583618164,33.32450866699219
1776020504027582700,9.210582763671875,-166.82589721679688,-14.663328170776367,33.15099334716797
1776020504037643800,9.220643798828124,-166.74270629882812,-14.71894645690918,33.08197021484375
1776020504047704600,9.23070458984375,-166.96759033203125,-14.616960525512695,32.846832275390625
1776020504057764900,9.240764892578126,-166.40267944335938,-14.588678359985352,33.032798767089844
1776020504067826000,9.250825927734375,-166.62799072265625,-14.552770614624023,33.07328796386719
1776020504077886500,9.260886474609375,-166.978759765625,-14.667791366577148,33.03001403808594
1776020504087946800,9.27094677734375,-167.06326293945312,-14.503744125366211,33.05229187011719
1776020504098007600,9.281007568359374,-166.748779296875,-14.635648727416992,33.02985382080078
1776020504108068600,9.291068603515624,-166.45098876953125,-14.598833084106445,32.97734832763672
1776020504118129000,9.30112890625,-166.50537109375,-14.70713996887207,33.19245910644531
1776020504128189700,9.311189697265625,-166.50225830078125,-14.396928787231445,33.106895446777344
1776020504138250500,9.32125048828125,-166.60086059570312,-14.47993278503418,33.24571228027344
1776020504148310800,9.331310791015625,-166.57498168945312,-14.316457748413086,33.15541076660156
1776020504158371600,9.34137158203125,-166.5548095703125,-14.511579513549805,33.284751892089844
1776020504168432600,9.3514326171875,-166.4942626953125,-14.676054000854492,33.35485076904297
1776020504178492700,9.36149267578125,-166.76321411132812,-14.616849899291992,33.33513641357422
1776020504188553700,9.3715537109375,-167.1531982421875,-14.541719436645508,33.42567443847656
1776020504198614500,9.381614501953125,-166.53396606445312,-14.306970596313477,33.45586395263672
1776020504208674600,9.391674560546875,-166.51394653320312,-14.347352981567383,33.41395568847656
1776020504218735600,9.401735595703125,-166.27291870117188,-14.553098678588867,33.448692321777344
1776020504228795600,9.411795654296874,-166.59811401367188,-14.521707534790039,33.67771911621094
1776020504238856700,9.421856689453126,-166.80111694335938,-14.40742301940918,33.665687561035156
1776020504248917800,9.431917724609375,-166.5589599609375,-14.535501480102539,33.5234375
1776020504258977500,9.4419775390625,-166.82257080078125,-14.678594589233398,33.44044494628906
1776020504269038600,9.45203857421875,-166.23297119140625,-14.484472274780273,33.34644317626953
1776020504279099600,9.462099609375,-166.21115112304688,-14.262079238891602,33.63630676269531
1776020504289159700,9.47215966796875,-166.16763305664062,-14.335046768188477,33.65147399902344
1776020504299220700,9.482220703125,-166.30966186523438,-14.358804702758789,33.676368713378906
1776020504309281500,9.492281494140625,-166.30166625976562,-14.405736923217773,33.64033508300781
1776020504319341800,9.502341796875,-166.59039306640625,-14.160417556762695,33.666748046875
1776020504329403000,9.51240283203125,-166.71878051757812,-14.363466262817383,33.77288055419922
1776020504339464000,9.5224638671875,-166.56948852539062,-14.428197860717773,33.710487365722656
1776020504349524000,9.53252392578125,-166.69970703125,-14.368005752563477,33.524871826171875
1776020504359585000,9.5425849609375,-166.15432739257812,-14.598722457885742,33.49726867675781
1776020504369645800,9.552645751953126,-166.3858642578125,-14.62013053894043,33.556373596191406
1776020504379705900,9.562705810546875,-166.51181030273438,-14.336206436157227,33.74327850341797
1776020504389767000,9.572766845703125,-166.62811279296875,-14.275957107543945,33.702964782714844
1776020504399828000,9.582827880859375,-166.26754760742188,-14.263261795043945,33.93238830566406
1776020504409888000,9.592887939453124,-166.7708740234375,-14.131669998168945,33.90870666503906
1776020504419949000,9.602948974609374,-166.68756103515625,-14.28209114074707,33.714927673339844
1776020504430009900,9.613009765625,-166.47964477539062,-14.29023551940918,33.752464294433594
1776020504440070000,9.62306982421875,-166.25860595703125,-14.275468826293945,33.717918395996094
1776020504450131000,9.633130859375,-166.46743774414062,-14.144979476928711,33.795631408691406
1776020504460192000,9.64319189453125,-166.07479858398438,-14.066556930541992,33.72151184082031
1776020504470252000,9.653251953125,-166.29806518554688,-13.897939682006836,33.83699035644531
1776020504480313000,9.66331298828125,-166.4501953125,-13.736982345581055,33.799415588378906
1776020504490372900,9.673372802734375,-166.61221313476562,-14.05919075012207,33.52796936035156
1776020504500434000,9.683433837890625,-166.66464233398438,-14.145360946655273,33.71489715576172
1776020504510495000,9.693494873046875,-166.31314086914062,-14.070135116577148,33.52629089355469
1776020504520555000,9.703554931640625,-166.58889770507812,-14.137506484985352,33.65723419189453
1776020504530616000,9.713615966796874,-166.20111083984375,-14.116376876831055,33.61261749267578
1776020504540676900,9.7236767578125,-166.54995727539062,-14.06989860534668,33.538658142089844
1776020504550737000,9.73373681640625,-166.51272583007812,-14.30186653137207,33.531532287597656
1776020504560798000,9.7437978515625,-166.58853149414062,-14.496683120727539,33.527732849121094
1776020504570859000,9.75385888671875,-166.5155029296875,-14.181520462036133,33.472442626953125
1776020504580919000,9.7639189453125,-166.49771118164062,-14.355749130249023,33.47599792480469
1776020504590980000,9.77397998046875,-166.75985717773438,-14.53156852722168,33.446746826171875
1776020504601041000,9.784041015625,-166.5379638671875,-14.19999885559082,33.289093017578125
1776020504611101000,9.794100830078126,-166.90695190429688,-14.165254592895508,33.393028259277344
1776020504621162000,9.804161865234375,-166.7806396484375,-14.152284622192383,33.23280334472656
1776020504631223000,9.81422314453125,-166.37576293945312,-14.423994064331055,33.273590087890625
1776020504641283000,9.824282958984375,-166.08868408203125,-14.328657150268555,33.038658142089844
1776020504651344100,9.83434423828125,-166.5211181640625,-14.412199020385742,33.10430908203125
1776020504661405000,9.844405029296874,-166.82437133789062,-14.211523056030273,33.16114044189453
1776020504671465000,9.85446484375,-166.96923828125,-14.457849502563477,33.20561218261719
1776020504681526000,9.864526123046875,-166.55203247070312,-14.312738418579102,33.411865234375
1776020504691587000,9.874587158203125,-166.4200439453125,-14.206281661987305,33.623008728027344
1776020504701647000,9.884647216796875,-166.532958984375,-14.125581741333008,33.43843078613281
1776020504711708200,9.894708251953125,-166.94363403320312,-14.143045425415039,33.422706604003906
1776020504721768000,9.904767822265624,-166.49169921875,-14.351785659790039,33.51432800292969
1776020504731829000,9.9148291015625,-166.49359130859375,-14.515478134155273,33.704612731933594
1776020504741890000,9.92489013671875,-166.204345703125,-14.322023391723633,33.76903533935547
1776020504751950000,9.9349501953125,-166.60726928710938,-14.139638900756836,33.602378845214844
1776020504762011100,9.94501123046875,-166.50759887695312,-14.464792251586914,33.62657165527344
1776020504772072000,9.955072021484375,-166.46707153320312,-14.365167617797852,33.53337860107422
1776020504782132000,9.965132080078124,-166.49481201171875,-14.267595291137695,33.43763732910156
1776020504792193000,9.975193115234376,-166.37576293945312,-14.345930099487305,33.21269989013672
1776020504802254000,9.985254150390626,-166.18106079101562,-14.148256301879883,33.27361297607422
1776020504812314000,9.995314208984375,-166.7308349609375,-14.098459243774414,33.421348571777344
1776020504822375200,10.005375244140625,-166.74627685546875,-14.36119270324707,33.341468811035156
1776020504832436000,10.01543603515625,-166.59500122070312,-14.292814254760742,33.39091491699219
1776020504842496000,10.02549609375,-166.92050170898438,-14.211099624633789,33.18617248535156
1776020504852557000,10.03555712890625,-166.74148559570312,-14.505552291870117,33.386756896972656
1776020504862617900,10.045617919921876,-166.62646484375,-14.540681838989258,33.449729919433594
1776020504872678100,10.05567822265625,-166.63815307617188,-14.514974594116211,33.40882873535156
1776020504882739000,10.065739013671875,-166.80816650390625,-14.593622207641602,33.25006866455078
1776020504892799700,10.0757998046875,-167.21234130859375,-14.128114700317383,33.3570556640625
1776020504902860000,10.085860107421874,-166.90682983398438,-14.443708419799805,33.44636535644531
1776020504912920800,10.0959208984375,-166.74041748046875,-14.600988388061523,33.41899108886719
1776020504922982000,10.10598193359375,-166.88320922851562,-14.63355827331543,33.62841033935547
1776020504933042200,10.116042236328125,-166.90234375,-14.59312629699707,33.40757751464844
1776020504943102700,10.126102783203125,-166.79718017578125,-14.541593551635742,33.43956756591797
1776020504953163800,10.136163818359375,-166.80856323242188,-14.31376838684082,33.48893737792969
1776020504963223800,10.146223876953124,-167.03741455078125,-14.36720085144043,33.641136169433594
1776020504973284900,10.156284912109374,-167.10641479492188,-14.23872184753418,33.7135009765625
1776020504983345200,10.16634521484375,-166.82827758789062,-14.515718460083008,33.615745544433594
1776020504993406000,10.176406005859375,-166.96145629882812,-14.23381233215332,33.604766845703125
1776020505003466800,10.186466796875,-167.18618774414062,-14.257467269897461,33.477325439453125
1776020505013527000,10.196527099609375,-167.12680053710938,-14.251100540161133,33.36128234863281
1776020505023587800,10.206587890625,-167.0360107421875,-14.112520217895508,33.44232940673828
1776020505033649000,10.21664892578125,-167.23233032226562,-13.856191635131836,33.608558654785156
1776020505043709000,10.226708984375,-167.61822509765625,-13.989614486694336,33.568870544433594
1776020505053770000,10.23677001953125,-167.53326416015625,-14.056798934936523,33.47007751464844
1776020505063830800,10.246830810546875,-167.10870361328125,-14.45024299621582,33.65721893310547
1776020505073890800,10.256890869140625,-167.06924438476562,-14.334020614624023,33.51130676269531
1776020505083951900,10.266951904296874,-166.51419067382812,-14.308923721313477,33.69348907470703
1776020505094013000,10.277012939453124,-166.67233276367188,-14.440752029418945,33.57593536376953
1776020505104073000,10.287072998046876,-166.97885131835938,-14.580095291137695,33.34864044189453
1776020505114133800,10.2971337890625,-166.57626342773438,-14.538602828979492,33.242332458496094
1776020505124194800,10.30719482421875,-166.8489990234375,-14.257997512817383,33.438011169433594
1776020505134254800,10.3172548828125,-166.6505126953125,-14.42976188659668,33.322288513183594
1776020505144316000,10.32731591796875,-166.9951171875,-14.256875991821289,33.358192443847656
1776020505154377000,10.337376953125,-166.9874267578125,-14.239873886108398,33.262908935546875
1776020505164437000,10.34743701171875,-167.43045043945312,-14.142915725708008,33.07634735107422
1776020505174497800,10.357497802734375,-167.32586669921875,-14.009359359741211,33.25065612792969
1776020505184558800,10.367558837890625,-166.95736694335938,-14.159704208374023,33.463783264160156
1776020505194619000,10.377618896484375,-166.664794921875,-14.19764518737793,33.36540985107422
1776020505204680000,10.387679931640625,-166.92501831054688,-14.265710830688477,33.488731384277344
1776020505214740000,10.397739990234374,-166.94464111328125,-14.224302291870117,33.70501708984375
1776020505224801000,10.407801025390626,-166.58203125,-14.183992385864258,33.543975830078125
1776020505234861800,10.41786181640625,-166.96469116210938,-14.141889572143555,33.569297790527344
1776020505244921900,10.427921875,-167.06716918945312,-13.969778060913086,33.59626770019531
1776020505254983000,10.43798291015625,-167.018798828125,-13.965932846069336,33.62864685058594
1776020505265044000,10.4480439453125,-167.08340454101562,-13.951837539672852,33.490142822265625
1776020505275104000,10.45810400390625,-167.08126831054688,-13.791521072387695,33.578269958496094
1776020505285164800,10.468164794921876,-167.15090942382812,-13.858503341674805,33.80232238769531
1776020505295225900,10.478225830078125,-167.46377563476562,-14.131864547729492,33.702239990234375
1776020505305286000,10.488285888671875,-167.14242553710938,-13.979425430297852,33.670372009277344
1776020505315346400,10.498346435546875,-166.86569213867188,-13.846353530883789,33.64680480957031
1776020505325407500,10.508407470703125,-166.718017578125,-13.897512435913086,33.47898864746094
1776020505335467300,10.51846728515625,-166.931396484375,-14.032957077026367,33.424903869628906
1776020505345528300,10.5285283203125,-167.16043090820312,-13.841886520385742,33.409950256347656
1776020505355589400,10.53858935546875,-166.86685180664062,-14.054708480834961,33.18718719482422
1776020505365649400,10.5486494140625,-167.14617919921875,-13.920385360717773,33.5352783203125
1776020505375710500,10.55871044921875,-166.95877075195312,-14.029150009155273,33.67443084716797
1776020505385771500,10.568771484375,-166.73568725585938,-14.009923934936523,33.63982391357422
1776020505395831300,10.578831298828124,-166.71380615234375,-14.027101516723633,33.72565460205078
1776020505405892400,10.588892333984376,-166.76409912109375,-14.068941116333008,33.675575256347656
1776020505415953400,10.598953369140625,-166.78482055664062,-13.929738998413086,33.48748016357422
1776020505426013400,10.609013427734375,-166.89593505859375,-13.969820022583008,33.525169372558594
1776020505436074500,10.619074462890625,-167.16024780273438,-13.960554122924805,33.52764892578125
1776020505446135600,10.629135498046875,-167.13787841796875,-14.154577255249023,33.339866638183594
1776020505456195300,10.6391953125,-166.44119262695312,-14.294439315795898,33.43389892578125
1776020505466256400,10.64925634765625,-166.44061279296875,-14.123830795288086,33.63438415527344
1776020505476317400,10.6593173828125,-166.72967529296875,-14.026491165161133,33.573143005371094
1776020505486377500,10.66937744140625,-166.70831298828125,-14.050264358520508,33.52312469482422
1776020505496438500,10.6794384765625,-166.27645874023438,-14.202642440795898,33.29534912109375
1776020505506498300,10.689498291015624,-166.85025024414062,-13.983415603637695,33.24769592285156
1776020505516559400,10.699559326171874,-166.96875,-14.129724502563477,33.36634826660156
1776020505526620400,10.709620361328126,-166.76223754882812,-14.253812789916992,33.68122863769531
1776020505536680400,10.719680419921875,-166.84994506835938,-13.937799453735352,33.39454650878906
1776020505546741500,10.729741455078125,-166.1673583984375,-13.709527969360352,33.30580139160156
1776020505556802600,10.739802490234375,-166.38861083984375,-13.923826217651367,33.15716552734375
1776020505566862300,10.7498623046875,-166.18084716796875,-13.944013595581055,33.34739685058594
1776020505576923400,10.75992333984375,-166.40582275390625,-14.16218376159668,33.394142150878906
1776020505586984400,10.769984375,-166.43798828125,-14.289216995239258,33.39305877685547
1776020505597044500,10.78004443359375,-166.53369140625,-14.151117324829102,33.31336212158203
1776020505607105500,10.79010546875,-166.79769897460938,-14.377813339233398,33.22370910644531
1776020505617166600,10.80016650390625,-166.76031494140625,-14.337236404418945,33.29847717285156
1776020505627226400,10.810226318359375,-166.40090942382812,-14.753374099731445,33.152557373046875
1776020505637287400,10.820287353515624,-166.64111328125,-14.636724472045898,32.96845245361328
1776020505647348500,10.830348388671876,-166.39556884765625,-14.63569450378418,32.74989318847656
1776020505657408500,10.840408447265625,-166.6904296875,-14.649660110473633,32.75005340576172
1776020505667469600,10.850469482421875,-166.53619384765625,-14.55638313293457,32.83531951904297
1776020505677530600,10.860530517578125,-166.43325805664062,-14.584131240844727,32.755165100097656
1776020505687590400,10.87059033203125,-166.63491821289062,-14.763856887817383,32.69670104980469
1776020505697651500,10.8806513671875,-166.66793823242188,-14.883268356323242,32.83136749267578
1776020505707712500,10.89071240234375,-167.1099853515625,-14.776456832885742,32.72827911376953
1776020505717772500,10.9007724609375,-166.76177978515625,-14.910181045532227,32.73689270019531
1776020505727833600,10.91083349609375,-166.87411499023438,-14.764806747436523,32.40960693359375
1776020505737894700,10.920894775390625,-166.22439575195312,-14.68922233581543,32.36878967285156
1776020505747954400,10.930954345703125,-166.47341918945312,-14.93718147277832,32.33416748046875
1776020505758015500,10.941015380859374,-166.32131958007812,-14.907228469848633,32.193572998046875
1776020505768075500,10.951075439453126,-166.33279418945312,-14.875856399536133,31.956809997558594
1776020505778136600,10.961136474609376,-166.12091064453125,-14.87421989440918,31.99041748046875
1776020505788197600,10.97119775390625,-166.47164916992188,-14.942052841186523,32.01837921142578
1776020505798257400,10.98125732421875,-166.1251220703125,-14.743249893188477,32.12840270996094
1776020505808318500,10.991318359375,-166.32366943359375,-14.595571517944336,32.174591064453125
1776020505818379500,11.001379638671875,-166.42813110351562,-14.684652328491211,32.25523376464844
1776020505828439600,11.011439453125,-166.19912719726562,-14.573808670043945,32.25572204589844
1776020505838500600,11.02150048828125,-166.57235717773438,-14.566156387329102,32.18004608154297
1776020505848561400,11.0315615234375,-166.6556396484375,-14.526002883911133,32.3323974609375
1776020505858621400,11.041621337890625,-166.462890625,-14.621530532836914,32.425453186035156
1776020505868682500,11.0516826171875,-166.37173461914062,-14.636983871459961,32.591102600097656
1776020505878743300,11.061743408203125,-166.53875732421875,-14.16276741027832,32.69056701660156
1776020505888803600,11.071803466796876,-166.59359741210938,-14.146020889282227,32.870521545410156
1776020505898864400,11.081864501953126,-166.81048583984375,-14.222101211547852,33.04602813720703
1776020505908925400,11.091925537109375,-166.7054443359375,-13.808893203735352,32.798980712890625
1776020505918985500,11.1019853515625,-166.95867919921875,-13.827325820922852,32.680511474609375
1776020505929046300,11.11204638671875,-167.01223754882812,-13.74030876159668,32.65617370605469
1776020505939107300,11.122107421875,-166.84652709960938,-13.737615585327148,32.49659729003906
1776020505949167600,11.132167724609374,-167.09979248046875,-13.910894393920898,32.63568115234375
1776020505959228400,11.142228515625,-166.2930908203125,-13.894342422485352,32.47584533691406
1776020505969289500,11.15228955078125,-166.92620849609375,-13.781641006469727,32.34526062011719
1776020505979349200,11.162349365234375,-167.09661865234375,-13.918970108032227,32.426292419433594
1776020505989410300,11.172410400390625,-167.20803833007812,-13.743162155151367,32.51850128173828
1776020505999470600,11.182470703125,-166.68167114257812,-13.801061630249023,32.63140869140625
1776020506009531400,11.192531494140624,-166.97918701171875,-13.513006210327148,32.638671875
1776020506019592400,11.202592529296876,-166.72332763671875,-13.66673469543457,32.59281921386719
1776020506029652500,11.212652587890625,-166.8223876953125,-13.394937515258789,32.55177307128906
1776020506039713300,11.22271337890625,-166.67861938476562,-13.490327835083008,32.6265869140625
1776020506049774300,11.2327744140625,-167.93792724609375,-14.682851791381836,34.281829833984375
1776020506059834400,11.24283447265625,-167.94607543945312,-14.327665328979492,34.3304443359375
1776020506069895400,11.2528955078125,-167.7073974609375,-14.485086441040039,33.739479064941406
1776020506079956500,11.26295654296875,-167.57891845703125,-14.299203872680664,33.56947326660156
1776020506090016300,11.273016357421875,-167.46707153320312,-14.06981086730957,33.228004455566406
1776020506100077300,11.283077392578125,-167.41964721679688,-13.850812911987305,32.530311584472656
1776020506110138400,11.293138427734375,-167.5843505859375,-13.49513053894043,32.35289764404297
1776020506120198400,11.303198486328125,-167.7288818359375,-13.84330940246582,31.590850830078125
1776020506130259500,11.313259521484374,-167.49996948242188,-14.566995620727539,30.963722229003906
1776020506140320500,11.323320556640626,-166.77166748046875,-15.424428939819336,30.6815185546875
1776020506150380300,11.33338037109375,-166.91143798828125,-16.177499771118164,30.852020263671875
1776020506160441300,11.34344140625,-167.2066650390625,-15.858015060424805,31.380096435546875
1776020506170502400,11.35350244140625,-167.29132080078125,-15.213350296020508,31.921669006347656
1776020506180562400,11.3635625,-167.08712768554688,-14.582448959350586,32.406288146972656
1776020506190623500,11.37362353515625,-167.2840576171875,-14.064809799194336,32.173988342285156
1776020506200684500,11.3836845703125,-166.802978515625,-13.84062385559082,32.260353088378906
1776020506210744300,11.393744384765625,-167.086669921875,-14.031393051147461,32.121238708496094
1776020506220805400,11.403805419921875,-166.67855834960938,-14.30143928527832,31.672317504882812
1776020506230866400,11.413866455078125,-166.18115234375,-14.828363418579102,31.68573760986328
1776020506240926500,11.423926513671875,-166.58770751953125,-14.833314895629883,31.418678283691406
1776020506250987500,11.433987548828124,-166.25082397460938,-15.110712051391602,31.330642700195312
1776020506261048600,11.444048583984374,-166.1878662109375,-15.227594375610352,31.029335021972656
1776020506271108400,11.4541083984375,-166.32803344726562,-14.980112075805664,30.71295928955078
1776020506281169400,11.46416943359375,-166.35452270507812,-14.713068008422852,30.62969207763672
1776020506291230500,11.47423046875,-165.77413940429688,-14.829122543334961,30.38629913330078
1776020506301290500,11.48429052734375,-165.76138305664062,-14.795988082885742,30.005645751953125
1776020506311351600,11.4943515625,-165.51971435546875,-14.951356887817383,29.751441955566406
1776020506321411300,11.504411376953126,-165.34463500976562,-15.332796096801758,29.483352661132812
1776020506331472400,11.514472412109376,-165.94989013671875,-15.549413681030273,29.399887084960938
1776020506341533400,11.524533447265625,-165.707275390625,-15.563940048217773,29.52710723876953
1776020506351593200,11.53459326171875,-166.13571166992188,-15.387807846069336,29.803863525390625
1776020506361654300,11.544654296875,-166.02816772460938,-14.791662216186523,30.032546997070312
1776020506371715300,11.55471533203125,-165.89389038085938,-14.73011589050293,30.44513702392578
1776020506381775400,11.564775390625,-166.05853271484375,-14.48481559753418,30.738548278808594
1776020506391836400,11.57483642578125,-166.1142578125,-14.042577743530273,30.87047576904297
1776020506401897500,11.5848974609375,-166.1866455078125,-14.095388412475586,30.533554077148438
1776020506411957200,11.594957275390625,-165.753173828125,-14.200529098510742,30.32524871826172
1776020506422018300,11.605018310546875,-165.78826904296875,-14.34922981262207,30.111602783203125
1776020506432079400,11.615079345703125,-165.77871704101562,-14.74504280090332,29.948837280273438
1776020506442139400,11.625139404296876,-165.60250854492188,-14.870782852172852,29.70539093017578
1776020506452200400,11.635200439453126,-165.524658203125,-14.913351058959961,29.37384033203125
1776020506462261500,11.645261474609375,-165.60623168945312,-15.128633499145508,29.2001953125
1776020506472321300,11.6553212890625,-165.72616577148438,-14.996767044067383,28.998802185058594
1776020506482382300,11.66538232421875,-165.73947143554688,-15.135652542114258,28.815826416015625
1776020506492443400,11.675443359375,-165.57855224609375,-15.14002799987793,28.667190551757812
1776020506502503400,11.68550341796875,-165.52630615234375,-15.116605758666992,28.498794555664062
1776020506512564500,11.695564453125,-165.28451538085938,-15.251169204711914,28.519607543945312
1776020506522625300,11.705625244140625,-165.38296508789062,-15.389184951782227,28.39703369140625
1776020506532685300,11.715685302734375,-165.39682006835938,-15.545343399047852,27.85803985595703
1776020506542746400,11.725746337890625,-165.04010009765625,-15.706010818481445,27.70954132080078
1776020506552806400,11.735806396484374,-164.64016723632812,-15.766145706176758,27.576812744140625
1776020506562867500,11.745867431640624,-164.09820556640625,-15.61491584777832,27.421585083007812
1776020506572928500,11.755928466796876,-163.83453369140625,-15.714513778686523,27.182891845703125
1776020506582988300,11.76598828125,-163.603271484375,-15.723955154418945,27.062034606933594
1776020506593049300,11.77604931640625,-163.5037841796875,-15.615274429321289,26.718063354492188
1776020506603110400,11.7861103515625,-163.2908935546875,-15.722517013549805,26.25543975830078
1776020506613170400,11.79617041015625,-163.342041015625,-15.859983444213867,25.42737579345703
1776020506623231500,11.8062314453125,-162.9683837890625,-16.269956588745117,25.074386596679688
1776020506633292500,11.81629248046875,-162.45468139648438,-16.298254013061523,24.72589111328125
1776020506643352300,11.826352294921875,-162.02001953125,-16.495046615600586,24.1328125
1776020506653413400,11.836413330078125,-161.9405517578125,-16.78594398498535,23.776573181152344
1776020506663474400,11.846474365234375,-161.78265380859375,-17.198583602905273,23.312515258789062
1776020506673534500,11.856534423828125,-161.18344116210938,-17.091157913208008,22.76079559326172
1776020506683595500,11.866595458984374,-160.65823364257812,-17.323637008666992,22.112442016601562
1776020506693656300,11.87665625,-160.5928955078125,-17.440778732299805,21.67107391357422
1776020506703716400,11.88671630859375,-160.61972045898438,-17.3160343170166,21.42176055908203
1776020506713777400,11.89677734375,-160.2008056640625,-17.276731491088867,20.96533966064453
1776020506723838200,11.906838134765625,-160.25738525390625,-17.373743057250977,20.60742950439453
1776020506733898500,11.9168984375,-160.0616455078125,-17.338720321655273,20.23114776611328
1776020506743959600,11.92695947265625,-159.64895629882812,-17.674875259399414,19.760604858398438
1776020506754020000,11.93702001953125,-159.15835571289062,-17.883474349975586,19.22601318359375
1776020506764080400,11.947080322265625,-158.87405395507812,-18.256742477416992,18.789871215820312
1776020506774141200,11.95714111328125,-158.87863159179688,-18.571256637573242,18.170272827148438
1776020506784202200,11.9672021484375,-158.54354858398438,-18.69512367248535,17.807640075683594
1776020506794262500,11.977262451171875,-158.38076782226562,-18.71811866760254,17.346221923828125
1776020506804323300,11.9873232421875,-158.15792846679688,-18.913904190063477,17.234619140625
1776020506814383400,11.99738330078125,-157.98248291015625,-18.91274070739746,16.768585205078125
1776020506824444400,12.0074443359375,-157.80099487304688,-18.970319747924805,16.306060791015625
1776020506834505200,12.017505126953125,-157.68612670898438,-19.243986129760742,16.086959838867188
1776020506844565500,12.0275654296875,-157.3389892578125,-19.396181106567383,15.705551147460938
1776020506854626300,12.037626220703125,-157.20846557617188,-19.69919776916504,15.16070556640625
1776020506864687400,12.047687255859374,-156.94525146484375,-19.907655715942383,14.863273620605469
1776020506874747400,12.057747314453126,-156.626953125,-20.287324905395508,14.533187866210938
1776020506884808200,12.06780810546875,-156.02609252929688,-20.7409725189209,14.275672912597656
1776020506894869200,12.077869140625,-156.11865234375,-20.818147659301758,13.976409912109375
1776020506904929300,12.08792919921875,-155.61386108398438,-20.520063400268555,13.659217834472656
1776020506914990300,12.097990234375,-155.58102416992188,-20.64009666442871,13.371726989746094
1776020506925051100,12.108051025390624,-154.9786376953125,-20.57710838317871,13.198402404785156
1776020506935111200,12.118111083984376,-155.09603881835938,-20.474889755249023,12.766021728515625
1776020506945172200,12.128172119140626,-154.36376953125,-20.724428176879883,12.3792724609375
1776020506955233300,12.1382333984375,-154.07534790039062,-21.112436294555664,11.729591369628906
1776020506965293300,12.148293212890625,-153.33746337890625,-21.34454917907715,11.322525024414062
1776020506975354400,12.158354248046875,-152.9149169921875,-21.546297073364258,10.640182495117188
1776020506985415200,12.168415283203124,-152.45822143554688,-21.914655685424805,9.942390441894531
1776020506995475200,12.17847509765625,-152.39578247070312,-22.198060989379883,9.227706909179688
1776020507005536300,12.188536376953126,-152.21710205078125,-22.598928451538086,8.705039978027344
1776020507015597300,12.198597412109375,-151.53189086914062,-22.855897903442383,8.169662475585938
1776020507025657300,12.2086572265625,-151.15090942382812,-22.877466201782227,7.5330657958984375
1776020507035718400,12.218718505859375,-150.85028076171875,-23.204099655151367,7.080802917480469
1776020507045779200,12.228779296875,-150.46139526367188,-23.447431564331055,6.542991638183594
1776020507055839200,12.238839111328126,-149.86801147460938,-24.0052433013916,6.156455993652344
1776020507065900300,12.248900390625,-149.87014770507812,-24.407808303833008,5.631797790527344
1776020507075961300,12.25896142578125,-149.01123046875,-24.46347999572754,5.034507751464844
1776020507086021400,12.269021484375,-148.16647338867188,-25.01759147644043,4.6392974853515625
1776020507096082200,12.279082275390625,-147.544189453125,-25.32148551940918,4.073570251464844
1776020507106142200,12.28914208984375,-147.2154541015625,-25.593481063842773,3.5170059204101562
1776020507116203300,12.299203369140624,-146.18771362304688,-25.904104232788086,2.5808944702148438
1776020507126264300,12.309264404296876,-145.79605102539062,-26.269502639770508,1.933349609375
1776020507136324400,12.319324462890625,-145.36068725585938,-26.804506301879883,1.2472763061523438
1776020507146385400,12.329385498046875,-144.28350830078125,-27.03203010559082,0.281646728515625
1776020507156446200,12.3394462890625,-143.5157470703125,-27.47074317932129,-0.9876251220703125
1776020507166506200,12.34950634765625,-142.23651123046875,-28.270540237426758,-2.4738311767578125
1776020507176567300,12.3595673828125,-141.11044311523438,-29.075429916381836,-3.943695068359375
1776020507186628400,12.36962841796875,-140.01809692382812,-30.178247451782227,-5.359321594238281
1776020507196688400,12.3796884765625,-138.58200073242188,-31.51161003112793,-7.126922607421875
1776020507206749400,12.38974951171875,-136.68057250976562,-33.032798767089844,-9.269302368164062
1776020507216810200,12.399810302734375,-135.29559326171875,-34.75001525878906,-11.199844360351562
1776020507226870300,12.409870361328124,-133.84024047851562,-36.28779602050781,-13.044754028320312
1776020507236931300,12.419931396484374,-132.21682739257812,-37.61943817138672,-14.315826416015625
1776020507246992400,12.429992431640626,-131.73397827148438,-38.344200134277344,-14.962715148925781
1776020507257052400,12.440052490234375,-130.78167724609375,-38.783424377441406,-15.462417602539062
1776020507267113200,12.45011328125,-130.39035034179688,-38.86320495605469,-15.692924499511719
1776020507277174300,12.46017431640625,-130.02996826171875,-39.15851593017578,-15.916709899902344
1776020507287234300,12.470234375,-129.14849853515625,-39.09761047363281,-16.178176879882812
1776020507297295400,12.48029541015625,-129.01797485351562,-39.166168212890625,-16.453407287597656
1776020507307356400,12.4903564453125,-128.25384521484375,-39.09455108642578,-16.830459594726562
1776020507317416700,12.500416748046876,-127.80014038085938,-38.952781677246094,-17.516647338867188
1776020507327477800,12.510477783203125,-127.44580078125,-39.023033142089844,-18.381328582763672
1776020507337538800,12.520538818359375,-126.53115844726562,-38.680702209472656,-19.539752960205078
1776020507347598800,12.530598876953125,-125.35769653320312,-38.48046875,-20.39859390258789
1776020507357660000,12.540659912109374,-124.06756591796875,-38.74150085449219,-21.624069213867188
1776020507367719700,12.5507197265625,-123.0765380859375,-39.05003356933594,-22.875003814697266
1776020507377780700,12.56078076171875,-122.48464965820312,-39.647605895996094,-23.678050994873047
1776020507387841800,12.570841796875,-121.24755859375,-40.16615295410156,-24.362567901611328
1776020507397901800,12.58090185546875,-120.70144653320312,-40.45692443847656,-24.71823501586914
1776020507407963000,12.590962890625,-119.7640380859375,-40.643775939941406,-25.040817260742188
1776020507418024000,12.60102392578125,-119.28289794921875,-40.84014129638672,-25.22046661376953
1776020507428083700,12.611083740234376,-118.57638549804688,-40.84648895263672,-25.440631866455078
1776020507438144800,12.621144775390626,-117.83328247070312,-41.2762451171875,-25.42795181274414
1776020507448205800,12.631205810546875,-116.41171264648438,-41.76219177246094,-25.604923248291016
1776020507458265900,12.641265869140625,-115.3076171875,-42.239601135253906,-25.745861053466797
1776020507468327000,12.651326904296875,-114.049072265625,-43.08501434326172,-25.924259185791016
1776020507478387700,12.6613876953125,-113.59490966796875,-43.75995635986328,-26.137802124023438
1776020507488447700,12.67144775390625,-112.48236083984375,-44.096435546875,-25.87948989868164
1776020507498508800,12.6815087890625,-112.5885009765625,-44.098785400390625,-25.767200469970703
1776020507508569600,12.691569580078125,-111.99588012695312,-44.17515563964844,-25.702560424804688
1776020507518630000,12.7016298828125,-111.81439208984375,-43.78461456298828,-25.41364288330078
1776020507528690700,12.711690673828125,-111.32415771484375,-43.348289489746094,-25.145675659179688
1776020507538751700,12.721751708984375,-110.99612426757812,-42.43865203857422,-24.834270477294922
1776020507548811800,12.731811767578124,-111.36386108398438,-41.63777160644531,-23.783790588378906
1776020507558872600,12.74187255859375,-113.24447631835938,-40.604408264160156,-20.33106231689453
1776020507568933600,12.75193359375,-116.32723999023438,-38.44549560546875,-15.900260925292969
1776020507578994000,12.761993896484375,-120.51727294921875,-32.20252990722656,-5.051414489746094
1776020507589054700,12.7720546875,-121.6053466796875,-28.81156349182129,-0.8144912719726562
1776020507599114800,12.78211474609375,-121.50738525390625,-27.259336471557617,-0.00885009765625
1776020507609175800,12.79217578125,-120.81207275390625,-26.304540634155273,-0.42119598388671875
1776020507619236600,12.802236572265626,-121.26568603515625,-25.191957473754883,-0.9016952514648438
1776020507629297000,12.812296875,-121.76486206054688,-24.16434669494629,-1.0255584716796875
