time,seconds_elapsed,z,y,x
1776870286983340300,0.08034033203125,-0.8740081787109375,-0.3366241455078125,0.0207977294921875
1776870286993377300,0.090377197265625,-0.878936767578125,-0.3262176513671875,0.015411376953125
1776870287003414300,0.100414306640625,-0.8849334716796875,-0.28936767578125,0.023162841796875
1776870287013452300,0.110452392578125,-0.8919219970703125,-0.282928466796875,0.018463134765625
1776870287023489300,0.1204892578125,-0.924163818359375,-0.30828857421875,0.030914306640625
1776870287033526300,0.1305263671875,-0.8997039794921875,-0.31024169921875,0.026947021484375
1776870287043563000,0.14056298828125,-0.8355712890625,-0.3104400634765625,0.0962066650390625
1776870287053600300,0.150600341796875,-0.7750244140625,-0.33392333984375,0.1471405029296875
1776870287063637200,0.16063720703125,-0.787261962890625,-0.30242919921875,-0.0193634033203125
1776870287073674200,0.17067431640625,-0.76666259765625,-0.2679290771484375,-0.068267822265625
1776870287083711200,0.180711181640625,-0.7371673583984375,-0.2361297607421875,-0.017303466796875
1776870287093749200,0.190749267578125,-0.7404937744140625,-0.24298095703125,0.0677337646484375
1776870287103786200,0.2007861328125,-0.7379302978515625,-0.2603302001953125,0.1339874267578125
1776870287113823200,0.2108232421875,-0.80328369140625,-0.2714691162109375,0.1745147705078125
1776870287123860200,0.220860107421875,-0.9045257568359375,-0.2709503173828125,0.2064971923828125
1776870287133897200,0.230897216796875,-0.9494476318359375,-0.2766265869140625,0.2541351318359375
1776870287143934200,0.240934326171875,-0.9449920654296875,-0.3045806884765625,0.2751007080078125
1776870287153971200,0.25097119140625,-0.8816070556640625,-0.285247802734375,0.2288055419921875
1776870287164009200,0.26100927734375,-0.933868408203125,-0.24127197265625,0.194183349609375
1776870287174046200,0.271046142578125,-0.913299560546875,-0.302764892578125,0.098724365234375
1776870287184083200,0.281083251953125,-0.7462158203125,-0.2555694580078125,0.0487213134765625
1776870287194120200,0.2911201171875,-0.7628173828125,-0.23846435546875,0.12701416015625
1776870287204157200,0.3011572265625,-0.80474853515625,-0.2555084228515625,0.2982940673828125
1776870287214194200,0.311194091796875,-0.7091827392578125,-0.0568084716796875,0.586639404296875
1776870287224231200,0.321231201171875,-0.76495361328125,-0.20550537109375,0.590057373046875
1776870287234269200,0.331269287109375,-0.7083282470703125,-0.3884735107421875,0.48394775390625
1776870287244306200,0.34130615234375,-0.850311279296875,-0.433441162109375,0.517852783203125
1776870287254343200,0.35134326171875,-0.935577392578125,-0.3925628662109375,0.5925140380859375
1776870287264380200,0.361380126953125,-0.9878082275390625,-0.2853546142578125,0.6434478759765625
1776870287274417200,0.371417236328125,-0.96441650390625,-0.2425079345703125,0.65032958984375
1776870287284454100,0.3814541015625,-0.85272216796875,-0.121368408203125,0.697662353515625
1776870287294491400,0.391491455078125,-0.7505645751953125,-0.0396575927734375,0.7089691162109375
1776870287304529200,0.401529052734375,-0.7066650390625,-0.004150390625,0.552581787109375
1776870287314566100,0.411566162109375,-0.79876708984375,0.0275115966796875,0.3912506103515625
1776870287324603400,0.421603271484375,-0.5290374755859375,0.19940185546875,0.722869873046875
1776870287334640400,0.431640380859375,-0.524688720703125,0.0455169677734375,0.8699188232421875
1776870287344677000,0.441677001953125,-0.6860198974609375,-0.209808349609375,0.971435546875
1776870287354714000,0.451714111328125,-0.996917724609375,-0.3902587890625,0.9948272705078125
1776870287364751000,0.461751220703125,-0.5751800537109375,-0.25592041015625,1.141876220703125
1776870287374788400,0.471788330078125,-0.27838134765625,-0.1950225830078125,1.136932373046875
1776870287384826000,0.481826171875,-0.471893310546875,-0.170806884765625,0.7191314697265625
1776870287394863000,0.491863037109375,-0.7983551025390625,-0.138427734375,0.68072509765625
1776870287404900400,0.501900390625,-0.9774169921875,-0.2538299560546875,0.8038482666015625
1776870287414937300,0.511937255859375,-0.6668701171875,-0.1719970703125,0.9363250732421875
1776870287424974000,0.52197412109375,-0.5225982666015625,-0.1192474365234375,0.9632568359375
1776870287435011000,0.532010986328125,-0.687835693359375,-0.1812286376953125,0.6303863525390625
1776870287445048000,0.542048095703125,-0.6541595458984375,-0.109771728515625,0.7275848388671875
1776870287455086300,0.55208642578125,-0.574493408203125,-0.0125885009765625,0.80126953125
1776870287465123000,0.562123046875,-0.485260009765625,0.0081329345703125,0.7576141357421875
1776870287475160000,0.57216015625,-0.4716796875,0.009033203125,0.7350311279296875
1776870287485197300,0.582197265625,-0.50616455078125,0.031982421875,0.777374267578125
1776870287495234300,0.592234375,-0.545318603515625,0.0240020751953125,0.7747802734375
1776870287505271300,0.602271240234375,-0.676605224609375,-0.0436248779296875,0.6998443603515625
1776870287515308000,0.61230810546875,-0.840484619140625,-0.048675537109375,0.6046295166015625
1776870287525346300,0.62234619140625,-0.957855224609375,0.01092529296875,0.535369873046875
1776870287535383300,0.63238330078125,-0.8441162109375,0.0328216552734375,0.4693145751953125
1776870287545420300,0.642420166015625,-0.8055267333984375,0.17938232421875,0.451080322265625
1776870287555457000,0.65245703125,-0.6914825439453125,0.1876220703125,0.4842529296875
1776870287565494300,0.662494384765625,-0.6297454833984375,0.1808013916015625,0.4745635986328125
1776870287575531300,0.67253125,-0.55230712890625,0.246917724609375,0.480743408203125
1776870287585569000,0.682569091796875,-0.501220703125,0.3643951416015625,0.5311737060546875
1776870287595606000,0.69260595703125,-0.4965667724609375,0.4832305908203125,0.533050537109375
1776870287605643300,0.702643310546875,-0.59149169921875,0.5739898681640625,0.1580810546875
1776870287615680300,0.71268017578125,-0.7021331787109375,0.657745361328125,0.2021636962890625
1776870287625717200,0.72271728515625,-0.6801300048828125,0.7010650634765625,0.1473846435546875
1776870287635754000,0.73275390625,-0.5334930419921875,0.7241973876953125,0.07098388671875
1776870287645791200,0.742791259765625,-0.443328857421875,0.734619140625,0.092803955078125
1776870287655829200,0.752829345703125,-0.34649658203125,0.7696685791015625,0.0886993408203125
1776870287665866200,0.7628662109375,-0.2961273193359375,0.8536376953125,0.117401123046875
1776870287675903200,0.7729033203125,-0.220001220703125,0.8959808349609375,0.170013427734375
1776870287685940200,0.782940185546875,-0.173614501953125,0.9112701416015625,0.2570343017578125
1776870287695977200,0.792977294921875,-0.2176971435546875,0.9164276123046875,0.4122161865234375
1776870287706014200,0.80301416015625,-0.2802734375,0.87884521484375,0.5827178955078125
1776870287716051200,0.81305126953125,-0.25445556640625,0.929229736328125,0.6696929931640625
1776870287726089200,0.823089111328125,-0.2115478515625,1.07940673828125,0.7329559326171875
1776870287736126200,0.833126220703125,-0.1417083740234375,1.200775146484375,0.7981109619140625
1776870287746163200,0.8431630859375,-0.040435791015625,1.2638092041015625,0.8956146240234375
1776870287756200200,0.8532001953125,0.0523834228515625,1.287078857421875,1.0169525146484375
1776870287766237200,0.8632373046875,0.0981597900390625,1.3204193115234375,1.198944091796875
1776870287776274200,0.873274169921875,0.106689453125,1.350921630859375,1.3858184814453125
1776870287786312200,0.883312255859375,0.1054534912109375,1.385162353515625,1.5565948486328125
1776870287796349200,0.89334912109375,0.058990478515625,1.3788604736328125,1.65533447265625
1776870287806386200,0.90338623046875,0.0046234130859375,1.3423614501953125,1.6915283203125
1776870287816423200,0.913423095703125,-0.061920166015625,1.2085418701171875,1.780303955078125
1776870287826460200,0.923460205078125,-0.101470947265625,1.0686492919921875,1.8627471923828125
1776870287836497400,0.933497314453125,-0.0963592529296875,1.08734130859375,1.8598175048828125
1776870287846534100,0.9435341796875,-0.126556396484375,1.1258087158203125,1.8310394287109375
1776870287856572200,0.953572265625,-0.13873291015625,1.108673095703125,1.806304931640625
1776870287866609200,0.963609130859375,-0.1419525146484375,1.0591278076171875,1.7794952392578125
1776870287876646400,0.973646484375,-0.1695709228515625,0.94720458984375,1.7759246826171875
1776870287886683100,0.98368310546875,-0.2431488037109375,0.8704833984375,1.7466583251953125
1776870287896720100,0.99372021484375,-0.34783935546875,0.81121826171875,1.6831817626953125
1776870287906757000,1.003757080078125,-0.4274139404296875,0.7435760498046875,1.579254150390625
1776870287916794400,1.01379443359375,-0.4456024169921875,0.748504638671875,1.4138336181640625
1776870287926832000,1.02383203125,-0.446533203125,0.7672576904296875,1.2235870361328125
1776870287936870100,1.0338701171875,-0.4716644287109375,0.6979217529296875,1.096893310546875
1776870287946907400,1.043907470703125,-0.47674560546875,0.594573974609375,1.044830322265625
1776870287956944100,1.053944091796875,-0.50262451171875,0.5458221435546875,0.9512481689453125
1776870287966982100,1.063982177734375,-0.5014190673828125,0.511138916015625,0.8475799560546875
1776870287977019400,1.074019287109375,-0.4471435546875,0.493408203125,0.770904541015625
1776870287987056000,1.08405615234375,-0.3476409912109375,0.5051116943359375,0.69134521484375
1776870287997093000,1.094093017578125,-0.26947021484375,0.522003173828125,0.630096435546875
1776870288007130000,1.104130126953125,-0.23187255859375,0.525848388671875,0.595306396484375
1776870288017167000,1.1141669921875,-0.2184906005859375,0.534423828125,0.5819549560546875
1776870288027204400,1.124204345703125,-0.1963653564453125,0.5612945556640625,0.5691680908203125
1776870288037242000,1.1342421875,-0.1812744140625,0.5995330810546875,0.5621795654296875
1776870288047279000,1.144279052734375,-0.141265869140625,0.5998382568359375,0.563262939453125
1776870288057316400,1.15431640625,-0.070465087890625,0.6250152587890625,0.55987548828125
1776870288067353300,1.164353271484375,-0.006195068359375,0.672698974609375,0.5558624267578125
1776870288077390000,1.17439013671875,0.0189056396484375,0.6920318603515625,0.573333740234375
1776870288087427000,1.184427001953125,0.0733795166015625,0.7119293212890625,0.6013031005859375
1776870288097465300,1.19446533203125,0.0902099609375,0.6849212646484375,0.6596832275390625
1776870288107502300,1.20450244140625,0.121063232421875,0.6450958251953125,0.7266082763671875
1776870288117539000,1.2145390625,0.2359161376953125,0.6328582763671875,0.7711944580078125
1776870288127576000,1.224576171875,0.2002716064453125,0.6606597900390625,0.722625732421875
1776870288137613300,1.23461328125,0.2115936279296875,0.661773681640625,0.7400360107421875
1776870288147650300,1.244650390625,0.253204345703125,0.681610107421875,0.7425384521484375
1776870288157688000,1.25468798828125,0.2103118896484375,0.717041015625,0.752960205078125
1776870288167725000,1.26472509765625,0.1938018798828125,0.801422119140625,0.7411346435546875
1776870288177762300,1.27476220703125,0.2221527099609375,0.8536224365234375,0.7489166259765625
1776870288187799300,1.28479931640625,0.2217559814453125,0.796600341796875,0.756103515625
1776870288197836300,1.294836181640625,0.245086669921875,0.810699462890625,0.7415313720703125
1776870288207873000,1.304873046875,0.177337646484375,0.857635498046875,0.7344970703125
1776870288217910300,1.31491015625,0.166229248046875,0.848358154296875,0.7813720703125
1776870288227948300,1.3249482421875,0.2025909423828125,0.84197998046875,0.794464111328125
1776870288237985000,1.334985107421875,0.220733642578125,0.799560546875,0.78765869140625
1776870288248022300,1.345022216796875,0.165802001953125,0.8420867919921875,0.77484130859375
1776870288258059300,1.355059326171875,0.1467132568359375,0.8493499755859375,0.78216552734375
1776870288268096300,1.36509619140625,0.156524658203125,0.798309326171875,0.7523345947265625
1776870288278133200,1.37513330078125,0.1399688720703125,0.777618408203125,0.712615966796875
1776870288288171300,1.385171142578125,0.14715576171875,0.7995147705078125,0.6851959228515625
1776870288298208300,1.395208251953125,0.1135711669921875,0.7599639892578125,0.673553466796875
1776870288308245200,1.405245361328125,0.087188720703125,0.711883544921875,0.65289306640625
1776870288318282200,1.4152822265625,0.0577239990234375,0.7031707763671875,0.6318206787109375
1776870288328319200,1.4253193359375,0.023284912109375,0.6783905029296875,0.6209259033203125
1776870288338356200,1.435356201171875,-0.0102386474609375,0.6565704345703125,0.64044189453125
1776870288348394200,1.445394287109375,-0.0212554931640625,0.6324310302734375,0.6725311279296875
1776870288358431000,1.455430908203125,-0.0074310302734375,0.63372802734375,0.695526123046875
1776870288368468200,1.46546826171875,0.0295562744140625,0.69000244140625,0.714324951171875
1776870288378505200,1.475505126953125,0.099609375,0.7676239013671875,0.72149658203125
1776870288388542200,1.485542236328125,0.176513671875,0.8214263916015625,0.721649169921875
1776870288398579200,1.4955791015625,0.1868438720703125,0.811431884765625,0.73291015625
1776870288408617200,1.5056171875,0.16339111328125,0.737823486328125,0.744171142578125
1776870288418654200,1.515654296875,0.1284637451171875,0.6745147705078125,0.755859375
1776870288428691200,1.525691162109375,0.0924835205078125,0.6003265380859375,0.7839813232421875
1776870288438728200,1.535728271484375,0.0675048828125,0.53155517578125,0.8008270263671875
1776870288448765200,1.54576513671875,0.0360565185546875,0.472442626953125,0.7960357666015625
1776870288458802200,1.55580224609375,0.0350189208984375,0.466064453125,0.76898193359375
1776870288468839200,1.565839111328125,0.055023193359375,0.500152587890625,0.7436676025390625
1776870288478877200,1.575877197265625,0.079559326171875,0.5332794189453125,0.729400634765625
1776870288488914200,1.5859140625,0.1055450439453125,0.559661865234375,0.73370361328125
1776870288498951200,1.595951171875,0.144744873046875,0.5888824462890625,0.747711181640625
1776870288508988200,1.60598828125,0.1512451171875,0.5940093994140625,0.7666778564453125
1776870288519025200,1.616025146484375,0.1497344970703125,0.5521087646484375,0.788360595703125
1776870288529062100,1.626062255859375,0.1479034423828125,0.489898681640625,0.8101806640625
1776870288539100200,1.63610009765625,0.1388702392578125,0.4537353515625,0.829010009765625
1776870288549137200,1.64613720703125,0.1461181640625,0.4499359130859375,0.84454345703125
1776870288559174400,1.65617431640625,0.1242523193359375,0.425323486328125,0.8861236572265625
1776870288569211100,1.666211181640625,0.123382568359375,0.4119415283203125,0.9105224609375
1776870288579248000,1.676248046875,0.123626708984375,0.4377899169921875,0.907012939453125
1776870288589285000,1.68628515625,0.1239471435546875,0.4747314453125,0.8957061767578125
1776870288599323400,1.696323486328125,0.1581268310546875,0.5270538330078125,0.859588623046875
1776870288609360100,1.706360107421875,0.1692657470703125,0.5690460205078125,0.8338623046875
1776870288619397000,1.716397216796875,0.170745849609375,0.618621826171875,0.841400146484375
1776870288629434000,1.72643408203125,0.1849517822265625,0.6466827392578125,0.870941162109375
1776870288639471400,1.736471435546875,0.1728515625,0.60723876953125,0.87689208984375
1776870288649508400,1.74650830078125,0.118896484375,0.566650390625,0.8681793212890625
1776870288659546000,1.756546142578125,0.06182861328125,0.542510986328125,0.853912353515625
1776870288669583400,1.766583251953125,0.0112762451171875,0.5367279052734375,0.822265625
1776870288679620400,1.776620361328125,-0.0163726806640625,0.548004150390625,0.7803497314453125
1776870288689657000,1.786656982421875,-0.010772705078125,0.56304931640625,0.750335693359375
1776870288699694000,1.796694091796875,-0.0123138427734375,0.574371337890625,0.74072265625
1776870288709731000,1.80673095703125,-0.012451171875,0.59661865234375,0.72998046875
1776870288719768300,1.816768310546875,0.01129150390625,0.6335601806640625,0.71923828125
1776870288729806000,1.82680615234375,0.02508544921875,0.654541015625,0.709991455078125
1776870288739843000,1.836843017578125,0.0021514892578125,0.640289306640625,0.7093505859375
1776870288749880300,1.84688037109375,-0.0436248779296875,0.5875396728515625,0.7238311767578125
1776870288759917300,1.856917236328125,-0.072601318359375,0.5438690185546875,0.746673583984375
1776870288769954300,1.866954345703125,-0.0809478759765625,0.528228759765625,0.76824951171875
1776870288779991000,1.876990966796875,-0.065155029296875,0.53887939453125,0.7746429443359375
1776870288790029300,1.887029296875,-0.0441436767578125,0.55438232421875,0.777801513671875
1776870288800066300,1.89706640625,-0.019195556640625,0.5631561279296875,0.780303955078125
1776870288810103300,1.907103271484375,-0.00115966796875,0.57958984375,0.7950897216796875
1776870288820140000,1.91714013671875,0.0164794921875,0.614166259765625,0.812774658203125
1776870288830177300,1.92717724609375,0.0499725341796875,0.6414337158203125,0.8369598388671875
1776870288840214300,1.93721435546875,0.073760986328125,0.6468353271484375,0.8776092529296875
1776870288850252000,1.947251953125,0.0968017578125,0.607666015625,0.8976287841796875
1776870288860289000,1.9572890625,0.074462890625,0.559600830078125,0.9165802001953125
1776870288870326300,1.967326171875,0.0321044921875,0.528472900390625,0.93511962890625
1776870288880363300,1.97736328125,0.0058441162109375,0.5059814453125,0.9444427490234375
1776870288890400300,1.987400146484375,-0.0026702880859375,0.4978485107421875,0.957000732421875
1776870288900437000,1.99743701171875,0.0177459716796875,0.486785888671875,0.9780731201171875
1776870288910475300,2.007475341796875,0.0308837890625,0.4713287353515625,1.0201873779296875
1776870288920512300,2.01751220703125,0.0438385009765625,0.444183349609375,1.0614166259765625
1776870288930549200,2.02754931640625,0.0506134033203125,0.3829498291015625,1.1259918212890625
1776870288940586200,2.037586181640625,0.0825347900390625,0.34259033203125,1.2028350830078125
1776870288950623200,2.047623291015625,0.1156463623046875,0.336029052734375,1.2824249267578125
1776870288960660200,2.05766015625,0.1842193603515625,0.3433380126953125,1.34637451171875
1776870288970698200,2.0676982421875,0.200927734375,0.3286895751953125,1.3843994140625
1776870288980735200,2.0777353515625,0.15057373046875,0.234405517578125,1.385589599609375
1776870288990772200,2.087772216796875,0.1150054931640625,0.1647491455078125,1.344573974609375
1776870289000809200,2.097809326171875,0.0540771484375,0.1162261962890625,1.2975311279296875
1776870289010846200,2.10784619140625,0.059600830078125,0.105255126953125,1.26904296875
1776870289020883200,2.11788330078125,0.1221160888671875,0.1450653076171875,1.2732086181640625
1776870289030920200,2.127920166015625,0.13824462890625,0.1331634521484375,1.266326904296875
1776870289040958200,2.137958251953125,0.1632843017578125,0.1116485595703125,1.2407379150390625
1776870289050995500,2.147995361328125,0.1265716552734375,0.107666015625,1.194854736328125
1776870289061032200,2.1580322265625,0.0647735595703125,0.1166229248046875,1.1551666259765625
1776870289071069200,2.168069091796875,0.0550384521484375,0.1403961181640625,1.13580322265625
1776870289081106200,2.178106201171875,0.0740509033203125,0.1325225830078125,1.1273193359375
1776870289091143200,2.18814306640625,0.10888671875,0.1446685791015625,1.1132965087890625
1776870289101181200,2.19818115234375,0.0521240234375,0.1769256591796875,1.0676422119140625
1776870289111218200,2.20821826171875,-0.0222930908203125,0.155303955078125,0.9537200927734375
1776870289121255200,2.218255126953125,-0.1494598388671875,0.26495361328125,0.83184814453125
1776870289131292400,2.22829248046875,-0.2694854736328125,0.4529571533203125,0.5443878173828125
1776870289141329400,2.238329345703125,-0.3396148681640625,0.592071533203125,0.24151611328125
1776870289151366100,2.2483662109375,-0.352996826171875,0.698486328125,0.119720458984375
1776870289161404200,2.258404052734375,-0.277435302734375,0.438385009765625,0.042327880859375
1776870289171441400,2.26844140625,-0.155364990234375,0.1491851806640625,0.272918701171875
1776870289181478100,2.27847802734375,-0.2942962646484375,0.301239013671875,0.62591552734375
1776870289191515100,2.28851513671875,-0.3029632568359375,0.3933258056640625,0.816925048828125
1776870289201552100,2.29855224609375,-0.200897216796875,0.1404571533203125,0.6231842041015625
1776870289211589400,2.30858935546875,-0.0276641845703125,0.2072601318359375,0.9138641357421875
1776870289221626400,2.31862646484375,-0.050323486328125,0.334808349609375,0.9739532470703125
1776870289231664000,2.3286640625,0.1063995361328125,0.1871490478515625,0.84503173828125
1776870289241701400,2.338701416015625,0.1340484619140625,0.1943817138671875,0.8292236328125
1776870289251738400,2.34873828125,0.0542755126953125,0.110992431640625,0.8274383544921875
1776870289261775400,2.358775390625,-0.039031982421875,-0.0411376953125,0.8302001953125
1776870289271812000,2.36881201171875,-0.1172027587890625,-0.0410308837890625,0.817779541015625
1776870289281849000,2.37884912109375,-0.1778106689453125,0.039215087890625,0.7583465576171875
1776870289291887400,2.388887451171875,-0.2812042236328125,0.1885223388671875,0.65966796875
1776870289301924400,2.39892431640625,-0.3542938232421875,0.3085174560546875,0.5052947998046875
1776870289311961000,2.408961181640625,-0.4078369140625,0.417388916015625,0.4793243408203125
1776870289321998300,2.418998291015625,-0.4137115478515625,0.5815887451171875,0.5092010498046875
1776870289332035300,2.429035400390625,-0.3912506103515625,0.63214111328125,0.7283477783203125
1776870289342072300,2.439072265625,-0.452545166015625,0.644989013671875,0.92108154296875
1776870289352109300,2.449109375,-0.5653839111328125,0.6053619384765625,1.0597991943359375
1776870289362147300,2.459147216796875,-0.49395751953125,0.6042938232421875,1.111480712890625
1776870289372184300,2.469184326171875,-0.38555908203125,0.5804290771484375,1.065826416015625
1776870289382221300,2.47922119140625,-0.3061370849609375,0.5677337646484375,0.9649658203125
1776870289392258000,2.489258056640625,-0.2853851318359375,0.561187744140625,0.610137939453125
1776870289402295300,2.49929541015625,-0.400848388671875,0.439208984375,0.4583892822265625
1776870289412332300,2.509332275390625,-0.6526641845703125,0.5658416748046875,0.487548828125
1776870289422370300,2.519370361328125,-0.2422637939453125,0.8034210205078125,0.65631103515625
1776870289432407000,2.529406982421875,0.0362091064453125,1.011962890625,0.69647216796875
1776870289442444300,2.5394443359375,-0.10546875,1.094970703125,0.8925018310546875
1776870289452481300,2.549481201171875,-0.1650238037109375,0.9161224365234375,1.1522979736328125
1776870289462518300,2.559518310546875,0.10552978515625,0.672027587890625,1.18634033203125
1776870289472555300,2.56955517578125,0.4010772705078125,0.5919952392578125,1.089691162109375
1776870289482593300,2.57959326171875,0.0926361083984375,0.48492431640625,0.862091064453125
1776870289492630300,2.58963037109375,-0.160247802734375,0.474517822265625,0.782440185546875
1776870289502667300,2.599667236328125,-0.2296600341796875,0.2569732666015625,1.016510009765625
1776870289512704300,2.609704345703125,0.07330322265625,0.59228515625,0.9386138916015625
1776870289522741200,2.6197412109375,0.2523345947265625,0.7659759521484375,0.721649169921875
1776870289532778200,2.6297783203125,-0.2524566650390625,0.7307891845703125,0.5084686279296875
1776870289542815200,2.639815185546875,-0.62164306640625,0.7282867431640625,0.5884246826171875
1776870289552853200,2.649853271484375,-0.919342041015625,0.7661590576171875,0.7499542236328125
1776870289562890200,2.65989013671875,-0.84381103515625,0.924224853515625,0.763336181640625
1776870289572927200,2.66992724609375,-0.4013519287109375,0.868804931640625,0.4915008544921875
1776870289582964200,2.679964111328125,-0.092498779296875,0.8182830810546875,0.304290771484375
1776870289593001500,2.69000146484375,-0.1572418212890625,0.7695465087890625,0.2191925048828125
1776870289603038200,2.7000380859375,-0.2050323486328125,0.7729034423828125,0.145599365234375
1776870289613076200,2.710076171875,-0.0341033935546875,0.76239013671875,0.090728759765625
1776870289623113200,2.72011328125,0.1758270263671875,0.718994140625,0.0135650634765625
1776870289633150500,2.730150390625,0.1139984130859375,0.66497802734375,-0.051361083984375
1776870289643187200,2.740187255859375,0.0434417724609375,0.67169189453125,0.0230712890625
1776870289653224200,2.75022412109375,-0.0299072265625,0.8419036865234375,0.1290130615234375
1776870289663261200,2.76026123046875,-0.1406402587890625,1.1031951904296875,0.39312744140625
1776870289673299200,2.77029931640625,-0.0349884033203125,1.42059326171875,0.4282073974609375
1776870289683336200,2.780336181640625,-0.0948333740234375,1.1486663818359375,0.1526336669921875
1776870289693373200,2.790373291015625,-0.0276031494140625,1.2465057373046875,0.0381011962890625
1776870289703410200,2.80041015625,0.3732757568359375,1.387176513671875,0.1285552978515625
1776870289713447400,2.810447509765625,0.3136444091796875,1.5172882080078125,-0.0529327392578125
1776870289723484200,2.820484130859375,0.14056396484375,1.3648529052734375,-0.3309783935546875
1776870289733521200,2.830521240234375,0.1195526123046875,1.343597412109375,-0.3383636474609375
1776870289743559400,2.840559326171875,0.119781494140625,1.293853759765625,-0.385986328125
1776870289753596400,2.850596435546875,0.12164306640625,1.2379150390625,-0.452789306640625
1776870289763633200,2.860633056640625,0.1192626953125,1.146484375,-0.434539794921875
1776870289773670100,2.870670166015625,0.090972900390625,1.051239013671875,-0.346282958984375
1776870289783707100,2.88070703125,0.0732574462890625,0.99005126953125,-0.2809295654296875
1776870289793744400,2.890744384765625,0.0963287353515625,0.9462127685546875,-0.2529144287109375
1776870289803782100,2.9007822265625,0.1320648193359375,0.923065185546875,-0.2481536865234375
1776870289813819100,2.910819091796875,0.151824951171875,0.936767578125,-0.26397705078125
1776870289823856400,2.9208564453125,0.1721954345703125,0.9558563232421875,-0.3004150390625
1776870289833893400,2.930893310546875,0.1652984619140625,0.953033447265625,-0.331756591796875
1776870289843930400,2.940930419921875,0.125885009765625,0.944488525390625,-0.3476409912109375
1776870289853967000,2.950967041015625,0.0673980712890625,0.935760498046875,-0.35198974609375
1776870289864005400,2.96100537109375,0.0087738037109375,0.959381103515625,-0.327423095703125
1776870289874042400,2.97104248046875,-0.0392303466796875,0.9936065673828125,-0.283935546875
1776870289884079000,2.9810791015625,-0.0520782470703125,1.03436279296875,-0.238800048828125
1776870289894116000,2.9911162109375,-0.025909423828125,1.0509185791015625,-0.19610595703125
1776870289904153300,3.0011533203125,-0.0043487548828125,1.049957275390625,-0.160919189453125
1776870289914190300,3.0111904296875,0.019012451171875,1.0702972412109375,-0.139129638671875
1776870289924227300,3.021227294921875,0.059906005859375,1.1002197265625,-0.1277008056640625
1776870289934265000,3.03126513671875,0.0949859619140625,1.0853271484375,-0.10955810546875
1776870289944302800,3.041302734375,0.1134490966796875,1.0268707275390625,-0.0839996337890625
1776870289954339800,3.05133984375,0.12518310546875,0.9468536376953125,-0.0693817138671875
1776870289964376800,3.061376953125,0.1447906494140625,0.894439697265625,-0.0652618408203125
1776870289974413800,3.071413818359375,0.163848876953125,0.8978729248046875,-0.068939208984375
1776870289984450800,3.081450927734375,0.1572113037109375,0.918609619140625,-0.0724945068359375
1776870289994488800,3.09148876953125,0.1245574951171875,0.9403533935546875,-0.072265625
1776870290004525800,3.10152587890625,0.095367431640625,0.955810546875,-0.07452392578125
1776870290014562800,3.111562744140625,0.08038330078125,0.97149658203125,-0.07952880859375
1776870290024599800,3.121599853515625,0.0765838623046875,1.00384521484375,-0.09014892578125
1776870290034636800,3.13163671875,0.0622406005859375,1.0451507568359375,-0.1043701171875
1776870290044673800,3.141673828125,0.0170135498046875,1.058258056640625,-0.0938873291015625
1776870290054710800,3.151710693359375,-0.0396575927734375,1.072113037109375,-0.06207275390625
1776870290064748800,3.161748779296875,0.0150146484375,1.0254058837890625,-0.0493011474609375
1776870290074786000,3.1717861328125,0.0413360595703125,0.91302490234375,-0.1123809814453125
1776870290084822800,3.18182275390625,0.0569915771484375,0.8865509033203125,-0.1592864990234375
1776870290094859800,3.19185986328125,0.0729827880859375,0.914886474609375,-0.180877685546875
1776870290104896800,3.201896728515625,0.071533203125,0.9527435302734375,-0.1815948486328125
1776870290114933800,3.211933837890625,0.066741943359375,0.9835968017578125,-0.1835479736328125
1776870290124971800,3.2219716796875,0.0572052001953125,1.0100860595703125,-0.1851654052734375
1776870290135008800,3.2320087890625,0.039215087890625,1.0323028564453125,-0.190826416015625
1776870290145045800,3.242045654296875,0.03173828125,1.0577392578125,-0.1987457275390625
1776870290155083000,3.2520830078125,0.0213775634765625,1.07464599609375,-0.195556640625
1776870290165120000,3.2621201171875,0.012847900390625,1.0774383544921875,-0.1835784912109375
1776870290175156700,3.27215673828125,0.00616455078125,1.061492919921875,-0.1672821044921875
1776870290185193700,3.28219384765625,-0.0145416259765625,1.0295257568359375,-0.1312408447265625
1776870290195232000,3.29223193359375,-0.0304107666015625,1.030059814453125,-0.10235595703125
1776870290205268700,3.302268798828125,-0.01947021484375,1.023956298828125,-0.0770263671875
1776870290215305700,3.3123056640625,-0.0052337646484375,0.99591064453125,-0.044586181640625
1776870290225342700,3.3223427734375,0.01800537109375,0.9733428955078125,-0.02813720703125
1776870290235380000,3.3323798828125,0.046173095703125,0.9566802978515625,-0.0147247314453125
1776870290245417000,3.3424169921875,0.0622406005859375,0.95452880859375,-0.0205230712890625
1776870290255454700,3.352454833984375,0.0961151123046875,0.9506988525390625,-0.0316619873046875
1776870290265491700,3.36249169921875,0.10638427734375,0.9486083984375,-0.0469970703125
1776870290275529000,3.372529052734375,0.1020660400390625,0.9673004150390625,-0.049896240234375
1776870290285566000,3.38256591796875,0.07763671875,0.974945068359375,-0.0577850341796875
1776870290295602700,3.392602783203125,0.05255126953125,0.9771881103515625,-0.0682525634765625
1776870290305639700,3.4026396484375,0.0289764404296875,0.9964447021484375,-0.082977294921875
1776870290315678000,3.412677978515625,0.0105743408203125,1.007049560546875,-0.097076416015625
1776870290325715000,3.42271484375,-0.0016326904296875,1.0146636962890625,-0.110443115234375
1776870290335751700,3.432751708984375,-0.00152587890625,1.0157012939453125,-0.123260498046875
1776870290345788700,3.44278857421875,0.0063934326171875,1.0198516845703125,-0.1320648193359375
1776870290355826000,3.452825927734375,0.0148468017578125,1.0242767333984375,-0.140625
1776870290365863000,3.46286279296875,0.018218994140625,1.0203704833984375,-0.141510009765625
1776870290375900000,3.47289990234375,0.0279998779296875,1.023406982421875,-0.1400604248046875
1776870290385938000,3.48293798828125,0.0378875732421875,1.0293121337890625,-0.1287841796875
1776870290395975000,3.492974853515625,0.0434722900390625,1.031402587890625,-0.112457275390625
1776870290406012000,3.503011962890625,0.04888916015625,1.0250244140625,-0.0991668701171875
1776870290416048600,3.513048583984375,0.0494232177734375,1.013336181640625,-0.0865936279296875
1776870290426086000,3.5230859375,0.0507049560546875,0.9978790283203125,-0.074066162109375
1776870290436123000,3.533122802734375,0.0511932373046875,0.9832916259765625,-0.0644073486328125
1776870290446161000,3.543160888671875,0.0500946044921875,0.9760284423828125,-0.0557861328125
1776870290456197600,3.55319775390625,0.0477752685546875,0.975555419921875,-0.0496673583984375
1776870290466235000,3.56323486328125,0.0461273193359375,0.9804840087890625,-0.0468292236328125
1776870290476271900,3.57327197265625,0.0460357666015625,0.990234375,-0.0491485595703125
1776870290486308900,3.583308837890625,0.046234130859375,0.9982147216796875,-0.057098388671875
1776870290496345900,3.593345947265625,0.0447540283203125,1.0010833740234375,-0.068603515625
1776870290506382800,3.6033828125,0.0429534912109375,1.0020294189453125,-0.0831146240234375
1776870290516420900,3.6134208984375,0.0389404296875,1.0044403076171875,-0.0992279052734375
1776870290526457900,3.623457763671875,0.0366363525390625,1.004364013671875,-0.1131744384765625
1776870290536494800,3.633494873046875,0.0337982177734375,1.0045928955078125,-0.124267578125
1776870290546531800,3.64353173828125,0.0317535400390625,1.010986328125,-0.1298980712890625
1776870290556568800,3.65356884765625,0.029022216796875,1.022003173828125,-0.129302978515625
1776870290566605800,3.663605712890625,0.02459716796875,1.0312652587890625,-0.120819091796875
1776870290576643800,3.673643798828125,0.01995849609375,1.03045654296875,-0.1073150634765625
1776870290586680800,3.683680908203125,0.0181732177734375,1.01971435546875,-0.0943603515625
1776870290596717800,3.6937177734375,0.0227203369140625,1.007415771484375,-0.08746337890625
1776870290606754800,3.7037548828125,0.032012939453125,1.0001373291015625,-0.08538818359375
1776870290616791800,3.713791748046875,0.0417938232421875,1.000152587890625,-0.088104248046875
1776870290626828800,3.723828857421875,0.0466461181640625,1.0039520263671875,-0.0948028564453125
1776870290636865800,3.73386572265625,0.0452117919921875,1.00604248046875,-0.1022186279296875
1776870290646903800,3.74390380859375,0.0417938232421875,1.0102081298828125,-0.108734130859375
1776870290656941000,3.753941162109375,0.0435333251953125,1.0162353515625,-0.114166259765625
1776870290666977800,3.763977783203125,0.0472869873046875,1.0281982421875,-0.1177978515625
1776870290677014800,3.774014892578125,0.0482940673828125,1.036834716796875,-0.1177520751953125
1776870290687051800,3.7840517578125,0.0425567626953125,1.04217529296875,-0.1146240234375
1776870290697088800,3.7940888671875,0.0252838134765625,1.04595947265625,-0.1091766357421875
1776870290707126800,3.804126708984375,0.0005340576171875,1.0429534912109375,-0.106597900390625
1776870290717163800,3.814163818359375,-0.01708984375,1.0295257568359375,-0.1064605712890625
1776870290727200800,3.82420068359375,-0.0277557373046875,1.01715087890625,-0.106201171875
1776870290737238000,3.834238037109375,-0.03472900390625,1.0103302001953125,-0.11004638671875
1776870290747274800,3.844274658203125,-0.0361328125,1.0143585205078125,-0.11651611328125
1776870290757311700,3.854311767578125,-0.0382232666015625,1.024749755859375,-0.1224212646484375
1776870290767348700,3.8643486328125,-0.0369873046875,1.03692626953125,-0.1312103271484375
1776870290777387000,3.874386962890625,-0.0407257080078125,1.0366973876953125,-0.1378326416015625
1776870290787423700,3.884423828125,-0.0313262939453125,1.01776123046875,-0.1422882080078125
1776870290797460700,3.894460693359375,-0.0251007080078125,0.97210693359375,-0.1408538818359375
1776870290807497700,3.904497802734375,-0.0436859130859375,0.9090118408203125,-0.137847900390625
1776870290817535000,3.914534912109375,-0.0612640380859375,0.85345458984375,-0.1317901611328125
1776870290827572000,3.924572021484375,-0.0515594482421875,0.8314971923828125,-0.130950927734375
1776870290837609700,3.934609619140625,-0.0219879150390625,0.82586669921875,-0.128509521484375
1776870290847646700,3.944646728515625,0.0312957763671875,0.8407440185546875,-0.1218109130859375
1776870290857684000,3.95468408203125,0.034576416015625,0.8233489990234375,-0.1244964599609375
1776870290867721000,3.964720947265625,-0.034271240234375,0.8013458251953125,-0.1535491943359375
1776870290877757700,3.9747578125,-0.1334075927734375,0.80914306640625,-0.1848602294921875
1776870290887794700,3.984794677734375,-0.2277069091796875,0.8545074462890625,-0.180694580078125
1776870290897830700,3.99483056640625,-0.2366790771484375,0.8857421875,-0.1419677734375
1776870290907868000,4.004867919921875,-0.165802001953125,0.909881591796875,-0.1018218994140625
1776870290917905000,4.01490478515625,-0.1123046875,0.9196929931640625,-0.045166015625
1776870290927942700,4.024942626953125,-0.1325531005859375,0.900177001953125,0.016143798828125
1776870290937980000,4.03497998046875,-0.081298828125,0.8007965087890625,0.0795745849609375
1776870290948016400,4.045016357421875,-0.1602783203125,0.590087890625,-0.0326995849609375
1776870290958053400,4.055053466796875,-0.0713348388671875,0.7503662109375,0.0550384521484375
1776870290968090600,4.065090576171875,-0.0386962890625,0.7074432373046875,0.13934326171875
1776870290978127400,4.07512744140625,-0.2542877197265625,0.7003631591796875,0.11376953125
1776870290988165400,4.085165283203125,-0.3446807861328125,0.7023162841796875,0.1114044189453125
1776870290998202600,4.09520263671875,-0.3543701171875,0.7266387939453125,0.1005401611328125
1776870291008239600,4.105239501953125,-0.282928466796875,0.73876953125,0.07708740234375
1776870291018276400,4.1152763671875,-0.2104339599609375,0.7757110595703125,0.047271728515625
1776870291028313300,4.125313232421875,-0.1372222900390625,0.8145904541015625,0.0231475830078125
1776870291038350300,4.135350341796875,-0.093292236328125,0.816253662109375,-0.028778076171875
1776870291048387600,4.1453876953125,-0.220733642578125,0.8366241455078125,-0.099090576171875
1776870291058425300,4.15542529296875,-0.34014892578125,0.8654022216796875,-0.147735595703125
1776870291068462300,4.16546240234375,-0.2575531005859375,0.8104400634765625,-0.132080078125
1776870291078499600,4.17549951171875,-0.1513519287109375,0.7389678955078125,-0.089996337890625
1776870291088536600,4.18553662109375,-0.231475830078125,0.716766357421875,-0.058929443359375
1776870291098573600,4.195573486328125,-0.360748291015625,0.6986236572265625,-0.037261962890625
1776870291108610300,4.2056103515625,-0.35443115234375,0.66632080078125,-0.0290069580078125
1776870291118648600,4.215648681640625,-0.2968292236328125,0.6038970947265625,-0.024078369140625
1776870291128685600,4.225685546875,-0.3262939453125,0.5511627197265625,-0.0008544921875
1776870291138722300,4.235722412109375,-0.40478515625,0.5423736572265625,0.058807373046875
1776870291148759300,4.24575927734375,-0.37066650390625,0.5508880615234375,0.1433563232421875
1776870291158796500,4.255796630859375,-0.3135223388671875,0.583892822265625,0.2543792724609375
1776870291168833500,4.26583349609375,-0.3687286376953125,0.63922119140625,0.3754119873046875
1776870291178870500,4.27587060546875,-0.471435546875,0.7420196533203125,0.5098724365234375
1776870291188908300,4.285908203125,-0.483123779296875,0.8310546875,0.59857177734375
1776870291198945500,4.295945556640625,-0.4207611083984375,0.8955535888671875,0.6235198974609375
1776870291208982500,4.305982421875,-0.4660491943359375,0.943023681640625,0.593170166015625
1776870291219019500,4.31601953125,-0.482147216796875,0.909820556640625,0.6198883056640625
1776870291229056300,4.32605615234375,-0.5199737548828125,0.828277587890625,0.630218505859375
1776870291239093500,4.336093505859375,-0.648284912109375,0.722930908203125,0.5684356689453125
1776870291249131500,4.346131591796875,-0.62548828125,0.64947509765625,0.47918701171875
1776870291259168500,4.35616845703125,-0.5448760986328125,0.610595703125,0.377197265625
1776870291269205500,4.36620556640625,-0.5311279296875,0.564239501953125,0.3124847412109375
1776870291279242500,4.376242431640625,-0.53375244140625,0.5129547119140625,0.2888336181640625
1776870291289279500,4.386279541015625,-0.6081085205078125,0.469696044921875,0.3026885986328125
1776870291299316500,4.39631640625,-0.6907196044921875,0.452392578125,0.3147735595703125
1776870291309353500,4.406353515625,-0.681182861328125,0.4811553955078125,0.3074798583984375
1776870291319391500,4.4163916015625,-0.6716461181640625,0.5490875244140625,0.3323974609375
1776870291329428500,4.426428466796875,-0.7584381103515625,0.643402099609375,0.37408447265625
1776870291339465500,4.436465576171875,-0.8210296630859375,0.691925048828125,0.432830810546875
1776870291349502500,4.44650244140625,-0.8035430908203125,0.6837921142578125,0.45904541015625
1776870291359539500,4.45653955078125,-0.766571044921875,0.6382293701171875,0.482421875
1776870291369576400,4.466576416015625,-0.764862060546875,0.583404541015625,0.491119384765625
1776870291379614500,4.476614501953125,-0.75909423828125,0.475372314453125,0.517364501953125
1776870291389651500,4.4866513671875,-0.8147735595703125,0.3390045166015625,0.520477294921875
1776870291399688400,4.4966884765625,-0.7963104248046875,0.283203125,0.5289154052734375
1776870291409725400,4.506725341796875,-0.88726806640625,0.3038177490234375,0.5257415771484375
1776870291419762400,4.516762451171875,-0.8774261474609375,0.315185546875,0.5084381103515625
1776870291429799700,4.526799560546875,-0.935394287109375,0.32086181640625,0.4584503173828125
1776870291439836400,4.53683642578125,-0.95098876953125,0.37310791015625,0.4354248046875
1776870291449874400,4.54687451171875,-0.84918212890625,0.3762969970703125,0.3768463134765625
1776870291459911400,4.556911376953125,-0.866424560546875,0.3301849365234375,0.4735565185546875
1776870291469948400,4.566948486328125,-0.9850311279296875,0.20941162109375,0.5962371826171875
1776870291479985400,4.5769853515625,-1.0382232666015625,0.1041107177734375,0.76422119140625
1776870291490022400,4.5870224609375,-1.0623779296875,0.09027099609375,0.88128662109375
1776870291500059400,4.597059326171875,-1.032806396484375,0.1591644287109375,0.8718719482421875
1776870291510097400,4.607097412109375,-1.0767669677734375,0.27459716796875,0.7536163330078125
1776870291520134400,4.617134521484375,-1.11346435546875,0.3336029052734375,0.5971527099609375
1776870291530171400,4.62717138671875,-1.0720672607421875,0.315826416015625,0.470306396484375
1776870291540208400,4.63720849609375,-1.07293701171875,0.2048492431640625,0.4940185546875
1776870291550245600,4.64724560546875,-1.1970672607421875,0.1185760498046875,0.6700897216796875
1776870291560282400,4.657282470703125,-1.304107666015625,0.086151123046875,0.8298492431640625
1776870291570319400,4.6673193359375,-1.3538970947265625,0.1679840087890625,0.94586181640625
1776870291580357600,4.677357666015625,-1.4798583984375,0.3089599609375,0.992279052734375
1776870291590394600,4.68739453125,-1.544189453125,0.4611358642578125,0.99163818359375
1776870291600431400,4.697431396484375,-1.6473236083984375,0.5309906005859375,0.939453125
1776870291610468400,4.70746826171875,-1.6950531005859375,0.4598388671875,0.9315643310546875
1776870291620505600,4.717505615234375,-1.619384765625,0.3842620849609375,0.888214111328125
1776870291630542600,4.72754248046875,-1.620147705078125,0.3556671142578125,0.82666015625
1776870291640579600,4.73757958984375,-1.581329345703125,0.351409912109375,0.7821807861328125
1776870291650617300,4.747617431640625,-1.4442596435546875,0.3214569091796875,0.798187255859375
1776870291660654600,4.757654541015625,-1.462615966796875,0.3107452392578125,0.78558349609375
1776870291670691600,4.767691650390625,-1.3943939208984375,0.3345947265625,0.7198944091796875
1776870291680728300,4.777728271484375,-1.2708740234375,0.3424072265625,0.663787841796875
1776870291690765300,4.787765380859375,-1.18701171875,0.306488037109375,0.6667633056640625
1776870291700802600,4.797802490234375,-1.11480712890625,0.23358154296875,0.6858062744140625
1776870291710840600,4.807840576171875,-1.0324554443359375,0.1787261962890625,0.6574554443359375
1776870291720877300,4.817877197265625,-0.9779510498046875,0.1602630615234375,0.6419525146484375
1776870291730914300,4.827914306640625,-0.9312286376953125,0.145904541015625,0.6524505615234375
1776870291740951600,4.83795166015625,-0.8726806640625,0.166778564453125,0.635589599609375
1776870291750988500,4.847988525390625,-0.8416595458984375,0.2285003662109375,0.5944671630859375
1776870291761025500,4.858025634765625,-0.809295654296875,0.2904510498046875,0.535308837890625
1776870291771063600,4.8680634765625,-0.7613983154296875,0.316619873046875,0.4730072021484375
1776870291781100500,4.8781005859375,-0.71295166015625,0.30859375,0.441864013671875
1776870291791137500,4.888137451171875,-0.6904754638671875,0.2640838623046875,0.4285125732421875
1776870291801174500,4.898174560546875,-0.65716552734375,0.24420166015625,0.430908203125
1776870291811211300,4.908211181640625,-0.625885009765625,0.2328643798828125,0.4350433349609375
1776870291821248500,4.91824853515625,-0.6271209716796875,0.2636260986328125,0.4333648681640625
1776870291831285500,4.928285400390625,-0.5979766845703125,0.303955078125,0.4293060302734375
1776870291841323300,4.9383232421875,-0.58148193359375,0.348236083984375,0.4097137451171875
1776870291851360500,4.948360595703125,-0.582611083984375,0.3803863525390625,0.4041748046875
1776870291861397500,4.9583974609375,-0.6098785400390625,0.4008636474609375,0.3983917236328125
1776870291871434500,4.9684345703125,-0.6387939453125,0.42657470703125,0.4001312255859375
1776870291881471500,4.978471435546875,-0.6442718505859375,0.471038818359375,0.4019622802734375
1776870291891508200,4.98850830078125,-0.64788818359375,0.5211029052734375,0.39971923828125
1776870291901546500,4.99854638671875,-0.6421051025390625,0.579315185546875,0.3889312744140625
1776870291911583500,5.00858349609375,-0.662811279296875,0.6481170654296875,0.3606109619140625
1776870291921620500,5.018620361328125,-0.648406982421875,0.69525146484375,0.328125
1776870291931657500,5.028657470703125,-0.6108856201171875,0.719146728515625,0.300933837890625
1776870291941694500,5.038694580078125,-0.5721282958984375,0.732818603515625,0.281707763671875
1776870291951731700,5.048731689453125,-0.5599365234375,0.7478179931640625,0.256011962890625
1776870291961769700,5.058769775390625,-0.565032958984375,0.7732696533203125,0.241241455078125
1776870291971806700,5.068806640625,-0.5461883544921875,0.791015625,0.2394561767578125
1776870291981843700,5.07884375,-0.523345947265625,0.7985382080078125,0.24896240234375
1776870291991880700,5.088880615234375,-0.485198974609375,0.805267333984375,0.2574920654296875
1776870292001917700,5.098917724609375,-0.442840576171875,0.8114776611328125,0.2672271728515625
1776870292011954700,5.10895458984375,-0.463226318359375,0.8315887451171875,0.264129638671875
1776870292021992700,5.11899267578125,-0.4759674072265625,0.857879638671875,0.2537841796875
1776870292032029700,5.12902978515625,-0.4451904296875,0.88006591796875,0.251129150390625
1776870292042066700,5.139066650390625,-0.3840789794921875,0.8990936279296875,0.242889404296875
1776870292052103700,5.149103759765625,-0.34228515625,0.9232025146484375,0.228729248046875
1776870292062140700,5.159140625,-0.3311767578125,0.9637451171875,0.207000732421875
1776870292072177700,5.169177734375,-0.3206024169921875,1.011566162109375,0.180145263671875
1776870292082215700,5.179215576171875,-0.2973175048828125,1.0570220947265625,0.143707275390625
1776870292092252700,5.189252685546875,-0.297576904296875,1.0968780517578125,0.11163330078125
1776870292102289700,5.19928955078125,-0.2992401123046875,1.1121978759765625,0.089935302734375
1776870292112326700,5.20932666015625,-0.2963714599609375,1.096771240234375,0.0796051025390625
1776870292122364000,5.219364013671875,-0.2630615234375,1.0484619140625,0.079681396484375
1776870292132400600,5.229400634765625,-0.2230682373046875,0.9839019775390625,0.0906219482421875
1776870292142438700,5.239438720703125,-0.20831298828125,0.9189300537109375,0.100555419921875
1776870292152475600,5.2494755859375,-0.2234954833984375,0.8638763427734375,0.1163177490234375
1776870292162513000,5.259512939453125,-0.2543182373046875,0.8156280517578125,0.1360626220703125
1776870292172549600,5.269549560546875,-0.2574615478515625,0.773681640625,0.1535797119140625
1776870292182586600,5.279586669921875,-0.2035980224609375,0.7529754638671875,0.1469268798828125
1776870292192623600,5.28962353515625,-0.1363372802734375,0.75677490234375,0.1352386474609375
1776870292202661600,5.29966162109375,-0.095428466796875,0.7684783935546875,0.123138427734375
1776870292212698600,5.30969873046875,-0.068206787109375,0.7747039794921875,0.1110382080078125
1776870292222735600,5.319735595703125,-0.0410919189453125,0.7702789306640625,0.1019134521484375
1776870292232772600,5.329772705078125,-0.0392303466796875,0.7552642822265625,0.09674072265625
1776870292242809900,5.339809814453125,-0.057952880859375,0.728546142578125,0.0937652587890625
1776870292252846600,5.3498466796875,-0.0838165283203125,0.7015380859375,0.0859222412109375
1776870292262884600,5.359884521484375,-0.1165618896484375,0.671356201171875,0.0771942138671875
1776870292272921900,5.369921875,-0.1454010009765625,0.634490966796875,0.0654754638671875
1776870292282958800,5.379958740234375,-0.1508331298828125,0.61090087890625,0.056640625
1776870292292995600,5.38999560546875,-0.1394195556640625,0.6025848388671875,0.0419921875
1776870292303032600,5.400032470703125,-0.1239013671875,0.5956268310546875,0.0330810546875
1776870292313069800,5.41006982421875,-0.1126556396484375,0.5868988037109375,0.0302276611328125
1776870292323107800,5.42010791015625,-0.12652587890625,0.575775146484375,0.0312957763671875
1776870292333144600,5.43014453125,-0.1575469970703125,0.5654296875,0.0352783203125
1776870292343181600,5.440181640625,-0.1824798583984375,0.5514068603515625,0.048309326171875
1776870292353218800,5.45021875,-0.19061279296875,0.545867919921875,0.0667266845703125
1776870292363255800,5.460255859375,-0.1744537353515625,0.544830322265625,0.0863494873046875
1776870292373292800,5.470292724609375,-0.1484222412109375,0.5622711181640625,0.085601806640625
1776870292383330800,5.480330810546875,-0.1017913818359375,0.61187744140625,0.068756103515625
1776870292393367800,5.490367919921875,-0.040069580078125,0.681884765625,0.044647216796875
1776870292403404800,5.50040478515625,0.0059661865234375,0.7703094482421875,0.014495849609375
1776870292413441500,5.510441650390625,0.0376129150390625,0.8679656982421875,-0.017913818359375
1776870292423478500,5.520478515625,0.0647735595703125,0.9642486572265625,-0.044921875
1776870292433515800,5.530515869140625,0.06732177734375,1.0537109375,-0.064056396484375
1776870292443553800,5.5405537109375,0.034454345703125,1.1353302001953125,-0.089202880859375
1776870292453590500,5.550590576171875,-0.026031494140625,1.1837921142578125,-0.1251220703125
1776870292463627800,5.560627685546875,-0.0703125,1.212799072265625,-0.1543731689453125
1776870292473664800,5.570664794921875,-0.0532073974609375,1.234375,-0.1671600341796875
1776870292483701800,5.58070166015625,0.048187255859375,1.2546234130859375,-0.1725921630859375
1776870292493739500,5.590739501953125,0.1488494873046875,1.2874298095703125,-0.1551513671875
1776870292503776800,5.60077685546875,0.199432373046875,1.3545684814453125,-0.13690185546875
1776870292513813800,5.610813720703125,0.2009429931640625,1.3972320556640625,-0.121337890625
1776870292523850800,5.620850830078125,0.1448822021484375,1.4294281005859375,-0.1173858642578125
1776870292533887700,5.6308876953125,0.0042266845703125,1.4841461181640625,-0.14208984375
1776870292543924700,5.6409248046875,-0.22100830078125,1.4861297607421875,-0.1735687255859375
1776870292553962800,5.650962646484375,-0.3548583984375,1.3612213134765625,-0.2172088623046875
1776870292563999700,5.660999755859375,-0.260711669921875,1.2204742431640625,-0.3034820556640625
1776870292574036500,5.671036376953125,-0.0650482177734375,1.115081787109375,-0.3978424072265625
1776870292584073700,5.68107373046875,0.07586669921875,0.991607666015625,-0.44024658203125
1776870292594110700,5.69111083984375,0.13970947265625,0.8646392822265625,-0.4369964599609375
1776870292604147700,5.701147705078125,0.15386962890625,0.7653961181640625,-0.4072265625
1776870292614185700,5.711185791015625,0.114990234375,0.713958740234375,-0.3503875732421875
1776870292624222700,5.72122265625,0.0299835205078125,0.689849853515625,-0.280059814453125
1776870292634259700,5.731259765625,-0.0420074462890625,0.7054901123046875,-0.2252197265625
1776870292644296700,5.741296630859375,-0.054595947265625,0.746917724609375,-0.177978515625
1776870292654333700,5.751333740234375,-0.0303192138671875,0.8054351806640625,-0.1337127685546875
1776870292664370700,5.76137060546875,0.0196685791015625,0.888427734375,-0.083740234375
1776870292674408700,5.77140869140625,0.0692901611328125,0.9642486572265625,-0.0238189697265625
1776870292684445700,5.78144580078125,0.0947418212890625,1.0226593017578125,0.031707763671875
1776870292694482700,5.791482666015625,0.0912933349609375,1.07427978515625,0.080780029296875
1776870292704519700,5.801519775390625,0.0728302001953125,1.0972747802734375,0.1299591064453125
1776870292714556700,5.811556640625,0.051971435546875,1.079986572265625,0.17578125
1776870292724594700,5.8215947265625,0.0424957275390625,1.0399322509765625,0.209259033203125
1776870292734631700,5.831631591796875,0.0481109619140625,0.9862060546875,0.2300262451171875
1776870292744668700,5.841668701171875,0.074066162109375,0.929595947265625,0.2242584228515625
1776870292754705700,5.85170556640625,0.113616943359375,0.89215087890625,0.198272705078125
1776870292764742700,5.86174267578125,0.1408538818359375,0.8697662353515625,0.1698150634765625
1776870292774780000,5.87177978515625,0.1544647216796875,0.86346435546875,0.1459503173828125
1776870292784817700,5.881817626953125,0.14044189453125,0.867218017578125,0.1128692626953125
1776870292794854700,5.891854736328125,0.103973388671875,0.89215087890625,0.0543975830078125
1776870292804891600,5.9018916015625,0.0575103759765625,0.9379730224609375,-0.008575439453125
1776870292814929000,5.911928955078125,-0.0025787353515625,0.99798583984375,-0.0737152099609375
1776870292824965600,5.921965576171875,-0.0728607177734375,1.0718536376953125,-0.138458251953125
1776870292835002600,5.932002685546875,-0.14739990234375,1.153472900390625,-0.1966552734375
1776870292845041000,5.942041015625,-0.2396697998046875,1.229583740234375,-0.2613525390625
1776870292855077600,5.95207763671875,-0.3074798583984375,1.2723388671875,-0.3124237060546875
1776870292865114600,5.962114501953125,-0.2822113037109375,1.25634765625,-0.36492919921875
1776870292875151600,5.972151611328125,-0.1663818359375,1.1605072021484375,-0.405120849609375
1776870292885188900,5.98218896484375,-0.0308990478515625,1.024200439453125,-0.4211273193359375
1776870292895226600,5.9922265625,0.0746307373046875,0.94122314453125,-0.3911895751953125
1776870292905263600,6.002263671875,0.1084442138671875,0.9368133544921875,-0.31280517578125
1776870292915300600,6.012300537109375,0.0969085693359375,0.9578857421875,-0.222503662109375
1776870292925337900,6.022337890625,0.0684051513671875,0.9889984130859375,-0.1333465576171875
1776870292935374800,6.032374755859375,0.048828125,1.013519287109375,-0.057342529296875
1776870292945411300,6.042411376953125,0.0458984375,1.0233612060546875,0.0023651123046875
1776870292955449000,6.052448974609375,0.0487823486328125,1.027496337890625,0.0471343994140625
1776870292965486300,6.062486328125,0.0518646240234375,1.02001953125,0.0815277099609375
1776870292975523300,6.0725234375,0.0611419677734375,0.996856689453125,0.1075439453125
1776870292985560000,6.08256005859375,0.0739288330078125,0.9608001708984375,0.125579833984375
1776870292995597000,6.09259716796875,0.0810699462890625,0.92169189453125,0.135955810546875
1776870293005635300,6.10263525390625,0.0782470703125,0.8914337158203125,0.1386566162109375
1776870293015672300,6.11267236328125,0.0558319091796875,0.8750762939453125,0.1332550048828125
1776870293025709000,6.122708984375,0.025146484375,0.89520263671875,0.1097564697265625
1776870293035746000,6.13274609375,-0.00299072265625,0.9353485107421875,0.0728912353515625
1776870293045783300,6.142783203125,-0.0269775390625,0.9673614501953125,0.034088134765625
1776870293055820300,6.1528203125,-0.0417938232421875,0.9935150146484375,-0.004119873046875
1776870293065858000,6.162858154296875,-0.05181884765625,1.0178375244140625,-0.041473388671875
1776870293075895300,6.172895263671875,-0.0565338134765625,1.03912353515625,-0.0778961181640625
1776870293085932300,6.182932373046875,-0.0540924072265625,1.0534210205078125,-0.108154296875
1776870293095969300,6.19296923828125,-0.0474395751953125,1.0529327392578125,-0.130340576171875
1776870293106006300,6.20300634765625,-0.041595458984375,1.0454864501953125,-0.1440887451171875
1776870293116044300,6.213044189453125,-0.0363311767578125,1.03680419921875,-0.1543731689453125
1776870293126081300,6.223081298828125,-0.029541015625,1.0296630859375,-0.15948486328125
1776870293136118300,6.2331181640625,-0.0254974365234375,1.025726318359375,-0.1607666015625
1776870293146155000,6.243155029296875,-0.0266265869140625,1.0198974609375,-0.155059814453125
1776870293156192300,6.253192138671875,-0.0279541015625,1.0107574462890625,-0.14080810546875
1776870293166229200,6.263229248046875,-0.024505615234375,1.0100555419921875,-0.125091552734375
1776870293176267300,6.273267333984375,-0.0198516845703125,1.0095062255859375,-0.1072540283203125
1776870293186304000,6.283303955078125,-0.0139007568359375,1.0029144287109375,-0.0892486572265625
1776870293196341200,6.29334130859375,-0.0044403076171875,1.005615234375,-0.0744476318359375
1776870293206378200,6.303378173828125,-0.000701904296875,1.0344085693359375,-0.067352294921875
1776870293216415200,6.313415283203125,-0.001617431640625,1.0695343017578125,-0.065277099609375
1776870293226453200,6.323453369140625,-0.003814697265625,1.07666015625,-0.059173583984375
1776870293236490200,6.333490234375,-0.00958251953125,1.0570526123046875,-0.044464111328125
1776870293246527200,6.34352734375,-0.0141448974609375,1.0208740234375,-0.026123046875
1776870293256564200,6.353564208984375,-0.011688232421875,0.9929351806640625,-0.0125579833984375
1776870293266601200,6.363601318359375,-0.0057373046875,0.980499267578125,-0.0019073486328125
1776870293276638200,6.37363818359375,-0.0045318603515625,0.9784088134765625,0.00604248046875
1776870293286676200,6.38367626953125,-0.0053558349609375,0.9846649169921875,0.00946044921875
1776870293296713200,6.393713134765625,-0.0107574462890625,0.9869842529296875,0.0099029541015625
1776870293306750200,6.403750244140625,-0.0116424560546875,0.9817047119140625,0.01226806640625
1776870293316787200,6.413787109375,-0.0020599365234375,0.9827728271484375,0.0159149169921875
1776870293326824200,6.42382421875,0.0157623291015625,0.99212646484375,0.0199432373046875
1776870293336862200,6.4338623046875,0.034423828125,1.0013885498046875,0.0205230712890625
1776870293346899200,6.443899169921875,0.0491180419921875,1.00433349609375,0.0173492431640625
1776870293356936200,6.453936279296875,0.07281494140625,1.0001983642578125,0.0022430419921875
1776870293366973200,6.46397314453125,0.0796966552734375,0.9940185546875,-0.0165557861328125
1776870293377010200,6.47401025390625,0.0505218505859375,0.9873046875,-0.0329132080078125
1776870293387048200,6.484048095703125,0.0071258544921875,0.98486328125,-0.0542449951171875
1776870293397085200,6.494085205078125,-0.02166748046875,0.991943359375,-0.0832061767578125
1776870293407122200,6.5041220703125,-0.0366363525390625,1.01123046875,-0.1157989501953125
1776870293417159400,6.514159423828125,-0.0345916748046875,1.030914306640625,-0.148895263671875
1776870293427196200,6.524196044921875,-0.031097412109375,1.0389862060546875,-0.1769561767578125
1776870293437233200,6.534233154296875,-0.0467376708984375,1.037841796875,-0.1983489990234375
1776870293447271200,6.544271240234375,-0.0887451171875,1.025604248046875,-0.211181640625
1776870293457308400,6.554308349609375,-0.1519317626953125,1.016021728515625,-0.216644287109375
1776870293467345200,6.56434521484375,-0.197021484375,1.0175628662109375,-0.2188873291015625
1776870293477382100,6.574382080078125,-0.19696044921875,1.0259552001953125,-0.2149200439453125
1776870293487419100,6.584419189453125,-0.1711883544921875,1.0304718017578125,-0.2109222412109375
1776870293497457200,6.59445703125,-0.163482666015625,1.0344085693359375,-0.21014404296875
1776870293507494100,6.604494140625,-0.1688079833984375,1.041046142578125,-0.2057037353515625
1776870293517531100,6.61453125,-0.1614837646484375,1.03497314453125,-0.193756103515625
1776870293527569400,6.6245693359375,-0.13421630859375,1.0145111083984375,-0.1739654541015625
1776870293537606100,6.634606201171875,-0.076904296875,0.9811859130859375,-0.147857666015625
1776870293547643100,6.64464306640625,-0.0366363525390625,0.9438934326171875,-0.11749267578125
1776870293557680000,6.65468017578125,-0.0651092529296875,0.8988189697265625,-0.079559326171875
1776870293567718100,6.66471826171875,-0.164154052734375,0.8537139892578125,-0.0503997802734375
1776870293577755100,6.674755126953125,-0.2804718017578125,0.8129730224609375,-0.0257110595703125
1776870293587792100,6.684792236328125,-0.307647705078125,0.76702880859375,-0.000213623046875
1776870293597829000,6.6948291015625,-0.2574920654296875,0.7252960205078125,0.0283355712890625
1776870293607866400,6.704866455078125,-0.1729278564453125,0.68951416015625,0.0540008544921875
1776870293617904000,6.714904052734375,-0.0918731689453125,0.653839111328125,0.087799072265625
1776870293627941000,6.724941162109375,-0.0286865234375,0.64544677734375,0.1297760009765625
1776870293637978400,6.734978271484375,-0.0562896728515625,0.588623046875,0.16925048828125
1776870293648015400,6.745015380859375,-0.111663818359375,0.5211639404296875,0.2050628662109375
1776870293658052000,6.755052001953125,-0.145721435546875,0.5395660400390625,0.2313232421875
1776870293668090000,6.765090087890625,-0.135406494140625,0.5854339599609375,0.2420501708984375
1776870293678127400,6.77512744140625,-0.1163177490234375,0.63641357421875,0.243804931640625
1776870293688164400,6.785164306640625,-0.110992431640625,0.6968841552734375,0.2480010986328125
1776870293698201000,6.795201171875,-0.0929718017578125,0.759979248046875,0.230224609375
1776870293708238000,6.805238037109375,-0.0953521728515625,0.8266754150390625,0.179656982421875
1776870293718275300,6.815275390625,-0.1257476806640625,0.857330322265625,0.11376953125
1776870293728313000,6.82531298828125,-0.221221923828125,0.8626708984375,0.0811309814453125
1776870293738350000,6.83535009765625,-0.275665283203125,0.8403778076171875,0.0582275390625
1776870293748387000,6.845386962890625,-0.242095947265625,0.7989654541015625,0.053619384765625
1776870293758424300,6.85542431640625,-0.201507568359375,0.76806640625,0.0557861328125
1776870293768461300,6.86546142578125,-0.1918792724609375,0.7620391845703125,0.0579986572265625
1776870293778499000,6.8754990234375,-0.2012786865234375,0.773590087890625,0.05633544921875
1776870293788536300,6.885536376953125,-0.2080078125,0.7955169677734375,0.0703887939453125
1776870293798573300,6.8955732421875,-0.26416015625,0.81195068359375,0.111968994140625
1776870293808610300,6.9056103515625,-0.3460845947265625,0.80059814453125,0.1348724365234375
1776870293818647000,6.91564697265625,-0.400543212890625,0.77252197265625,0.14691162109375
1776870293828685300,6.925685302734375,-0.4355621337890625,0.76361083984375,0.1511993408203125
1776870293838722300,6.935722412109375,-0.4379119873046875,0.7769775390625,0.143646240234375
1776870293848759300,6.94575927734375,-0.4305267333984375,0.81341552734375,0.142669677734375
1776870293858796000,6.955796142578125,-0.464111328125,0.85968017578125,0.1562042236328125
1776870293868833300,6.965833251953125,-0.5551605224609375,0.9137725830078125,0.18524169921875
1776870293878871300,6.975871337890625,-0.55548095703125,0.93951416015625,0.201019287109375
1776870293888908000,6.985907958984375,-0.5146636962890625,0.9392547607421875,0.203399658203125
1776870293898945000,6.995945068359375,-0.4925994873046875,0.9290618896484375,0.196258544921875
1776870293908982300,7.005982177734375,-0.4925079345703125,0.8933563232421875,0.178863525390625
1776870293919019300,7.016019287109375,-0.5282745361328125,0.82958984375,0.15753173828125
1776870293929056300,7.02605615234375,-0.55755615234375,0.76611328125,0.136260986328125
1776870293939094300,7.03609423828125,-0.53302001953125,0.7181396484375,0.11883544921875
1776870293949132300,7.04613232421875,-0.481475830078125,0.6748504638671875,0.112060546875
1776870293959169000,7.0561689453125,-0.378814697265625,0.6385955810546875,0.1229095458984375
1776870293969206000,7.0662060546875,-0.34197998046875,0.61468505859375,0.20733642578125
1776870293979243300,7.0762431640625,-0.4485321044921875,0.58135986328125,0.338623046875
1776870293989281300,7.08628125,-0.557464599609375,0.546142578125,0.4586029052734375
1776870293999318000,7.096318115234375,-0.5953369140625,0.522216796875,0.5275726318359375
1776870294009355300,7.106355224609375,-0.6360321044921875,0.5296478271484375,0.543975830078125
1776870294019392300,7.116392333984375,-0.6449432373046875,0.5418701171875,0.5627593994140625
1776870294029429200,7.12642919921875,-0.6962127685546875,0.610992431640625,0.564544677734375
1776870294039467000,7.136467041015625,-0.7278594970703125,0.682769775390625,0.5526580810546875
1776870294049504300,7.146504150390625,-0.712799072265625,0.6676788330078125,0.54052734375
1776870294059541200,7.156541259765625,-0.71112060546875,0.590545654296875,0.499603271484375
1776870294069578200,7.166578125,-0.7289276123046875,0.438446044921875,0.4844970703125
1776870294079615200,7.176615234375,-0.71441650390625,0.3391571044921875,0.47564697265625
1776870294089653200,7.1866533203125,-0.7426605224609375,0.2899627685546875,0.466400146484375
1776870294099690200,7.196690185546875,-0.725006103515625,0.2170867919921875,0.47705078125
1776870294109727200,7.206727294921875,-0.81768798828125,0.1542510986328125,0.4116973876953125
1776870294119764000,7.216763916015625,-0.874847412109375,0.1515045166015625,0.354522705078125
1776870294129801200,7.22680126953125,-0.913909912109375,0.2108306884765625,0.289886474609375
1776870294139838200,7.236838134765625,-0.9422607421875,0.26605224609375,0.2859954833984375
1776870294149876200,7.246876220703125,-1.0643463134765625,0.2566680908203125,0.3405303955078125
1776870294159913200,7.256913330078125,-1.0984344482421875,0.2018585205078125,0.3981170654296875
1776870294169950200,7.2669501953125,-1.0946502685546875,0.1859130859375,0.5540618896484375
1776870294179987200,7.2769873046875,-1.090057373046875,0.20867919921875,0.72100830078125
1776870294190024200,7.287024169921875,-1.108154296875,0.2413482666015625,0.8651275634765625
1776870294200062200,7.297062255859375,-1.1482696533203125,0.3312530517578125,0.9708709716796875
1776870294210099200,7.30709912109375,-1.2027587890625,0.3986358642578125,0.9922943115234375
1776870294220136200,7.31713623046875,-1.262786865234375,0.41485595703125,0.990478515625
1776870294230173200,7.327173095703125,-1.309814453125,0.31280517578125,0.969757080078125
1776870294240210200,7.337210205078125,-1.4353790283203125,0.19183349609375,0.977386474609375
1776870294250248200,7.347248291015625,-1.513702392578125,0.1748046875,0.981353759765625
1776870294260285200,7.35728515625,-1.509124755859375,0.2642822265625,1.0363006591796875
1776870294270322400,7.367322509765625,-1.5443115234375,0.3223724365234375,1.004150390625
1776870294280359200,7.377359130859375,-1.4727325439453125,0.3332061767578125,0.8973236083984375
1776870294290396200,7.387396240234375,-1.51129150390625,0.2855072021484375,0.8475494384765625
1776870294300433200,7.39743310546875,-1.5110321044921875,0.2325439453125,0.8666534423828125
1776870294310471400,7.407471435546875,-1.4495697021484375,0.26422119140625,0.9098052978515625
1776870294320508200,7.417508056640625,-1.4574737548828125,0.3485260009765625,0.8957672119140625
1776870294330545200,7.427545166015625,-1.4287109375,0.4017486572265625,0.8625335693359375
1776870294340582100,7.43758203125,-1.3565826416015625,0.4078216552734375,0.8408355712890625
1776870294350619400,7.447619384765625,-1.3042449951171875,0.4177093505859375,0.7874755859375
1776870294360657200,7.4576572265625,-1.2688751220703125,0.4197540283203125,0.7136688232421875
1776870294370694100,7.467694091796875,-1.15478515625,0.3863372802734375,0.6498870849609375
1776870294380731100,7.477731201171875,-1.0423736572265625,0.3499755859375,0.6011962890625
1776870294390768400,7.487768310546875,-1.005889892578125,0.3082275390625,0.589385986328125
1776870294400805000,7.49780517578125,-0.979034423828125,0.2566680908203125,0.58624267578125
1776870294410843100,7.507843017578125,-0.9008941650390625,0.22674560546875,0.566802978515625
1776870294420880400,7.51788037109375,-0.839447021484375,0.229156494140625,0.544158935546875
1776870294430917400,7.52791748046875,-0.83477783203125,0.2464447021484375,0.5377197265625
1776870294440954000,7.5379541015625,-0.8049468994140625,0.2666473388671875,0.5279388427734375
1776870294450991000,7.5479912109375,-0.751556396484375,0.29656982421875,0.5090179443359375
1776870294461029400,7.558029296875,-0.787445068359375,0.3351287841796875,0.460723876953125
1776870294471066000,7.568066162109375,-0.767608642578125,0.3760833740234375,0.4173431396484375
1776870294481103000,7.57810302734375,-0.6471710205078125,0.4143524169921875,0.3883056640625
1776870294491140000,7.58814013671875,-0.58306884765625,0.4334259033203125,0.36614990234375
1776870294501177300,7.59817724609375,-0.59295654296875,0.442840576171875,0.3623046875
1776870294511214300,7.60821435546875,-0.59033203125,0.441131591796875,0.3583221435546875
1776870294521252000,7.618252197265625,-0.5878143310546875,0.453460693359375,0.36376953125
1776870294531289000,7.6282890625,-0.5841827392578125,0.4769134521484375,0.3804931640625
1776870294541326300,7.638326416015625,-0.605987548828125,0.4978485107421875,0.394317626953125
1776870294551363300,7.64836328125,-0.62249755859375,0.536224365234375,0.372528076171875
1776870294561400000,7.658400146484375,-0.590545654296875,0.5814666748046875,0.34747314453125
1776870294571438300,7.668438232421875,-0.58258056640625,0.628936767578125,0.3368072509765625
1776870294581475300,7.678475341796875,-0.573333740234375,0.6697235107421875,0.3351593017578125
1776870294591512300,7.68851220703125,-0.5698699951171875,0.7111358642578125,0.322296142578125
1776870294601549000,7.698549072265625,-0.57977294921875,0.744140625,0.3217315673828125
1776870294611586000,7.7085859375,-0.56005859375,0.7783203125,0.31854248046875
1776870294621624300,7.718624267578125,-0.5114288330078125,0.8104400634765625,0.311920166015625
1776870294631661000,7.7286611328125,-0.4962005615234375,0.846282958984375,0.298095703125
1776870294641698000,7.738697998046875,-0.5192108154296875,0.8844757080078125,0.2823333740234375
1776870294651735300,7.7487353515625,-0.5176239013671875,0.9050140380859375,0.2796173095703125
1776870294661772300,7.758772216796875,-0.48187255859375,0.915191650390625,0.2783203125
1776870294671810000,7.76881005859375,-0.452850341796875,0.930023193359375,0.2630615234375
1776870294681847000,7.778846923828125,-0.4724273681640625,0.950347900390625,0.2246246337890625
1776870294691884300,7.78888427734375,-0.452667236328125,0.9771881103515625,0.1862640380859375
1776870294701921300,7.79892138671875,-0.3929595947265625,1.0089111328125,0.1588897705078125
1776870294711958300,7.808958251953125,-0.3511505126953125,1.04168701171875,0.137481689453125
1776870294721995000,7.8189951171875,-0.335693359375,1.0696258544921875,0.1179046630859375
1776870294732033300,7.829033203125,-0.3108062744140625,1.0980682373046875,0.097076416015625
1776870294742070300,7.8390703125,-0.2792510986328125,1.109619140625,0.0747528076171875
1776870294752107300,7.849107177734375,-0.2498931884765625,1.110870361328125,0.04168701171875
1776870294762144000,7.85914404296875,-0.2421722412109375,1.0972137451171875,0.0115966796875
1776870294772181200,7.86918115234375,-0.257476806640625,1.0692138671875,-0.0042572021484375
1776870294782219300,7.87921923828125,-0.269134521484375,1.0180511474609375,-0.0010986328125
1776870294792256000,7.889256103515625,-0.22686767578125,0.9474334716796875,0.0008697509765625
1776870294802293200,7.899293212890625,-0.1786956787109375,0.87603759765625,0.0104522705078125
1776870294812330200,7.909330322265625,-0.1365814208984375,0.8115234375,0.011962890625
1776870294822367200,7.9193671875,-0.112396240234375,0.7594757080078125,0.018218994140625
1776870294832405000,7.929405029296875,-0.137847900390625,0.72113037109375,0.0167236328125
1776870294842442200,7.939442138671875,-0.1555633544921875,0.694427490234375,0.018402099609375
1776870294852479200,7.949479248046875,-0.1311492919921875,0.677978515625,0.0295867919921875
1776870294862516200,7.95951611328125,-0.1226348876953125,0.6742095947265625,0.0382537841796875
1776870294872553200,7.96955322265625,-0.13043212890625,0.6730499267578125,0.0476226806640625
1776870294882591200,7.97959130859375,-0.118072509765625,0.67352294921875,0.0509185791015625
1776870294892628200,7.989628173828125,-0.0904388427734375,0.6756439208984375,0.0605621337890625
1776870294902664200,7.999664306640625,-0.0597991943359375,0.6768035888671875,0.0567474365234375
1776870294912701200,8.009701171875,-0.05401611328125,0.6663818359375,0.0498809814453125
1776870294922739200,8.0197392578125,-0.0665283203125,0.6498870849609375,0.0413665771484375
1776870294932776200,8.029776123046876,-0.0818939208984375,0.63427734375,0.0355987548828125
1776870294942813200,8.039813232421874,-0.1074371337890625,0.62298583984375,0.0360260009765625
1776870294952850000,8.049849853515624,-0.1367340087890625,0.6198577880859375,0.0384063720703125
1776870294962887000,8.059886962890625,-0.1390838623046875,0.61383056640625,0.039703369140625
1776870294972925000,8.069925048828125,-0.140411376953125,0.6063690185546875,0.0384521484375
1776870294982962000,8.0799619140625,-0.1562957763671875,0.58685302734375,0.039703369140625
1776870294992999000,8.0899990234375,-0.176239013671875,0.568115234375,0.036468505859375
1776870295003036000,8.100035888671876,-0.1910400390625,0.5624542236328125,0.0381011962890625
1776870295013072600,8.11007275390625,-0.17462158203125,0.5595550537109375,0.0462799072265625
1776870295023111000,8.12011083984375,-0.1306304931640625,0.5508270263671875,0.0565948486328125
1776870295033148000,8.13014794921875,-0.0813446044921875,0.5406036376953125,0.0655670166015625
1776870295043184600,8.1401845703125,-0.04150390625,0.53094482421875,0.0664825439453125
1776870295053222000,8.150221923828125,-0.0165557861328125,0.5225067138671875,0.0666656494140625
1776870295063259000,8.1602587890625,0.01953125,0.551055908203125,0.0641326904296875
1776870295073296000,8.1702958984375,0.0488433837890625,0.625732421875,0.059295654296875
1776870295083333600,8.180333740234374,0.0844879150390625,0.7437744140625,0.0647125244140625
1776870295093371000,8.190370849609375,0.112060546875,0.8896484375,0.07452392578125
1776870295103407900,8.200407958984375,0.1303253173828125,1.005401611328125,0.0737762451171875
1776870295113444900,8.21044482421875,0.1400146484375,1.1253662109375,0.0756683349609375
1776870295123481900,8.22048193359375,0.1034393310546875,1.2675628662109375,0.0737457275390625
1776870295133520000,8.230519775390626,-0.0549468994140625,1.4300994873046875,0.049102783203125
1776870295143556900,8.240556884765626,-0.4450531005859375,1.64178466796875,0.01025390625
1776870295153593900,8.25059375,-1.0828399658203125,1.9839324951171875,-0.046417236328125
1776870295163630800,8.260630859375,-1.0447998046875,2.24560546875,-0.1787567138671875
1776870295173667800,8.270667724609375,-0.40948486328125,2.299713134765625,-0.3786773681640625
1776870295183705900,8.280705810546875,0.1981658935546875,2.140655517578125,-0.5814666748046875
1776870295193742800,8.290742919921875,0.60308837890625,1.7516937255859375,-0.672943115234375
1776870295203779800,8.30077978515625,0.698394775390625,1.3148651123046875,-0.6027679443359375
1776870295213816800,8.31081689453125,0.622222900390625,0.9683074951171875,-0.462158203125
1776870295223853800,8.320853759765624,0.516876220703125,0.7405242919921875,-0.327484130859375
1776870295233891800,8.330891845703125,0.41168212890625,0.6157684326171875,-0.205657958984375
1776870295243928800,8.3409287109375,0.2886505126953125,0.543304443359375,-0.121978759765625
1776870295253965800,8.3509658203125,0.1817626953125,0.4852447509765625,-0.0649261474609375
1776870295264002800,8.3610029296875,0.077545166015625,0.4373016357421875,-0.021026611328125
1776870295274039800,8.371039794921876,-0.008880615234375,0.3938751220703125,0.010650634765625
1776870295284077000,8.3810771484375,-0.085235595703125,0.3695526123046875,0.02667236328125
1776870295294114800,8.39111474609375,-0.1213836669921875,0.4420318603515625,0.0459136962890625
1776870295304151800,8.40115185546875,-0.1545867919921875,0.600921630859375,0.07550048828125
1776870295314188800,8.411188720703125,-0.2210235595703125,0.7345123291015625,0.0991058349609375
1776870295324225800,8.421225830078125,-0.212921142578125,0.8699188232421875,0.1153717041015625
1776870295334262800,8.4312626953125,-0.1458740234375,1.0084991455078125,0.107574462890625
1776870295344300800,8.44130078125,-0.04864501953125,1.1104888916015625,0.0841827392578125
1776870295354338000,8.451338134765624,0.05426025390625,1.1754608154296875,0.04840087890625
1776870295364374800,8.461374755859374,0.1308441162109375,1.199951171875,0.0108795166015625
1776870295374411800,8.471411865234375,0.1850433349609375,1.211883544921875,-0.0257415771484375
1776870295384448800,8.48144873046875,0.2086334228515625,1.20001220703125,-0.063690185546875
1776870295394486800,8.49148681640625,0.194549560546875,1.156097412109375,-0.109893798828125
1776870295404523800,8.501523681640625,0.165618896484375,1.0750732421875,-0.1622772216796875
1776870295414560800,8.511560791015626,0.136322021484375,1.0059051513671875,-0.2000732421875
1776870295424597800,8.52159765625,0.1058807373046875,0.9855804443359375,-0.2294464111328125
1776870295434635000,8.531635009765624,0.03106689453125,0.9944915771484375,-0.24530029296875
1776870295444672800,8.5416728515625,-0.0804901123046875,1.025421142578125,-0.2582244873046875
1776870295454709800,8.551709716796875,-0.2155303955078125,1.072784423828125,-0.268585205078125
1776870295464746800,8.561746826171875,-0.2990875244140625,1.11834716796875,-0.253631591796875
1776870295474784000,8.571783935546875,-0.292877197265625,1.1583251953125,-0.235443115234375
1776870295484820700,8.58182080078125,-0.215301513671875,1.1826629638671875,-0.230987548828125
1776870295494858800,8.591858642578124,-0.1021270751953125,1.183929443359375,-0.2239990234375
1776870295504896000,8.60189599609375,-0.0070953369140625,1.1364898681640625,-0.19232177734375
1776870295514933000,8.61193310546875,0.040496826171875,1.0628204345703125,-0.136077880859375
1776870295524969700,8.6219697265625,0.062713623046875,1.0054473876953125,-0.071044921875
1776870295535006700,8.6320068359375,0.079193115234375,0.961029052734375,-0.0139923095703125
1776870295545044000,8.6420439453125,0.0921478271484375,0.9218597412109375,0.0308074951171875
1776870295555081700,8.652081787109376,0.1040191650390625,0.8863677978515625,0.06329345703125
1776870295565118700,8.66211865234375,0.1156768798828125,0.86346435546875,0.0801849365234375
1776870295575155700,8.67215576171875,0.1244659423828125,0.8477935791015625,0.080047607421875
1776870295585193000,8.68219287109375,0.13165283203125,0.843780517578125,0.0590057373046875
1776870295595230000,8.69222998046875,0.1161956787109375,0.8602294921875,0.033416748046875
1776870295605267700,8.702267822265625,0.08154296875,0.896575927734375,0.0071258544921875
1776870295615305000,8.712304931640626,0.0438079833984375,0.9438934326171875,-0.02581787109375
1776870295625342000,8.722342041015626,0.0009613037109375,0.98577880859375,-0.0572662353515625
1776870295635379000,8.73237890625,-0.038970947265625,1.012603759765625,-0.0826568603515625
1776870295645415700,8.742415771484374,-0.05975341796875,1.0240936279296875,-0.104522705078125
1776870295655454000,8.752453857421875,-0.0625152587890625,1.022430419921875,-0.1246490478515625
1776870295665491000,8.762490966796875,-0.055023193359375,1.0219268798828125,-0.147735595703125
1776870295675528000,8.77252783203125,-0.0455780029296875,1.0233612060546875,-0.1676788330078125
1776870295685564700,8.782564697265625,-0.0287628173828125,1.0211639404296875,-0.1763153076171875
1776870295695602000,8.792601806640626,-0.0025482177734375,1.007354736328125,-0.1661529541015625
1776870295705640000,8.802639892578124,0.0180511474609375,0.990386962890625,-0.1395111083984375
1776870295715676700,8.8126767578125,0.0243682861328125,0.9819793701171875,-0.105987548828125
1776870295725713700,8.822713623046875,0.0198516845703125,0.9811248779296875,-0.0724639892578125
1776870295735751000,8.8327509765625,0.008392333984375,0.9860076904296875,-0.0433502197265625
1776870295745788000,8.842787841796875,-0.002899169921875,1.0033111572265625,-0.0234832763671875
1776870295755825700,8.85282568359375,-0.0075225830078125,1.043701171875,-0.020263671875
1776870295765863000,8.86286279296875,-0.0013427734375,1.08203125,-0.0313262939453125
1776870295775900000,8.87289990234375,0.0045318603515625,1.0941925048828125,-0.042022705078125
1776870295785937000,8.88293701171875,-0.0011444091796875,1.077484130859375,-0.047607421875
1776870295795974000,8.892973876953125,-0.019012451171875,1.0369873046875,-0.0500640869140625
1776870295806012000,8.903011962890625,-0.0339508056640625,1.0006103515625,-0.05712890625
1776870295816049000,8.913048828125,-0.0399932861328125,0.98046875,-0.068023681640625
1776870295826086000,8.9230859375,-0.0399322509765625,0.9716796875,-0.0775909423828125
1776870295836122600,8.93312255859375,-0.0347900390625,0.9720001220703125,-0.087554931640625
1776870295846160000,8.943159912109374,-0.0311737060546875,0.992584228515625,-0.1013641357421875
1776870295856198000,8.953197998046875,-0.0285186767578125,1.0262603759765625,-0.1172027587890625
1776870295866235000,8.96323486328125,-0.02349853515625,1.0463714599609375,-0.123138427734375
1776870295876271600,8.973271728515625,-0.019927978515625,1.0525970458984375,-0.1197357177734375
1776870295886308900,8.983308837890625,-0.0145721435546875,1.037353515625,-0.109283447265625
1776870295896345900,8.993345947265626,-0.011077880859375,1.008819580078125,-0.095001220703125
1776870295906384000,9.0033837890625,-0.0057525634765625,0.9893798828125,-0.0852203369140625
1776870295916420900,9.0134208984375,-0.0020904541015625,0.9809722900390625,-0.079559326171875
1776870295926457900,9.023457763671875,-0.00067138671875,0.9788055419921875,-0.07977294921875
1776870295936494800,9.033494873046875,-0.001708984375,0.979278564453125,-0.08404541015625
1776870295946531800,9.04353173828125,-0.0009002685546875,0.982513427734375,-0.09283447265625
1776870295956569300,9.0535693359375,-0.0005340576171875,0.998809814453125,-0.1057281494140625
1776870295966606300,9.0636064453125,0.0015716552734375,1.0271453857421875,-0.1234893798828125
1776870295976643600,9.0736435546875,0.00042724609375,1.0553436279296875,-0.14044189453125
1776870295986680600,9.0836806640625,-0.0142364501953125,1.06951904296875,-0.150726318359375
1776870295996717600,9.093717529296875,-0.0301971435546875,1.0688018798828125,-0.16082763671875
1776870296006755600,9.103755615234375,-0.038299560546875,1.05560302734375,-0.17236328125
1776870296016792600,9.11379248046875,-0.0483245849609375,1.0323944091796875,-0.17974853515625
1776870296026829600,9.12382958984375,-0.0710296630859375,0.9990997314453125,-0.176849365234375
1776870296036866300,9.1338662109375,-0.08935546875,0.9784698486328125,-0.1668701171875
1776870296046903600,9.143903564453124,-0.0809326171875,0.9712982177734375,-0.159820556640625
1776870296056941600,9.153941650390625,-0.0475921630859375,0.95770263671875,-0.1552734375
1776870296066978600,9.163978515625,-0.0247650146484375,0.951904296875,-0.153533935546875
1776870296077015300,9.174015380859375,-0.0377349853515625,0.9579620361328125,-0.1483917236328125
1776870296087052500,9.184052490234375,-0.0841217041015625,0.966217041015625,-0.1342926025390625
1776870296097089500,9.194089599609375,-0.12353515625,0.97784423828125,-0.111480712890625
1776870296107127600,9.20412744140625,-0.1185760498046875,0.985870361328125,-0.090301513671875
1776870296117164500,9.21416455078125,-0.098663330078125,0.996337890625,-0.0733489990234375
1776870296127201500,9.224201416015624,-0.0865020751953125,1.007904052734375,-0.0664825439453125
1776870296137238500,9.234238525390625,-0.0675506591796875,1.013580322265625,-0.060699462890625
1776870296147275500,9.244275634765625,-0.0406036376953125,1.00848388671875,-0.0514984130859375
1776870296157313500,9.2543134765625,-0.0130157470703125,0.9931640625,-0.0305023193359375
1776870296167350500,9.2643505859375,-0.0106048583984375,0.9684600830078125,-0.0055694580078125
1776870296177387500,9.274387451171876,-0.0574188232421875,0.94580078125,0.0106964111328125
1776870296187424500,9.284424560546874,-0.17059326171875,0.9400482177734375,0.010955810546875
1776870296197461500,9.29446142578125,-0.3498077392578125,0.9613800048828125,0.0028228759765625
1776870296207499500,9.30449951171875,-0.471954345703125,0.962982177734375,-0.0018310546875
1776870296217536500,9.31453662109375,-0.450775146484375,0.937835693359375,-0.0030670166015625
1776870296227573500,9.324573486328125,-0.3332977294921875,0.896270751953125,-0.0148468017578125
1776870296237610500,9.334610595703126,-0.251556396484375,0.83795166015625,-0.0223388671875
1776870296247647500,9.3446474609375,-0.212738037109375,0.78997802734375,-0.0303192138671875
1776870296257685500,9.354685546875,-0.159454345703125,0.757049560546875,-0.0342559814453125
1776870296267722500,9.364722412109375,-0.1032867431640625,0.7174530029296875,-0.0399322509765625
1776870296277759500,9.374759521484375,-0.01898193359375,0.6779022216796875,-0.0320892333984375
1776870296287796500,9.38479638671875,0.0643157958984375,0.6191253662109375,-0.0219879150390625
1776870296297833500,9.39483349609375,0.0653076171875,0.550567626953125,0.000244140625
1776870296307871500,9.40487158203125,-0.045745849609375,0.4886322021484375,0.0384979248046875
1776870296317908500,9.414908447265624,-0.2480621337890625,0.453521728515625,0.0371246337890625
1776870296327945500,9.424945556640624,-0.41314697265625,0.4661865234375,0.0182952880859375
1776870296337982500,9.434982421875,-0.348480224609375,0.47601318359375,-0.0079803466796875
1776870296348019700,9.445019775390625,-0.2225341796875,0.5162353515625,-0.04010009765625
1776870296358057500,9.455057373046875,-0.18328857421875,0.5931549072265625,-0.0890350341796875
1776870296368094500,9.465094482421875,-0.1061859130859375,0.6881256103515625,-0.118377685546875
1776870296378131500,9.47513134765625,0.004302978515625,0.74688720703125,-0.0730743408203125
1776870296388168400,9.48516845703125,-0.0033721923828125,0.78265380859375,-0.0075225830078125
1776870296398205400,9.495205322265624,-0.1420745849609375,0.8641204833984375,0.0652618408203125
1776870296408243500,9.505243408203125,-0.3098602294921875,0.9342193603515625,0.138397216796875
1776870296418280700,9.51528076171875,-0.4131622314453125,0.94866943359375,0.192626953125
1776870296428317400,9.5253173828125,-0.4710693359375,0.9677581787109375,0.194671630859375
1776870296438354400,9.5353544921875,-0.4195709228515625,0.987274169921875,0.1686859130859375
1776870296448392400,9.545392333984376,-0.3211517333984375,0.9860382080078125,0.154022216796875
1776870296458429700,9.5554296875,-0.2834014892578125,0.9385833740234375,0.146087646484375
1776870296468466400,9.565466552734375,-0.3288421630859375,0.8704071044921875,0.142852783203125
1776870296478503400,9.57550341796875,-0.3636016845703125,0.801544189453125,0.148834228515625
1776870296488540400,9.58554052734375,-0.39385986328125,0.7566986083984375,0.1641693115234375
1776870296498578400,9.595578369140625,-0.4193878173828125,0.7464752197265625,0.1668701171875
1776870296508615400,9.605615478515626,-0.4547882080078125,0.74261474609375,0.1482696533203125
1776870296518652400,9.61565234375,-0.5435333251953125,0.7469482421875,0.1034393310546875
1776870296528689400,9.625689453125,-0.5160369873046875,0.729583740234375,0.052978515625
1776870296538726700,9.6357265625,-0.46270751953125,0.683746337890625,0.0078582763671875
1776870296548764400,9.645764404296875,-0.4926605224609375,0.623077392578125,-0.0092620849609375
1776870296558801400,9.655801513671875,-0.529266357421875,0.5726165771484375,0.0035400390625
1776870296568838700,9.665838623046875,-0.5362091064453125,0.5660400390625,0.060394287109375
1776870296578875600,9.675875732421876,-0.527923583984375,0.6128997802734375,0.1614990234375
1776870296588912400,9.685912353515626,-0.599090576171875,0.678741455078125,0.257415771484375
1776870296598950400,9.695950439453124,-0.7022857666015625,0.7219085693359375,0.3487548828125
1776870296608987600,9.705987548828125,-0.722259521484375,0.720947265625,0.38336181640625
1776870296619024600,9.716024658203125,-0.673919677734375,0.70513916015625,0.3860931396484375
1776870296629061400,9.726061279296875,-0.626739501953125,0.6892852783203125,0.40704345703125
1776870296639098400,9.736098388671875,-0.6513671875,0.657623291015625,0.4455718994140625
1776870296649136600,9.74613671875,-0.6788482666015625,0.6186370849609375,0.4817962646484375
1776870296659173400,9.75617333984375,-0.7086029052734375,0.5859832763671875,0.5072021484375
1776870296669210400,9.76621044921875,-0.78515625,0.4859619140625,0.5238189697265625
1776870296679247400,9.776247314453125,-0.83935546875,0.3305816650390625,0.505706787109375
1776870296689284600,9.78628466796875,-0.7832794189453125,0.2045745849609375,0.4725494384765625
1776870296699322400,9.796322265625,-0.728912353515625,0.1591796875,0.3902435302734375
1776870296709359400,9.806359375,-0.772918701171875,0.132354736328125,0.296051025390625
1776870296719396600,9.816396728515626,-0.8282928466796875,0.1873016357421875,0.2067413330078125
1776870296729433600,9.82643359375,-0.8530426025390625,0.2194976806640625,0.1555328369140625
1776870296739470600,9.836470703125,-1.0178070068359375,0.175201416015625,0.1925201416015625
1776870296749508400,9.84650830078125,-0.91741943359375,0.1296844482421875,0.2997894287109375
1776870296759545600,9.856545654296875,-1.021820068359375,-0.00762939453125,0.4799346923828125
1776870296769582600,9.86658251953125,-1.1263427734375,-0.0580902099609375,0.60479736328125
1776870296779619300,9.876619384765625,-1.069122314453125,0.02728271484375,0.7120208740234375
1776870296789657600,9.88665771484375,-1.1588897705078125,0.1151580810546875,0.853179931640625
1776870296799694600,9.896694580078124,-1.2233734130859375,0.2483062744140625,0.9248504638671875
1776870296809731600,9.906731689453125,-1.1914520263671875,0.3580169677734375,0.90850830078125
1776870296819768300,9.916768310546875,-1.2076568603515625,0.3592529296875,0.8495635986328125
1776870296829805600,9.9268056640625,-1.3577423095703125,0.156585693359375,0.886871337890625
1776870296839843600,9.936843505859375,-1.5184783935546875,-0.1759490966796875,0.9215087890625
1776870296849880600,9.946880615234376,-1.4372711181640625,-0.2696380615234375,0.9821929931640625
1776870296859917300,9.956917236328126,-1.5320892333984375,-0.099822998046875,1.1803436279296875
1776870296869954600,9.96695458984375,-1.65008544921875,0.125885009765625,1.26800537109375
1776870296879991600,9.976991455078124,-1.6293487548828125,0.2939453125,1.1387481689453125
1776870296890029300,9.987029296875,-1.6383514404296875,0.240936279296875,0.8428955078125
1776870296900066600,9.997066650390625,-1.5992279052734375,0.0888824462890625,0.7894134521484375
1776870296910103600,10.007103515625,-1.5179901123046875,0.0514068603515625,0.800323486328125
1776870296920140500,10.017140625,-1.482574462890625,0.115631103515625,0.7817230224609375
1776870296930177500,10.027177490234376,-1.433837890625,0.2014007568359375,0.7999267578125
1776870296940215600,10.037215576171874,-1.4037933349609375,0.301116943359375,0.8075714111328125
1776870296950253000,10.047253173828125,-1.4012603759765625,0.37677001953125,0.8039093017578125
1776870296960290300,10.057290283203125,-1.3166046142578125,0.3866424560546875,0.7914886474609375
1776870296970327000,10.0673271484375,-1.1904754638671875,0.3359375,0.780059814453125
1776870296980364000,10.077364013671875,-1.1317291259765625,0.26617431640625,0.7508392333984375
1776870296990402000,10.087402099609376,-1.07440185546875,0.25567626953125,0.7072601318359375
1776870297000439000,10.09743896484375,-0.964447021484375,0.2625274658203125,0.6752777099609375
1776870297010476000,10.10747607421875,-0.8901824951171875,0.256683349609375,0.6442108154296875
1776870297020513000,10.117512939453125,-0.8719329833984375,0.2658843994140625,0.60418701171875
1776870297030550000,10.127550048828125,-0.83428955078125,0.254669189453125,0.5979461669921875
1776870297040588000,10.137588134765625,-0.82373046875,0.2476806640625,0.5956268310546875
1776870297050625000,10.147625,-0.8212890625,0.248626708984375,0.585968017578125
1776870297060662000,10.157662109375,-0.80694580078125,0.237548828125,0.58917236328125
1776870297070699000,10.167698974609374,-0.8342437744140625,0.2698822021484375,0.5543060302734375
1776870297080737000,10.177737060546875,-0.8553924560546875,0.340240478515625,0.517822265625
1776870297090774000,10.18777392578125,-0.819610595703125,0.3952789306640625,0.4736480712890625
1776870297100811000,10.19781103515625,-0.725006103515625,0.417633056640625,0.4108428955078125
1776870297110848300,10.20784814453125,-0.678924560546875,0.4366607666015625,0.3777008056640625
1776870297120885200,10.21788525390625,-0.6863861083984375,0.444305419921875,0.3548583984375
1776870297130923000,10.227923095703124,-0.692962646484375,0.4349517822265625,0.328704833984375
1776870297140960000,10.2379599609375,-0.6974029541015625,0.427947998046875,0.3183441162109375
1776870297150997200,10.247997314453125,-0.6719970703125,0.433441162109375,0.3063812255859375
1776870297161034000,10.258033935546875,-0.6086578369140625,0.4520111083984375,0.2808990478515625
1776870297171071000,10.268071044921875,-0.5735321044921875,0.46490478515625,0.2666473388671875
1776870297181109200,10.278109130859375,-0.56536865234375,0.4991912841796875,0.2553558349609375
1776870297191146200,10.288146240234376,-0.5740203857421875,0.5581817626953125,0.2647552490234375
1776870297201183000,10.298182861328126,-0.5746307373046875,0.61798095703125,0.2737579345703125
1776870297211220000,10.308219970703124,-0.574005126953125,0.679290771484375,0.278472900390625
1776870297221258200,10.31825830078125,-0.541046142578125,0.733306884765625,0.279449462890625
1776870297231295200,10.328295166015625,-0.5030670166015625,0.78564453125,0.2759552001953125
1776870297241332000,10.33833203125,-0.4837646484375,0.8395843505859375,0.272613525390625
1776870297251369000,10.348368896484375,-0.46337890625,0.884857177734375,0.265625
1776870297261406200,10.35840625,-0.422271728515625,0.931304931640625,0.2578277587890625
1776870297271444000,10.36844384765625,-0.4134674072265625,0.9823150634765625,0.2632904052734375
1776870297281481000,10.37848095703125,-0.4257659912109375,1.014801025390625,0.2713470458984375
1776870297291518000,10.38851806640625,-0.40899658203125,1.0338134765625,0.2653350830078125
1776870297301555200,10.39855517578125,-0.401519775390625,1.044036865234375,0.2487030029296875
1776870297311594000,10.408593994140626,-0.4290618896484375,1.05682373046875,0.2324066162109375
1776870297321632300,10.41863232421875,-0.40924072265625,1.045745849609375,0.2074127197265625
1776870297331669000,10.4286689453125,-0.34698486328125,1.01873779296875,0.1754150390625
1776870297341706000,10.4387060546875,-0.28753662109375,0.9823760986328125,0.1538848876953125
1776870297351743000,10.448742919921875,-0.2529296875,0.95477294921875,0.1174774169921875
1776870297361780200,10.4587802734375,-0.2377471923828125,0.931976318359375,0.0805206298828125
1776870297371818000,10.46881787109375,-0.2461700439453125,0.916473388671875,0.0461578369140625
1776870297381855000,10.47885498046875,-0.2543487548828125,0.904815673828125,0.027069091796875
1776870297391892200,10.488892333984374,-0.2469635009765625,0.8952789306640625,0.0172576904296875
1776870297401929200,10.49892919921875,-0.2550811767578125,0.885894775390625,0.0240325927734375
1776870297411967000,10.508967041015625,-0.2418975830078125,0.8768310546875,0.037506103515625
1776870297422004000,10.51900390625,-0.1841278076171875,0.8615875244140625,0.044647216796875
1776870297432041200,10.529041259765625,-0.1136932373046875,0.85150146484375,0.055694580078125
1776870297442078200,10.539078125,-0.049713134765625,0.8372650146484375,0.0604248046875
1776870297452115000,10.549114990234376,-0.00372314453125,0.8226776123046875,0.066009521484375
1776870297462153200,10.5591533203125,-0.0234375,0.8084716796875,0.0684661865234375
1776870297472190200,10.569190185546875,-0.0831756591796875,0.775360107421875,0.0762939453125
1776870297482227200,10.579227294921875,-0.121002197265625,0.7330169677734375,0.07208251953125
1776870297492264000,10.589263916015625,-0.140838623046875,0.7010345458984375,0.069488525390625
1776870297502301000,10.599301025390625,-0.1406097412109375,0.6719970703125,0.0589447021484375
1776870297512339200,10.609339111328126,-0.1160125732421875,0.6450347900390625,0.0485382080078125
1776870297522376000,10.6193759765625,-0.0843048095703125,0.6230621337890625,0.0390625
1776870297532413000,10.629412841796874,-0.0720062255859375,0.6048431396484375,0.0371856689453125
1776870297542450200,10.6394501953125,-0.087188720703125,0.580230712890625,0.037353515625
1776870297552488200,10.64948828125,-0.1160125732421875,0.547821044921875,0.0247039794921875
1776870297562525000,10.65952490234375,-0.1561737060546875,0.51025390625,0.0108642578125
1776870297572562000,10.66956201171875,-0.18243408203125,0.4826507568359375,0.0072784423828125
1776870297582599200,10.67959912109375,-0.207000732421875,0.4623565673828125,0.00537109375
1776870297592636200,10.68963623046875,-0.2331390380859375,0.4459381103515625,-0.00177001953125
1776870297602674000,10.699673828125,-0.2475738525390625,0.4381256103515625,-0.0009613037109375
1776870297612711200,10.709711181640625,-0.2248077392578125,0.44970703125,-0.0023040771484375
1776870297622748200,10.719748046875,-0.1651458740234375,0.4844970703125,-0.0154571533203125
1776870297632785200,10.72978515625,-0.0881805419921875,0.545166015625,-0.026092529296875
1776870297642822100,10.739822265625,-0.0084228515625,0.6289520263671875,-0.0390625
1776870297652860200,10.749860107421876,0.0665740966796875,0.71441650390625,-0.038787841796875
1776870297662897200,10.759897216796874,0.1385650634765625,0.8210296630859375,-0.0405120849609375
1776870297672934100,10.76993408203125,0.176666259765625,0.9401702880859375,-0.0426788330078125
1776870297682971000,10.779970947265625,0.160980224609375,1.0558319091796875,-0.048828125
1776870297693009200,10.790009033203125,0.0901336669921875,1.14434814453125,-0.053253173828125
1776870297703046100,10.800046142578125,-0.037841796875,1.215118408203125,-0.07391357421875
1776870297713083100,10.810083251953126,-0.19195556640625,1.266571044921875,-0.1009979248046875
1776870297723119900,10.820119873046876,-0.2599945068359375,1.310394287109375,-0.127899169921875
1776870297733157000,10.8301572265625,-0.1927642822265625,1.351104736328125,-0.13818359375
1776870297743195100,10.840195068359375,-0.0669403076171875,1.4123382568359375,-0.1348724365234375
1776870297753232100,10.850232177734375,0.036895751953125,1.4937591552734375,-0.1171112060546875
1776870297763269000,10.86026904296875,0.0408477783203125,1.53961181640625,-0.101348876953125
1776870297773306000,10.87030615234375,-0.0412750244140625,1.5701446533203125,-0.101837158203125
1776870297783344000,10.88034423828125,-0.1530303955078125,1.5680694580078125,-0.1248779296875
1776870297793380900,10.890380859375,-0.1902923583984375,1.48699951171875,-0.1829681396484375
1776870297803418000,10.900418212890624,-0.0888824462890625,1.3350067138671875,-0.2689971923828125
1776870297813455000,10.910455078125,0.039764404296875,1.1865081787109375,-0.313873291015625
1776870297823492000,10.9204921875,0.103515625,1.04913330078125,-0.3226165771484375
1776870297833530000,10.930530029296875,0.1052398681640625,0.90985107421875,-0.319000244140625
1776870297843567000,10.940567138671875,0.0871429443359375,0.7890167236328125,-0.2959136962890625
1776870297853604000,10.95060400390625,0.07537841796875,0.6955108642578125,-0.2698822021484375
1776870297863641000,10.96064111328125,0.0648345947265625,0.6363067626953125,-0.25048828125
1776870297873678000,10.970677978515624,0.0518646240234375,0.615753173828125,-0.22991943359375
1776870297883716000,10.980716064453125,0.0405731201171875,0.6165313720703125,-0.2216644287109375
1776870297893753000,10.990753173828125,0.04559326171875,0.673309326171875,-0.225067138671875
1776870297903790000,11.0007900390625,0.0672149658203125,0.7786407470703125,-0.2270050048828125
1776870297913827000,11.0108271484375,0.0838470458984375,0.9011993408203125,-0.1937103271484375
1776870297923864000,11.020864013671876,0.0766143798828125,0.9854736328125,-0.1207427978515625
1776870297933902000,11.030902099609374,0.017608642578125,1.0219879150390625,-0.030029296875
1776870297943939000,11.04093896484375,-0.04949951171875,1.0330352783203125,0.0509490966796875
1776870297953979100,11.050979248046875,-0.08319091796875,1.04217529296875,0.1050872802734375
1776870297964016400,11.061016357421876,-0.07916259765625,1.045867919921875,0.1326446533203125
1776870297974054400,11.071054443359374,-0.039398193359375,1.037811279296875,0.1396331787109375
1776870297984091400,11.08109130859375,0.0212860107421875,1.0179595947265625,0.12530517578125
1776870297994128400,11.09112841796875,0.0778656005859375,0.996856689453125,0.1072845458984375
1776870298004165400,11.101165283203125,0.116119384765625,0.9684906005859375,0.09161376953125
1776870298014202400,11.111202392578125,0.1321563720703125,0.9460906982421875,0.0749359130859375
1776870298024240000,11.121240234375,0.138763427734375,0.942535400390625,0.05743408203125
1776870298034277400,11.13127734375,0.1313018798828125,0.957122802734375,0.043121337890625
1776870298044314400,11.141314453125,0.0984649658203125,0.9922943115234375,0.0258941650390625
1776870298054351400,11.151351318359374,0.0338897705078125,1.0476531982421875,-0.008880615234375
1776870298064388400,11.161388427734375,-0.063995361328125,1.1019744873046875,-0.0686492919921875
1776870298074426400,11.17142626953125,-0.1402587890625,1.15869140625,-0.1288299560546875
1776870298084463400,11.18146337890625,-0.2186279296875,1.209686279296875,-0.18426513671875
1776870298094500400,11.191500244140625,-0.2853546142578125,1.229217529296875,-0.2397308349609375
1776870298104537600,11.20153759765625,-0.2593994140625,1.2017059326171875,-0.2852325439453125
1776870298114574300,11.21157421875,-0.153594970703125,1.117218017578125,-0.314300537109375
1776870298124612400,11.2216123046875,-0.0599517822265625,1.003875732421875,-0.308929443359375
1776870298134649300,11.2316494140625,0.016021728515625,0.9294586181640625,-0.2602996826171875
1776870298144686300,11.241686279296875,0.041229248046875,0.880126953125,-0.2116546630859375
1776870298154723300,11.251723388671875,0.0514678955078125,0.864776611328125,-0.1588897705078125
1776870298164761300,11.26176123046875,0.070343017578125,0.89910888671875,-0.09625244140625
1776870298174798600,11.271798583984374,0.084991455078125,0.94769287109375,-0.0425872802734375
1776870298184835300,11.28183544921875,0.0857391357421875,0.990142822265625,0.00384521484375
1776870298194872300,11.291872314453125,0.082489013671875,1.01385498046875,0.040283203125
1776870298204909300,11.301909423828125,0.081390380859375,1.0176544189453125,0.06292724609375
1776870298214947600,11.311947509765625,0.07415771484375,0.9922027587890625,0.076812744140625
1776870298224984300,11.321984375,0.1302032470703125,0.954986572265625,0.0734710693359375
1776870298235021300,11.332021240234376,0.317718505859375,0.916900634765625,0.0092926025390625
1776870298245058300,11.342058349609376,-0.0453948974609375,0.85845947265625,0.0897064208984375
1776870298255095600,11.352095458984374,-0.034027099609375,0.8866119384765625,0.057373046875
1776870298265133300,11.36213330078125,-0.00103759765625,0.9403228759765625,0.0093841552734375
1776870298275170300,11.37217041015625,-0.0363922119140625,0.9680633544921875,-0.0334930419921875
1776870298285207300,11.382207275390625,-0.015289306640625,0.9980926513671875,-0.08465576171875
1776870298295244500,11.39224462890625,-0.003173828125,1.0211334228515625,-0.1257171630859375
1776870298305281300,11.40228125,-0.00018310546875,1.0322265625,-0.1632843017578125
1776870298315319300,11.4123193359375,-0.0076141357421875,1.046417236328125,-0.19989013671875
1776870298325356500,11.4223564453125,-0.022125244140625,1.068206787109375,-0.2326202392578125
1776870298335393500,11.4323935546875,-0.031036376953125,1.0819549560546875,-0.2549285888671875
1776870298345430300,11.44243017578125,-0.0169219970703125,1.0741119384765625,-0.26849365234375
1776870298355468300,11.45246826171875,-0.007568359375,1.039947509765625,-0.262603759765625
1776870298365505500,11.462505615234376,-0.019134521484375,1.00634765625,-0.2378082275390625
1776870298375542500,11.47254248046875,-0.0352783203125,1.0023040771484375,-0.2023773193359375
1776870298385579300,11.482579345703124,-0.0411834716796875,1.019012451171875,-0.161865234375
1776870298395616300,11.4926162109375,-0.0349578857421875,1.0331878662109375,-0.1189422607421875
1776870298405654500,11.502654541015625,-0.01776123046875,1.0317230224609375,-0.07965087890625
1776870298415691300,11.512691162109375,0.0039215087890625,1.019775390625,-0.048736572265625
1776870298425728300,11.522728271484375,0.0228424072265625,1.009185791015625,-0.026763916015625
1776870298435765200,11.53276513671875,0.0405120849609375,1.003509521484375,-0.0165557861328125
1776870298445802500,11.542802490234376,0.0548095703125,1.0030364990234375,-0.0183563232421875
1776870298455840300,11.55284033203125,0.0595855712890625,0.996063232421875,-0.025421142578125
1776870298465877200,11.562877197265625,0.0482025146484375,0.9747314453125,-0.02978515625
1776870298475914500,11.57291455078125,0.03192138671875,0.953582763671875,-0.032867431640625
1776870298485951500,11.582951416015625,0.0207977294921875,0.9446563720703125,-0.035797119140625
1776870298495988500,11.592988525390625,0.010284423828125,0.945220947265625,-0.0407257080078125
1776870298506026200,11.603026123046876,0.005523681640625,0.955841064453125,-0.04888916015625
1776870298516063500,11.6130634765625,0.0042724609375,0.9730987548828125,-0.05548095703125
1776870298526100500,11.6231005859375,0.0096435546875,0.988250732421875,-0.060546875
1776870298536137200,11.63313720703125,0.0162506103515625,1.000946044921875,-0.0648956298828125
1776870298546174200,11.64317431640625,0.02593994140625,1.0102996826171875,-0.0715789794921875
1776870298556212500,11.65321240234375,0.0341033935546875,1.015411376953125,-0.079803466796875
1776870298566249500,11.66324951171875,0.0348663330078125,1.011566162109375,-0.088134765625
1776870298576286200,11.6732861328125,0.028350830078125,1.0010528564453125,-0.092559814453125
1776870298586323200,11.6833232421875,0.0159759521484375,0.986236572265625,-0.095733642578125
1776870298596360400,11.6933603515625,0.0041046142578125,0.9759521484375,-0.09844970703125
1776870298606398500,11.7033984375,-0.0029296875,0.97674560546875,-0.1018524169921875
1776870298616435200,11.713435302734375,-0.009368896484375,0.9883270263671875,-0.10113525390625
1776870298626472400,11.723472412109375,-0.0147247314453125,1.0111541748046875,-0.096771240234375
1776870298636509400,11.733509521484375,-0.0200042724609375,1.045318603515625,-0.091583251953125
1776870298646546400,11.74354638671875,-0.024017333984375,1.07977294921875,-0.0902099609375
1776870298656584200,11.753584228515624,-0.0247802734375,1.105926513671875,-0.0905914306640625
1776870298666621400,11.763621337890624,-0.026397705078125,1.1179351806640625,-0.091033935546875
1776870298676658400,11.773658447265625,-0.0250701904296875,1.110504150390625,-0.0928192138671875
1776870298686695400,11.7836953125,-0.02569580078125,1.0815582275390625,-0.09405517578125
1776870298696732200,11.793732177734375,-0.0301361083984375,1.038299560546875,-0.0955352783203125
1776870298706770400,11.8037705078125,-0.0227508544921875,1.0005950927734375,-0.100830078125
1776870298716807400,11.813807373046876,-0.0085906982421875,0.9832305908203125,-0.1140899658203125
1776870298726844400,11.823844482421874,0.0026702880859375,0.99835205078125,-0.1331787109375
1776870298736881200,11.833881103515624,0.0083160400390625,1.03369140625,-0.1544647216796875
1776870298746919400,11.84391943359375,-0.0037689208984375,1.0630950927734375,-0.169158935546875
1776870298756956400,11.853956298828125,-0.0343780517578125,1.0724639892578125,-0.17578125
1776870298766993400,11.863993408203125,-0.07177734375,1.061920166015625,-0.1707763671875
1776870298777030400,11.874030517578126,-0.1071319580078125,1.0362548828125,-0.1597900390625
1776870298787067400,11.8840673828125,-0.1253814697265625,1.0140838623046875,-0.1484832763671875
1776870298797105400,11.89410546875,-0.1260223388671875,0.9983978271484375,-0.1409454345703125
1776870298807142100,11.90414208984375,-0.1232147216796875,0.9849090576171875,-0.1307220458984375
1776870298817179400,11.914179443359375,-0.1165313720703125,0.971649169921875,-0.122467041015625
1776870298827216400,11.92421630859375,-0.0728607177734375,0.9544525146484375,-0.112396240234375
1776870298837253400,11.93425341796875,-0.0522613525390625,0.9302215576171875,-0.0924224853515625
1776870298847291400,11.94429150390625,-0.0735931396484375,0.8975982666015625,-0.0604248046875
1776870298857328400,11.954328369140624,-0.129119873046875,0.8527374267578125,-0.0185546875
1776870298867365400,11.964365478515624,-0.1874542236328125,0.8021697998046875,0.010345458984375
1776870298877402400,11.97440234375,-0.1944580078125,0.754058837890625,0.0304412841796875
1776870298887439600,11.984439697265625,-0.19866943359375,0.692352294921875,0.0446624755859375
1776870298897477400,11.994477294921875,-0.2300872802734375,0.6451416015625,0.0518646240234375
1776870298907512300,12.00451220703125,-0.2560577392578125,0.619384765625,0.0637054443359375
1776870298917549300,12.01454931640625,-0.2059173583984375,0.6246490478515625,0.0734405517578125
1776870298927586300,12.02458642578125,-0.134307861328125,0.6520538330078125,0.0839385986328125
1776870298937623300,12.034623291015626,-0.109893798828125,0.6735687255859375,0.1069488525390625
1776870298947661300,12.044661376953124,-0.1193695068359375,0.6884002685546875,0.13470458984375
1776870298957694000,12.05469384765625,-0.0929412841796875,0.6957855224609375,0.161834716796875
1776870298967731000,12.06473095703125,-0.0931396484375,0.7085723876953125,0.1880340576171875
1776870298977768200,12.074768310546874,-0.1224822998046875,0.719512939453125,0.2040863037109375
1776870298987805200,12.08480517578125,-0.188995361328125,0.7391815185546875,0.2025299072265625
1776870298997843000,12.094843017578125,-0.248565673828125,0.7714080810546875,0.1480560302734375
1776870299007880000,12.1048798828125,-0.2994384765625,0.803955078125,0.0645599365234375
1776870299017917200,12.114917236328125,-0.325286865234375,0.8289947509765625,-0.0081329345703125
1776870299027954200,12.1249541015625,-0.3014678955078125,0.843048095703125,-0.08746337890625
1776870299037991200,12.1349912109375,-0.16632080078125,0.846221923828125,-0.1666717529296875
1776870299048029200,12.145029296875,-0.0800933837890625,0.8416595458984375,-0.2218780517578125
1776870299058066200,12.155066162109375,-0.112548828125,0.828521728515625,-0.2481536865234375
1776870299068103200,12.165103271484375,-0.1718292236328125,0.7950286865234375,-0.223114013671875
1776870299078140000,12.175139892578125,-0.208587646484375,0.7397308349609375,-0.1610565185546875
1776870299088177000,12.185177001953125,-0.3171234130859375,0.7057342529296875,-0.1065826416015625
1776870299098215200,12.195215087890626,-0.3674163818359375,0.7025604248046875,-0.0482940673828125
1776870299108252200,12.205252197265626,-0.2588958740234375,0.710113525390625,0.020294189453125
1776870299118289000,12.215288818359374,-0.2061004638671875,0.7258453369140625,0.0868682861328125
1776870299128326100,12.225326171875,-0.2469635009765625,0.7671966552734375,0.1433563232421875
1776870299138364200,12.2353642578125,-0.3131561279296875,0.82147216796875,0.201080322265625
1776870299148401000,12.24540087890625,-0.368377685546875,0.8622894287109375,0.2476043701171875
1776870299158438000,12.25543798828125,-0.4258880615234375,0.914520263671875,0.2844696044921875
1776870299168475100,12.26547509765625,-0.4513702392578125,0.940643310546875,0.31292724609375
1776870299178512100,12.27551220703125,-0.45550537109375,0.925048828125,0.3412017822265625
1776870299188549000,12.285549072265624,-0.482421875,0.8974151611328125,0.3640899658203125
1776870299198587100,12.295587158203125,-0.4832763671875,0.8564605712890625,0.3818206787109375
1776870299208624000,12.3056240234375,-0.437835693359375,0.7977752685546875,0.375
1776870299218661000,12.3156611328125,-0.41607666015625,0.7548675537109375,0.350921630859375
1776870299228698000,12.325697998046875,-0.4448699951171875,0.7346954345703125,0.321990966796875
1776870299238735000,12.335735107421876,-0.497528076171875,0.7178955078125,0.2876129150390625
1776870299248773000,12.345773193359374,-0.559906005859375,0.697235107421875,0.2479095458984375
1776870299258810000,12.35581005859375,-0.6189117431640625,0.6726837158203125,0.2175750732421875
1776870299268847000,12.36584716796875,-0.63055419921875,0.6400604248046875,0.1885528564453125
1776870299278884000,12.375884033203125,-0.6188201904296875,0.6222991943359375,0.169097900390625
1776870299288921000,12.385921142578125,-0.63165283203125,0.628509521484375,0.1742706298828125
1776870299298959000,12.395958984375,-0.6015625,0.63702392578125,0.2005462646484375
1776870299308995800,12.405995849609376,-0.5559539794921875,0.66827392578125,0.2765045166015625
1776870299319033000,12.416033203125,-0.5742950439453125,0.6985015869140625,0.3945465087890625
1776870299329070000,12.426070068359374,-0.617279052734375,0.70660400390625,0.4998626708984375
1776870299339108000,12.436108154296875,-0.6579132080078125,0.692413330078125,0.5798492431640625
1776870299349145000,12.44614501953125,-0.66033935546875,0.638458251953125,0.621185302734375
1776870299359182000,12.45618212890625,-0.66412353515625,0.552276611328125,0.630279541015625
1776870299369219000,12.466218994140625,-0.71875,0.4618377685546875,0.583740234375
1776870299379256000,12.476256103515626,-0.7716827392578125,0.368927001953125,0.497406005859375
1776870299389293300,12.486293212890626,-0.729949951171875,0.269287109375,0.3805999755859375
1776870299399331000,12.4963310546875,-0.640777587890625,0.2276763916015625,0.26385498046875
1776870299409368000,12.5063681640625,-0.7421875,0.2174530029296875,0.2343292236328125
1776870299419405000,12.516405029296875,-0.8216705322265625,0.2015380859375,0.3146820068359375
1776870299429442000,12.526442138671875,-0.836273193359375,0.1431427001953125,0.463836669921875
1776870299439479000,12.53647900390625,-0.9252777099609375,0.080841064453125,0.5769805908203125
1776870299449517000,12.54651708984375,-0.9587554931640625,0.04217529296875,0.624298095703125
1776870299459554300,12.55655419921875,-0.961700439453125,0.069366455078125,0.5986175537109375
1776870299469591000,12.566591064453124,-1.06585693359375,0.1015777587890625,0.6226959228515625
1776870299479628000,12.5766279296875,-1.186492919921875,0.0877227783203125,0.659820556640625
1776870299489666000,12.586666015625,-1.109527587890625,0.0817413330078125,0.7094268798828125
1776870299499703300,12.596703369140625,-1.1102294921875,0.078033447265625,0.80902099609375
1776870299509740000,12.606739990234376,-1.1666412353515625,0.0890045166015625,0.8612060546875
1776870299519777000,12.616777099609376,-1.2142486572265625,0.1330718994140625,0.878021240234375
1776870299529814000,12.62681396484375,-1.2990570068359375,0.185638427734375,0.849639892578125
1776870299539852000,12.63685205078125,-1.401641845703125,0.190185546875,0.8476104736328125
1776870299549889000,12.646888916015625,-1.5618896484375,0.1244354248046875,0.914306640625
1776870299559926000,12.656926025390625,-1.625640869140625,0.108306884765625,0.9751434326171875
1776870299569963000,12.666962890625,-1.5907135009765625,0.1777801513671875,1.065765380859375
1776870299580000300,12.677000244140626,-1.630279541015625,0.26165771484375,1.0603790283203125
1776870299590038000,12.6870380859375,-1.6384429931640625,0.340972900390625,0.982147216796875
1776870299600075000,12.697074951171874,-1.6404266357421875,0.343902587890625,0.8786773681640625
1776870299610112300,12.7071123046875,-1.5619964599609375,0.2708587646484375,0.7751617431640625
1776870299620149200,12.717149169921875,-1.4829864501953125,0.205169677734375,0.74639892578125
1776870299630186000,12.72718603515625,-1.441436767578125,0.182464599609375,0.784759521484375
1776870299640224000,12.73722412109375,-1.40216064453125,0.2245941162109375,0.805450439453125
1776870299650261200,12.74726123046875,-1.3279266357421875,0.2941741943359375,0.80218505859375
1776870299660298000,12.757298095703124,-1.28619384765625,0.3349151611328125,0.784698486328125
1776870299670335000,12.7673349609375,-1.2519378662109375,0.347320556640625,0.7286376953125
1776870299680372000,12.7773720703125,-1.1438751220703125,0.334075927734375,0.64154052734375
1776870299690410200,12.78741015625,-1.027587890625,0.2850341796875,0.574188232421875
1776870299700447000,12.797447021484375,-1.0035858154296875,0.2294769287109375,0.545166015625
1776870299710484000,12.80748388671875,-0.9458160400390625,0.199859619140625,0.56329345703125
1776870299720521000,12.81752099609375,-0.896087646484375,0.2118377685546875,0.59356689453125
1776870299730558200,12.82755810546875,-0.8651123046875,0.2699737548828125,0.611328125
1776870299740596000,12.837595947265624,-0.859344482421875,0.314117431640625,0.58404541015625
1776870299750633000,12.847633056640625,-0.8311767578125,0.3277587890625,0.5363311767578125
1776870299760670200,12.857670166015625,-0.7343902587890625,0.3216705322265625,0.481170654296875
1776870299770707200,12.867707275390625,-0.627685546875,0.318817138671875,0.4304962158203125
1776870299780744200,12.877744140625,-0.62548828125,0.3389434814453125,0.413604736328125
1776870299790782000,12.887781982421876,-0.6584625244140625,0.3763427734375,0.406829833984375
1776870299800819200,12.897819091796874,-0.6665191650390625,0.40362548828125,0.409088134765625
1776870299810856200,12.907856201171874,-0.66070556640625,0.41815185546875,0.410186767578125
1776870299820893000,12.917892822265625,-0.607666015625,0.420440673828125,0.379302978515625
1776870299830930000,12.927929931640625,-0.58917236328125,0.433013916015625,0.3502960205078125
1776870299840968200,12.93796826171875,-0.604705810546875,0.4764862060546875,0.3282470703125
1776870299851005200,12.948005126953126,-0.5653839111328125,0.5209503173828125,0.2973480224609375
1776870299861042000,12.9580419921875,-0.56329345703125,0.55877685546875,0.283660888671875
1776870299871079000,12.968078857421874,-0.59356689453125,0.5997772216796875,0.2650299072265625
1776870299881116200,12.9781162109375,-0.5906829833984375,0.64385986328125,0.24365234375
1776870299891154200,12.988154296875,-0.56195068359375,0.688140869140625,0.2334136962890625
1776870299901191000,12.99819091796875,-0.5615692138671875,0.7265167236328125,0.2298431396484375
1776870299911228200,13.008228271484375,-0.5884857177734375,0.77777099609375,0.238800048828125
1776870299921265200,13.01826513671875,-0.562286376953125,0.8232421875,0.2447967529296875
1776870299931302100,13.02830224609375,-0.48663330078125,0.8505706787109375,0.233184814453125
1776870299941340000,13.03833984375,-0.4707794189453125,0.890472412109375,0.2297821044921875
1776870299951378000,13.0483779296875,-0.5325469970703125,0.946258544921875,0.21685791015625
1776870299961415000,13.058414794921875,-0.5754241943359375,0.97735595703125,0.1994171142578125
1776870299971451600,13.06845166015625,-0.54443359375,0.966461181640625,0.1927642822265625
1776870299981490000,13.078489990234376,-0.4875946044921875,0.9407501220703125,0.18328857421875
1776870299991527000,13.08852685546875,-0.4273681640625,0.925323486328125,0.1785736083984375
1776870300001564000,13.09856396484375,-0.3776702880859375,0.9280548095703125,0.1688232421875
1776870300011601000,13.108600830078124,-0.3638458251953125,0.9381256103515625,0.160797119140625
1776870300021638000,13.118637939453125,-0.3867340087890625,0.950531005859375,0.1412200927734375
