time,seconds_elapsed,z,y,x
1776870286993377300,0.090377197265625,-9.218234610006213,-3.293970233476162,0.5867700704721733
1776870287003414300,0.100414306640625,-9.237405758944153,-3.2342700902730224,0.6166163061488419
1776870287013452300,0.110452392578125,-9.253046980190277,-3.1821728232890365,0.652132952144742
1776870287023489300,0.1204892578125,-9.264684226492047,-3.1396935717388987,0.6916196708153933
1776870287033526300,0.1305263671875,-9.271275879842042,-3.1087235561966895,0.7413941939402371
1776870287043563000,0.14056298828125,-9.271177095642685,-3.0914196624353525,0.8116556978419422
1776870287053600300,0.150600341796875,-9.261884951162338,-3.092503950540721,0.9079055564157664
1776870287063637200,0.16063720703125,-9.243094325974583,-3.111466132903099,1.0268260234158486
1776870287073674200,0.17067431640625,-9.215494955909252,-3.141920015616715,1.17190895954594
1776870287083711200,0.180711181640625,-9.179339354422687,-3.1792133889615535,1.3426530642203987
1776870287093749200,0.190749267578125,-9.13256357472241,-3.2234672489687797,1.5414029278039931
1776870287103786200,0.2007861328125,-9.071661654514074,-3.2778125871405,1.7695432826533912
1776870287113823200,0.2108232421875,-8.997471213665603,-3.3411630695447325,2.013088273514062
1776870287123860200,0.220860107421875,-8.913937774932384,-3.4095474544629454,2.255456329549849
1776870287133897200,0.230897216796875,-8.83084214309454,-3.471130927194655,2.477470310473442
1776870287143934200,0.240934326171875,-8.757084248444437,-3.5118747332543134,2.674059050500393
1776870287153971200,0.25097119140625,-8.690823431551456,-3.5278535158917306,2.8625556694865226
1776870287164009200,0.26100927734375,-8.632297008302807,-3.5196328000351786,3.0440128913551567
1776870287174046200,0.271046142578125,-8.572291744673251,-3.489508003145456,3.2418402332663536
1776870287184083200,0.281083251953125,-8.487686292794347,-3.4475714801698922,3.4991172507509587
1776870287194120200,0.2911201171875,-8.37997293705046,-3.392524131208658,3.7996336905032395
1776870287204157200,0.3011572265625,-8.266346557870508,-3.310859701217711,4.108054327508807
1776870287214194200,0.311194091796875,-8.149621043631434,-3.179533122435212,4.432227244919538
1776870287224231200,0.321231201171875,-8.025932704642415,-3.0114842481940984,4.762956744366884
1776870287234269200,0.331269287109375,-7.8926319031775,-2.821344245915115,5.090851312649249
1776870287244306200,0.34130615234375,-7.761670942836999,-2.616436005832255,5.392691402220725
1776870287254343200,0.35134326171875,-7.6337740462422365,-2.4093005912192162,5.664904999813437
1776870287264380200,0.361380126953125,-7.510459801262616,-2.2160849808871745,5.903588083726167
1776870287274417200,0.371417236328125,-7.385630475544929,-2.050758517347276,6.116962538859248
1776870287284454100,0.3814541015625,-7.239683542996644,-1.91438678400442,6.3318631806463
1776870287294491400,0.391491455078125,-7.056133732762932,-1.8062931967712939,6.56648033029437
1776870287304529200,0.401529052734375,-6.8549307769387955,-1.7493286160118877,6.791182235127687
1776870287314566100,0.411566162109375,-6.6542784407347435,-1.7339233954787254,6.991743385916948
1776870287324603400,0.421603271484375,-6.385393110781908,-1.7026438755959272,7.2455603260755534
1776870287334640400,0.431640380859375,-6.067822952637076,-1.6583897233277558,7.523406961119175
1776870287344677000,0.441677001953125,-5.771797102302313,-1.6183521658413111,7.761293341696262
1776870287354714000,0.451714111328125,-5.610196673548221,-1.5783096399188041,7.887015816861391
1776870287364751000,0.461751220703125,-5.5101352938622234,-1.5186210410229861,7.968850050461292
1776870287374788400,0.471788330078125,-5.424525633376836,-1.4445016195841134,8.041039672881364
1776870287384826000,0.481826171875,-5.3499435628622765,-1.3821825260542333,8.101731749731302
1776870287394863000,0.491863037109375,-5.319509846153855,-1.333716162918508,8.129846083581446
1776870287404900400,0.501900390625,-5.357648730412126,-1.2939961469486354,8.111199250778556
1776870287414937300,0.511937255859375,-5.400073329165577,-1.255268356886506,8.089122443526982
1776870287424974000,0.52197412109375,-5.426866643545031,-1.2252259045179932,8.075785992091893
1776870287435011000,0.532010986328125,-5.443000032222271,-1.2096505881149322,8.067271846246719
1776870287445048000,0.542048095703125,-5.434098348364234,-1.2048612349465488,8.073986833715438
1776870287455086300,0.55208642578125,-5.404235709542036,-1.2073328126918523,8.093636706081032
1776870287465123000,0.562123046875,-5.3593210475385185,-1.212786986444518,8.122635421550273
1776870287475160000,0.57216015625,-5.30851615845263,-1.218314079302922,8.155106197044253
1776870287485197300,0.582197265625,-5.262078816926479,-1.2173334707677363,8.185292660993337
1776870287495234300,0.592234375,-5.221539301267266,-1.2099483289524913,8.212304586559533
1776870287505271300,0.602271240234375,-5.195705771830678,-1.2057059421423821,8.229294884327054
1776870287515308000,0.61230810546875,-5.207085828500986,-1.2049119422204793,8.222216324242948
1776870287525346300,0.62234619140625,-5.267713023421168,-1.20294992143251,8.18379453139007
1776870287535383300,0.63238330078125,-5.362235473680496,-1.1969894055929033,8.123055692788958
1776870287545420300,0.642420166015625,-5.4628147397607565,-1.1699762379176915,8.059727422216534
1776870287555457000,0.65245703125,-5.546399616420269,-1.1088738997664302,8.011132610395551
1776870287565494300,0.662494384765625,-5.595023654335737,-1.0100149546727537,7.990366301220655
1776870287575531300,0.67253125,-5.595921479958296,-0.8749252970296889,8.005656809332967
1776870287585569000,0.682569091796875,-5.542382781994342,-0.7135972554761916,8.058731396916508
1776870287595606000,0.69260595703125,-5.434193625432252,-0.5424945100897923,8.145282722166181
1776870287605643300,0.702643310546875,-5.274101263153553,-0.35938926528580484,8.259847258979082
1776870287615680300,0.71268017578125,-5.0996886990994215,-0.16679167725425212,8.374708148390054
1776870287625717200,0.72271728515625,-4.936863112464547,0.04590272319279611,8.473231650984287
1776870287635754000,0.73275390625,-4.793419979430735,0.299119523767475,8.550089849737287
1776870287645791200,0.742791259765625,-4.676704402063787,0.6047561378113925,8.598435070711373
1776870287655829200,0.752829345703125,-4.58495901530236,0.9637008011348545,8.615092191001773
1776870287665866200,0.7628662109375,-4.517550197418034,1.3732542464502155,8.595133106556535
1776870287675903200,0.7729033203125,-4.467357302750647,1.8189653390787541,8.53841051785946
1776870287685940200,0.782940185546875,-4.435227595779299,2.2887454356893895,8.441610185796021
1776870287695977200,0.792977294921875,-4.421740045435726,2.7763310919731854,8.301240176597236
1776870287706014200,0.80301416015625,-4.42144573866427,3.266902778330445,8.120871919009089
1776870287716051200,0.81305126953125,-4.42363506540209,3.744298464511335,7.910883014661073
1776870287726089200,0.823089111328125,-4.429664116433263,4.201613777954877,7.674300702419877
1776870287736126200,0.833126220703125,-4.428959475295246,4.643358012779057,7.415790051487088
1776870287746163200,0.8431630859375,-4.398968241657316,5.08148844102025,7.141282789999246
1776870287756200200,0.8532001953125,-4.316729226648807,5.527376351520418,6.854513428309559
1776870287766237200,0.8632373046875,-4.160864418937265,5.985354512786865,6.559964080268144
1776870287776274200,0.873274169921875,-3.92401848732382,6.442230265769362,6.26658845218122
1776870287786312200,0.883312255859375,-3.6182539177849886,6.874277866965532,5.985225917971134
1776870287796349200,0.89334912109375,-3.267087487247586,7.262827687218785,5.722573929449916
1776870287806386200,0.90338623046875,-2.8883415603891014,7.60066321927905,5.482496760830283
1776870287816423200,0.913423095703125,-2.4903324223950505,7.886714203566313,5.269568295899033
1776870287826460200,0.923460205078125,-2.0790672047257424,8.120612391290068,5.089551335966587
1776870287836497400,0.933497314453125,-1.6675317918129264,8.307885021439194,4.936471482798457
1776870287846534100,0.9435341796875,-1.268999214466661,8.456334292197226,4.801086860796809
1776870287856572200,0.953572265625,-0.8878161235891282,8.572359549212456,4.679404308672249
1776870287866609200,0.963609130859375,-0.517218285742402,8.659345758748055,4.573686802920699
1776870287876646400,0.973646484375,-0.14341218077312223,8.713186654528975,4.497800956331194
1776870287886683100,0.98368310546875,0.24266623526476322,8.728442091327905,4.463830005407333
1776870287896720100,0.99372021484375,0.6369389632094651,8.701013986176251,4.478508226840198
1776870287906757000,1.003757080078125,1.0275579178869723,8.631183494102954,4.540612508575618
1776870287916794400,1.01379443359375,1.4039565509669483,8.53070418126583,4.62886128539294
1776870287926832000,1.02383203125,1.758712822689861,8.417450727051497,4.714217847900092
1776870287936870100,1.0338701171875,2.0855958758421242,8.30298672800362,4.7834164718106384
1776870287946907400,1.043907470703125,2.383762683728337,8.190347021773457,4.838004971088469
1776870287956944100,1.053944091796875,2.644293150050938,8.083971636635065,4.881341131728887
1776870287966982100,1.063982177734375,2.8561978248924014,7.989092043501138,4.91802163387239
1776870287977019400,1.074019287109375,3.0199381882846352,7.90835145035684,4.950589440000057
1776870287987056000,1.08405615234375,3.1461689052328468,7.84322635949552,4.975522221204638
1776870287997093000,1.094093017578125,3.2435113813489673,7.793665917512774,4.990871181505918
1776870288007130000,1.104130126953125,3.313065686829388,7.75706257225871,5.002196293118596
1776870288017167000,1.1141669921875,3.3519013211801645,7.729467878368497,5.019007727187872
1776870288027204400,1.124204345703125,3.3582904376953837,7.706863247850537,5.049408710670471
1776870288037242000,1.1342421875,3.3317487599894404,7.686833436256647,5.097295081961154
1776870288047279000,1.144279052734375,3.2760818178251383,7.667758148908614,5.161700626376271
1776870288057316400,1.15431640625,3.1977851107016204,7.651780243054032,5.2340083222180604
1776870288067353300,1.164353271484375,3.102385293085873,7.641742833164334,5.305597056135535
1776870288077390000,1.17439013671875,2.989892009589076,7.637917721918225,5.375233486941457
1776870288087427000,1.184427001953125,2.860008907613158,7.634297777855396,5.450526336073875
1776870288097465300,1.19446533203125,2.7110838360369205,7.620435841241479,5.545212452462315
1776870288107502300,1.20450244140625,2.5542346934631466,7.585974184191227,5.665621039128303
1776870288117539000,1.2145390625,2.4083767543725667,7.524342196142673,5.809854738017917
1776870288127576000,1.224576171875,2.265303915955871,7.4406871768563985,5.972851589566469
1776870288137613300,1.23461328125,2.1248012202881275,7.340769589555263,6.145626323285699
1776870288147650300,1.244650390625,1.9900940591566263,7.228228083002567,6.321600145307183
1776870288157688000,1.25468798828125,1.8578662937507033,7.106887768444419,6.4969900299608705
1776870288167725000,1.26472509765625,1.7272471325851977,6.985885892060399,6.662161302939057
1776870288177762300,1.27476220703125,1.6074061166740954,6.873402837696671,6.807566383695602
1776870288187799300,1.28479931640625,1.5062326840929685,6.771890090158581,6.931319604614377
1776870288197836300,1.294836181640625,1.425734375271946,6.6859969365566965,7.031013320031762
1776870288207873000,1.304873046875,1.3565038949184118,6.616528848055005,7.109981642806529
1776870288217910300,1.31491015625,1.2959582408018409,6.557187601292133,7.175943769013881
1776870288227948300,1.3249482421875,1.2522566078498958,6.502262417405843,7.233450786086917
1776870288237985000,1.334985107421875,1.2286217575013636,6.4496390807211395,7.284438046002387
1776870288248022300,1.345022216796875,1.2139516463097184,6.400249903652072,7.330313661992549
1776870288258059300,1.355059326171875,1.2084795715741812,6.350081558904051,7.374715698298812
1776870288268096300,1.36509619140625,1.2110875621154904,6.297172391015291,7.419518716621399
1776870288278133200,1.37513330078125,1.2171986654069273,6.244832547447085,7.462632466682791
1776870288288171300,1.385171142578125,1.227478140424192,6.195564366409182,7.50191116862595
1776870288298208300,1.395208251953125,1.2372224125862121,6.146962540325522,7.5401938452690835
1776870288308245200,1.405245361328125,1.2415554733544587,6.097575701344013,7.5794778079092495
1776870288318282200,1.4152822265625,1.2372758963391184,6.04938888580203,7.618688705313205
1776870288328319200,1.4253193359375,1.2235704654611645,6.003152619805932,7.657377624669671
1776870288338356200,1.435356201171875,1.199250628523156,5.959480651339888,7.695244121727347
1776870288348394200,1.445394287109375,1.166000246958807,5.917648173260688,7.732546555161476
1776870288358431000,1.455430908203125,1.1261189760126173,5.878631337124109,7.768135170415043
1776870288368468200,1.46546826171875,1.0886440355557947,5.847426051521301,7.796976649495959
1776870288378505200,1.475505126953125,1.0692938037239015,5.829652494421601,7.812949294653534
1776870288388542200,1.485542236328125,1.0787666385333985,5.829648402768373,7.811646979883313
1776870288398579200,1.4955791015625,1.1119256885524837,5.843672836467624,7.7965037712872025
1776870288408617200,1.5056171875,1.1604392518308013,5.862005781015753,7.775644523131847
1776870288418654200,1.515654296875,1.2116691613957284,5.875695868194103,7.757476413756608
1776870288428691200,1.525691162109375,1.2559307663179933,5.875620464870333,7.750491961696744
1776870288438728200,1.535728271484375,1.285559011862427,5.856710012695193,7.759940758043527
1776870288448765200,1.54576513671875,1.2951413714610038,5.819356725856662,7.786403817555308
1776870288458802200,1.55580224609375,1.2846435044527054,5.770661376270652,7.824291357401013
1776870288468839200,1.565839111328125,1.258106064530462,5.719708603146672,7.86590639333725
1776870288478877200,1.575877197265625,1.2222105022195726,5.67401944963932,7.9045602413803335
1776870288488914200,1.5859140625,1.1865426111847162,5.638668150272965,7.935235365629196
1776870288498951200,1.595951171875,1.1580131937276572,5.616600695371628,7.955072284999489
1776870288508988200,1.60598828125,1.1351477933816612,5.608078366219997,7.964375535395741
1776870288519025200,1.616025146484375,1.1132621247880161,5.608251969221234,7.9673419839859
1776870288529062100,1.626062255859375,1.0880703273210675,5.608868055292963,7.970389681118727
1776870288539100200,1.63610009765625,1.0544753701027483,5.602476308429241,7.979394825351238
1776870288549137200,1.64613720703125,1.0072205016486346,5.584906749469042,7.997795574438571
1776870288559174400,1.65617431640625,0.9431390015561133,5.551566205403208,8.028760621544718
1776870288569211100,1.666211181640625,0.8654781081181019,5.5003018821120255,8.072671659463644
1776870288579248000,1.676248046875,0.7779645137075334,5.437511371678114,8.123953518411517
1776870288589285000,1.68628515625,0.6896693404652178,5.372618336006998,8.174943700936437
1776870288599323400,1.696323486328125,0.612435622930713,5.316731029090285,8.217522028946876
1776870288609360100,1.706360107421875,0.5513942211864515,5.279503414458036,8.245798275360464
1776870288619397000,1.716397216796875,0.5113610476141796,5.264180757641792,8.258165589502454
1776870288629434000,1.72643408203125,0.49667818653881546,5.265992190977931,8.257906646305322
1776870288639471400,1.736471435546875,0.5030839253952727,5.278124527320266,8.249769517078995
1776870288649508400,1.74650830078125,0.519913881501928,5.293122189965844,8.23911017589867
1776870288659546000,1.756546142578125,0.5377995572065934,5.302466941416263,8.231951536315679
1776870288669583400,1.766583251953125,0.5467089859796688,5.303884406998753,8.230450484102963
1776870288679620400,1.776620361328125,0.5449199836710468,5.300939001196623,8.232466500100493
1776870288689657000,1.786656982421875,0.5372928863260895,5.297855648228526,8.234950133609772
1776870288699694000,1.796694091796875,0.5257232619004324,5.296417724379896,8.236623035258054
1776870288709731000,1.80673095703125,0.5137578796228394,5.299495816650986,8.235399046421051
1776870288719768300,1.816768310546875,0.5075727612471208,5.310975242042542,8.228383614701032
1776870288729806000,1.82680615234375,0.5116971842333674,5.333476996707916,8.21355955505669
1776870288739843000,1.836843017578125,0.521282831767574,5.364943563595414,8.192436103007196
1776870288749880300,1.84688037109375,0.5265100648965686,5.398197598421573,8.170229531896114
1776870288759917300,1.856917236328125,0.520202964108996,5.4268456007570025,8.151633552497625
1776870288769954300,1.866954345703125,0.5008118157448247,5.448461804759502,8.138417512571811
1776870288779991000,1.876990966796875,0.46990423444695767,5.465101973915099,8.129099649128317
1776870288790029300,1.887029296875,0.4305991559535265,5.481317195656895,8.120355786180495
1776870288800066300,1.89706640625,0.3886255523705855,5.499735480400919,8.110012086820602
1776870288810103300,1.907103271484375,0.3474937333740294,5.5212815417766565,8.097227424049377
1776870288820140000,1.91714013671875,0.31005587352458386,5.547488580700755,8.080818725562095
1776870288830177300,1.92717724609375,0.28066121754031625,5.576835086694359,8.061669788455962
1776870288840214300,1.93721435546875,0.26116838063364844,5.607208013126254,8.041231396061182
1776870288850252000,1.947251953125,0.25268322342094035,5.63625290582478,8.021171189329028
1776870288860289000,1.9572890625,0.24788314792914315,5.660038855081797,8.004553816527128
1776870288870326300,1.967326171875,0.23822354010958224,5.6746846355497835,7.994470813930034
1776870288880363300,1.97736328125,0.21842697101598604,5.677519566714763,7.99302353773117
1776870288890400300,1.987400146484375,0.18599115723753346,5.6697068471372125,7.999387812066078
1776870288900437000,1.99743701171875,0.14347037723376416,5.653386411455274,8.01180481056869
1776870288910475300,2.007475341796875,0.09210198164675384,5.631378577786684,8.028043413186072
1776870288920512300,2.01751220703125,0.02991771174399182,5.603122205117344,8.048262609872221
1776870288930549200,2.02754931640625,-0.0425651169024175,5.562554632407426,8.07629744874537
1776870288940586200,2.037586181640625,-0.11819929485237225,5.504429191175102,8.11527570643723
1776870288950623200,2.047623291015625,-0.18810449612969532,5.427255935123562,8.165776059618592
1776870288960660200,2.05766015625,-0.2404426226648502,5.332392708602548,8.226674472695588
1776870288970698200,2.0676982421875,-0.2730266675412655,5.222636448854208,8.295776650494336
1776870288980735200,2.0777353515625,-0.2947039175486192,5.093699687817693,8.37482914442122
1776870288990772200,2.087772216796875,-0.3153934351602569,4.942167648613452,8.464389588358998
1776870289000809200,2.097809326171875,-0.34742958209663627,4.765536531727015,8.563838973626494
1776870289010846200,2.10784619140625,-0.392684435839951,4.5649362179711455,8.670499605447054
1776870289020883200,2.11788330078125,-0.4427008414292708,4.347144238656759,8.779335827741026
1776870289030920200,2.127920166015625,-0.48923901298139244,4.118618099360168,8.886395103490353
1776870289040958200,2.137958251953125,-0.5285519094550982,3.8819232666552064,8.990088117676972
1776870289050995500,2.147995361328125,-0.5680250379918143,3.6351647205755113,9.090285106441378
1776870289061032200,2.1580322265625,-0.6116396867800503,3.3802459566548464,9.185326027616858
1776870289071069200,2.168069091796875,-0.6482399632941931,3.1209175595983862,9.274161664411425
1776870289081106200,2.178106201171875,-0.6630719870492816,2.857420644685626,9.357664708006382
1776870289091143200,2.18814306640625,-0.6496846822097897,2.5884970285490154,9.436524894231557
1776870289101181200,2.19818115234375,-0.6126383058959618,2.316800586698204,9.509337032464146
1776870289111218200,2.20821826171875,-0.5673361424122005,2.0462432318799197,9.573996259379387
1776870289121255200,2.218255126953125,-0.535921342244558,1.7856304941013454,9.627807929065822
1776870289131292400,2.22829248046875,-0.5248778605848551,1.5492004498124121,9.669274496442078
1776870289141329400,2.238329345703125,-0.5352063989082351,1.3522818933092058,9.698209499025344
1776870289151366100,2.2483662109375,-0.5615879541490226,1.217273338078335,9.714588971418141
1776870289161404200,2.258404052734375,-0.6053884443655609,1.1711572643958033,9.717626147156952
1776870289171441400,2.26844140625,-0.645628538686782,1.1569431533433496,9.716740596494079
1776870289181478100,2.27847802734375,-0.7254218410436064,1.0987437700919807,9.717866385653615
1776870289191515100,2.28851513671875,-0.8676871624696999,0.9772315330330282,9.719183313471078
1776870289201552100,2.29855224609375,-1.0486453487750143,0.8565596192557364,9.712726100155711
1776870289211589400,2.30858935546875,-1.2027476768586784,0.7181301496654748,9.706084177923202
1776870289221626400,2.31862646484375,-1.3191957623958588,0.5970706978753209,9.699155255442857
1776870289231664000,2.3286640625,-1.373282449631393,0.5245786949751898,9.695838678240776
1776870289241701400,2.338701416015625,-1.3561639954395592,0.4955362864946946,9.699776017689704
1776870289251738400,2.34873828125,-1.3139153377749024,0.500009632516466,9.7053587862581
1776870289261775400,2.358775390625,-1.293994539513439,0.5212712874602526,9.706917706137896
1776870289271812000,2.36881201171875,-1.3246930446378886,0.554362386809662,9.700942138859629
1776870289281849000,2.37884912109375,-1.4194668393097818,0.6041057841438799,9.684552729594706
1776870289291887400,2.388887451171875,-1.593215971019119,0.693275840524584,9.65149918577671
1776870289301924400,2.39892431640625,-1.833813071859628,0.8464665336560457,9.5964050750643
1776870289311961000,2.408961181640625,-2.0954262188524004,1.0763424070611596,9.519508882388472
1776870289321998300,2.418998291015625,-2.3155502943761643,1.3913520670682191,9.427234503316878
1776870289332035300,2.429035400390625,-2.4923914007514716,1.7664252967633305,9.318696971708535
1776870289342072300,2.439072265625,-2.657049755771458,2.1584823944851754,9.189744428581
1776870289352109300,2.449109375,-2.8148130905807016,2.5326900933921337,9.046143182376026
1776870289362147300,2.459147216796875,-2.9381577306985855,2.873097814027965,8.904096179875731
1776870289372184300,2.469184326171875,-2.998252718438208,3.178098997978866,8.7795526853621
1776870289382221300,2.47922119140625,-2.9852932836219668,3.4672651916772126,8.673896846669912
1776870289392258000,2.489258056640625,-2.9264833672568202,3.7648064150109883,8.569265090328454
1776870289402295300,2.49929541015625,-2.8689123450368643,4.090145453591645,8.43862737059295
1776870289412332300,2.509332275390625,-2.8472888345107434,4.438779150781035,8.268045763003826
1776870289422370300,2.519370361328125,-2.7907898254364727,4.80120639552325,8.082715499094128
1776870289432407000,2.529406982421875,-2.72034412407428,5.135242243039608,7.899328770467639
1776870289442444300,2.5394443359375,-2.710661811232567,5.405978169295191,7.7199799190551035
1776870289452481300,2.549481201171875,-2.764781816215813,5.629820826950669,7.538665320527553
1776870289462518300,2.559518310546875,-2.8328981978476047,5.862042021372914,7.333589322662353
1776870289472555300,2.56955517578125,-2.8898642399117347,6.147495624288916,7.073001280933618
1776870289482593300,2.57959326171875,-2.982637216155231,6.46603082807362,6.742752843001484
1776870289492630300,2.58963037109375,-3.1233506319642066,6.793810830065608,6.345012000554799
1776870289502667300,2.599667236328125,-3.189203160317242,7.1379124367833136,5.9202685848921535
1776870289512704300,2.609704345703125,-3.129718413430452,7.482194076243043,5.512895406225323
1776870289522741200,2.6197412109375,-2.8841566759198902,7.801757454031706,5.194672337129711
1776870289532778200,2.6297783203125,-2.4912980525568127,8.087261325830221,4.955807466909289
1776870289542815200,2.639815185546875,-2.051918208776414,8.323385372909904,4.762485327462851
1776870289552853200,2.649853271484375,-1.6311662008374928,8.531155432164669,4.552917571136355
1776870289562890200,2.65989013671875,-1.2178392283327877,8.735847983670235,4.286282650458812
1776870289572927200,2.66992724609375,-0.8000026694491505,8.936338991832733,3.9588174135044216
1776870289582964200,2.679964111328125,-0.3831937731128186,9.123827895081043,3.574817511640489
1776870289593001500,2.69000146484375,0.007669999196700518,9.291224442893267,3.137432056547701
1776870289603038200,2.7000380859375,0.3507445883961394,9.435108013170957,2.6506755445644257
1776870289613076200,2.710076171875,0.6285854878187179,9.551395720514655,2.1321606431402267
1776870289623113200,2.72011328125,0.8150643372416496,9.639976505765318,1.6052768495604395
1776870289633150500,2.730150390625,0.8977504384305328,9.703139941164851,1.1015882728029043
1776870289643187200,2.740187255859375,0.8955192453123628,9.744238259750604,0.6467020131371914
1776870289653224200,2.75022412109375,0.8351154108192771,9.768387781623005,0.2270349143581465
1776870289663261200,2.76026123046875,0.763613916793838,9.774878897207975,-0.197540834853705
1776870289673299200,2.77029931640625,0.744127564426884,9.757216399267316,-0.6429584426946938
1776870289683336200,2.780336181640625,0.7536552712287753,9.718891052526235,-1.0703051727235318
1776870289693373200,2.790373291015625,0.759905929121375,9.66634428820908,-1.4678924320437012
1776870289703410200,2.80041015625,0.7507255013871937,9.60442763800025,-1.8335120430864393
1776870289713447400,2.810447509765625,0.751352912570536,9.540026769760251,-2.1433087907508015
1776870289723484200,2.820484130859375,0.7782667845897376,9.490447038555144,-2.3443730687566102
1776870289733521200,2.830521240234375,0.8019399941872805,9.467044535657763,-2.4294765332855284
1776870289743559400,2.840559326171875,0.8029383575748652,9.47063233101666,-2.4151178991958497
1776870289753596400,2.850596435546875,0.7948421448808163,9.4911467112571,-2.335960629720241
1776870289763633200,2.860633056640625,0.7907735802676529,9.51626712398827,-2.2328766873426735
1776870289773670100,2.870670166015625,0.7958817901268601,9.539041850376128,-2.1315800667732954
1776870289783707100,2.88070703125,0.8103135625179857,9.557439676854013,-2.041843389485776
1776870289793744400,2.890744384765625,0.8271514462027698,9.572343231475353,-1.9637819524228572
1776870289803782100,2.9007822265625,0.8375959755886345,9.585378654137253,-1.8945586324624717
1776870289813819100,2.910819091796875,0.8355961800735443,9.597672318521141,-1.8321746570028363
1776870289823856400,2.9208564453125,0.82399911965169,9.608909751850366,-1.7777197209767996
1776870289833893400,2.930893310546875,0.8047431419745087,9.619334699752926,-1.7295074787326157
1776870289843930400,2.940930419921875,0.7811622868355363,9.629619946923851,-1.6824378306522965
1776870289853967000,2.950967041015625,0.7581704836308956,9.640013915166259,-1.6327033472768961
1776870289864005400,2.96100537109375,0.7365158473141491,9.650283964768052,-1.5811225053824483
1776870289874042400,2.97104248046875,0.715347606274858,9.660202716714144,-1.5294256358928977
1776870289884079000,2.9810791015625,0.6936934814147651,9.66951473493874,-1.4797497508369386
1776870289894116000,2.9911162109375,0.6689927554003894,9.678404728358984,-1.4322434649050235
1776870289904153300,3.0011533203125,0.6400311570711433,9.686919458726049,-1.387211606262624
1776870289914190300,3.0111904296875,0.6087259912904351,9.694218968084455,-1.3498003056265413
1776870289924227300,3.021227294921875,0.5802262383192778,9.698857733801006,-1.3288728145405648
1776870289934265000,3.03126513671875,0.5598483804726972,9.70025123398602,-1.327443220128864
1776870289944302800,3.041302734375,0.5502758481483906,9.699053548634051,-1.340139181703329
1776870289954339800,3.05133984375,0.5499615580348297,9.697121703788637,-1.3541703374043106
1776870289964376800,3.061376953125,0.5544577369429171,9.695985393235087,-1.3604514635004101
1776870289974413800,3.071413818359375,0.5611260357256979,9.695772042745352,-1.3592413570582866
1776870289984450800,3.081450927734375,0.5697330109534785,9.696143214145302,-1.3529893109261988
1776870289994488800,3.09148876953125,0.5797611415581777,9.696920628258585,-1.3431301802128552
1776870290004525800,3.10152587890625,0.5893959619963541,9.698315882009267,-1.3287905430845917
1776870290014562800,3.111562744140625,0.5962842967379838,9.70058791859448,-1.3089772968508302
1776870290024599800,3.121599853515625,0.5986020721610635,9.703481886470318,-1.2862673062622547
1776870290034636800,3.13163671875,0.5965758635630831,9.706372347214817,-1.2652346012361346
1776870290044673800,3.141673828125,0.5938599191352725,9.708477210539579,-1.2502660185545682
1776870290054710800,3.151710693359375,0.5926728282425552,9.709271575787662,-1.244645256063342
1776870290064748800,3.161748779296875,0.5881964865460991,9.709783616963028,-1.2427759550601243
1776870290074786000,3.1717861328125,0.5784556484501808,9.712171388882398,-1.2286078751064837
1776870290084822800,3.18182275390625,0.5646889523716643,9.71680957007706,-1.1979621961478144
1776870290094859800,3.19185986328125,0.5494631435260177,9.72255658929646,-1.1577448251150548
1776870290104896800,3.201896728515625,0.5351216067016125,9.728365567836164,-1.1148785470087081
1776870290114933800,3.211933837890625,0.5214579326061531,9.733824417763948,-1.0729190084837377
1776870290124971800,3.2219716796875,0.5083052037075162,9.738827340617775,-1.0330717128723859
1776870290135008800,3.2320087890625,0.4967522381557151,9.743288411679863,-0.9959828491237014
1776870290145045800,3.242045654296875,0.4883004169570282,9.74691127835214,-0.9641876348037273
1776870290155083000,3.2520830078125,0.483507629722543,9.749480836579203,-0.9403207292649894
1776870290165120000,3.2621201171875,0.48213743734788145,9.750977212616801,-0.9254027077268808
1776870290175156700,3.27215673828125,0.4827729587724432,9.751509127536416,-0.9194481101714074
1776870290185193700,3.28219384765625,0.48341001456696536,9.751380532720685,-0.9204642284113913
1776870290195232000,3.29223193359375,0.48265181661080564,9.750630591136217,-0.9287718188337981
1776870290205268700,3.302268798828125,0.4793765212671831,9.749525844764708,-0.941994873022288
1776870290215305700,3.3123056640625,0.474271160952188,9.748573658606409,-0.9543423864852636
1776870290225342700,3.3223427734375,0.46896896289084106,9.748006672373414,-0.9627082099009304
1776870290235380000,3.3323798828125,0.4644136376740411,9.747756497004628,-0.9674339963138103
1776870290245417000,3.3424169921875,0.4608868152547627,9.747776370748877,-0.9689323451127856
1776870290255454700,3.352454833984375,0.4581836937759071,9.748074476912617,-0.9672108550824224
1776870290265491700,3.36249169921875,0.4567455507315695,9.748637371492386,-0.962217649905011
1776870290275529000,3.372529052734375,0.45788127676323054,9.749233583819866,-0.9556073649197816
1776870290285566000,3.38256591796875,0.4624019325254485,9.749887663814425,-0.9467117454763502
1776870290295602700,3.392602783203125,0.46987661578767,9.750678521931171,-0.9348188439130782
1776870290305639700,3.4026396484375,0.48084509598240255,9.751419695687293,-0.9214216752666979
1776870290315678000,3.412677978515625,0.49491541464999317,9.751978498613834,-0.9079490302313119
1776870290325715000,3.42271484375,0.5105842910880223,9.75237831158638,-0.8948874502148478
1776870290335751700,3.432751708984375,0.5255858261911198,9.752706228366494,-0.882535698968172
1776870290345788700,3.44278857421875,0.5374985284334048,9.7529552346915,-0.8725422743506729
1776870290355826000,3.452825927734375,0.5438877910790965,9.753244573026896,-0.8653149534456431
1776870290365863000,3.46286279296875,0.5450459481382742,9.75360639207661,-0.8605154442094266
1776870290375900000,3.47289990234375,0.5423078284112737,9.753927879115938,-0.8586047882825135
1776870290385938000,3.48293798828125,0.5372704918311908,9.754079854807257,-0.8600289758667349
1776870290395975000,3.492974853515625,0.5310539919365197,9.75407634767592,-0.8639370892211794
1776870290406012000,3.503011962890625,0.5250054324872792,9.753973471823334,-0.868777149663493
1776870290416048600,3.513048583984375,0.5198790293842553,9.753815650913118,-0.8736141413658857
1776870290426086000,3.5230859375,0.5155531290091574,9.753637371736763,-0.8781658863861114
1776870290436123000,3.533122802734375,0.5114359394812956,9.75353274231851,-0.8816988097526133
1776870290446161000,3.543160888671875,0.5074856674855575,9.753571905285119,-0.8835654804073274
1776870290456197600,3.55319775390625,0.5038888485699892,9.753756029680371,-0.8835960947412997
1776870290466235000,3.56323486328125,0.5004003853997215,9.754098559507726,-0.8817930639073253
1776870290476271900,3.57327197265625,0.4968903314521536,9.754575529369712,-0.8784910997524857
1776870290486308900,3.583308837890625,0.4932327222600579,9.75517524882853,-0.8738794412385672
1776870290496345900,3.593345947265625,0.48945196161232885,9.75588368935883,-0.8680898249864578
1776870290506382800,3.6033828125,0.48551454909816383,9.756676301041244,-0.8613475111193954
1776870290516420900,3.6134208984375,0.4812141850231215,9.757537301784753,-0.8539739866767078
1776870290526457900,3.623457763671875,0.4760734246011823,9.758427528622747,-0.8466603026624768
1776870290536494800,3.633494873046875,0.47000721989739686,9.759331199464201,-0.8395917525157331
1776870290546531800,3.64353173828125,0.4627372288944199,9.760169988375901,-0.8338612460397183
1776870290556568800,3.65356884765625,0.4542693333437666,9.760916422829032,-0.8297662318110466
1776870290566605800,3.663605712890625,0.44471411748044193,9.76157459447682,-0.8272099714569747
1776870290576643800,3.673643798828125,0.43417785469051445,9.762218737599254,-0.8251881102405488
1776870290586680800,3.683680908203125,0.4221006826015189,9.762959326833485,-0.8227052073836326
1776870290596717800,3.6937177734375,0.4085721426604315,9.763826757317782,-0.8192381157949566
1776870290606754800,3.7037548828125,0.3933634676126763,9.764863114628195,-0.8143002210013568
1776870290616791800,3.713791748046875,0.3767779512537643,9.766073659461735,-0.8075908595558255
1776870290626828800,3.723828857421875,0.3593095511130988,9.767430919289588,-0.7991099583931267
1776870290636865800,3.73386572265625,0.3412366457406431,9.768875857400893,-0.7893170247837901
1776870290646903800,3.74390380859375,0.3227234127221629,9.77035528230369,-0.7787242460336535
1776870290656941000,3.753941162109375,0.3038084487686865,9.771814833462237,-0.7679281267311423
1776870290666977800,3.763977783203125,0.2851002959663048,9.773193136078119,-0.7574922921083868
1776870290677014800,3.774014892578125,0.2662459944251925,9.774489021107554,-0.7475739054884761
1776870290687051800,3.7840517578125,0.24615559348417446,9.775794258487224,-0.7373241680223495
1776870290697088800,3.7940888671875,0.22371665665563195,9.777160286143422,-0.7262516429312527
1776870290707126800,3.804126708984375,0.198285954132583,9.778597040948272,-0.714212903156504
1776870290717163800,3.814163818359375,0.16849181396933272,9.780103353857994,-0.7011267732206732
1776870290727200800,3.82420068359375,0.13334512466383167,9.781681562960147,-0.6865287043519318
1776870290737238000,3.834238037109375,0.09296615159488282,9.783296012419461,-0.6699927992884069
1776870290747274800,3.844274658203125,0.04712485799943097,9.784882989349962,-0.6513268964588642
1776870290757311700,3.854311767578125,-0.005583606535324361,9.78637527373433,-0.6302370544180274
1776870290767348700,3.8643486328125,-0.06730164031595923,9.787618551793694,-0.6069451357556507
1776870290777387000,3.874386962890625,-0.1384787977578584,9.788450326442717,-0.5809045394396409
1776870290787423700,3.884423828125,-0.22018588871359823,9.788636788925528,-0.5518059803251176
1776870290797460700,3.894460693359375,-0.3151208652965724,9.787779295313358,-0.5200620212683453
1776870290807497700,3.904497802734375,-0.42157362652011215,9.785528301516175,-0.48592649089992046
1776870290817535000,3.914534912109375,-0.5349037261672318,9.781688577222823,-0.4503895327683538
1776870290827572000,3.924572021484375,-0.6499850533958524,9.7762320653826,-0.41614005716405805
1776870290837609700,3.934609619140625,-0.7617791756473481,9.769316586905717,-0.3879681479077786
1776870290847646700,3.944646728515625,-0.8652350200772285,9.761288178750872,-0.37281755972281094
1776870290857684000,3.95468408203125,-0.9577651274755596,9.75278864595294,-0.36901827703770246
1776870290867721000,3.964720947265625,-1.0399695826273412,9.744260471582413,-0.3718149220189079
1776870290877757700,3.9747578125,-1.1204929528243839,9.735120302793383,-0.37723924862258135
1776870290887794700,3.984794677734375,-1.2134360249377787,9.723896313467622,-0.37922260445952416
1776870290897830700,3.99483056640625,-1.3292619599886237,9.709033090856671,-0.37167390611302104
1776870290907868000,4.004867919921875,-1.4679143516145645,9.68952701087594,-0.3587432589998469
1776870290917905000,4.01490478515625,-1.6222481503665447,9.665327220121025,-0.3466555655168369
1776870290927942700,4.024942626953125,-1.7882253329001365,9.636237903758882,-0.33995066105071453
1776870290937980000,4.03497998046875,-1.9761865298353134,9.599699440434575,-0.3329290187856182
1776870290948016400,4.045016357421875,-2.1575727322943505,9.561416763791442,-0.30755006471611557
1776870290958053400,4.055053466796875,-2.313662434802949,9.525901213774084,-0.27305158278681335
1776870290968090600,4.065090576171875,-2.4645731272384523,9.489141216653584,-0.2290191469779238
1776870290978127400,4.07512744140625,-2.6110458372265097,9.45112391294837,-0.17060688816085456
1776870290988165400,4.085165283203125,-2.7614050332590936,9.409269807559252,-0.10333693075794725
1776870290998202600,4.09520263671875,-2.915252948190272,9.36325975153446,-0.03263290040326537
1776870291008239600,4.105239501953125,-3.0702260677590965,9.313543826729058,0.044720317608350886
1776870291018276400,4.1152763671875,-3.2178640221342443,9.262807326704262,0.1270417684696149
1776870291028313300,4.125313232421875,-3.3554116673886774,9.212281254559755,0.2132272834810428
1776870291038350300,4.135350341796875,-3.486898697429895,9.160811179563403,0.30240908509846776
1776870291048387600,4.1453876953125,-3.6220582785040136,9.105011550930142,0.38710100968442857
1776870291058425300,4.15542529296875,-3.7618744532123207,9.044441054633259,0.4655933855105191
1776870291068462300,4.16546240234375,-3.898740838204324,8.981146686330437,0.5560770817730576
1776870291078499600,4.17549951171875,-4.024763465359807,8.917306374582648,0.673289429681003
1776870291088536600,4.18553662109375,-4.144660010850429,8.850369265863298,0.8143434025559574
1776870291098573600,4.195573486328125,-4.266337594538927,8.776500896576046,0.9704597008105367
1776870291108610300,4.2056103515625,-4.389772543288767,8.69551480423808,1.1350340308088809
1776870291118648600,4.215648681640625,-4.512419848792255,8.607904909846186,1.3085985266663134
1776870291128685600,4.225685546875,-4.627708315965533,8.516729431927203,1.4899707005999983
1776870291138722300,4.235722412109375,-4.732577972716093,8.424086804065109,1.675664683255553
1776870291148759300,4.24575927734375,-4.821127778306603,8.333155071774124,1.8669889268830417
1776870291158796500,4.255796630859375,-4.89334604229927,8.24297035845816,2.0685686070650813
1776870291168833500,4.26583349609375,-4.959567111703753,8.146593804764747,2.2816857264362276
1776870291178870500,4.27587060546875,-5.029795078662038,8.04026518137753,2.4951316393703222
1776870291188908300,4.285908203125,-5.10832617906332,7.925389094397425,2.695105637921393
1776870291198945500,4.295945556640625,-5.198104649665951,7.8049974588662385,2.8691636894494295
1776870291208982500,4.305982421875,-5.307219104379415,7.675479098549485,3.015100685125589
1776870291219019500,4.31601953125,-5.431980625557899,7.532066068392991,3.151498575823009
1776870291229056300,4.32605615234375,-5.559513949537277,7.383479434990883,3.2781755752339956
1776870291239093500,4.336093505859375,-5.685990457940101,7.2373033698618405,3.3854622299984096
1776870291249131500,4.346131591796875,-5.814333929258584,7.0900547070652244,3.477790385083854
1776870291259168500,4.35616845703125,-5.948274197670817,6.9332298221498725,3.5663340531945225
1776870291269205500,4.36620556640625,-6.086790687957405,6.764143421554565,3.6561908497303723
1776870291279242500,4.376242431640625,-6.224978092420101,6.586538198938966,3.7466727924272414
1776870291289279500,4.386279541015625,-6.357424322882294,6.404089627945423,3.8394232645779844
1776870291299316500,4.39631640625,-6.4797910578787326,6.221296189036965,3.934230084736645
1776870291309353500,4.406353515625,-6.590654986608028,6.040904550573229,4.030028546281159
1776870291319391500,4.4163916015625,-6.693392892026901,5.859238069868088,4.127736640839278
1776870291329428500,4.426428466796875,-6.799433346122503,5.667952696946263,4.220472792203724
1776870291339465500,4.436465576171875,-6.911634076413512,5.467570409855246,4.301787093582749
1776870291349502500,4.44650244140625,-7.0208350403666495,5.265131774756312,4.376831813172996
1776870291359539500,4.45653955078125,-7.124687629029155,5.06138381062448,4.4487759363994
1776870291369576400,4.466576416015625,-7.227347208514809,4.849483811958134,4.518666634227335
1776870291379614500,4.476614501953125,-7.33264356624484,4.626694462747872,4.5821851666748525
1776870291389651500,4.4866513671875,-7.439864754557609,4.399242674684524,4.633082702480256
1776870291399688400,4.4966884765625,-7.53839117976129,4.174544569243491,4.681477023293078
1776870291409725400,4.506725341796875,-7.639557305818796,3.9415994444608686,4.7192523349359625
1776870291419762400,4.516762451171875,-7.734853078538179,3.7051875203505156,4.75542021138221
1776870291429799700,4.526799560546875,-7.81614546034634,3.471703466385603,4.798493337172269
1776870291439836400,4.53683642578125,-7.877873309984802,3.248126181668043,4.8537794633254405
1776870291449874400,4.54687451171875,-7.922583973848819,3.0427360032871364,4.913737088420987
1776870291459911400,4.556911376953125,-7.972848764708638,2.8309435566484926,4.958813078466058
1776870291469948400,4.566948486328125,-8.027510913744567,2.614604114229977,4.98931869136691
1776870291479985400,4.5769853515625,-8.076328428405523,2.401517243866622,5.017571556904912
1776870291490022400,4.5870224609375,-8.12422532109022,2.188751129890233,5.03753122587204
1776870291500059400,4.597059326171875,-8.169339305058122,1.9721666266694664,5.053991946807503
1776870291510097400,4.607097412109375,-8.204611693969369,1.761626810440421,5.074583483937382
1776870291520134400,4.617134521484375,-8.227885017529129,1.5777805014781654,5.0973418437123295
1776870291530171400,4.62717138671875,-8.235520626974106,1.4332495732076465,5.127609556204081
1776870291540208400,4.63720849609375,-8.224709894624352,1.3263321901470422,5.17352667324841
1776870291550245600,4.64724560546875,-8.207503908279538,1.2475951919101178,5.22022646510303
1776870291560282400,4.657282470703125,-8.194958899483083,1.1910370730597526,5.253043277555704
1776870291570319400,4.6673193359375,-8.181289270570874,1.1526320121459663,5.282833435663581
1776870291580357600,4.677357666015625,-8.16708538865149,1.1345120527613908,5.308671056753397
1776870291590394600,4.68739453125,-8.154912720298766,1.139588698438555,5.326266919198632
1776870291600431400,4.697431396484375,-8.14617820970118,1.1642601983584462,5.334290651178359
1776870291610468400,4.70746826171875,-8.14203921020031,1.2062936058372258,5.33126984205246
1776870291620505600,4.717505615234375,-8.137606196188926,1.2631800067938863,5.324858805966377
1776870291630542600,4.72754248046875,-8.134345148566364,1.3339232297979295,5.312576247498392
1776870291640579600,4.73757958984375,-8.132556511583925,1.4206816219270229,5.292784920835495
1776870291650617300,4.747617431640625,-8.128381271725893,1.5223402076765895,5.2708893153697245
1776870291660654600,4.757654541015625,-8.125883609691261,1.636646239683777,5.240400069081783
1776870291670691600,4.767691650390625,-8.124643254241347,1.7618376767121255,5.201584892997145
1776870291680728300,4.777728271484375,-8.121516062131523,1.899850893651694,5.157705419260263
1776870291690765300,4.787765380859375,-8.11559193277955,2.0533166773974894,5.107978388538957
1776870291700802600,4.797802490234375,-8.107525530701876,2.2214748572319745,5.050094939368963
1776870291710840600,4.807840576171875,-8.097206381261348,2.4021856446474787,4.983486916473508
1776870291720877300,4.817877197265625,-8.082505071213841,2.592884449853003,4.911256962043047
1776870291730914300,4.827914306640625,-8.061461114141345,2.7902918127864598,4.837096331810951
1776870291740951600,4.83795166015625,-8.033357301685214,2.9932801907226443,4.7619139573156835
1776870291750988500,4.847988525390625,-7.998420428338647,3.2006977832779286,4.685208903297782
1776870291761025500,4.858025634765625,-7.958707426631451,3.412151499481499,4.6028880552247164
1776870291771063600,4.8680634765625,-7.912320938509702,3.629071956658363,4.516126302094757
1776870291781100500,4.8781005859375,-7.855507164397835,3.8515798585787415,4.430205675964057
1776870291791137500,4.888137451171875,-7.7865709908157585,4.079261948266625,4.347334792792797
1776870291801174500,4.898174560546875,-7.702247863009571,4.311683925957977,4.272603961457312
1776870291811211300,4.908211181640625,-7.603976289349794,4.544674058926105,4.206644757859409
1776870291821248500,4.91824853515625,-7.4973139039635655,4.773122164550423,4.144631953799724
1776870291831285500,4.928285400390625,-7.385490190291404,4.995434543898702,4.082959341479838
1776870291841323300,4.9383232421875,-7.268669983506202,5.212888961821794,4.0202749217689036
1776870291851360500,4.948360595703125,-7.146509000214934,5.426662060883641,3.9558991879701613
1776870291861397500,4.9583974609375,-7.018456036275625,5.638357184627652,3.888520472963154
1776870291871434500,4.9684345703125,-6.882163651779294,5.848415062558651,3.821290811038017
1776870291881471500,4.978471435546875,-6.735723382756114,6.0568432934612035,3.7570015864789483
1776870291891508200,4.98850830078125,-6.583606237140297,6.261247675675153,3.6909742860808965
1776870291901546500,4.99854638671875,-6.4326821007013315,6.457728279152512,3.617833646546304
1776870291911583500,5.00858349609375,-6.288532572963834,6.642603785032033,3.5356142130210992
1776870291921620500,5.018620361328125,-6.151607735782862,6.8160530570119615,3.4452187795639038
1776870291931657500,5.028657470703125,-6.017406186085939,6.980421781435608,3.3518530981242654
1776870291941694500,5.038694580078125,-5.879791028553247,7.138643673667311,3.261626883754134
1776870291951731700,5.048731689453125,-5.738291138541698,7.291167646518349,3.1751027387723325
1776870291961769700,5.058769775390625,-5.597369340679049,7.435788883420825,3.0901258232325315
1776870291971806700,5.068806640625,-5.460785279759764,7.571398546350002,3.004019611401856
1776870291981843700,5.07884375,-5.329473606285452,7.698372482880949,2.9158476992130278
1776870291991880700,5.088880615234375,-5.198880310213566,7.819812166160345,2.827110846617818
1776870292001917700,5.098917724609375,-5.066767841750383,7.937610278066992,2.737257849474251
1776870292011954700,5.10895458984375,-4.938191730719804,8.050538153588771,2.6407380879178644
1776870292021992700,5.11899267578125,-4.817130817624927,8.157766356164217,2.533076754622161
1776870292032029700,5.12902978515625,-4.701537230025232,8.259722755816579,2.41721545599699
1776870292042066700,5.139066650390625,-4.58497830452472,8.358292435640097,2.2994198283083738
1776870292052103700,5.149103759765625,-4.464835675318539,8.454056410393118,2.1827876914411783
1776870292062140700,5.159140625,-4.3448818466827275,8.545099786365032,2.0672832434296606
1776870292072177700,5.169177734375,-4.22910647277534,8.629729788163305,1.9526427187711
1776870292082215700,5.179215576171875,-4.118826481413841,8.707812560275196,1.838385786602646
1776870292092252700,5.189252685546875,-4.011014341470599,8.781248383364082,1.7239011831581592
1776870292102289700,5.19928955078125,-3.8992785983428355,8.85342631534636,1.6071240848623216
1776870292112326700,5.20932666015625,-3.7779619569212195,8.926942217934132,1.4856269723072648
1776870292122364000,5.219364013671875,-3.6472362666413187,9.001158377745748,1.3591200687661766
1776870292132400600,5.229400634765625,-3.513760400870442,9.072482907769084,1.2304093715704978
1776870292142438700,5.239438720703125,-3.3849066419422624,9.137453684851527,1.104419404575601
1776870292152475600,5.2494755859375,-3.2613141645431516,9.196140267097949,0.9824506559208035
1776870292162513000,5.259512939453125,-3.1368437352657317,9.251253667032717,0.8630757231514901
1776870292172549600,5.269549560546875,-3.007111439937353,9.30445860299766,0.7447977918386459
1776870292182586600,5.279586669921875,-2.8703809562847016,9.356060195419191,0.6288445771463215
1776870292192623600,5.28962353515625,-2.726616336211562,9.405883087730407,0.5150727616136893
1776870292202661600,5.29966162109375,-2.579432263083756,9.452747130236029,0.403117274788022
1776870292212698600,5.30969873046875,-2.430781186143309,9.49612683775723,0.2920028053637594
1776870292222735600,5.319735595703125,-2.281381628923118,9.535883678606153,0.18058166287681088
1776870292232772600,5.329772705078125,-2.1302410732544956,9.572235679447651,0.06893604115133639
1776870292242809900,5.339809814453125,-1.976554778625816,9.605306758922337,-0.041029340436193155
1776870292252846600,5.3498466796875,-1.819767595372349,9.63519803931713,-0.1475256622402463
1776870292262884600,5.359884521484375,-1.6611638642162083,9.661752284243702,-0.2478945643723011
1776870292272921900,5.369921875,-1.5005572688050568,9.68520037984848,-0.3400178445354104
1776870292282958800,5.379958740234375,-1.3390448105953634,9.705575059357285,-0.42327173567488785
1776870292292995600,5.38999560546875,-1.1782850704491137,9.722769355264305,-0.49980979909542944
1776870292303032600,5.400032470703125,-1.0188340748138724,9.736816585317253,-0.5716404520099982
1776870292313069800,5.41006982421875,-0.8613307791803032,9.747856450247763,-0.6385896530259401
1776870292323107800,5.42010791015625,-0.7091114152990281,9.75580828603506,-0.7012405357934535
1776870292333144600,5.43014453125,-0.5641399767193943,9.760884858646989,-0.7597684934120624
1776870292343181600,5.440181640625,-0.42676377904172985,9.763708099374174,-0.8113537922859192
1776870292353218800,5.45021875,-0.29713728217538443,9.764981188049912,-0.8527833886526525
1776870292363255800,5.460255859375,-0.17553464515293016,9.765324302399158,-0.8820476962555199
1776870292373292800,5.470292724609375,-0.0634202551382361,9.765025611713527,-0.9003452772293239
1776870292383330800,5.480330810546875,0.0353898230121471,9.76425813447237,-0.9101610071923584
1776870292393367800,5.490367919921875,0.11635044298213906,9.763449156177042,-0.9120870798841119
1776870292403404800,5.50040478515625,0.17658183438461272,9.763149880969523,-0.9055939184725285
1776870292413441500,5.510441650390625,0.21605962083013727,9.763701085111498,-0.8909849628835916
1776870292423478500,5.520478515625,0.24178802765812724,9.764931503689288,-0.8706497386023402
1776870292433515800,5.530515869140625,0.26823203540956597,9.766319743177295,-0.8470341774761676
1776870292443553800,5.5405537109375,0.3109622843123972,9.767066177630424,-0.8234859824977815
1776870292453590500,5.550590576171875,0.3845040885264054,9.766075413027405,-0.8039482652697711
1776870292463627800,5.560627685546875,0.4839759048214182,9.76291373412609,-0.7884573392145335
1776870292473664800,5.570664794921875,0.5900373286398127,9.757869894739985,-0.7786081453733146
1776870292483701800,5.58070166015625,0.6712676415298133,9.753165662571787,-0.7717221852518618
1776870292493739500,5.590739501953125,0.7109487137287854,9.750815884575248,-0.7658526356313378
1776870292503776800,5.60077685546875,0.7122844923771917,9.751097624126077,-0.7609915324009955
1776870292513813800,5.610813720703125,0.6924733650352806,9.7527681876868,-0.7578802685126662
1776870292523850800,5.620850830078125,0.6823816676750779,9.752980953654646,-0.764266462418437
1776870292533887700,5.6308876953125,0.7037989150393754,9.750238961470126,-0.7796895108692348
1776870292543924700,5.6409248046875,0.7522019306153058,9.745565708962083,-0.792803478660062
1776870292553962800,5.650962646484375,0.7851563249077648,9.74342518980205,-0.787134639243409
1776870292563999700,5.660999755859375,0.7657825660698115,9.746973822194338,-0.7618756948243827
1776870292574036500,5.671036376953125,0.6970053824417293,9.75465327078104,-0.728909975420311
1776870292584073700,5.68107373046875,0.6034657692072912,9.763122992962598,-0.6983153690617531
1776870292594110700,5.69111083984375,0.5081066123954951,9.770230779141187,-0.6743855543546379
1776870292604147700,5.701147705078125,0.4251675958914682,9.775456404834985,-0.6557893557604402
1776870292614185700,5.711185791015625,0.3561740295663476,9.779479084479808,-0.6366382997624576
1776870292624222700,5.72122265625,0.29709444768065585,9.782978617033361,-0.612735738388449
1776870292634259700,5.731259765625,0.24392255546879021,9.786017546337842,-0.5871775552945211
1776870292644296700,5.741296630859375,0.19561587640680372,9.788331668499112,-0.56628582964167
1776870292654333700,5.751333740234375,0.1560728427053429,9.789670223626494,-0.5553466120740398
1776870292664370700,5.76137060546875,0.13125877424329518,9.789871883678435,-0.5581664918003604
1776870292674408700,5.77140869140625,0.12224175690989941,9.788898654732108,-0.5769848817778751
1776870292684445700,5.78144580078125,0.1264856963562779,9.786836461505294,-0.6101028326015919
1776870292694482700,5.791482666015625,0.14050629413062707,9.783856568911672,-0.6532865791592747
1776870292704519700,5.801519775390625,0.15927850687885656,9.780290400862693,-0.7006781526703387
1776870292714556700,5.811556640625,0.17760423623491078,9.776762811258434,-0.7441642431754618
1776870292724594700,5.8215947265625,0.1909532366243191,9.77399393106699,-0.7765113192245364
1776870292734631700,5.831631591796875,0.1975521599653177,9.772398186308145,-0.794734592853114
1776870292744668700,5.841668701171875,0.20134890363346783,9.771850489297508,-0.8004784702673554
1776870292754705700,5.85170556640625,0.20584013237180188,9.771948688974977,-0.7981581375610083
1776870292764742700,5.86174267578125,0.21453834781330078,9.772343241250514,-0.7909974521514028
1776870292774780000,5.87177978515625,0.22771644861521198,9.772949390450119,-0.7797515432547777
1776870292784817700,5.881817626953125,0.24608625457501038,9.773998607242106,-0.76078030080311
1776870292794854700,5.891854736328125,0.2712591281457804,9.775779060918092,-0.7286571697030216
1776870292804891600,5.9018916015625,0.30625151280555873,9.778031223759054,-0.6831518483299761
1776870292814929000,5.911928955078125,0.3531517956683412,9.780145439434051,-0.628029972827807
1776870292824965600,5.921965576171875,0.40786472504343835,9.781497438564896,-0.5712671617181971
1776870292835002600,5.932002685546875,0.45864765802584584,9.781945766854285,-0.5230392104482278
1776870292845041000,5.942041015625,0.492509120693244,9.781982007211447,-0.49059283874314275
1776870292855077600,5.95207763671875,0.501940016057156,9.782184836307167,-0.47679695310276
1776870292865114600,5.962114501953125,0.4886199312349781,9.782658883559703,-0.4808521467776969
1776870292875151600,5.972151611328125,0.4610624640826136,9.783293089810012,-0.49495114355050024
1776870292885188900,5.98218896484375,0.4287427144318819,9.7841383084625,-0.507128195817396
1776870292895226600,5.9922265625,0.39735633664112535,9.785082895836233,-0.5144118134869262
1776870292905263600,6.002263671875,0.3657176280571148,9.786001764246821,-0.5203763479145244
1776870292915300600,6.012300537109375,0.3300474354673177,9.786961549189686,-0.5261399894751608
1776870292925337900,6.022337890625,0.2876544191622175,9.787898537778855,-0.5335254235513508
1776870292935374800,6.032374755859375,0.24044406570326535,9.78853975829184,-0.5450486880846321
1776870292945411300,6.042411376953125,0.19471931115956975,9.788588273608683,-0.5621408753240481
1776870292955449000,6.052448974609375,0.15765815740171818,9.787890354472399,-0.5854117511983961
1776870292965486300,6.062486328125,0.13415594785637222,9.786540108907221,-0.6132166537731886
1776870292975523300,6.0725234375,0.12474994033854454,9.78479238845706,-0.6423985437896103
1776870292985560000,6.08256005859375,0.12653415687419473,9.783017779999971,-0.6685303985856473
1776870292995597000,6.09259716796875,0.1348818053123541,9.7815652431041,-0.687861706521362
1776870293005635300,6.10263525390625,0.144662007304281,9.78072528514862,-0.697765991550684
1776870293015672300,6.11267236328125,0.15302337374053895,9.780644036605954,-0.6970910879638046
1776870293025709000,6.122708984375,0.1586853632912971,9.781187641963362,-0.6881755217108875
1776870293035746000,6.13274609375,0.16325195882078258,9.782083714020251,-0.6742346746418625
1776870293045783300,6.142783203125,0.168029932078626,9.783127670115231,-0.6576889788366854
1776870293055820300,6.1528203125,0.17424137220568953,9.78413655489683,-0.6408594976540655
1776870293065858000,6.162858154296875,0.1820761940171942,9.785008077034353,-0.625199863968417
1776870293075895300,6.172895263671875,0.19057165342820806,9.785675601032375,-0.6120702967496588
1776870293085932300,6.182932373046875,0.19897800978366284,9.786118084102869,-0.60222669239901
1776870293095969300,6.19296923828125,0.2056575606128201,9.786371766602992,-0.5958243145434186
1776870293106006300,6.20300634765625,0.20932527107382193,9.786478734108805,-0.5927922168385237
1776870293116044300,6.213044189453125,0.20988834831668063,9.786489840024709,-0.5923970800410956
1776870293126081300,6.223081298828125,0.20758916799621654,9.786482825762032,-0.59334126555603
1776870293136118300,6.2331181640625,0.20311441546864806,9.786516143509745,-0.5943254177551717
1776870293146155000,6.243155029296875,0.19751898834807796,9.786667534679173,-0.5937375713972375
1776870293156192300,6.253192138671875,0.19114011923223734,9.78695336588323,-0.5911064922412858
1776870293166229200,6.263229248046875,0.18346295393416656,9.787302325451373,-0.587733727872558
1776870293176267300,6.273267333984375,0.17384645460397005,9.78768109563589,-0.5843488712072372
1776870293186304000,6.283303955078125,0.16184676819797605,9.788084415739775,-0.5810419020837172
1776870293196341200,6.29334130859375,0.1481218380351085,9.788470200186968,-0.5781902755122631
1776870293206378200,6.303378173828125,0.1338148062685039,9.788751355215906,-0.5769279274262488
1776870293216415200,6.313415283203125,0.1192304645310156,9.788917359432578,-0.5772786040274426
1776870293226453200,6.323453369140625,0.10451026711994782,9.789001530584692,-0.57870556809064
1776870293236490200,6.333490234375,0.08990523878745735,9.789073426777124,-0.5799533761946484
1776870293246527200,6.34352734375,0.07516619054544717,9.78921312750876,-0.5796804410047829
1776870293256564200,6.353564208984375,0.06019304128661752,9.789429400607943,-0.5777590079555288
1776870293266601200,6.363601318359375,0.04499911171684507,9.789743873384595,-0.5738158963529393
1776870293276638200,6.37363818359375,0.02938115718187764,9.790163560101389,-0.5676400937948376
1776870293286676200,6.38367626953125,0.012394344854453811,9.790637022832035,-0.5600579315701499
1776870293296713200,6.393713134765625,-0.005853234381607035,9.791023391801119,-0.553376407979615
1776870293306750200,6.403750244140625,-0.024725828489591366,9.791240833944082,-0.5489788671404123
1776870293316787200,6.413787109375,-0.044933453468955116,9.791330265793203,-0.5460950553324073
1776870293326824200,6.42382421875,-0.066792795744678,9.791375858500599,-0.5430337680656463
1776870293336862200,6.4338623046875,-0.08936940574455074,9.791453015390038,-0.5383484597936272
1776870293346899200,6.443899169921875,-0.10956719431648962,9.791628956478833,-0.5314108425501733
1776870293356936200,6.453936279296875,-0.12597767376890406,9.791978500568867,-0.5212510849224403
1776870293366973200,6.46397314453125,-0.13993586469837463,9.792543148714303,-0.5068544934425503
1776870293377010200,6.47401025390625,-0.15153623132216743,9.7933538805753,-0.48745972834918644
1776870293387048200,6.484048095703125,-0.16083724409556016,9.79435925822556,-0.46372908947598185
1776870293397085200,6.494085205078125,-0.17131288100574166,9.795412566670775,-0.43696233430989084
1776870293407122200,6.5041220703125,-0.18655788774220272,9.796320329165457,-0.40951201732642944
1776870293417159400,6.514159423828125,-0.20853960058884694,9.79689432966113,-0.38439481946565207
1776870293427196200,6.524196044921875,-0.23634717004476113,9.797058580312132,-0.36355058621633796
1776870293437233200,6.534233154296875,-0.26701485990583895,9.7968393846035,-0.3479341706179082
1776870293447271200,6.544271240234375,-0.29822098575886336,9.796302208986878,-0.3375384122772142
1776870293457308400,6.554308349609375,-0.3307573738349601,9.795485631906987,-0.33085327195748687
1776870293467345200,6.56434521484375,-0.3700331531686708,9.794218972972034,-0.3266958234844729
1776870293477382100,6.574382080078125,-0.423376109364815,9.79211878582239,-0.32487189599294214
1776870293487419100,6.584419189453125,-0.495509033161588,9.788730896949767,-0.3249423674132675
1776870293497457200,6.59445703125,-0.584480498230271,9.783770059671998,-0.3264937250411138
1776870293507494100,6.604494140625,-0.685317501931265,9.777137489789723,-0.32911965309791263
1776870293517531100,6.61453125,-0.7931291304178536,9.768876441922783,-0.33228027255330234
1776870293527569400,6.6245693359375,-0.9032347150605171,9.759294959107041,-0.3327451501186937
1776870293537606100,6.634606201171875,-1.0121223022155463,9.748742000910639,-0.32868414775747806
1776870293547643100,6.64464306640625,-1.1205738360408692,9.737178988888859,-0.3194345272446051
1776870293557680000,6.65468017578125,-1.231141046845913,9.724243519470095,-0.30624385922206565
1776870293567718100,6.66471826171875,-1.3471354703314602,9.709342887458204,-0.29029391908664254
1776870293577755100,6.674755126953125,-1.4690017084598541,9.69217547955811,-0.27233835648354143
1776870293587792100,6.684792236328125,-1.5952096290543674,9.672696872106194,-0.2542360788861289
1776870293597829000,6.6948291015625,-1.723665474706143,9.651069562187791,-0.23710668317517264
1776870293607866400,6.704866455078125,-1.8530203150242566,9.627432081490754,-0.22194137234510852
1776870293617904000,6.714904052734375,-1.9793943859659133,9.602529110902548,-0.2093605433166027
1776870293627941000,6.724941162109375,-2.102135945624113,9.576624854317307,-0.19916529425038024
1776870293637978400,6.734978271484375,-2.2274784815609454,9.548562542915343,-0.18354750867877154
1776870293648015400,6.745015380859375,-2.359677313133329,9.517353165659308,-0.14935675012492575
1776870293658052000,6.755052001953125,-2.492899642534554,9.48405938334465,-0.09199797328300774
1776870293668090000,6.765090087890625,-2.62107067989558,9.449881219410896,-0.010585710830177413
1776870293678127400,6.77512744140625,-2.741456177946925,9.415212641611694,0.0925571872015018
1776870293688164400,6.785164306640625,-2.8487784885466096,9.381361809936164,0.21189652806762604
1776870293698201000,6.795201171875,-2.9409423929810523,9.349192063215375,0.33742925281431524
1776870293708238000,6.805238037109375,-3.021935791842639,9.317878056541085,0.46415505980309096
1776870293718275300,6.815275390625,-3.1004034716188906,9.284664353725313,0.5940373580614104
1776870293728313000,6.82531298828125,-3.1863860570698974,9.246247821569442,0.724033017033711
1776870293738350000,6.83535009765625,-3.2809938475251195,9.202025818005204,0.8533367847517133
1776870293748387000,6.845386962890625,-3.3731139128178356,9.155983613276481,0.9800156107936054
1776870293758424300,6.85542431640625,-3.458590302312374,9.109950176376104,1.103331463208422
1776870293768461300,6.86546142578125,-3.5412560183003543,9.062487583455443,1.225241102087125
1776870293778499000,6.8754990234375,-3.6291926604285836,9.009762539961933,1.3503802974715828
1776870293788536300,6.885536376953125,-3.7245834179550408,8.95048325251937,1.4787547484502195
1776870293798573300,6.8955732421875,-3.8295331542044875,8.883840158310532,1.6070042578749357
1776870293808610300,6.9056103515625,-3.9439796175956725,8.808934847190976,1.7372615999907255
1776870293818647000,6.91564697265625,-4.0619586390271785,8.727934141805768,1.8692352445051073
1776870293828685300,6.925685302734375,-4.175370498673618,8.6445848274678,2.001953716037422
1776870293838722300,6.935722412109375,-4.279251728908718,8.561355924639106,2.1357851172477007
1776870293848759300,6.94575927734375,-4.376306035733223,8.478461952853202,2.26583305439651
1776870293858796000,6.955796142578125,-4.481569075715542,8.390426526525616,2.3846727843105793
1776870293868833300,6.965833251953125,-4.610610466170311,8.28989343767464,2.4880355436295267
1776870293878871300,6.975871337890625,-4.762698677952588,8.176233156225084,2.5761039954438805
1776870293888908000,6.985907958984375,-4.928798463952541,8.051461698174476,2.6554300456151365
1776870293898945000,6.995945068359375,-5.0957092740744345,7.920106185558438,2.7342373326092955
1776870293908982300,7.005982177734375,-5.255549707418679,7.7850646779060355,2.818217930588126
1776870293919019300,7.016019287109375,-5.409727877217531,7.6433157815694805,2.912894694626331
1776870293929056300,7.02605615234375,-5.5619356237262485,7.4911185564547775,3.0196669701278207
1776870293939094300,7.03609423828125,-5.710904534444213,7.328749481415748,3.1377354234084485
1776870293949132300,7.04613232421875,-5.852739355498552,7.159899227663874,3.2636887847200033
1776870293959169000,7.0561689453125,-5.985843173086643,6.985955450165271,3.3965403811126946
1776870293969206000,7.0662060546875,-6.114754215160012,6.802928787022829,3.535579433968663
1776870293979243300,7.0762431640625,-6.24292057634592,6.609422230920195,3.675850366707146
1776870293989281300,7.08628125,-6.370147026333212,6.410014926341176,3.8083243619590994
1776870293999318000,7.096318115234375,-6.493654163536429,6.211616506543755,3.9266602340042587
1776870294009355300,7.106355224609375,-6.612922347995639,6.014544366914033,4.032975997909904
1776870294019392300,7.116392333984375,-6.728095372095703,5.81439822666645,4.13471787802875
1776870294029429200,7.12642919921875,-6.856233091709018,5.5979901029258965,4.221961569456756
1776870294039467000,7.136467041015625,-6.998011214140057,5.36379556260407,4.292775811870396
1776870294049504300,7.146504150390625,-7.141940961647033,5.120351547899842,4.352593443973362
1776870294059541200,7.156541259765625,-7.279481300377845,4.878512338043749,4.402232796411216
1776870294069578200,7.166578125,-7.400825706589221,4.643679499818385,4.453583628942072
1776870294079615200,7.176615234375,-7.51261551799178,4.406429663579166,4.507146584564447
1776870294089653200,7.1866533203125,-7.62889971820414,4.156495702333748,4.549046282660961
1776870294099690200,7.196690185546875,-7.738490558257698,3.904982655203342,4.586639515735209
1776870294109727200,7.206727294921875,-7.832901949357986,3.6690731276571746,4.621032783724368
1776870294119764000,7.216763916015625,-7.9052301034659145,3.4502322238117453,4.666220709711313
1776870294129801200,7.22680126953125,-7.953702750211954,3.2485403154268857,4.728211301939189
1776870294139838200,7.236838134765625,-8.001790781554579,3.044411243022978,4.782602817340195
1776870294149876200,7.246876220703125,-8.043670605906843,2.8417759163081646,4.836740357980132
1776870294159913200,7.256913330078125,-8.0746181173563,2.649135037124157,4.894181616340577
1776870294169950200,7.2669501953125,-8.103904417595267,2.459457391659915,4.944510996869206
1776870294179987200,7.2769873046875,-8.13090640628934,2.2715714519180357,4.98985995863676
1776870294190024200,7.287024169921875,-8.146971990427375,2.0954211042858657,5.040480138805508
1776870294200062200,7.297062255859375,-8.155442881652712,1.9338649530649183,5.091100903496146
1776870294210099200,7.30709912109375,-8.158497008526325,1.7937236380554735,5.137302098178863
1776870294220136200,7.31713623046875,-8.158739000588655,1.6787059506475925,5.175645565098524
1776870294230173200,7.327173095703125,-8.158191303578018,1.5858299524210393,5.205712202060222
1776870294240210200,7.337210205078125,-8.158162077483535,1.5108957074679434,5.227998852670193
1776870294250248200,7.347248291015625,-8.15723794837594,1.4547817521885036,5.24532817313373
1776870294260285200,7.35728515625,-8.153367828944324,1.4277530216179788,5.258754640939832
1776870294270322400,7.367322509765625,-8.147039210444689,1.4331022736914456,5.267101029002666
1776870294280359200,7.377359130859375,-8.13534468099773,1.4676273513667284,5.275662521120905
1776870294290396200,7.387396240234375,-8.120826326301694,1.5312440834917127,5.279948235616088
1776870294300433200,7.39743310546875,-8.102859876978396,1.6193945145010946,5.281250550386309
1776870294310471400,7.407471435546875,-8.081887816098332,1.726493829999864,5.279459575316309
1776870294320508200,7.417508056640625,-8.062000627845526,1.8504827593706548,5.267850386065245
1776870294330545200,7.427545166015625,-8.042606776067615,1.9921355018563567,5.245784100207686
1776870294340582100,7.43758203125,-8.022877408725023,2.1499973286040124,5.213572267910838
1776870294350619400,7.447619384765625,-8.004071001446247,2.3203693850956855,5.169247388494014
1776870294360657200,7.4576572265625,-7.98692463633418,2.5018168162226675,5.11080630544126
1776870294370694100,7.467694091796875,-7.966903008046746,2.691572787620127,5.0452229494184255
1776870294380731100,7.477731201171875,-7.941268800574541,2.8887726452827454,4.976106158572435
1776870294390768400,7.487768310546875,-7.909787620639801,3.09414704157263,4.90223340537101
1776870294400805000,7.49780517578125,-7.87304808178544,3.3074417094677684,4.8214440046489235
1776870294410843100,7.507843017578125,-7.828851797184347,3.5278622837200757,4.736417404748499
1776870294420880400,7.51788037109375,-7.774023059409856,3.7509623063147064,4.6545922312378885
1776870294430917400,7.52791748046875,-7.71056853210926,3.9762010945037005,4.572454923038184
1776870294440954000,7.5379541015625,-7.63912008344531,4.2028032800003885,4.488950125877559
1776870294450991000,7.5479912109375,-7.559654332542419,4.4283325755685565,4.405891903440654
1776870294461029400,7.558029296875,-7.4783105128079645,4.648922076646984,4.316571113477647
1776870294471066000,7.568066162109375,-7.39226830612421,4.865898647925257,4.224664690935612
1776870294481103000,7.57810302734375,-7.294020697861909,5.083247851908206,4.138628621731698
1776870294491140000,7.58814013671875,-7.18034697240889,5.301999323904514,4.062240963099897
1776870294501177300,7.59817724609375,-7.053062654754519,5.5224160987645385,3.9909421520397066
1776870294511214300,7.60821435546875,-6.918415699377656,5.740965326187014,3.9175539674848316
1776870294521252000,7.618252197265625,-6.778507462471723,5.953740061861276,3.843853940501809
1776870294531289000,7.6282890625,-6.630577831673622,6.158811383551359,3.778210670985281
1776870294541326300,7.638326416015625,-6.477361200383305,6.3545473061412565,3.7193954939231273
1776870294551363300,7.64836328125,-6.322278775221109,6.543308713543414,3.658453533965349
1776870294561400000,7.658400146484375,-6.1672583093792195,6.72627517093122,3.5906171383187173
1776870294571438300,7.668438232421875,-6.014222879874706,6.901314342451095,3.517295004737377
1776870294581475300,7.678475341796875,-5.864232809415459,7.0685770347505805,3.437496368618309
1776870294591512300,7.68851220703125,-5.718487536919117,7.228188335514068,3.3500101006060836
1776870294601549000,7.698549072265625,-5.579750097358226,7.377673379060625,3.2567917186826465
1776870294611586000,7.7085859375,-5.44555614644587,7.518809696456789,3.159715200026333
1776870294621624300,7.718624267578125,-5.313356584221125,7.653590507346391,3.0596032591968774
1776870294631661000,7.7286611328125,-5.183153748771548,7.7828119305431835,2.955187483693659
1776870294641698000,7.738697998046875,-5.056735108035802,7.9062348965942855,2.8445141091004014
1776870294651735300,7.7487353515625,-4.934676416075229,8.023339765539765,2.728620661771297
1776870294661772300,7.758772216796875,-4.8160199337735765,8.135190367218852,2.6067270972445606
1776870294671810000,7.76881005859375,-4.705388352495431,8.240051840662955,2.476138769608736
1776870294681847000,7.778846923828125,-4.60806633464545,8.335684882512687,2.335049213963747
1776870294691884300,7.78888427734375,-4.52120258244574,8.422489305740594,2.188782986333221
1776870294701921300,7.79892138671875,-4.4371547644495966,8.502771049201488,2.045706640785187
1776870294711958300,7.808958251953125,-4.350921126846969,8.57904764867425,1.9078280100107192
1776870294721995000,7.8189951171875,-4.2619487119302155,8.652009424510597,1.7745117187157273
1776870294732033300,7.829033203125,-4.170044919736683,8.722134515616297,1.644833637792617
1776870294742070300,7.8390703125,-4.076955132628977,8.789104942083359,1.5167266055785118
1776870294752107300,7.849107177734375,-3.982580274146795,8.8533333763659,1.3884968237675726
1776870294762144000,7.85914404296875,-3.8861253945201635,8.915030830866097,1.2612035921543836
1776870294772181200,7.86918115234375,-3.784764330412447,8.97528685438633,1.1358545534115283
1776870294782219300,7.87921923828125,-3.677247081762552,9.034688306903838,1.0112597671020775
1776870294792256000,7.889256103515625,-3.5634883083745836,9.093130559000372,0.8870802105300128
1776870294802293200,7.899293212890625,-3.443283427587151,9.150321934252977,0.7653796112921089
1776870294812330200,7.909330322265625,-3.3151156050965187,9.206541834124922,0.6480539392028003
1776870294822367200,7.9193671875,-3.1825808195680376,9.26040669530332,0.535204974136129
1776870294832405000,7.929405029296875,-3.048444151800871,9.311089419314264,0.42541926909759636
1776870294842442200,7.939442138671875,-2.9141879493072627,9.358262089377641,0.31750750470478084
1776870294852479200,7.949479248046875,-2.7786995746701955,9.402379463523626,0.21088866619933394
1776870294862516200,7.95951611328125,-2.641587105962634,9.44357013656795,0.10665756308063865
1776870294872553200,7.96955322265625,-2.5016551959201694,9.482198265647888,0.00603207353449834
1776870294882591200,7.97959130859375,-2.35620642215237,9.51897170677185,-0.08870150728719309
1776870294892628200,7.989628173828125,-2.205736605352163,9.553764787733554,-0.17526804837230592
1776870294902664200,7.999664306640625,-2.0522334122054278,9.586159575381874,-0.25351441354807464
1776870294912701200,8.009701171875,-1.8970587787151336,9.615935704964398,-0.32457357063349335
1776870294922739200,8.0197392578125,-1.7397478638485073,9.643233461734653,-0.38947555679604406
1776870294932776200,8.029776123046876,-1.5808528946608305,9.667983872109652,-0.44874885288923977
1776870294942813200,8.039813232421874,-1.4219072181992232,9.690047235357762,-0.5015588712524622
1776870294952850000,8.049849853515624,-1.2647015172727405,9.709342302936316,-0.5473497315686195
1776870294962887000,8.059886962890625,-1.1094954657308758,9.726068981331586,-0.5856389840830117
1776870294972925000,8.069925048828125,-0.9550600332353264,9.74040379615426,-0.6187099174272269
1776870294982962000,8.0799619140625,-0.801607108971104,9.752288295215367,-0.648613180520758
1776870294992999000,8.0899990234375,-0.6510494677569717,9.761527832725644,-0.6775523478224873
1776870295003036000,8.100035888671876,-0.5078529664279893,9.767867557141184,-0.7079636335033923
1776870295013072600,8.11007275390625,-0.37882779645565895,9.77130629941821,-0.7405782013822346
1776870295023111000,8.12011083984375,-0.271493978081271,9.772253809401393,-0.7744253797959536
1776870295033148000,8.13014794921875,-0.1869461746737361,9.771533093911408,-0.8078226224850863
1776870295043184600,8.1401845703125,-0.11951937360814772,9.770012167954444,-0.838433449326083
1776870295053222000,8.150221923828125,-0.05720015678068157,9.768388366144896,-0.863540783379972
1776870295063259000,8.1602587890625,0.011030077613791217,9.766955702993274,-0.8813837524540722
1776870295073296000,8.1702958984375,0.09020271476353518,9.76571242493391,-0.8905583349693567
1776870295083333600,8.180333740234374,0.17860634421585125,9.764514739581942,-0.890369242138043
1776870295093371000,8.190370849609375,0.27507019260022786,9.76308499903977,-0.8814327061623335
1776870295103407900,8.200407958984375,0.3766266696821898,9.761187640985845,-0.8647254631198942
1776870295113444900,8.21044482421875,0.480635252624005,9.758489487943052,-0.8433663756836205
1776870295123481900,8.22048193359375,0.5934450912566855,9.754259303027391,-0.8201496046166866
1776870295133520000,8.230519775390626,0.7268051120955497,9.747446115881203,-0.7933698803711682
1776870295143556900,8.240556884765626,0.8791963254123926,9.737387078681587,-0.7620478365208954
1776870295153593900,8.25059375,1.0167780190669,9.725755677598714,-0.739071084754914
1776870295163630800,8.260630859375,1.0884480745922773,9.717771108585595,-0.7420351221922784
1776870295173667800,8.270667724609375,1.0742797023776918,9.715848031568527,-0.7865175302583723
1776870295183705900,8.280705810546875,0.9758138482548296,9.718922616708278,-0.8721823549970984
1776870295193742800,8.290742919921875,0.8084504720598459,9.724397833248972,-0.9761643421929329
1776870295203779800,8.30077978515625,0.5997878113469108,9.730018595740198,-1.066478454042226
1776870295213816800,8.31081689453125,0.382818911918439,9.734955467620491,-1.120028184856847
1776870295223853800,8.320853759765624,0.1854580002089031,9.739338212749361,-1.1319396449901162
1776870295233891800,8.330891845703125,0.02868137031549122,9.74316332399547,-1.1137020505752413
1776870295243928800,8.3409287109375,-0.07880906795929185,9.747031689861416,-1.0768363280579447
1776870295253965800,8.3509658203125,-0.13507274304088204,9.7511642596215,-1.032931427618861
1776870295264002800,8.3610029296875,-0.14437417593938298,9.755483291864394,-0.9899950799509882
1776870295274039800,8.371039794921876,-0.11375639876779169,9.75963222823739,-0.952384018959105
1776870295284077000,8.3810771484375,-0.0499233296115417,9.762827809408307,-0.924713775614649
1776870295294114800,8.39111474609375,0.03486170291823801,9.76395827474296,-0.9133906367633491
1776870295304151800,8.40115185546875,0.13008115443182178,9.762905550819635,-0.9160453159905969
1776870295314188800,8.411188720703125,0.22197357584796845,9.760765031659602,-0.9211905699245632
1776870295324225800,8.421225830078125,0.2911650758979842,9.758972887545823,-0.920908757308498
1776870295334262800,8.4312626953125,0.32247429679930206,9.758627435109018,-0.9141269151486456
1776870295344300800,8.44130078125,0.30963797690607603,9.760070035132765,-0.9030726563666015
1776870295354338000,8.451338134765624,0.26199599056420847,9.76265303736329,-0.8901525306474417
1776870295364374800,8.461374755859374,0.2000923277011141,9.765323717877267,-0.876805850079283
1776870295374411800,8.471411865234375,0.14272796136862598,9.767394678932428,-0.8648791193116456
1776870295384448800,8.48144873046875,0.10322559760427102,9.768853061047196,-0.8539715024586766
1776870295394486800,8.49148681640625,0.08710515974014997,9.770202137568592,-0.8402072540655732
1776870295404523800,8.501523681640625,0.09248833234952762,9.771926477143168,-0.8193357309505342
1776870295414560800,8.511560791015626,0.11652230155086143,9.774009128636122,-0.7909362965486944
1776870295424597800,8.52159765625,0.15731104273078964,9.775819392928481,-0.7609029773347079
1776870295434635000,8.531635009765624,0.21244415201302616,9.776757550561427,-0.7350159641452133
1776870295444672800,8.5416728515625,0.2770831581241451,9.776543615549802,-0.7161162525597959
1776870295454709800,8.551709716796875,0.3465860074119642,9.775077634650469,-0.7057720417432487
1776870295464746800,8.561746826171875,0.41421997582167386,9.772464821803569,-0.7055132446765899
1776870295474784000,8.571783935546875,0.465642558414489,9.769452780506015,-0.7151031299944967
1776870295484820700,8.58182080078125,0.4830348611116409,9.767310507780312,-0.732601304218918
1776870295494858800,8.591858642578124,0.45939146213047205,9.766696759796142,-0.7556134195592253
1776870295504896000,8.60189599609375,0.4040217493470758,9.767134566691517,-0.7811679128587246
1776870295514933000,8.61193310546875,0.3338714142022654,9.76791314984858,-0.804231685321033
1776870295524969700,8.6219697265625,0.26251608718186614,9.768682380655408,-0.8211751482721418
1776870295535006700,8.6320068359375,0.19737758884970097,9.769344059434532,-0.8314755199469626
1776870295545044000,8.6420439453125,0.14149153317515736,9.769951962199807,-0.8357135959081351
1776870295555081700,8.652081787109376,0.09635573923424817,9.770549343571066,-0.8351322888888418
1776870295565118700,8.66211865234375,0.06297055230909027,9.771164845120905,-0.8311093169830739
1776870295575155700,8.67215576171875,0.04299837548683863,9.77193933662474,-0.8232505663067102
1776870295585193000,8.68219287109375,0.03562235084309941,9.773005504551529,-0.8108645474642515
1776870295595230000,8.69222998046875,0.03682553663738072,9.774412448740005,-0.7936638948816805
1776870295605267700,8.702267822265625,0.04284729941124096,9.776000010192394,-0.7735603604644536
1776870295615305000,8.712304931640626,0.05290618591380771,9.777527365890144,-0.7533548269774765
1776870295625342000,8.722342041015626,0.06726789787656162,9.778819743788242,-0.7352178433928638
1776870295635379000,8.73237890625,0.0859374676676467,9.779740365764498,-0.7209028292492031
1776870295645415700,8.742415771484374,0.10511718350453302,9.780248899808525,-0.7114066135641187
1776870295655454000,8.752453857421875,0.12021609630119055,9.780365804186463,-0.7073696131329983
1776870295665491000,8.762490966796875,0.12962052378328517,9.780136671605705,-0.7088719805199653
1776870295675528000,8.77252783203125,0.13532538436139002,9.779582544854282,-0.7154298777308314
1776870295685564700,8.782564697265625,0.13976070906086824,9.778743171420693,-0.7259631083134561
1776870295695602000,8.792601806640626,0.14417515536909922,9.777730194985866,-0.7386428494054824
1776870295705640000,8.802639892578124,0.14872407824457623,9.77660265226066,-0.752533281461522
1776870295715676700,8.8126767578125,0.152122314981278,9.775508427283167,-0.7659440402418375
1776870295725713700,8.822713623046875,0.15359715504050253,9.774536367380618,-0.7779807341899723
1776870295735751000,8.8327509765625,0.15380506217014045,9.773701670122145,-0.7883423345327377
1776870295745788000,8.842787841796875,0.15394602327710016,9.772937115490436,-0.7977459765635431
1776870295755825700,8.85282568359375,0.15586866190275175,9.772114108669758,-0.8073828428283333
1776870295765863000,8.86286279296875,0.15924391048951073,9.771264213842153,-0.8169585534904151
1776870295775900000,8.87289990234375,0.16219691507620737,9.770621239763498,-0.8240519458174705
1776870295785937000,8.88293701171875,0.161682481014356,9.770340669256449,-0.8274694261107594
1776870295795974000,8.892973876953125,0.15585054172417148,9.770480954509972,-0.8269172721207141
1776870295806012000,8.903011962890625,0.1456519864560105,9.77095032558739,-0.8232097228396683
1776870295816049000,8.913048828125,0.13262342279315925,9.771622525760531,-0.8174275592416524
1776870295826086000,8.9230859375,0.11783707394385709,9.772389418479799,-0.8104850466273724
1776870295836122600,8.93312255859375,0.10176987323747017,9.773141698151827,-0.8035701526723802
1776870295846160000,8.943159912109374,0.08522566613648086,9.773764798486232,-0.7978864810127765
1776870295856198000,8.953197998046875,0.06874911744422278,9.77417805546224,-0.7944312259923666
1776870295866235000,8.96323486328125,0.05251654270882718,9.774404849955438,-0.7928689451117068
1776870295876271600,8.973271728515625,0.03624341448404593,9.774480253279208,-0.7928421301700175
1776870295886308900,8.983308837890625,0.01883158053593943,9.774465640231966,-0.7936274353288114
1776870295896345900,8.993345947265626,-0.000792789065400575,9.774418293958902,-0.7944312259923666
1776870295906384000,9.0033837890625,-0.021818291029415557,9.774356919160486,-0.7949132373556494
1776870295916420900,9.0134208984375,-0.04322355341168586,9.774315418106317,-0.7945267953213304
1776870295926457900,9.023457763671875,-0.06359489931908902,9.774300220537185,-0.7933509564749897
1776870295936494800,9.033494873046875,-0.08229215170154347,9.774323016890882,-0.7913442197624594
1776870295946531800,9.04353173828125,-0.0996200017272029,9.774435829615593,-0.787966413892433
1776870295956569300,9.0535693359375,-0.11664456709050573,9.774598911222816,-0.7835898793086409
1776870295966606300,9.0636064453125,-0.1340403951853048,9.774728090560435,-0.7791765198457986
1776870295976643600,9.0736435546875,-0.15250118563049472,9.774805831971763,-0.7748032001323998
1776870295986680600,9.0836806640625,-0.1717601498492062,9.774863699638843,-0.7700251720756291
1776870295996717600,9.093717529296875,-0.19168292087204752,9.77490636973679,-0.7647682013954967
1776870296006755600,9.103755615234375,-0.21164027001792562,9.774904031649232,-0.7595050932355225
1776870296016792600,9.11379248046875,-0.23068114363970232,9.774849086591601,-0.7546550228558481
1776870296026829600,9.12382958984375,-0.2483496511960402,9.77469944898784,-0.7509769188649952
1776870296036866300,9.1338662109375,-0.2656301092828624,9.774390821430087,-0.7490943930540234
1776870296046903600,9.143903564453124,-0.28571636377172543,9.773700501078366,-0.7506948139879852
1776870296056941600,9.153941650390625,-0.3128085697662085,9.77244494805932,-0.7562217607159167
1776870296066978600,9.163978515625,-0.34590492981262505,9.770577400621772,-0.7658678332004696
1776870296077015300,9.174015380859375,-0.3804340991411358,9.768255095154046,-0.7789981676042079
1776870296087052500,9.184052490234375,-0.4128737123118713,9.76578549017012,-0.7933111359212547
1776870296097089500,9.194089599609375,-0.44568212226238096,9.763286074569821,-0.8062169408541172
1776870296107127600,9.20412744140625,-0.4855163026638329,9.760560448998213,-0.8161478946946561
1776870296117164500,9.21416455078125,-0.5369863411275669,9.757282450240849,-0.8230947912231087
1776870296127201500,9.224201416015624,-0.6000472660006955,9.753175599443912,-0.8282054853003472
1776870296137238500,9.234238525390625,-0.6725225369617343,9.748149880236387,-0.8316762301508337
1776870296147275500,9.244275634765625,-0.751149425887689,9.742302907773851,-0.8328863365929573
1776870296157313500,9.2543134765625,-0.8338974133316427,9.735750417390465,-0.8307736552879214
1776870296167350500,9.2643505859375,-0.9180885122559964,9.728680040612817,-0.8247958960525691
1776870296177387500,9.274387451171876,-1.003031233265251,9.721109313097596,-0.8150764660708606
1776870296187424500,9.284424560546874,-1.092161834418401,9.712650112310051,-0.8012609989471733
1776870296197461500,9.29446142578125,-1.193656973234564,9.702177818134427,-0.7831487844776361
1776870296207499500,9.30449951171875,-1.316080552984774,9.68809025607109,-0.7610651821590959
1776870296217536500,9.31453662109375,-1.458699510154128,9.669470895797014,-0.7374946292184292
1776870296227573500,9.324573486328125,-1.6169522359155117,9.64583049249053,-0.7168018236711621
1776870296237610500,9.334610595703126,-1.7845733862638473,9.617506899803876,-0.6994686307501048
1776870296247647500,9.3446474609375,-1.953982589072734,9.585541151222586,-0.685375734924525
1776870296257685500,9.354685546875,-2.119490254398435,9.551157235583663,-0.6734412592418492
1776870296267722500,9.364722412109375,-2.2761437282696364,9.516011103400588,-0.6596013883292675
1776870296277759500,9.374759521484375,-2.4234477745153007,9.481250755664705,-0.6349464011527598
1776870296287796500,9.38479638671875,-2.5652982315301895,9.446808972358703,-0.5894258456779643
1776870296297833500,9.39483349609375,-2.71026433634758,9.410566861632466,-0.5158352338861674
1776870296307871500,9.40487158203125,-2.863551110264659,9.37016178600788,-0.41295426673479374
1776870296317908500,9.414908447265624,-3.021147564074397,9.32519860868752,-0.28936586272260173
1776870296327945500,9.424945556640624,-3.169143245846033,9.279047098365426,-0.16188527357745916
1776870296337982500,9.434982421875,-3.292561535722017,9.23729937596023,-0.041737534371321085
1776870296348019700,9.445019775390625,-3.3965722375556826,9.199424111074208,0.06542294129673391
1776870296358057500,9.455057373046875,-3.497804999108612,9.160281602731347,0.15807475711228325
1776870296368094500,9.465094482421875,-3.6081501646608114,9.115463386839627,0.24488623113548383
1776870296378131500,9.47513134765625,-3.730083184415102,9.063025343593955,0.3441582688083872
1776870296388168400,9.48516845703125,-3.8607083369299766,9.002679303702712,0.4659135939082131
1776870296398205400,9.495205322265624,-3.9950823205843564,8.935528259971738,0.6050060209192335
1776870296408243500,9.505243408203125,-4.123808653740585,8.865763818871974,0.7502060075577348
1776870296418280700,9.51528076171875,-4.243398325239122,8.796165966510772,0.8896144782479852
1776870296428317400,9.5253173828125,-4.360754538597166,8.724684784621,1.016893096813932
1776870296438354400,9.5353544921875,-4.484345262430608,8.646762756028771,1.1377707622963935
1776870296448392400,9.545392333984376,-4.618392498348653,8.558578276619315,1.2615699412487447
1776870296458429700,9.5554296875,-4.763005844205618,8.458648998880387,1.3911971687674523
1776870296468466400,9.565466552734375,-4.912680857366323,8.350203237208724,1.5198863847836852
1776870296478503400,9.57550341796875,-5.060659588003158,8.237052658846974,1.646531089360267
1776870296488540400,9.58554052734375,-5.204508671489358,8.119125952124595,1.7785544182352722
1776870296498578400,9.595578369140625,-5.343613775318861,7.996483322796225,1.9163572072945534
1776870296508615400,9.605615478515626,-5.482195147535204,7.867750559899211,2.0529070736832917
1776870296518652400,9.61565234375,-5.629639040642976,7.7272893652856345,2.1832446414284408
1776870296528689400,9.625689453125,-5.787217374274134,7.572787954881787,2.308978076379001
1776870296538726700,9.6357265625,-5.951350536376237,7.404191383630037,2.435109278475493
1776870296548764400,9.645764404296875,-6.114443249514698,7.224168578478694,2.5681422227844592
1776870296558801400,9.655801513671875,-6.266821676415205,7.039433942374587,2.70992823626101
1776870296568838700,9.665838623046875,-6.406207935273647,6.851776696822047,2.8607778461590407
1776870296578875600,9.675875732421876,-6.53207244925797,6.66070116725862,3.022828064507246
1776870296588912400,9.685912353515626,-6.649528031337261,6.4646069327503435,3.187947607298195
1776870296598950400,9.695950439453124,-6.7655936203628775,6.264987446725368,3.338720644828677
1776870296608987600,9.705987548828125,-6.886654533457755,6.06052285875678,3.466185872007906
1776870296619024600,9.716024658203125,-7.011473337781429,5.848642441573738,3.578129704928398
1776870296629061400,9.726061279296875,-7.144469018819928,5.620535696732998,3.679202307483554
1776870296639098400,9.736098388671875,-7.2853306109279385,5.372603722959757,3.7721968175232408
1776870296649136600,9.74613671875,-7.430353998890519,5.108981428101658,3.8546754865065216
1776870296659173400,9.75617333984375,-7.580152930691837,4.831121641315519,3.920705124992132
1776870296669210400,9.76621044921875,-7.728596356230974,4.546383493192494,3.9710926654487846
1776870296679247400,9.776247314453125,-7.872492785990238,4.257226067322493,4.00877386906743
1776870296689284600,9.78628466796875,-8.004060480052232,3.9632182788118717,4.0494823115527625
1776870296699322400,9.796322265625,-8.10718007826507,3.6797625717148184,4.111370320188999
1776870296709359400,9.806359375,-8.193965212270617,3.4023595887854694,4.177710924319923
1776870296719396600,9.816396728515626,-8.274874732241035,3.1244305361554026,4.234945846453309
1776870296729433600,9.82643359375,-8.332290563899278,2.8620395366579294,4.307209410892427
1776870296739470600,9.836470703125,-8.365330663713813,2.61901842354089,4.3968592866793275
1776870296749508400,9.84650830078125,-8.373652501857281,2.4008228318616744,4.504262261299789
1776870296759545600,9.856545654296875,-8.385333002778887,2.180790964666009,4.593552656124532
1776870296769582600,9.86658251953125,-8.408720308107137,1.9487172158904373,4.654708258832991
1776870296779619300,9.876619384765625,-8.421572190895676,1.7186159362316131,4.721638353289664
1776870296789657600,9.88665771484375,-8.426178223386406,1.486530935409665,4.791672843502462
1776870296799694600,9.896694580078124,-8.424353930568694,1.26425976485461,4.8582194915995
1776870296809731600,9.906731689453125,-8.412919513362645,1.0689349072836338,4.924485276928544
1776870296819768300,9.916768310546875,-8.389092063051462,0.9084726887792348,4.99681869173348
1776870296829805600,9.9268056640625,-8.361993043723702,0.7818610096894204,5.063215702226758
1776870296839843600,9.936843505859375,-8.342938799163699,0.6856173616606742,5.108393399080634
1776870296849880600,9.946880615234376,-8.318628533771633,0.6168523068618029,5.156578461056948
1776870296859917300,9.956917236328126,-8.294906881922483,0.5747495239412411,5.199477691584825
1776870296869954600,9.96695458984375,-8.275825749355555,0.5627577285807579,5.23109915677309
1776870296879991600,9.976991455078124,-8.26082048792541,0.5822987337443978,5.252633527711033
1776870296890029300,9.987029296875,-8.24821351980865,0.6347501479282975,5.266351087418198
1776870296900066600,9.997066650390625,-8.23329242953062,0.7195234306547791,5.2787844525337215
1776870296910103600,10.007103515625,-8.215417165622114,0.8355039717454463,5.289540824347734
1776870296920140500,10.017140625,-8.19420135911405,0.979339318967238,5.297767969945073
1776870296930177500,10.027177490234376,-8.17193399772644,1.1431667761210351,5.299343840959668
1776870296940215600,10.037215576171874,-8.15149268272221,1.3220577276982366,5.289207646870612
1776870296950253000,10.047253173828125,-8.134544470530749,1.5156981393136084,5.2632905308038
1776870296960290300,10.057290283203125,-8.120342926698923,1.7247776737317442,5.220685314786434
1776870296970327000,10.0673271484375,-8.103464857134222,1.9490248205348848,5.167741075584292
1776870296980364000,10.077364013671875,-8.080866656357049,2.183587755777687,5.109004224455356
1776870296990402000,10.087402099609376,-8.054014305266737,2.421356939715892,5.04383412540853
1776870297000439000,10.09743896484375,-8.021713041120767,2.6632597163274885,4.972880766785145
1776870297010476000,10.10747607421875,-7.9818533244192595,2.9090576006814834,4.898753454300761
1776870297020513000,10.117512939453125,-7.935635178601741,3.16033596227318,4.817505496156215
1776870297030550000,10.127550048828125,-7.881671533223986,3.415394719186425,4.731248769938945
1776870297040588000,10.137588134765625,-7.819767157974839,3.675374858149886,4.638237601025402
1776870297050625000,10.147625,-7.74643245717287,3.934619668576121,4.547739583976567
1776870297060662000,10.157662109375,-7.661990086901188,4.189300239826738,4.462517461504042
1776870297070699000,10.167698974609374,-7.572085359570384,4.4376220897004,4.375090814724564
1776870297080737000,10.177737060546875,-7.476647548031806,4.6792929572522635,4.28652990321815
1776870297090774000,10.18777392578125,-7.374221777302027,4.918541273832321,4.195139905765652
1776870297100811000,10.19781103515625,-7.261279288733005,5.158985522198677,4.102326889772713
1776870297110848300,10.20784814453125,-7.135730416569113,5.397311463236808,4.015067123992741
1776870297120885200,10.21788525390625,-6.999806865385175,5.630239344623685,3.9336365027576683
1776870297130923000,10.227923095703124,-6.859672418507933,5.855464396548271,3.8508202723830935
1776870297140960000,10.2379599609375,-6.7184437466531985,6.070739132344722,3.7655052109301086
1776870297150997200,10.247997314453125,-6.5723793252050875,6.278171922469139,3.6822239933922885
1776870297161034000,10.258033935546875,-6.419243357935548,6.479539713466167,3.602675240381062
1776870297171071000,10.268071044921875,-6.260290228819847,6.672751670536399,3.5289573854804037
1776870297181109200,10.278109130859375,-6.100946639081835,6.854356776443123,3.4592826684907076
1776870297191146200,10.288146240234376,-5.9457408798009155,7.023433824688196,3.3896813089981674
1776870297201183000,10.298182861328126,-5.799271969205141,7.180844400537014,3.312748583704233
1776870297211220000,10.308219970703124,-5.658288212022185,7.331413732188939,3.2256074758678674
1776870297221258200,10.31825830078125,-5.5190849085152145,7.479279650101065,3.1257755210235714
1776870297231295200,10.328295166015625,-5.381974777895212,7.623253821271658,3.0150854875564574
1776870297241332000,10.33833203125,-5.247777904373407,7.760505990710854,2.8992706584215164
1776870297251369000,10.348368896484375,-5.118513226556778,7.888252665179968,2.7832857334166765
1776870297261406200,10.35840625,-4.995242820718884,8.005552764436603,2.670029941114783
1776870297271444000,10.36844384765625,-4.879877781178057,8.1115482103467,2.5612419418767094
1776870297281481000,10.37848095703125,-4.774906417618691,8.207680433890223,2.4504361730754374
1776870297291518000,10.38851806640625,-4.679307862560451,8.29776344039738,2.328428042258322
1776870297301555200,10.39855517578125,-4.590645536506176,8.383095452985167,2.195467286402732
1776870297311594000,10.408593994140626,-4.505186682668328,8.46440420140624,2.0560976864181457
1776870297321632300,10.41863232421875,-4.417036397789419,8.543950031808018,1.9133938274443147
1776870297331669000,10.4286689453125,-4.3208153269186615,8.624110194715858,1.7679563057228922
1776870297341706000,10.4387060546875,-4.220069472099841,8.702717282962798,1.6199086015030741
1776870297351743000,10.448742919921875,-4.120709518681466,8.775964890003204,1.4739629841290414
1776870297361780200,10.4587802734375,-4.024810519371926,8.842565314114093,1.3342878253266215
1776870297371818000,10.46881787109375,-3.928471375079453,8.904550937905906,1.2026899553220718
1776870297381855000,10.47885498046875,-3.826682440948486,8.964794686466455,1.0767264379426835
1776870297391892200,10.488892333984374,-3.718490069516003,9.024234132906795,0.9520586594622582
1776870297401929200,10.49892919921875,-3.6045951025277376,9.082571171063185,0.8271564146388322
1776870297411967000,10.508967041015625,-3.4856019356176255,9.139425861707329,0.7013217843361198
1776870297422004000,10.51900390625,-3.3612034025326367,9.19462693992555,0.5757857716538012
1776870297432041200,10.529041259765625,-3.2321921149551867,9.247653012192249,0.45191484263949094
1776870297442078200,10.539078125,-3.096074210242927,9.299192645293473,0.3312426000686362
1776870297452115000,10.549114990234376,-2.9529619165986776,9.349026643520594,0.21470625172611324
1776870297462153200,10.5591533203125,-2.8041923278450964,9.396617831256986,0.10236797612793742
1776870297472190200,10.569190185546875,-2.6515476512238383,9.441379933047294,-0.005130716806070995
1776870297482227200,10.579227294921875,-2.4958713518217204,9.48312590188682,-0.1064491901601199
1776870297492264000,10.589263916015625,-2.341754702951759,9.520810028114914,-0.2018248688484542
1776870297502301000,10.599301025390625,-2.189399218535423,9.554665535965562,-0.2920348262035288
1776870297512339200,10.609339111328126,-2.0367023733355105,9.585386837443709,-0.37762817487493155
1776870297522376000,10.6193759765625,-1.8803546044126151,9.613775896582007,-0.4582072938472032
1776870297532413000,10.629412841796874,-1.71698950407356,9.640462243455648,-0.5327393512075767
1776870297542450200,10.6394501953125,-1.5468569554261862,9.665243048968911,-0.6005897388469428
1776870297552488200,10.64948828125,-1.3720939704991877,9.687509825834631,-0.6632470513552426
1776870297562525000,10.65952490234375,-1.1960027326431124,9.706716630607843,-0.7208621319126337
1776870297572562000,10.66956201171875,-1.0220265872448682,9.722659465149045,-0.7718408431954682
1776870297582599200,10.67959912109375,-0.8547803346235304,9.735263510656356,-0.815096705141291
1776870297592636200,10.68963623046875,-0.6976463106937706,9.744726335528492,-0.8508712714210153
1776870297602674000,10.699673828125,-0.5516598863853142,9.75148340857327,-0.8801333870667963
1776870297612711200,10.709711181640625,-0.41783802018836136,9.756085933932662,-0.9025517012324183
1776870297622748200,10.719748046875,-0.29976516472725195,9.758965873283147,-0.9182161572236567
1776870297632785200,10.72978515625,-0.20166001540925352,9.760541159775853,-0.9282039558179676
1776870297642822100,10.739822265625,-0.1250975755992811,9.761191732639073,-0.9347993354950099
1776870297652860200,10.749860107421876,-0.0689007460756693,9.761166598197818,-0.9408850120842456
1776870297662897200,10.759897216796874,-0.02829247146260459,9.760558110910653,-0.9492596033282578
1776870297672934100,10.76993408203125,0.007407165275741135,9.759434075316786,-0.9611255438193679
1776870297682971000,10.779970947265625,0.05322555862786248,9.757762927234172,-0.9765409204203634
1776870297693009200,10.790009033203125,0.12559946070681324,9.75543477654755,-0.9930361281473189
1776870297703046100,10.800046142578125,0.2396784698919393,9.751783852824568,-1.0078017356026918
1776870297713083100,10.810083251953126,0.3953595368007198,9.745683782383798,-1.0177022212397306
1776870297723119900,10.820119873046876,0.562491259664297,9.737250885081291,-1.0197601036176085
1776870297733157000,10.8301572265625,0.6925417540963739,9.729833302301168,-1.0105150131493805
1776870297743195100,10.840195068359375,0.756329312743619,9.726684482881426,-0.9949558441635221
1776870297753232100,10.850232177734375,0.7629852635014802,9.727233348935842,-0.9844489901311695
1776870297763269000,10.86026904296875,0.7424881266567855,9.729116678464413,-0.9815192202895879
1776870297773306000,10.87030615234375,0.7207138094831258,9.73102221982479,-0.9788542388640343
1776870297783344000,10.88034423828125,0.7052052016407251,9.7334474011451,-0.9659454382564872
1776870297793380900,10.890380859375,0.6763409262061119,9.738639124569296,-0.9337252765227109
1776870297803418000,10.900418212890624,0.6051376114096492,9.7479564034909,-0.8840417196169496
1776870297813455000,10.910455078125,0.5010010181739926,9.758361477649212,-0.8329199466016143
1776870297823492000,10.9204921875,0.3900156915547326,9.76683236887455,-0.7920121821518987
1776870297833530000,10.930530029296875,0.29456419855067506,9.772401108917594,-0.7640561806686222
1776870297843567000,10.940567138671875,0.2222052474456839,9.775663325583935,-0.746616970089823
1776870297853604000,10.95060400390625,0.17254691631272434,9.777521520671248,-0.7353085173510014
1776870297863641000,10.96064111328125,0.1412749404155649,9.778776489168404,-0.7252176967736333
1776870297873678000,10.970677978515624,0.11995979258571751,9.779890587890147,-0.7139553481988609
1776870297883716000,10.980716064453125,0.10422966921343467,9.781017546093464,-0.7008497098449618
1776870297893753000,10.990753173828125,0.09145455058868975,9.782036367747187,-0.6883057239618152
1776870297903790000,11.0007900390625,0.0832669972162228,9.782463653248548,-0.6832483675070107
1776870297913827000,11.0108271484375,0.08380544234132394,9.781887899187206,-0.6914021556071936
1776870297923864000,11.020864013671876,0.092930861085793,9.780187525010108,-0.7139185963850468
1776870297933902000,11.030902099609374,0.10711456786682828,9.777596339473128,-0.7466638049062341
1776870297943939000,11.04093896484375,0.12092205261345952,9.77460943261683,-0.7828054509326815
1776870297953979100,11.050979248046875,0.1305039738206193,9.771665780380367,-0.8172571711108088
1776870297964016400,11.061016357421876,0.13523529492514208,9.76908686980307,-0.8467834175854921
1776870297974054400,11.071054443359374,0.1373049590723589,9.76696096369028,-0.870640313186869
1776870297984091400,11.08109130859375,0.13993926223185843,9.765089909121393,-0.8909718842063099
1776870297994128400,11.09112841796875,0.14582872212924994,9.763335174408555,-0.9090718237161636
1776870298004165400,11.101165283203125,0.15421238259570672,9.761882052990794,-0.9231741449572145
1776870298014202400,11.111202392578125,0.164935053069517,9.761035080772638,-0.9302436449520289
1776870298024240000,11.121240234375,0.17773069389248267,9.760896549084782,-0.9293489611346274
1776870298034277400,11.13127734375,0.1943590630124323,9.76155179812312,-0.9190732855096458
1776870298044314400,11.141314453125,0.21821424158075822,9.762885677075385,-0.8993524667996913
1776870298054351400,11.151351318359374,0.2527315926073119,9.764794141045213,-0.869087676917389
1776870298064388400,11.161388427734375,0.29773422515522685,9.766957456558941,-0.8296171787291765
1776870298074426400,11.17142626953125,0.3463268084865063,9.768756030413508,-0.7885887835744768
1776870298084463400,11.18146337890625,0.3901562690692022,9.769762577107548,-0.7549339128624647
1776870298094500400,11.191500244140625,0.41916766135692596,9.770098677194119,-0.734758701448515
1776870298104537600,11.20153759765625,0.423400001697056,9.770324887165426,-0.729287722691521
1776870298114574300,11.21157421875,0.40194896166101096,9.770757433363794,-0.7356130532555282
1776870298124612400,11.2216123046875,0.3646154755014926,9.771296362546085,-0.7477826528683305
1776870298134649300,11.2316494140625,0.32196189029775557,9.771516727298497,-0.7643005838837474
1776870298144686300,11.241686279296875,0.2806055418303236,9.771612004366517,-0.7792633213464171
1776870298154723300,11.251723388671875,0.24235066650956869,9.771940505668521,-0.787929296752438
1776870298164761300,11.26176123046875,0.20702037339862434,9.772364868560432,-0.7927337744247168
1776870298174798600,11.271798583984374,0.17558124250732363,9.772578803572058,-0.7976567639101296
1776870298184835300,11.28183544921875,0.15035210870467125,9.77235317812264,-0.8055353883307427
1776870298194872300,11.291872314453125,0.13389280340815893,9.771619018629194,-0.8172691538095473
1776870298204909300,11.301909423828125,0.12636247183540836,9.77050550442934,-0.8316467117954045
1776870298214947600,11.311947509765625,0.1256399571139831,9.769400758057833,-0.8446342036623508
1776870298224984300,11.321984375,0.11354301174543797,9.768802207642793,-0.8532271138321608
1776870298235021300,11.332021240234376,0.08326653142534196,9.76910615902543,-0.8532293788544834
1776870298245058300,11.342058349609376,0.0771651184108574,9.769942609849572,-0.8441893825042992
1776870298255095600,11.352095458984374,0.08870892340866848,9.770864985391498,-0.8323069292698055
1776870298265133300,11.36213330078125,0.105333438337408,9.771732415875793,-0.820085964795947
1776870298275170300,11.37217041015625,0.12610884413421153,9.772599261838197,-0.8067022401530295
1776870298285207300,11.382207275390625,0.15062236788026057,9.773321146371961,-0.7936527159005403
1776870298295244500,11.39224462890625,0.17890269681392237,9.773675951159,-0.7833587739665061
1776870298305281300,11.40228125,0.2106411942442879,9.773591780006885,-0.7764921030674129
1776870298315319300,11.4123193359375,0.24528398001510648,9.773129423192144,-0.7721081158295273
1776870298325356500,11.4223564453125,0.28107023673262443,9.77237012925744,-0.7695081624642014
1776870298335393500,11.4323935546875,0.31296671946998683,9.771504452338814,-0.7682105238690972
1776870298345430300,11.44243017578125,0.3336956557765603,9.770761525017022,-0.768946583058685
1776870298355468300,11.45246826171875,0.3391633100653067,9.770361712044476,-0.7716101762447506
1776870298365505500,11.462505615234376,0.33240393546558916,9.770297999158501,-0.77535988416709
1776870298375542500,11.47254248046875,0.3186985776528716,9.770423086842895,-0.779519414999336
1776870298385579300,11.482579345703124,0.3020231179881841,9.770648127770423,-0.7833184419561177
1776870298395616300,11.4926162109375,0.283548408615496,9.770857971128821,-0.7876021106246859
1776870298405654500,11.502654541015625,0.2637808829532936,9.771055539527534,-0.792017515914142
1776870298415691300,11.512691162109375,0.24360437463140114,9.771263044798374,-0.7959124044608324
1776870298425728300,11.522728271484375,0.22477776481481268,9.771526079648732,-0.7982281340572983
1776870298435765200,11.53276513671875,0.20831832252098245,9.771897251048683,-0.798127523227036
1776870298445802500,11.542802490234376,0.19457416706783695,9.772357269775867,-0.7959802820652723
1776870298455840300,11.55284033203125,0.18378836822994052,9.77287457164824,-0.7921684686921536
1776870298465877200,11.562877197265625,0.17539302645884453,9.773446818578243,-0.7869959614250809
1776870298475914500,11.57291455078125,0.1686219066224061,9.774072841522097,-0.7806772797975688
1776870298485951500,11.582951416015625,0.16258854474229736,9.774704125162959,-0.7740119036242366
1776870298495988500,11.592988525390625,0.1572411010334268,9.775313781493901,-0.7673976000510155
1776870298506026200,11.603026123046876,0.15323734528478233,9.775851541632413,-0.7613286554008721
1776870298516063500,11.6130634765625,0.15069330509146675,9.776291102093458,-0.7561655735492706
1776870298526100500,11.6231005859375,0.14890927121890707,9.776658181840181,-0.7517691652212292
1776870298536137200,11.63313720703125,0.1466666799238883,9.777005972364543,-0.7476807999290526
1776870298546174200,11.64317431640625,0.14309392687049693,9.777331551057099,-0.7440940274834632
1776870298556212500,11.65321240234375,0.13866978115215897,9.777624981045722,-0.7410784059893339
1776870298566249500,11.66324951171875,0.1348411171089392,9.777875740936398,-0.738493723258376
1776870298576286200,11.6732861328125,0.1324501485854853,9.7781703399688,-0.735008584556356
1776870298586323200,11.6833232421875,0.13166647826135158,9.778612823039293,-0.7292420569188892
1776870298596360400,11.6933603515625,0.1325419276553206,9.779208450844884,-0.7210338352177291
1776870298606398500,11.7033984375,0.1341030942911282,9.779873636755347,-0.7116552545629441
1776870298616435200,11.713435302734375,0.13497537448047658,9.780550513103604,-0.7021349273499101
1776870298626472400,11.723472412109375,0.13340608847029506,9.781261876243352,-0.6924560485742985
1776870298636509400,11.733509521484375,0.12794045260869896,9.781996620258688,-0.6830513836301862
1776870298646546400,11.74354638671875,0.1175940224356018,9.782731364274024,-0.674350629171729
1776870298656584200,11.753584228515624,0.10261553941452875,9.783440389326215,-0.6664731007296592
1776870298666621400,11.763621337890624,0.08301133282156661,9.784112589499355,-0.659278220789507
1776870298676658400,11.773658447265625,0.05780310480962507,9.78478888132572,-0.6518978282146155
1776870298686695400,11.7836953125,0.026697808982571587,9.785511350381373,-0.6429878149196505
1776870298696732200,11.793732177734375,-0.008687976604452705,9.786268306228518,-0.631880364645645
1776870298706770400,11.8037705078125,-0.04651782745041418,9.787034614425897,-0.6182031369488686
1776870298716807400,11.813807373046876,-0.08640998055022209,9.787729610952734,-0.6027073885880411
1776870298726844400,11.823844482421874,-0.1277990257108584,9.788262110394239,-0.5865121136557311
1776870298736881200,11.833881103515624,-0.17012127833468838,9.788535666638612,-0.5709589360192417
1776870298746919400,11.84391943359375,-0.21259437413867563,9.788457925227284,-0.5579201523564755
1776870298756956400,11.853956298828125,-0.2560249898632057,9.787984462496638,-0.5478827059341594
1776870298766993400,11.863993408203125,-0.3014872210131958,9.787119370099902,-0.5401444032996893
1776870298777030400,11.874030517578126,-0.35075752094294876,9.785881352737546,-0.5328256047189235
1776870298787067400,11.8840673828125,-0.4069832295011729,9.78411843471825,-0.5251555450150743
1776870298797105400,11.89410546875,-0.4743490119613707,9.781548876491188,-0.5163964479655027
1776870298807142100,11.90414208984375,-0.5559003369666635,9.777792154306173,-0.506094688051194
1776870298817179400,11.914179443359375,-0.6511595770679414,9.772560683393477,-0.4933671622946858
1776870298827216400,11.92421630859375,-0.7567640508990734,9.765763862860203,-0.47703123678267
1776870298837253400,11.93425341796875,-0.8699071766067296,9.757323951295017,-0.45638939423765984
1776870298847291400,11.94429150390625,-0.9908031083982437,9.746953363928199,-0.43080267916899173
1776870298857328400,11.954328369140624,-1.117927340120077,9.734478497758507,-0.4006645478736609
1776870298867365400,11.964365478515624,-1.2474440930016337,9.720029116645454,-0.367826948361285
1776870298877402400,11.97440234375,-1.377341515763849,9.703641460946201,-0.33564821461644023
1776870298887439600,11.984439697265625,-1.5074623720183968,9.685248895165323,-0.3064537939120084
1776870298897477400,11.994477294921875,-1.6381621972046791,9.66474211370945,-0.28209567079022524
1776870298907512300,12.00451220703125,-1.7684885129034518,9.642328621849417,-0.2613850373253226
1776870298917549300,12.01454931640625,-1.8980919211551546,9.618167994061112,-0.2418089791146107
1776870298927586300,12.02458642578125,-2.0297977085135877,9.591754618909954,-0.22032140646046025
1776870298937623300,12.034623291015626,-2.1686269180111584,9.561911269310116,-0.1931158397519961
1776870298947661300,12.044661376953124,-2.3145587991207837,9.528305936828255,-0.15675008437978102
1776870298957694000,12.05469384765625,-2.4622277331560847,9.491866257703304,-0.11088540990874171
1776870298967731000,12.06473095703125,-2.605154148839414,9.454126017373799,-0.05538493318541441
1776870298977768200,12.074768310546874,-2.7412907582521435,9.415709485217928,0.011978266875341068
1776870298987805200,12.08480517578125,-2.873071218281984,9.375916404011845,0.08967108297171071
1776870298997843000,12.094843017578125,-3.0042966747775672,9.333514601612091,0.1734320468504913
1776870299007880000,12.1048798828125,-3.13697759077847,9.287768749481438,0.2590726687297225
1776870299017917200,12.114917236328125,-3.26705212367326,9.240016233703493,0.34474779566675423
1776870299027954200,12.1249541015625,-3.3857235112830995,9.19371625482142,0.4276061116173863
1776870299037991200,12.1349912109375,-3.4934015034526587,9.149229462841152,0.5080542976863682
1776870299048029200,12.145029296875,-3.600604571586847,9.102709703728555,0.5888181255757808
1776870299058066200,12.155066162109375,-3.71640624897927,9.050217884469031,0.6724955758895724
1776870299068103200,12.165103271484375,-3.8411037650108337,8.990909370931982,0.7614804849617183
1776870299078140000,12.175139892578125,-3.9696065185442566,8.92578661815822,0.8619451847516
1776870299088177000,12.185177001953125,-4.097655098569393,8.855777846908568,0.9771411513358353
1776870299098215200,12.195215087890626,-4.2154415200382465,8.785264633268117,1.1043376445762811
1776870299108252200,12.205252197265626,-4.316448656141758,8.717246743574737,1.2442908896677196
1776870299118289000,12.215288818359374,-4.405750156882405,8.648654853385686,1.4001818547338247
1776870299128326100,12.225326171875,-4.491025470846891,8.574767779397964,1.5730308227330445
1776870299138364200,12.2353642578125,-4.574468893209099,8.494555594041943,1.7570253079943359
1776870299148401000,12.24540087890625,-4.652890688017011,8.410779578724503,1.9441637903697788
1776870299158438000,12.25543798828125,-4.726221297165751,8.327018176454304,2.1199002965040505
1776870299168475100,12.26547509765625,-4.7999479198947546,8.243950017145275,2.273360673422366
1776870299178512100,12.27551220703125,-4.883176822723448,8.156989526572824,2.405926584741473
1776870299188549000,12.285549072265624,-4.983995450517535,8.058814983546734,2.526988082358241
1776870299198587100,12.295587158203125,-5.100981076997519,7.946647571003437,2.645973358222842
1776870299208624000,12.3056240234375,-5.224562448480725,7.82439014160037,2.766450918471813
1776870299218661000,12.3156611328125,-5.349559531980753,7.694202503719925,2.8899560098484156
1776870299228698000,12.325697998046875,-5.4762727717489,7.55521371974647,3.0165494226291774
1776870299238735000,12.335735107421876,-5.606260503143072,7.407874456056952,3.1406413739830255
1776870299248773000,12.345773193359374,-5.742407926210761,7.252122753331065,3.2560496681436892
1776870299258810000,12.35581005859375,-5.888605034127831,7.085095623353123,3.360973977690935
1776870299268847000,12.36584716796875,-6.0424728228032585,6.905662600788474,3.459875081425905
1776870299278884000,12.375884033203125,-6.196344118610024,6.714266168707609,3.5629105084866284
1776870299288921000,12.385921142578125,-6.343219856441021,6.512872658747434,3.6764708366930483
1776870299298959000,12.395958984375,-6.48018794824183,6.305726284348965,3.7967575505450366
1776870299308995800,12.405995849609376,-6.608267215666174,6.095690033727884,3.91710914632678
1776870299319033000,12.416033203125,-6.731759739822149,5.882743448618054,4.030771181342005
1776870299329070000,12.426070068359374,-6.861155935063958,5.6603077351510525,4.129871899302303
1776870299339108000,12.436108154296875,-7.002672776210308,5.424760611176491,4.207722323963046
1776870299349145000,12.44614501953125,-7.153946456739306,5.180042338752746,4.261289663499594
1776870299359182000,12.45618212890625,-7.311808283486962,4.927487965875864,4.29275009290725
1776870299369219000,12.466218994140625,-7.469652574577927,4.667094862197339,4.311949006634951
1776870299379256000,12.476256103515626,-7.627902523860335,4.392931007319689,4.3229210670262574
1776870299389293300,12.486293212890626,-7.782816606718301,4.105561926171183,4.329261668224633
1776870299399331000,12.4963310546875,-7.915646283540129,3.821455353949964,4.34849536100477
1776870299409368000,12.5063681640625,-8.020407219219207,3.5501828365996477,4.386303113612533
1776870299419405000,12.516405029296875,-8.100497824022174,3.295279270248115,4.4377305185109375
1776870299429442000,12.526442138671875,-8.168459599614144,3.0426927486672994,4.493180310793221
1776870299439479000,12.53647900390625,-8.223625606518983,2.795602778676152,4.552688730816543
1776870299449517000,12.54651708984375,-8.266091121804713,2.5562492481559516,4.616028107304871
1776870299459554300,12.55655419921875,-8.289565520894527,2.3362897155441344,4.689907582508027
1776870299469591000,12.566591064453124,-8.316026242318749,2.119857918667048,4.745555235449969
1776870299479628000,12.5766279296875,-8.349166295376419,1.9061610997118055,4.77790296908617
1776870299489666000,12.586666015625,-8.372080137974024,1.7103956587664781,4.811777473898232
1776870299499703300,12.596703369140625,-8.387330898597837,1.527112682775408,4.846750295341015
1776870299509740000,12.606739990234376,-8.390846213242412,1.3622272410012781,4.889624391427636
1776870299519777000,12.616777099609376,-8.383087854200602,1.2282355346627534,4.938183547413349
1776870299529814000,12.62681396484375,-8.36889916985035,1.13121666447781,4.985204826307297
1776870299539852000,12.63685205078125,-8.349184415555,1.064464191610366,5.032735223767161
1776870299549889000,12.646888916015625,-8.333937746584414,1.0214140083044767,5.066811680892109
1776870299559926000,12.656926025390625,-8.321223810961841,1.000870475034788,5.09174621566236
1776870299569963000,12.666962890625,-8.306240761363506,1.0058042781751602,5.1151837898731225
1776870299580000300,12.677000244140626,-8.289769519034028,1.0387904558453709,5.1352720536559815
1776870299590038000,12.6870380859375,-8.274905711901187,1.100595608503744,5.146359264859557
1776870299600075000,12.697074951171874,-8.265770219287276,1.1919018731955437,5.140699923923611
1776870299610112300,12.7071123046875,-8.257863976207375,1.3114979013696313,5.124260245776176
1776870299620149200,12.717149169921875,-8.245548684513569,1.4557115803845226,5.105116569367051
1776870299630186000,12.72718603515625,-8.229109590888022,1.6191057606875896,5.08238509759903
1776870299640224000,12.73722412109375,-8.212731287539004,1.7972114801712333,5.048907190889119
1776870299650261200,12.74726123046875,-8.19642195777297,1.9847746176995336,5.004969849485159
1776870299660298000,12.757298095703124,-8.17963507362306,2.1783932558745143,4.951621121135354
1776870299670335000,12.7673349609375,-8.162929438015817,2.3794047807797787,4.8862467316880815
1776870299680372000,12.7773720703125,-8.142904302597046,2.591410577908158,4.811245558978617
1776870299690410200,12.78741015625,-8.113879868164657,2.8140882834374903,4.734579960188269
1776870299700447000,12.797447021484375,-8.074277341094612,3.0431653346151113,4.65999730515182
1776870299710484000,12.80748388671875,-8.023089005649089,3.27465236954391,4.590977837200462
1776870299720521000,12.81752099609375,-7.961870274576544,3.5047444429829713,4.527226080518961
1776870299730558200,12.82755810546875,-7.893218763154745,3.732452836155891,4.4650060634493824
1776870299740596000,12.837595947265624,-7.82125768879354,3.9585391810849306,4.396394299516081
1776870299750633000,12.847633056640625,-7.744066312563419,4.1882200433745975,4.3195641578137876
1776870299760670200,12.857670166015625,-7.65467421092987,4.426721340979635,4.2403401067122815
1776870299770707200,12.867707275390625,-7.55137165736556,4.6684050680130715,4.165712735751271
1776870299780744200,12.877744140625,-7.43846482463181,4.904259065979719,4.097300878304243
1776870299790782000,12.887781982421876,-7.32191934313476,5.130405324402451,4.029742130555213
1776870299800819200,12.897819091796874,-7.200045944613218,5.349492311963439,3.9639182437747715
1776870299810856200,12.907856201171874,-7.068450778022408,5.569126412013173,3.897718509419262
1776870299820893000,12.917892822265625,-6.925612332883476,5.792376364472508,3.8281396540194748
1776870299830930000,12.927929931640625,-6.777578657189011,6.012213293617964,3.7534117452934384
