time,seconds_elapsed,z,y,x
1776870286984595200,0.08159521484375,0.3028424382209778,0.35526755452156067,-0.6967231631278992
1776870286994632200,0.091632080078125,0.30700868368148804,0.3893115520477295,-0.6911448836326599
1776870287004669200,0.101669189453125,0.283627986907959,0.4631042778491974,-0.6178538799285889
1776870287014706200,0.1117060546875,0.27269837260246277,0.4884040355682373,-0.5183795094490051
1776870287024743400,0.121743408203125,0.27076438069343567,0.5607994198799133,-0.40851452946662903
1776870287034780200,0.1317802734375,0.30638816952705383,0.7506833076477051,-0.271450400352478
1776870287044818200,0.141818115234375,0.4893995225429535,1.0997763872146606,-0.11785073578357697
1776870287054855200,0.151855224609375,0.5741423964500427,1.3673417568206787,0.08746220171451569
1776870287064892400,0.161892333984375,0.5604811310768127,1.6380467414855957,0.22561128437519073
1776870287074929200,0.17192919921875,0.5125588774681091,1.9155755043029785,0.3153403699398041
1776870287084966100,0.181966064453125,0.5100659132003784,2.200758695602417,0.36718839406967163
1776870287095003100,0.192003173828125,0.5979015231132507,2.586477041244507,0.4465751051902771
1776870287105040400,0.202040283203125,0.7519025206565857,2.9243483543395996,0.5175390243530273
1776870287115078100,0.212078125,0.9027953743934631,3.052077054977417,0.5442073941230774
1776870287125115100,0.222115234375,0.9879730939865112,2.986069440841675,0.49619752168655396
1776870287135152000,0.232152099609375,1.1372920274734497,2.7193899154663086,0.24268588423728943
1776870287145189400,0.242189453125,1.2365957498550415,2.669743537902832,-0.09894415736198425
1776870287155226000,0.25222607421875,1.393264651298523,2.658069133758545,-0.44333136081695557
1776870287165263000,0.26226318359375,1.3851537704467773,2.6570558547973633,-0.7602443099021912
1776870287175300000,0.272300048828125,1.306056022644043,3.220210552215576,-0.9483098387718201
1776870287185337300,0.28233740234375,1.2185285091400146,3.940671682357788,-1.073174238204956
1776870287195375000,0.292375,1.2641935348510742,4.136573314666748,-1.3770664930343628
1776870287205412000,0.302412109375,0.820246696472168,4.2255539894104,-1.7656183242797852
1776870287215449000,0.312448974609375,-0.05296947434544563,3.9490976333618164,-1.9015079736709595
1776870287225486300,0.322486328125,-0.6280903220176697,3.930912494659424,-1.9014863967895508
1776870287235523300,0.3325234375,-1.0984476804733276,3.561485528945923,-1.8245567083358765
1776870287245560000,0.34256005859375,-1.3204045295715332,3.2025139331817627,-1.759960651397705
1776870287255597000,0.35259716796875,-1.234391689300537,2.9073004722595215,-1.7056843042373657
1776870287265635300,0.36263525390625,-0.8683034181594849,2.648118019104004,-1.6628202199935913
1776870287275672300,0.37267236328125,-0.42971301078796387,2.7071123123168945,-1.6113953590393066
1776870287285709000,0.382708984375,-0.1636456549167633,3.061337947845459,-1.5043076276779175
1776870287295746000,0.39274609375,-0.015365374274551868,3.4975156784057617,-1.1774407625198364
1776870287305783300,0.402783203125,0.07011410593986511,2.756638526916504,-0.3068869709968567
1776870287315820300,0.4128203125,-0.5312625765800476,3.3327643871307373,0.23841629922389984
1776870287325857300,0.422857177734375,-1.1824756860733032,4.183672904968262,0.6717448234558105
1776870287335895300,0.432895263671875,-1.4224073886871338,3.9039838314056396,1.0489413738250732
1776870287345932300,0.442932373046875,-1.3324865102767944,2.779680013656616,1.2766270637512207
1776870287355969300,0.45296923828125,-1.2435204982757568,1.1311012506484985,0.8401317000389099
1776870287366006000,0.463006103515625,-1.3612226247787476,0.9860697388648987,0.6607049703598022
1776870287376043300,0.473043212890625,-1.0942758321762085,0.9259459376335144,0.35804176330566406
1776870287386080300,0.483080322265625,-0.5837262868881226,0.7105481624603271,-0.09110727161169052
1776870287396117200,0.4931171875,-0.1286812722682953,-0.17925576865673065,-0.5406456589698792
1776870287406155000,0.503155029296875,-0.020613133907318115,-0.5723985433578491,-0.6865940690040588
1776870287416192300,0.513192138671875,-0.1072247251868248,-0.2406805157661438,-0.4773745536804199
1776870287426229200,0.523229248046875,-0.1346837729215622,-0.30161765217781067,-0.17271532118320465
1776870287436266200,0.533266357421875,-0.18806178867816925,-0.006992395501583815,0.1518595665693283
1776870287446303200,0.54330322265625,-0.346615731716156,0.19964919984340668,0.5362639427185059
1776870287456340200,0.55334033203125,-0.5438928604125977,0.36473163962364197,0.9260881543159485
1776870287466377200,0.563377197265625,-0.6004623770713806,0.46313461661338806,1.0463647842407227
1776870287476415200,0.573415283203125,-0.5607107281684875,0.45134642720222473,0.9299641251564026
1776870287486452200,0.5834521484375,-0.5087801218032837,0.42060768604278564,0.6894044876098633
1776870287496489200,0.5934892578125,-0.3581799864768982,0.34016716480255127,0.4416445195674896
1776870287506526200,0.603526123046875,-0.11797377467155457,0.09713134169578552,0.22668799757957458
1776870287516563200,0.613563232421875,0.1107344999909401,-0.47230255603790283,-0.2212144136428833
1776870287526600200,0.62360009765625,0.1819666028022766,-0.9747534394264221,-0.3018448054790497
1776870287536637200,0.63363720703125,0.034262899309396744,-1.2357946634292603,-0.34269022941589355
1776870287546675200,0.64367529296875,-0.18160787224769592,-1.064113974571228,-0.567626416683197
1776870287556712200,0.653712158203125,-0.4514148533344269,-0.6920745968818665,-0.8671281933784485
1776870287566749200,0.663749267578125,-0.7424765229225159,-0.12078021466732025,-1.0893577337265015
1776870287576786200,0.6737861328125,-1.043432354927063,0.5365619659423828,-1.257440209388733
1776870287586823200,0.6838232421875,-1.1905856132507324,1.1992994546890259,-1.2804150581359863
1776870287596860200,0.693860107421875,-1.5857713222503662,1.7796459197998047,-0.9017013311386108
1776870287606897200,0.703897216796875,-1.927483320236206,2.1549618244171143,-0.5163102149963379
1776870287616935200,0.71393505859375,-2.251847982406616,1.9982991218566895,-0.21607983112335205
1776870287626972200,0.72397216796875,-2.6677560806274414,1.7881499528884888,-0.13497619330883026
1776870287637009200,0.734009033203125,-3.136206865310669,1.4608112573623657,-0.31112298369407654
1776870287647046100,0.744046142578125,-3.5344009399414062,1.122045636177063,-0.6972414255142212
1776870287657083400,0.75408349609375,-3.913607358932495,0.7441484332084656,-1.1445592641830444
1776870287667120000,0.7641201171875,-4.207923412322998,0.385732501745224,-1.5817887783050537
1776870287677158100,0.774158203125,-4.327110290527344,0.010967696085572243,-2.0094282627105713
1776870287687195400,0.7841953125,-4.384622097015381,-0.4438285827636719,-2.486905336380005
1776870287697232100,0.794232177734375,-4.338942527770996,-0.9898990988731384,-2.963651418685913
1776870287707269000,0.80426904296875,-4.18986177444458,-1.3401691913604736,-3.213381767272949
1776870287717306000,0.81430615234375,-4.1161065101623535,-1.5708314180374146,-3.1259074211120605
1776870287727343400,0.82434326171875,-4.117638111114502,-1.6889681816101074,-2.8892834186553955
1776870287737380400,0.83438037109375,-4.196878433227539,-1.5993791818618774,-2.8289740085601807
1776870287747418000,0.844418212890625,-4.2924909591674805,-1.3806072473526,-3.039843797683716
1776870287757455000,0.854455078125,-4.423026084899902,-1.0315581560134888,-3.4907236099243164
1776870287767492400,0.864492431640625,-4.498978614807129,-0.5411639213562012,-4.001460075378418
1776870287777529300,0.874529296875,-4.3984375,0.004750546533614397,-4.341230392456055
1776870287787566000,0.884566162109375,-4.1123857498168945,0.446738600730896,-4.4804158210754395
1776870287797603000,0.89460302734375,-3.6799521446228027,0.6681548953056335,-4.531342029571533
1776870287807640300,0.904640380859375,-3.1683549880981445,0.6929587721824646,-4.614577293395996
1776870287817678300,0.91467822265625,-2.6085524559020996,0.635479211807251,-4.71238374710083
1776870287827715000,0.924715087890625,-2.14070463180542,0.7369741797447205,-4.606818675994873
1776870287837752000,0.934751953125,-1.8532363176345825,0.922020435333252,-4.298307418823242
1776870287847789300,0.944789306640625,-1.6371819972991943,1.1218408346176147,-3.919692277908325
1776870287857826300,0.954826416015625,-1.4217543601989746,1.255568027496338,-3.638245105743408
1776870287867863300,0.96486328125,-1.0907388925552368,1.3037382364273071,-3.5620884895324707
1776870287877901300,0.9749013671875,-0.5854749083518982,1.3222246170043945,-3.6781723499298096
1776870287887938300,0.984938232421875,0.001996838254854083,1.2725545167922974,-3.8349461555480957
1776870287897975300,0.994975341796875,0.64144366979599,1.2390016317367554,-3.8817503452301025
1776870287908012000,1.005011962890625,1.1510398387908936,1.3327778577804565,-3.720982074737549
1776870287918049000,1.015049072265625,1.35396146774292,1.6444233655929565,-3.367888927459717
1776870287928086300,1.025086181640625,1.3295866250991821,1.987172245979309,-2.8827033042907715
1776870287938124300,1.035124267578125,1.3380104303359985,2.3814804553985596,-2.3485488891601562
1776870287948161000,1.0451611328125,1.3856693506240845,2.713042974472046,-1.7713419198989868
1776870287958198300,1.0551982421875,1.433436632156372,2.868216037750244,-1.1203639507293701
1776870287968236300,1.065236328125,1.4841841459274292,2.892199993133545,-0.4650385081768036
1776870287978273300,1.075273193359375,1.4942693710327148,2.9108426570892334,0.08136703073978424
1776870287988310000,1.08531005859375,1.425906777381897,2.913435935974121,0.48511290550231934
1776870287998347300,1.09534716796875,1.33840012550354,2.8276193141937256,0.7805203199386597
1776870288008384300,1.10538427734375,1.2953526973724365,2.6064834594726562,1.0268174409866333
1776870288018421200,1.115421142578125,1.3296513557434082,2.301839828491211,1.257644772529602
1776870288028458200,1.125458251953125,1.3877562284469604,1.9362925291061401,1.4564579725265503
1776870288038496300,1.135496337890625,1.4420417547225952,1.5287686586380005,1.6050491333007812
1776870288048533200,1.145533203125,1.4478983879089355,1.1808738708496094,1.7266708612442017
1776870288058570200,1.1555703125,1.358078956604004,0.9664528965950012,1.8180385828018188
1776870288068607000,1.16560693359375,1.228739619255066,0.7576791644096375,1.9095897674560547
1776870288078644200,1.175644287109375,1.1598594188690186,0.5750790238380432,2.005833625793457
1776870288088681200,1.18568115234375,1.245384693145752,0.3256065845489502,2.088498592376709
1776870288098719200,1.19571923828125,1.4495130777359009,-0.05031296983361244,2.0288796424865723
1776870288108756200,1.205756103515625,1.7072079181671143,-0.2463410645723343,1.7871451377868652
1776870288118793200,1.215793212890625,1.9526147842407227,-0.4810337424278259,1.513757586479187
1776870288128830200,1.225830322265625,2.067708969116211,-0.7626403570175171,1.2878557443618774
1776870288138867200,1.2358671875,2.15425705909729,-0.8574369549751282,1.148575782775879
1776870288148904400,1.245904541015625,2.2198739051818848,-0.8418323993682861,1.0691555738449097
1776870288158942200,1.255942138671875,2.2088191509246826,-0.8305874466896057,1.1136505603790283
1776870288168979200,1.265979248046875,2.049938678741455,-0.6621009707450867,1.152373194694519
1776870288179016200,1.27601611328125,1.8013123273849487,-0.48927274346351624,1.1169265508651733
1776870288189053200,1.28605322265625,1.5544441938400269,-0.2897053062915802,0.9611840844154358
1776870288199090200,1.296090087890625,1.2396639585494995,-0.19845131039619446,0.8564688563346863
1776870288209127200,1.306127197265625,1.0473989248275757,-0.09982459992170334,0.8739914298057556
1776870288219164200,1.3161640625,0.9308805465698242,0.10046322643756866,0.8798138499259949
1776870288229202200,1.3262021484375,0.8846006393432617,0.27694132924079895,0.7522854804992676
1776870288239239200,1.3362392578125,0.8029177784919739,0.3181358873844147,0.6164831519126892
1776870288249276200,1.346276123046875,0.7528010606765747,0.2701132297515869,0.4632560610771179
1776870288259313200,1.356313232421875,0.7663432359695435,0.2636910378932953,0.29372721910476685
1776870288269350400,1.366350341796875,0.7537499666213989,0.18379859626293182,0.1475074291229248
1776870288279387100,1.37638720703125,0.687106728553772,0.1375701129436493,0.01792334020137787
1776870288289425200,1.386425048828125,0.6369799375534058,0.07019932568073273,-0.08884438127279282
1776870288299462400,1.39646240234375,0.6401315331459045,-0.03236725926399231,-0.15267236530780792
1776870288309499100,1.4064990234375,0.6252186298370361,-0.14205195009708405,-0.16595540940761566
1776870288319536000,1.4165361328125,0.6029068827629089,-0.256128191947937,-0.15339674055576324
1776870288329573000,1.426572998046875,0.5732382535934448,-0.3558497130870819,-0.11985316872596741
1776870288339610000,1.436610107421875,0.5554251670837402,-0.4155665636062622,-0.030164560303092003
1776870288349648100,1.446648193359375,0.5582292079925537,-0.3863961696624756,0.14069800078868866
1776870288359685000,1.45668505859375,0.5102720260620117,-0.27090659737586975,0.33195558190345764
1776870288369722000,1.46672216796875,0.3761427402496338,-0.020350545644760132,0.4562660753726959
1776870288379759400,1.47675927734375,0.16328106820583344,0.30817246437072754,0.4534319341182709
1776870288389796400,1.48679638671875,-0.07073275744915009,0.6222627758979797,0.38321423530578613
1776870288399833000,1.4968330078125,-0.180460587143898,0.7795136570930481,0.2794497609138489
1776870288409871000,1.50687109375,-0.18209843337535858,0.801800012588501,0.17212329804897308
1776870288419908400,1.516908447265625,-0.053646184504032135,0.6916232109069824,0.1018613800406456
1776870288429945300,1.5269453125,0.1729789674282074,0.5320473909378052,0.08416946977376938
1776870288439982000,1.536982177734375,0.42968904972076416,0.3034467101097107,0.10017506778240204
1776870288450019000,1.54701904296875,0.6325945258140564,0.08681266009807587,0.17757877707481384
1776870288460056300,1.557056396484375,0.7220077514648438,-0.033904705196619034,0.3250236213207245
1776870288470093300,1.56709326171875,0.7105750441551208,-0.06909891217947006,0.5012285113334656
1776870288480131000,1.577131103515625,0.6152485013008118,-0.009998039342463017,0.6463422775268555
1776870288490168000,1.58716796875,0.46958693861961365,0.1467851847410202,0.7682814598083496
1776870288500205300,1.597205322265625,0.30122002959251404,0.30063971877098083,0.851335346698761
1776870288510242300,1.6072421875,0.15593527257442474,0.3502482771873474,0.8842232823371887
1776870288520279300,1.617279296875,0.10505424439907074,0.3082505166530609,0.8457983732223511
1776870288530316000,1.62731591796875,0.15208646655082703,0.16718366742134094,0.7638944387435913
1776870288540354300,1.637354248046875,0.26144731044769287,-0.029110480099916458,0.6913132071495056
1776870288550391300,1.647391357421875,0.4150017201900482,-0.30944332480430603,0.5924601554870605
1776870288560428000,1.657427978515625,0.6316677331924438,-0.5718283653259277,0.4870772361755371
1776870288570465000,1.667465087890625,0.7968039512634277,-0.7574456334114075,0.4159729778766632
1776870288580502300,1.677502197265625,0.856107234954834,-0.866498589515686,0.3661729395389557
1776870288590539300,1.687539306640625,0.7839962840080261,-0.7871223092079163,0.333618700504303
1776870288600577000,1.697576904296875,0.5919024348258972,-0.5920462608337402,0.35287177562713623
1776870288610614300,1.7076142578125,0.31676435470581055,-0.35411813855171204,0.37644821405410767
1776870288620651300,1.7176513671875,0.07371736317873001,-0.05605953931808472,0.37278956174850464
1776870288630688300,1.727688232421875,-0.07779412716627121,0.21249175071716309,0.31876546144485474
1776870288640725200,1.737725341796875,-0.16171619296073914,0.3194349706172943,0.22264638543128967
1776870288650762200,1.74776220703125,-0.13200783729553223,0.3004953861236572,0.09924722462892532
1776870288660800300,1.75780029296875,-0.03681367263197899,0.16809765994548798,0.006555637344717979
1776870288670837200,1.767837158203125,0.03605414181947708,-0.026312030851840973,-0.06214939057826996
1776870288680874000,1.7778740234375,0.04751931503415108,-0.14000344276428223,-0.10572722554206848
1776870288690911200,1.7879111328125,0.035481829196214676,-0.1875866800546646,-0.09959636628627777
1776870288700948200,1.7979482421875,0.0012777847005054355,-0.18594563007354736,-0.05175906792283058
1776870288710985200,1.807985107421875,-0.07828228920698166,-0.10489366203546524,0.020423516631126404
1776870288721022200,1.818022216796875,-0.2026098370552063,0.04942161217331886,0.07196154445409775
1776870288731060200,1.828060302734375,-0.3345431089401245,0.1727297008037567,0.08560465276241302
1776870288741097200,1.83809716796875,-0.3930354416370392,0.16841325163841248,0.09868583083152771
1776870288751134200,1.84813427734375,-0.361330509185791,0.0772407278418541,0.13668647408485413
1776870288761171200,1.858171142578125,-0.27031219005584717,-0.030398119240999222,0.2212306559085846
1776870288771208200,1.868208251953125,-0.1839943379163742,-0.08801134675741196,0.3566143214702606
1776870288781245200,1.8782451171875,-0.14773167669773102,-0.10216312110424042,0.5240179300308228
1776870288791283200,1.888283203125,-0.1693786382675171,-0.06709328293800354,0.6620924472808838
1776870288801320200,1.8983203125,-0.19856075942516327,0.0019342538435012102,0.7598091959953308
1776870288811357200,1.908357177734375,-0.25481951236724854,0.07539728283882141,0.823682427406311
1776870288821394200,1.918394287109375,-0.3099711835384369,0.18178658187389374,0.8558246493339539
1776870288831431200,1.92843115234375,-0.330771267414093,0.27885133028030396,0.8236235976219177
1776870288841468200,1.93846826171875,-0.33744195103645325,0.3686528503894806,0.7379922866821289
1776870288851506200,1.948506103515625,-0.2987685799598694,0.39131930470466614,0.6266835927963257
1776870288861543200,1.958543212890625,-0.2050468921661377,0.29878881573677063,0.5400357842445374
1776870288871580200,1.968580078125,-0.06492254137992859,0.1644667088985443,0.5009499192237854
1776870288881617400,1.978617431640625,0.07664497941732407,0.011096859350800514,0.5039339661598206
1776870288891654100,1.988654052734375,0.19412286579608917,-0.1426098793745041,0.4908599853515625
1776870288901691100,1.998691162109375,0.2726869285106659,-0.29452189803123474,0.4286181926727295
1776870288911729200,2.008729248046875,0.32522550225257874,-0.47890880703926086,0.3368895947933197
1776870288921766400,2.018766357421875,0.44035449624061584,-0.6864436268806458,0.2517864406108856
1776870288931803100,2.02880322265625,0.6401070356369019,-0.8090401291847229,0.1827802062034607
1776870288941840100,2.038840087890625,0.8685755729675293,-0.800672709941864,0.16312767565250397
1776870288951877400,2.04887744140625,1.0930625200271606,-0.6258002519607544,0.17357392609119415
1776870288961914400,2.058914306640625,1.2639213800430298,-0.3682938814163208,0.15413311123847961
1776870288971952000,2.0689521484375,1.4595701694488525,-0.2556179165840149,0.06090223416686058
1776870288981989000,2.078989013671875,1.7099847793579102,-0.2641943693161011,-0.07076019048690796
1776870288992026400,2.0890263671875,1.9806280136108398,-0.41464751958847046,-0.1860569566488266
1776870289002063400,2.0990634765625,2.2629966735839844,-0.6300612688064575,-0.2683590054512024
1776870289012100000,2.10910009765625,2.465704917907715,-0.765405535697937,-0.3498307168483734
1776870289022137000,2.11913720703125,2.593738317489624,-0.8168284893035889,-0.5300484299659729
1776870289032174300,2.12917431640625,2.66975474357605,-0.8115724921226501,-0.7494329810142517
1776870289042212400,2.13921240234375,2.750926971435547,-0.8069828152656555,-0.9209154844284058
1776870289052249000,2.1492490234375,2.8462576866149902,-0.8921405673027039,-1.0444294214248657
1776870289062286000,2.1592861328125,2.8816676139831543,-0.8672434687614441,-1.1279016733169556
1776870289072323300,2.1693232421875,2.9007723331451416,-0.6610045433044434,-1.1656121015548706
1776870289082360300,2.1793603515625,2.930593252182007,-0.2935738265514374,-1.0573489665985107
1776870289092397300,2.189397216796875,2.9337105751037598,0.06214273348450661,-0.9404428601264954
1776870289102435300,2.199435302734375,2.920036554336548,0.2735671103000641,-0.8609656095504761
1776870289112472300,2.209472412109375,2.8311660289764404,0.2518828511238098,-0.7655698657035828
1776870289122509300,2.21950927734375,2.6237192153930664,0.07887830585241318,-0.6274260878562927
1776870289132546300,2.22954638671875,2.2156646251678467,-0.10510937124490738,-0.3474176228046417
1776870289142583000,2.2395830078125,1.739046573638916,-0.14839400351047516,0.19379636645317078
1776870289152620300,2.249620361328125,0.7339711785316467,-0.3532635271549225,0.494178831577301
1776870289162658300,2.259658203125,0.12427987158298492,-0.4065120816230774,0.30549174547195435
1776870289172695000,2.269695068359375,0.2948838472366333,-0.5515449047088623,0.18078842759132385
1776870289182732300,2.279732177734375,1.176405906677246,-1.2237989902496338,0.1336403489112854
1776870289192769300,2.289769287109375,1.2220382690429688,-1.8507336378097534,0.016353938728570938
1776870289202806300,2.29980615234375,1.3717681169509888,-1.7918258905410767,-0.44383522868156433
1776870289212843300,2.30984326171875,1.5184199810028076,-1.3413138389587402,-0.43398791551589966
1776870289222880300,2.31988037109375,0.9775572419166565,-0.90213543176651,-0.366940438747406
1776870289232918300,2.329918212890625,0.5055041909217834,-0.044007137417793274,-0.23893561959266663
1776870289242955300,2.339955322265625,0.07539915293455124,0.4250713884830475,-0.10120464861392975
1776870289252992300,2.3499921875,-0.13864415884017944,0.3514062464237213,-0.15959098935127258
1776870289263029200,2.360029296875,-0.2309061884880066,-0.10971105098724365,-0.33180296421051025
1776870289273066200,2.370066162109375,-0.3494671881198883,-0.7408461570739746,-0.5202770233154297
1776870289283103200,2.380103271484375,-0.5947059988975525,-1.5039690732955933,-0.655788242816925
1776870289293141200,2.390141357421875,-1.168521523475647,-2.342144250869751,-0.7307591438293457
1776870289303178200,2.40017822265625,-1.896994709968567,-2.830036163330078,-0.7974225878715515
1776870289313215200,2.41021533203125,-2.805011749267578,-2.6430323123931885,-0.6943768858909607
1776870289323252200,2.420252197265625,-3.7339236736297607,-2.028674840927124,-0.2811967730522156
1776870289333289200,2.430289306640625,-4.209964275360107,-1.7548588514328003,0.029942186549305916
1776870289343326200,2.440326171875,-4.136231899261475,-1.8106744289398193,-0.09724985063076019
1776870289353363200,2.45036328125,-3.774578809738159,-1.6867718696594238,-0.4240359663963318
1776870289363401200,2.460401123046875,-3.329556465148926,-1.1996723413467407,-0.5940311551094055
1776870289373438500,2.4704384765625,-3.1241962909698486,-0.27638739347457886,-0.5038498640060425
1776870289383475200,2.48047509765625,-3.2933950424194336,0.48532596230506897,-0.07701462507247925
1776870289393512200,2.49051220703125,-3.736994504928589,0.9817705750465393,0.31574705243110657
1776870289403549200,2.500549072265625,-3.991581439971924,0.27934083342552185,-0.1340094655752182
1776870289413586200,2.510586181640625,-4.204390525817871,0.1259600669145584,-0.45125240087509155
1776870289423624200,2.520624267578125,-4.189946174621582,0.6948895454406738,-0.5193725824356079
1776870289433661200,2.5306611328125,-3.788289785385132,0.48975372314453125,0.14825445413589478
1776870289443698200,2.5406982421875,-3.104278087615967,-0.16755305230617523,0.32731688022613525
1776870289453735400,2.5507353515625,-2.879481315612793,-0.9638054370880127,0.03674815967679024
1776870289463772400,2.5607724609375,-3.4814224243164062,-1.1181068420410156,-0.3245037794113159
1776870289473809200,2.57080908203125,-4.149868011474609,-1.282450556755066,-0.6426665782928467
1776870289483847200,2.58084716796875,-4.680760383605957,-2.340224266052246,-0.4376250207424164
1776870289493884400,2.590884521484375,-4.947202205657959,-2.901125192642212,-0.38294366002082825
1776870289503921200,2.600921142578125,-5.389276027679443,-1.3723689317703247,-1.0830039978027344
1776870289513958100,2.610958251953125,-5.122658729553223,1.1774498224258423,-1.4108617305755615
1776870289523995100,2.6209951171875,-4.435971260070801,2.92375111579895,-2.5519793033599854
1776870289534032400,2.631032470703125,-3.5544593334198,3.6640284061431885,-3.1924967765808105
1776870289544069400,2.6410693359375,-3.0483205318450928,3.262977123260498,-3.2417876720428467
1776870289554107100,2.651107177734375,-3.237302541732788,2.240023374557495,-3.6284677982330322
1776870289564144000,2.66114404296875,-3.661036968231201,1.5692647695541382,-3.9505369663238525
1776870289574181400,2.671181396484375,-4.178149223327637,1.8735460042953491,-3.8828072547912598
1776870289584218400,2.68121826171875,-4.607119560241699,1.859438180923462,-3.7001562118530273
1776870289594255000,2.691255126953125,-5.015429973602295,1.7766687870025635,-3.3190979957580566
1776870289604292000,2.7012919921875,-5.294820308685303,1.7478294372558594,-2.731908082962036
1776870289614330400,2.711330322265625,-5.367328643798828,1.7611271142959595,-1.9876409769058228
1776870289624367400,2.721367431640625,-5.2380595207214355,1.2368433475494385,-1.033036470413208
1776870289634404000,2.731404052734375,-4.8347601890563965,0.14030250906944275,-0.2612244188785553
1776870289644441300,2.74144140625,-4.448948383331299,-0.8357830047607422,0.3875064551830292
1776870289654478300,2.751478271484375,-4.334686756134033,-1.4110476970672607,0.7619964480400085
1776870289664515300,2.761515380859375,-4.748911380767822,-2.6065664291381836,0.44299739599227905
1776870289674553000,2.771552978515625,-4.732527732849121,-3.466438055038452,0.20852550864219666
1776870289684590300,2.78159033203125,-4.524511337280273,-4.553082466125488,0.3642631769180298
1776870289694627300,2.79162744140625,-4.201315402984619,-4.155191898345947,0.7323676943778992
1776870289704664300,2.801664306640625,-3.8092145919799805,-3.000779628753662,0.6961167454719543
1776870289714701000,2.811701171875,-2.6643664836883545,-1.8391857147216797,0.1944882571697235
1776870289724738300,2.82173828125,-1.4287289381027222,-1.061384677886963,-0.06294088065624237
1776870289734775300,2.831775390625,-0.2624899446964264,-1.0268683433532715,0.1698652058839798
1776870289744813300,2.841813232421875,0.5905548930168152,-0.975426971912384,0.3297584652900696
1776870289754850000,2.85185009765625,0.9990819692611694,-0.7007466554641724,0.24193832278251648
1776870289764887300,2.86188720703125,1.0594052076339722,-0.5765029788017273,0.1123901903629303
1776870289774924300,2.87192431640625,0.9575206637382507,-0.5194128155708313,-0.00765951769426465
1776870289784961300,2.881961181640625,0.823766827583313,-0.48264840245246887,-0.08729469031095505
1776870289794998300,2.891998291015625,0.7228333353996277,-0.4492044448852539,-0.061647649854421616
1776870289805036300,2.902036376953125,0.654752790927887,-0.39331161975860596,0.04682396352291107
1776870289815073300,2.9120732421875,0.5887093544006348,-0.22441552579402924,0.1305665373802185
1776870289825110300,2.9221103515625,0.5288611650466919,0.01380822341889143,0.16232845187187195
1776870289835147300,2.932147216796875,0.5109844207763672,0.23251713812351227,0.19014304876327515
1776870289845184300,2.942184326171875,0.5477142333984375,0.40133437514305115,0.1691322922706604
1776870289855221200,2.95222119140625,0.5772936940193176,0.45735955238342285,0.1428239941596985
1776870289865259300,2.96225927734375,0.5784785151481628,0.390251100063324,0.15053224563598633
1776870289875296300,2.972296142578125,0.5565897226333618,0.25604936480522156,0.17303383350372314
1776870289885333200,2.982333251953125,0.5170620679855347,0.1352401077747345,0.21208348870277405
1776870289895370200,2.992370361328125,0.491304486989975,0.03670155629515648,0.27256521582603455
1776870289905407200,3.0024072265625,0.44275426864624023,-0.06322397291660309,0.32579702138900757
1776870289915444200,3.0124443359375,0.2940926253795624,-0.1283678263425827,0.3307395577430725
1776870289925481200,3.022481201171875,0.08896103501319885,-0.1580205261707306,0.2670617997646332
1776870289935519200,3.032519287109375,-0.09525860846042633,-0.2010636031627655,0.1644027978181839
1776870289945557000,3.042556884765625,-0.1672036349773407,-0.2447679340839386,0.06149664893746376
1776870289955593700,3.05259375,-0.10131330788135529,-0.25713351368904114,-0.002127333078533411
1776870289965630700,3.062630615234375,-0.01130858063697815,-0.2135825902223587,-0.03734816983342171
1776870289975667700,3.072667724609375,0.056162603199481964,-0.11538677662611008,-0.06718995422124863
1776870289985705000,3.082705078125,0.0971052423119545,-0.03648583963513374,-0.09646821767091751
1776870289995742700,3.09274267578125,0.1416415572166443,0.02852778136730194,-0.11149829626083374
1776870290005779700,3.10277978515625,0.2004593312740326,0.0930740162730217,-0.10253995656967163
1776870290015817000,3.11281689453125,0.25316914916038513,0.19036461412906647,-0.07196367532014847
1776870290025854000,3.12285400390625,0.259046733379364,0.2953035533428192,-0.03858973830938339
1776870290035891000,3.132890869140625,0.2235310971736908,0.3391304016113281,-0.013010340742766857
1776870290045927700,3.142927734375,0.11566375195980072,0.1961394101381302,-0.01395602896809578
1776870290055965000,3.15296484375,0.017890051007270813,0.12806901335716248,0.0043891556560993195
1776870290066003000,3.1630029296875,0.10023099929094315,0.13838157057762146,0.05999862030148506
1776870290076039700,3.173039794921875,0.28166842460632324,0.1894250512123108,0.09912152588367462
1776870290086076700,3.18307666015625,0.4174180030822754,0.2655741572380066,0.12086889892816544
1776870290096114000,3.193114013671875,0.4705166518688202,0.346201092004776,0.10262544453144073
1776870290106151000,3.20315087890625,0.4697355329990387,0.42493531107902527,0.0894947275519371
1776870290116188000,3.21318798828125,0.4522859752178192,0.4855315387248993,0.07637466490268707
1776870290126226000,3.223225830078125,0.43138203024864197,0.4749108552932739,0.07296288758516312
1776870290136263000,3.233262939453125,0.3898431062698364,0.47971653938293457,0.041963428258895874
1776870290146300000,3.2432998046875,0.3101922273635864,0.46364355087280273,0.016264190897345543
1776870290156337000,3.2533369140625,0.22320859134197235,0.4261355996131897,-0.01919260248541832
1776870290166373600,3.26337353515625,0.12269023060798645,0.37795183062553406,-0.04165423661470413
1776870290176411000,3.273410888671875,0.038235269486904144,0.2943283021450043,-0.039555665105581284
1776870290186448000,3.28344775390625,-0.03518595173954964,0.17558380961418152,-0.016625048592686653
1776870290196485600,3.293485595703125,-0.11078163981437683,0.06006813049316406,0.013658554293215275
1776870290206523000,3.30352294921875,-0.12961338460445404,-0.04302256926894188,0.04874836280941963
1776870290216559900,3.313559814453125,-0.09341330081224442,-0.12452967464923859,0.06552334874868393
1776870290226596900,3.323596923828125,-0.05426084250211716,-0.1431742012500763,0.06564611941576004
1776870290236633900,3.3336337890625,-0.019424298778176308,-0.14616572856903076,0.04995157942175865
1776870290246670800,3.3436708984375,0.013071061111986637,-0.10056016594171524,0.037331126630306244
1776870290256708900,3.353708984375,0.05263444781303406,0.01128301490098238,0.013648967258632183
1776870290266745900,3.363745849609375,0.0766814649105072,0.09801711142063141,-0.008361260406672955
1776870290276782800,3.373782958984375,0.09762189537286758,0.14587438106536865,-0.05194602161645889
1776870290286819800,3.38381982421875,0.12725675106048584,0.12991751730442047,-0.08328183740377426
1776870290296856800,3.39385693359375,0.1521567851305008,0.0790729820728302,-0.10896403342485428
1776870290306893800,3.403893798828125,0.1525685042142868,0.005508216097950935,-0.13803963363170624
1776870290316931800,3.413931884765625,0.14433453977108002,-0.06343303620815277,-0.1569688469171524
1776870290326968800,3.42396875,0.13737356662750244,-0.11623819172382355,-0.15098604559898376
1776870290337005800,3.434005859375,0.12252458184957504,-0.12729030847549438,-0.1305910348892212
1776870290347042800,3.444042724609375,0.08946490287780762,-0.09992073476314545,-0.08246637880802155
1776870290357079800,3.454079833984375,0.06464184075593948,-0.06655558943748474,-0.025830531492829323
1776870290367117000,3.464116943359375,0.041910964995622635,-0.02437831088900566,0.013258813880383968
1776870290377153800,3.47415380859375,0.010460363700985909,0.015361645258963108,0.04050960764288902
1776870290387191800,3.48419189453125,-0.01739390380680561,0.03219948336482048,0.05485845357179642
1776870290397228800,3.494228759765625,-0.035240013152360916,0.04279327020049095,0.06017865240573883
1776870290407265800,3.504265869140625,-0.03635907173156738,0.03599288687109947,0.050214968621730804
1776870290417302800,3.514302734375,-0.03332040458917618,0.031261783093214035,0.039372172206640244
1776870290427339800,3.52433984375,-0.027460653334856033,0.030906517058610916,0.03519101068377495
1776870290437376800,3.534376708984375,-0.014177870936691761,0.035286083817481995,0.033118270337581635
1776870290447414800,3.544414794921875,0.006645119283348322,0.037160951644182205,0.03352893143892288
1776870290457451800,3.55445166015625,0.027460919693112373,0.038895733654499054,0.029103823006153107
1776870290467488800,3.56448876953125,0.044853225350379944,0.03808533400297165,0.0302622988820076
1776870290477526000,3.574526123046875,0.05878022685647011,0.039264313876628876,0.029945116490125656
1776870290487563000,3.58456298828125,0.06891408562660217,0.04421726241707802,0.028238030150532722
1776870290497599700,3.594599853515625,0.07806390523910522,0.05121684819459915,0.0308668352663517
1776870290507636700,3.60463671875,0.09053895622491837,0.05139341577887535,0.033117737621068954
1776870290517675000,3.614675048828125,0.09003215283155441,0.0532967783510685,0.03987870737910271
1776870290527711700,3.624711669921875,0.09027929604053497,0.0588606521487236,0.04971056431531906
1776870290537748700,3.634748779296875,0.0827164500951767,0.06655638664960861,0.059973590075969696
1776870290547785700,3.64478564453125,0.06478458642959595,0.07428994029760361,0.07185980677604675
1776870290557823000,3.654822998046875,0.045753106474876404,0.08633009344339371,0.08233056217432022
1776870290567860000,3.66485986328125,0.03687252849340439,0.08411701023578644,0.09378401935100555
1776870290577897700,3.674897705078125,0.036911945790052414,0.07325637340545654,0.10506836324930191
1776870290587934700,3.684934814453125,0.04568386450409889,0.051179297268390656,0.12567058205604553
1776870290597972000,3.694971923828125,0.05698898434638977,0.038550589233636856,0.14250920712947845
1776870290608009000,3.705009033203125,0.0726046934723854,0.028137361630797386,0.159092977643013
1776870290618045700,3.715045654296875,0.0926138237118721,0.025611620396375656,0.17208653688430786
1776870290628082700,3.725082763671875,0.10779383778572083,0.031986963003873825,0.17831967771053314
1776870290638120000,3.735119873046875,0.11879163235425949,0.04403030872344971,0.18126539885997772
1776870290648158000,3.745157958984375,0.12466336786746979,0.06500989198684692,0.18408328294754028
1776870290658194700,3.755194580078125,0.12465324997901917,0.098421111702919,0.18332667648792267
1776870290668231700,3.765231689453125,0.11875567585229874,0.13087919354438782,0.1779380440711975
1776870290678269000,3.77526904296875,0.11813223361968994,0.16088342666625977,0.18467983603477478
1776870290688306000,3.785305908203125,0.12691454589366913,0.17051634192466736,0.20235523581504822
1776870290698343000,3.795343017578125,0.13527579605579376,0.16559642553329468,0.23170647025108337
1776870290708381000,3.805380859375,0.14611779153347015,0.14808399975299835,0.2705310881137848
1776870290718418000,3.81541796875,0.1558966487646103,0.12507162988185883,0.3264428377151489
1776870290728455000,3.825454833984375,0.17518620193004608,0.10911104083061218,0.3803228437900543
1776870290738491600,3.83549169921875,0.19454550743103027,0.11125941574573517,0.43329817056655884
1776870290748528600,3.845528564453125,0.2149948626756668,0.1381453573703766,0.4952033460140228
1776870290758566000,3.85556591796875,0.23956039547920227,0.1905108243227005,0.5784058570861816
1776870290768603000,3.865602783203125,0.2635091245174408,0.27437031269073486,0.6694065928459167
1776870290778640600,3.875640625,0.28940731287002563,0.4342241585254669,0.7570232152938843
1776870290788678000,3.885677978515625,0.31270119547843933,0.5903064012527466,0.8804509043693542
1776870290798715000,3.89571484375,0.32633844017982483,0.7152257561683655,1.0090956687927246
1776870290808751900,3.905751953125,0.3365556597709656,0.815391480922699,1.0965757369995117
1776870290818788900,3.915788818359375,0.32388272881507874,0.8940575122833252,1.1309376955032349
1776870290828825600,3.92582568359375,0.272238165140152,0.8794897794723511,1.124045968055725
1776870290838864000,3.93586376953125,0.16076011955738068,0.8070006370544434,1.058532476425171
1776870290848900900,3.94590087890625,0.020605675876140594,0.6966360807418823,0.9608967304229736
1776870290858937900,3.955937744140625,-0.05013267695903778,0.49167439341545105,0.8477345108985901
1776870290868974800,3.965974853515625,-0.0743195042014122,0.2835094630718231,0.7895058393478394
1776870290879011800,3.97601171875,-0.06842806190252304,0.22108711302280426,0.8603118062019348
1776870290889048800,3.986048828125,-0.0002665824140422046,0.41795358061790466,1.0775208473205566
1776870290899085800,3.9960859375,0.0332208052277565,0.7597718834877014,1.3153749704360962
1776870290909122800,4.006122802734375,-0.009213738143444061,1.0541644096374512,1.499713659286499
1776870290919159800,4.016159912109375,-0.07919495552778244,1.0935219526290894,1.622473120689392
1776870290929196800,4.02619677734375,-0.13771632313728333,0.984696090221405,1.8064301013946533
1776870290939233800,4.03623388671875,0.10692352056503296,0.37633395195007324,2.013848066329956
1776870290949271600,4.046271484375,0.28054165840148926,0.3202051818370819,1.6509408950805664
1776870290959308300,4.056308349609375,0.3662469685077667,0.2589513957500458,1.5869475603103638
1776870290969345500,4.066345458984375,0.459776371717453,0.4221363365650177,1.5309247970581055
1776870290979382500,4.076382568359375,0.5837641358375549,0.43029651045799255,1.5534058809280396
1776870290989419500,4.08641943359375,0.6714302897453308,0.24387577176094055,1.618003487586975
1776870290999456500,4.09645654296875,0.7768946886062622,0.07524441927671432,1.6526539325714111
1776870291009493200,4.1064931640625,0.8687119483947754,0.036679983139038086,1.6208178997039795
1776870291019531500,4.116531494140625,0.8794136047363281,0.11351191252470016,1.5221835374832153
1776870291029568500,4.126568603515625,0.8425394892692566,0.357861191034317,1.4349974393844604
1776870291039605500,4.13660546875,0.7542612552642822,0.5572004318237305,1.4595915079116821
1776870291049642500,4.146642578125,0.6246579885482788,0.6289888620376587,1.5505235195159912
1776870291059679500,4.156679443359375,0.5986040234565735,0.7236996293067932,1.5705153942108154
1776870291069716500,4.166716552734375,0.7733047604560852,0.9843946099281311,1.510326623916626
1776870291079754200,4.176754150390625,0.9652973413467407,1.182478666305542,1.4336520433425903
1776870291089791500,4.18679150390625,1.1489558219909668,1.2369086742401123,1.4720524549484253
1776870291099828500,4.196828369140625,1.2489128112792969,1.233960509300232,1.535004734992981
1776870291109865500,4.206865478515625,1.3038194179534912,1.2954853773117065,1.590891718864441
1776870291119902500,4.21690234375,1.3378411531448364,1.4281829595565796,1.599312663078308
1776870291129939500,4.226939453125,1.3237357139587402,1.544927716255188,1.5546016693115234
1776870291139976400,4.2369765625,1.3216065168380737,1.6336970329284668,1.4636211395263672
1776870291150014500,4.247014404296875,1.3779882192611694,1.702196717262268,1.3078941106796265
1776870291160051500,4.257051513671875,1.507356882095337,1.7447869777679443,1.2416716814041138
1776870291170088400,4.26708837890625,1.6354680061340332,1.6619781255722046,1.2988979816436768
1776870291180125400,4.27712548828125,1.6839591264724731,1.443544626235962,1.3839894533157349
1776870291190162400,4.287162353515625,1.6286526918411255,1.1336085796356201,1.4461110830307007
1776870291200199400,4.297199462890625,1.4621808528900146,0.7660556435585022,1.5756837129592896
1776870291210237400,4.307237548828125,1.3275564908981323,0.6775422692298889,1.846855640411377
1776870291220274400,4.3172744140625,1.2071411609649658,0.7780733704566956,2.0245614051818848
1776870291230311400,4.3273115234375,1.1008647680282593,0.6162389516830444,1.9895344972610474
1776870291240348400,4.337348388671875,1.0487416982650757,0.35400334000587463,1.9158439636230469
1776870291250385400,4.347385498046875,1.030509352684021,0.27906811237335205,1.9830310344696045
1776870291260422400,4.35742236328125,1.0271008014678955,0.3145824372768402,2.1472151279449463
1776870291270459400,4.36745947265625,1.030953049659729,0.33937832713127136,2.2413618564605713
1776870291280497700,4.37749755859375,1.0478971004486084,0.3707152307033539,2.2674872875213623
1776870291290534400,4.387534423828125,1.0811980962753296,0.39983636140823364,2.2227258682250977
1776870291300571400,4.3975712890625,1.1009808778762817,0.42618539929389954,2.1097004413604736
1776870291310608400,4.4076083984375,1.1099482774734497,0.4631234407424927,2.0408999919891357
1776870291320645600,4.417645751953125,1.0764060020446777,0.48107340931892395,2.1156864166259766
1776870291330682600,4.4276826171875,1.0494465827941895,0.42313873767852783,2.2484302520751953
1776870291340720400,4.437720458984375,1.037765383720398,0.269135057926178,2.2840988636016846
1776870291350757400,4.44775732421875,1.0449693202972412,0.28503572940826416,2.2220678329467773
1776870291360794600,4.457794677734375,1.0497150421142578,0.2371070832014084,2.2408852577209473
1776870291370831600,4.46783154296875,1.0733470916748047,0.2297695428133011,2.3634488582611084
1776870291380868400,4.477868408203125,1.0889582633972168,0.05572531372308731,2.4099228382110596
1776870291390905300,4.4879052734375,1.0830628871917725,0.037220872938632965,2.3086230754852295
1776870291400942600,4.497942626953125,1.0326452255249023,-0.0015108112711459398,2.391331911087036
1776870291410980400,4.50798046875,0.9828049540519714,-0.03169294819235802,2.476010322570801
1776870291421017300,4.518017333984375,0.9994694590568542,-0.007783354725688696,2.416825771331787
1776870291431054300,4.528054443359375,1.0280057191848755,0.2317647933959961,2.3003153800964355
1776870291441091600,4.538091552734375,0.988732099533081,0.3359529674053192,2.0220229625701904
1776870291451128600,4.548128662109375,0.8924868106842041,0.3553279936313629,2.0460824966430664
1776870291461165300,4.558165283203125,0.7896277904510498,0.11332229524850845,2.225928544998169
1776870291471202300,4.568202392578125,0.8403037786483765,0.1178765669465065,2.138622760772705
1776870291481240600,4.578240478515625,0.9608905911445618,-0.004288754425942898,2.0164363384246826
1776870291491277600,4.588277587890625,1.0642324686050415,-0.10026402026414871,1.986124038696289
1776870291501314300,4.598314208984375,1.0873641967773438,-0.03412121906876564,1.9645334482192993
1776870291511351300,4.608351318359375,1.0208183526992798,0.06197149306535721,1.7717357873916626
1776870291521388500,4.618388427734375,0.8505156636238098,0.11820733547210693,1.4136908054351807
1776870291531425500,4.628425537109375,0.6889962553977966,0.3726058006286621,1.0161134004592896
1776870291541463300,4.63846337890625,0.5728952288627625,0.5376192331314087,0.7124896049499512
1776870291551500500,4.64850048828125,0.4867997467517853,0.36601632833480835,0.47608399391174316
1776870291561537500,4.65853759765625,0.4224708080291748,0.3010959327220917,0.27707529067993164
1776870291571574500,4.668574462890625,0.3594804108142853,0.273171603679657,0.09459920972585678
1776870291581611500,4.678611572265625,0.2139623612165451,0.24881461262702942,-0.09443995356559753
1776870291591648300,4.688648193359375,0.025967951864004135,0.12613104283809662,-0.23456749320030212
1776870291601686500,4.6986865234375,-0.12335708737373352,0.028147481381893158,-0.3494490683078766
1776870291611723500,4.7087236328125,-0.2551782429218292,-0.04929031804203987,-0.4679024815559387
1776870291621760300,4.71876025390625,-0.374783456325531,-0.037764955312013626,-0.5436398386955261
1776870291631797500,4.728797607421875,-0.5304571986198425,-0.1510198712348938,-0.637932300567627
1776870291641834500,4.73883447265625,-0.6499758958816528,-0.1275576949119568,-0.7498281598091125
1776870291651871500,4.74887158203125,-0.7063275575637817,-0.1936403065919876,-0.8864890933036804
1776870291661908500,4.758908447265625,-0.7685741782188416,-0.29108482599258423,-0.9831972718238831
1776870291671946500,4.768946533203125,-0.8468844294548035,-0.33212974667549133,-1.0772209167480469
1776870291681983500,4.7789833984375,-0.9669722318649292,-0.3479022979736328,-1.1905338764190674
1776870291692020500,4.7890205078125,-1.0673112869262695,-0.3960895538330078,-1.3220118284225464
1776870291702057500,4.799057373046875,-1.1202666759490967,-0.46790221333503723,-1.4651042222976685
1776870291712094500,4.809094482421875,-1.192324161529541,-0.5199733972549438,-1.5703192949295044
1776870291722131500,4.81913134765625,-1.222758173942566,-0.5159898400306702,-1.658864974975586
1776870291732169500,4.82916943359375,-1.187781810760498,-0.5024399757385254,-1.7694729566574097
1776870291742206500,4.83920654296875,-1.1565980911254883,-0.5017381906509399,-1.8649437427520752
1776870291752243500,4.849243408203125,-1.1708416938781738,-0.515847384929657,-1.9245402812957764
1776870291762280400,4.859280517578125,-1.234108567237854,-0.5462921261787415,-1.9678126573562622
1776870291772317400,4.8693173828125,-1.3079109191894531,-0.48380956053733826,-2.031064510345459
1776870291782354400,4.8793544921875,-1.3119492530822754,-0.4238892197608948,-2.1200308799743652
1776870291792391400,4.889391357421875,-1.2529394626617432,-0.33949151635169983,-2.260928153991699
1776870291802429400,4.899429443359375,-1.1415634155273438,-0.2383209615945816,-2.3887405395507812
1776870291812466400,4.909466552734375,-1.0094331502914429,-0.20949357748031616,-2.466745376586914
1776870291822503700,4.919503662109375,-0.9217277765274048,-0.2210990935564041,-2.4727416038513184
1776870291832540400,4.92954052734375,-0.8773219585418701,-0.24401798844337463,-2.4699082374572754
1776870291842577400,4.939577392578125,-0.9005867838859558,-0.21331094205379486,-2.4480154514312744
1776870291852614400,4.949614501953125,-0.9469804167747498,-0.20550096035003662,-2.4352383613586426
1776870291862652400,4.95965234375,-1.0134880542755127,-0.14790557324886322,-2.4305665493011475
1776870291872689400,4.969689453125,-1.0664087533950806,-0.02309759519994259,-2.435197114944458
1776870291882726400,4.979726318359375,-1.0973317623138428,0.043246541172266006,-2.4488346576690674
1776870291892763400,4.989763427734375,-1.1372257471084595,0.043889161199331284,-2.3903086185455322
1776870291902800600,4.999800537109375,-1.1881234645843506,-0.015369635075330734,-2.270782470703125
1776870291912837600,5.009837646484375,-1.2485274076461792,-0.05885452777147293,-2.1114816665649414
1776870291922875400,5.01987548828125,-1.2787567377090454,-0.08497560769319534,-1.9946434497833252
1776870291932912400,5.029912353515625,-1.2665528059005737,-0.037753503769636154,-1.950516700744629
1776870291942950000,5.039949951171875,-1.227599024772644,0.020114855840802193,-1.9488719701766968
1776870291952986600,5.049986572265625,-1.1927536725997925,0.059055063873529434,-1.913590431213379
1776870291963023600,5.060023681640625,-1.1641288995742798,0.044258009642362595,-1.8390445709228516
1776870291973060600,5.070060546875,-1.126819372177124,-0.020910341292619705,-1.7542191743850708
1776870291983098600,5.0800986328125,-1.100292682647705,-0.055573780089616776,-1.6994173526763916
1776870291993135600,5.090135498046875,-1.0780084133148193,-0.05672985687851906,-1.7051339149475098
1776870292003172600,5.100172607421875,-1.0845955610275269,-0.11000266671180725,-1.6781598329544067
1776870292013209900,5.1102099609375,-1.1197001934051514,-0.24199026823043823,-1.6142463684082031
1776870292023246800,5.120246826171875,-1.1719805002212524,-0.3514863848686218,-1.5316030979156494
1776870292033283600,5.13028369140625,-1.2142720222473145,-0.3478114902973175,-1.4882620573043823
1776870292043321600,5.140321533203125,-1.213935136795044,-0.31066787242889404,-1.5032622814178467
1776870292053358800,5.15035888671875,-1.1896915435791016,-0.3047577738761902,-1.5034066438674927
1776870292063395800,5.160395751953125,-1.1490639448165894,-0.35450616478919983,-1.455121397972107
1776870292073432600,5.1704326171875,-1.1111656427383423,-0.40479594469070435,-1.383919358253479
1776870292083469600,5.180469482421875,-1.088253140449524,-0.43532615900039673,-1.3271842002868652
1776870292093506800,5.1905068359375,-1.0996497869491577,-0.4308027923107147,-1.320396900177002
1776870292103544800,5.200544921875,-1.1596713066101074,-0.3936900496482849,-1.3879069089889526
1776870292113581600,5.21058154296875,-1.229868769645691,-0.35092633962631226,-1.4870707988739014
1776870292123618600,5.22061865234375,-1.2813788652420044,-0.32370510697364807,-1.5330302715301514
1776870292133655800,5.23065576171875,-1.281991958618164,-0.28108254075050354,-1.4830951690673828
1776870292143692800,5.24069287109375,-1.2537269592285156,-0.21507768332958221,-1.3867990970611572
1776870292153729800,5.250729736328125,-1.2139180898666382,-0.20118103921413422,-1.3594081401824951
1776870292163767800,5.260767822265625,-1.155362606048584,-0.32415997982025146,-1.4030542373657227
1776870292173804800,5.2708046875,-1.0714216232299805,-0.5315184593200684,-1.478903889656067
1776870292183841800,5.280841796875,-1.0057052373886108,-0.6590327620506287,-1.5465394258499146
1776870292193878500,5.29087841796875,-0.9675796627998352,-0.7340475916862488,-1.5958974361419678
1776870292203915500,5.30091552734375,-0.9617286920547485,-0.7338643670082092,-1.592827320098877
1776870292213952800,5.310952880859375,-0.9822561144828796,-0.690617561340332,-1.5879579782485962
1776870292223990800,5.32099072265625,-1.0117652416229248,-0.6028565764427185,-1.5816867351531982
1776870292234027500,5.331027587890625,-1.0378338098526,-0.47304344177246094,-1.5922662019729614
1776870292244064800,5.341064697265625,-1.0463954210281372,-0.31829914450645447,-1.6159038543701172
1776870292254101800,5.351101806640625,-1.0192012786865234,-0.2038375437259674,-1.6300699710845947
1776870292264138800,5.361138671875,-0.9282285571098328,-0.25939029455184937,-1.6451305150985718
1776870292274175700,5.37117578125,-0.8080845475196838,-0.4430996775627136,-1.6472889184951782
1776870292284213800,5.3812138671875,-0.7041043639183044,-0.6539527773857117,-1.628989815711975
1776870292294250800,5.391250732421875,-0.6496278047561646,-0.7806396484375,-1.5990958213806152
1776870292304287700,5.401287841796875,-0.6119678020477295,-0.760552704334259,-1.579957365989685
1776870292314324700,5.41132470703125,-0.5872810482978821,-0.64122474193573,-1.5443819761276245
1776870292324361700,5.42136181640625,-0.5719394087791443,-0.47973889112472534,-1.4775886535644531
1776870292334398700,5.431398681640625,-0.5289679765701294,-0.33254680037498474,-1.408506989479065
1776870292344436700,5.441436767578125,-0.44451379776000977,-0.23141111433506012,-1.3349264860153198
1776870292354473500,5.451473388671875,-0.32766789197921753,-0.1979338526725769,-1.2596863508224487
1776870292364510700,5.4615107421875,-0.20809142291545868,-0.21650594472885132,-1.1681157350540161
1776870292374547700,5.471547607421875,-0.11699239909648895,-0.2555375099182129,-1.0468065738677979
1776870292384584700,5.481584716796875,-0.039752207696437836,-0.30399584770202637,-0.8780947923660278
1776870292394621700,5.49162158203125,0.03945872560143471,-0.3748982548713684,-0.664240300655365
1776870292404659700,5.50165966796875,0.12257065623998642,-0.4601500332355499,-0.43864232301712036
1776870292414696700,5.51169677734375,0.19537481665611267,-0.47272974252700806,-0.2559497654438019
1776870292424733700,5.521733642578125,0.2351216971874237,-0.4517107307910919,-0.2019837200641632
1776870292434771000,5.53177099609375,0.24595996737480164,-0.40156206488609314,-0.3074813783168793
1776870292444807700,5.5418076171875,0.2200372964143753,-0.43581539392471313,-0.5768002271652222
1776870292454844700,5.5518447265625,0.15928366780281067,-0.5867210030555725,-0.9039535522460938
1776870292464882700,5.561882568359375,0.08883745968341827,-0.8856027722358704,-1.0374876260757446
1776870292474919700,5.571919677734375,0.013509683310985565,-1.1824305057525635,-0.8850659132003784
1776870292484956700,5.581956787109375,-0.02359214425086975,-1.4492262601852417,-0.4640885591506958
1776870292494993700,5.59199365234375,-0.051120974123477936,-1.6069694757461548,-0.011391138657927513
1776870292505030700,5.60203076171875,-0.06624852865934372,-1.6984716653823853,0.289225697517395
1776870292515068000,5.61206787109375,-0.13085415959358215,-1.7124197483062744,0.33468079566955566
1776870292525105700,5.622105712890625,-0.24288295209407806,-1.7208577394485474,0.050214435905218124
1776870292535142700,5.632142578125,-0.2894209027290344,-1.7055938243865967,-0.3120013177394867
1776870292545179600,5.6421796875,-0.14530020952224731,-1.6161513328552246,-0.36101943254470825
1776870292555217000,5.652216796875,0.11386797577142715,-1.2322918176651,0.058872371912002563
1776870292565253600,5.662253662109375,0.301932692527771,-0.5022969245910645,0.5949376821517944
1776870292575291600,5.672291748046875,0.37532275915145874,0.3702547550201416,0.8764862418174744
1776870292585329000,5.682328857421875,0.35670992732048035,1.1659324169158936,0.9109281301498413
1776870292595366000,5.692365966796875,0.30564725399017334,1.7423899173736572,0.7857699394226074
1776870292605402600,5.702402587890625,0.2767445147037506,2.0352888107299805,0.6129584908485413
1776870292615439600,5.712439697265625,0.31266921758651733,1.996137261390686,0.49706488847732544
1776870292625476600,5.7224765625,0.3272356390953064,1.674786925315857,0.45062416791915894
1776870292635514600,5.7325146484375,0.28071129322052,1.2164033651351929,0.4383954703807831
1776870292645551600,5.742551513671875,0.18235169351100922,0.7103760838508606,0.40555068850517273
1776870292655588600,5.752588623046875,0.04682529717683792,0.24742816388607025,0.300815224647522
1776870292665625900,5.7626259765625,-0.1204739511013031,-0.07460898905992508,0.1456485390663147
1776870292675662800,5.772662841796875,-0.2766560912132263,-0.25504186749458313,0.014316354878246784
1776870292685699600,5.782699462890625,-0.40482285618782043,-0.30801135301589966,-0.09657341241836548
1776870292695737600,5.792737548828125,-0.47150707244873047,-0.2794625461101532,-0.1669277399778366
1776870292705774800,5.80277490234375,-0.46199798583984375,-0.22889895737171173,-0.18579383194446564
1776870292715811800,5.812811767578125,-0.3745379149913788,-0.20549003779888153,-0.1469380408525467
1776870292725848600,5.8228486328125,-0.23397068679332733,-0.23915186524391174,-0.07352375239133835
1776870292735885600,5.832885498046875,-0.08963613957166672,-0.2961232662200928,-0.020979583263397217
1776870292745922800,5.8429228515625,0.009240636602044106,-0.31030166149139404,-0.014099041000008583
1776870292755960600,5.852960693359375,0.06388737261295319,-0.2660183608531952,-0.05151618644595146
1776870292765997600,5.86299755859375,0.10329629480838776,-0.18900321424007416,-0.10476768761873245
1776870292776034600,5.87303466796875,0.16137424111366272,-0.10693550109863281,-0.16156812012195587
1776870292786071800,5.88307177734375,0.27960875630378723,-0.07794832438230515,-0.22452259063720703
1776870292796108800,5.89310888671875,0.4254271984100342,-0.0986003428697586,-0.31078797578811646
1776870292806146600,5.903146484375,0.5429402589797974,-0.15400074422359467,-0.42747384309768677
1776870292816183800,5.913183837890625,0.5977880358695984,-0.23328624665737152,-0.5332479476928711
1776870292826220800,5.923220703125,0.5376725196838379,-0.3048933148384094,-0.542593240737915
1776870292836257800,5.9332578125,0.39380669593811035,-0.4229597747325897,-0.4100058972835541
1776870292846294500,5.94329443359375,0.1952454000711441,-0.6131219863891602,-0.16738712787628174
1776870292856331500,5.95333154296875,-0.00663393409922719,-0.7584275007247925,0.09392063319683075
1776870292866369800,5.963369873046875,-0.1497253179550171,-0.7017661333084106,0.2751287817955017
1776870292876406800,5.97340673828125,-0.15129657089710236,-0.39077600836753845,0.3436068892478943
1776870292886443500,5.983443603515625,-0.06932474672794342,0.11034888029098511,0.31641602516174316
1776870292896480800,5.993480712890625,-0.026457440108060837,0.5722906589508057,0.2806047797203064
1776870292906517800,6.003517822265625,-0.013096626847982407,0.8656341433525085,0.28981849551200867
1776870292916555500,6.013555419921875,-0.020590761676430702,0.9440967440605164,0.3510754704475403
1776870292926592500,6.023592529296875,-0.06154938042163849,0.8481296896934509,0.42325884103775024
1776870292936629800,6.033629638671875,-0.1227903664112091,0.6412835717201233,0.4439809024333954
1776870292946666200,6.043666259765625,-0.1955023854970932,0.377097487449646,0.39676040410995483
1776870292956703200,6.053703125,-0.2547404170036316,0.13028104603290558,0.2865540087223053
1776870292966740200,6.063740234375,-0.28952234983444214,-0.05934961140155792,0.14862675964832306
1776870292976778200,6.0737783203125,-0.27507391571998596,-0.14701154828071594,0.021289309486746788
1776870292986815200,6.083815185546875,-0.2162734419107437,-0.1437654197216034,-0.06456567347049713
1776870292996852200,6.093852294921875,-0.13028183579444885,-0.06847546249628067,-0.1003151535987854
1776870293006889200,6.10388916015625,-0.018639197573065758,0.027720844373106956,-0.10125897824764252
1776870293016926200,6.11392626953125,0.08024796843528748,0.10004324465990067,-0.08020881563425064
1776870293026963200,6.123963134765625,0.14153742790222168,0.13393649458885193,-0.060870807617902756
1776870293037001200,6.134001220703125,0.17568980157375336,0.1229642704129219,-0.056047823280096054
1776870293047038200,6.1440380859375,0.18565082550048828,0.07069627195596695,-0.06309854239225388
1776870293057075200,6.1540751953125,0.17705893516540527,-0.004881574306637049,-0.0763658806681633
1776870293067112200,6.1641123046875,0.1532241702079773,-0.08940844237804413,-0.08425043523311615
1776870293077149200,6.174149169921875,0.12039325386285782,-0.16432982683181763,-0.0832807719707489
1776870293087187200,6.184187255859375,0.08658815175294876,-0.21323157846927643,-0.06810102611780167
1776870293097224200,6.19422412109375,0.050578754395246506,-0.22755272686481476,-0.04043424129486084
1776870293107261200,6.20426123046875,0.020054401829838753,-0.20879901945590973,-0.009096292778849602
1776870293117298200,6.214298095703125,0.0018064221367239952,-0.15929058194160461,0.01889938861131668
1776870293127335400,6.22433544921875,-0.0021960425656288862,-0.09355578571557999,0.04183213412761688
1776870293137373200,6.234373291015625,0.0075822859071195126,-0.012222844175994396,0.04980164393782616
1776870293147410200,6.24441015625,0.032519325613975525,0.06334462016820908,0.05559615045785904
1776870293157447200,6.254447265625,0.046369895339012146,0.1299273669719696,0.06303702294826508
1776870293167484200,6.264484130859375,0.05065838247537613,0.17056214809417725,0.07621940225362778
1776870293177521200,6.274521240234375,0.05155107378959656,0.18136845529079437,0.09790472686290741
1776870293187558100,6.28455810546875,0.04830175265669823,0.16173191368579865,0.11978711932897568
1776870293197596400,6.294596435546875,0.03568582609295845,0.11354281008243561,0.1358635574579239
1776870293207633200,6.304633056640625,0.013701697811484337,0.0430460050702095,0.14115072786808014
1776870293217670100,6.314670166015625,-0.0007323693134821951,-0.01890631392598152,0.14809413254261017
1776870293227707100,6.32470703125,-0.004474643152207136,-0.05680762231349945,0.14760543406009674
1776870293237744000,6.334744140625,0.008014250546693802,-0.08118486404418945,0.1498856395483017
1776870293247782100,6.3447822265625,0.024329574778676033,-0.10020250082015991,0.155596524477005
1776870293257819100,6.354819091796875,0.041182588785886765,-0.13066160678863525,0.15824370086193085
1776870293267856100,6.364856201171875,0.0701918676495552,-0.17297230660915375,0.1592719405889511
1776870293277893400,6.374893310546875,0.08674368262290955,-0.23361514508724213,0.17803551256656647
1776870293287930400,6.384930419921875,0.08721799403429031,-0.2949187159538269,0.19428053498268127
1776870293297967000,6.394967041015625,0.06534278392791748,-0.32412853837013245,0.2074274867773056
1776870293308005000,6.405005126953125,0.04267982020974159,-0.30351194739341736,0.2137884497642517
1776870293318042400,6.41504248046875,0.04090162739157677,-0.24028822779655457,0.2252669483423233
1776870293328079000,6.4250791015625,0.051852546632289886,-0.15430088341236115,0.23611266911029816
1776870293338116000,6.4351162109375,0.07279297709465027,-0.08331219851970673,0.22157180309295654
1776870293348153000,6.445153076171875,0.10095031559467316,-0.003212837502360344,0.1754911243915558
1776870293358191400,6.45519140625,0.14152011275291443,0.07128829509019852,0.14089852571487427
1776870293368228000,6.46522802734375,0.1889459490776062,0.12201592326164246,0.11920921504497528
1776870293378265000,6.47526513671875,0.237357959151268,0.1212792918086052,0.08790082484483719
1776870293388302000,6.485302001953125,0.274851530790329,0.06596437096595764,0.08749709278345108
1776870293398339300,6.49533935546875,0.2942292392253876,-0.007164169568568468,0.12921710312366486
1776870293408377000,6.505377197265625,0.28420668840408325,-0.07468515634536743,0.19872507452964783
1776870293418414000,6.5154140625,0.24578553438186646,-0.12080471217632294,0.2684016227722168
1776870293428451300,6.525451416015625,0.19345735013484955,-0.12633317708969116,0.3078824579715729
1776870293438488300,6.53548828125,0.1380140632390976,-0.13009995222091675,0.31913989782333374
1776870293448525300,6.545525390625,0.09417390078306198,-0.14113634824752808,0.3221423625946045
1776870293458562000,6.55556201171875,0.07285689562559128,-0.14537130296230316,0.3616255819797516
1776870293468600300,6.565600341796875,0.04211869090795517,-0.10284329205751419,0.47640275955200195
1776870293478637300,6.57563720703125,0.016744092106819153,0.01690281741321087,0.6567168831825256
1776870293488674000,6.585674072265625,-0.005288239102810621,0.16121312975883484,0.8403346538543701
1776870293498711000,6.5957109375,-0.02786438725888729,0.28211742639541626,0.9762453436851501
1776870293508748300,6.605748291015625,-0.047986432909965515,0.376348078250885,1.0651233196258545
1776870293518786300,6.615786376953125,-0.048039697110652924,0.4840359091758728,1.1044224500656128
1776870293528823000,6.625822998046875,-0.022665364667773247,0.6168885231018066,1.0949221849441528
1776870293538860300,6.6358603515625,0.008196144364774227,0.7628920674324036,1.077567458152771
1776870293548897300,6.645897216796875,0.03646746277809143,0.8476253151893616,1.0888049602508545
1776870293558934300,6.655934326171875,0.05520200356841087,0.8665087223052979,1.1338461637496948
1776870293568972000,6.665971923828125,0.0817800834774971,0.7794350981712341,1.202962875366211
1776870293579009300,6.67600927734375,0.10198947787284851,0.6366094946861267,1.2643756866455078
1776870293589046300,6.68604638671875,0.11262188851833344,0.48647457361221313,1.301578164100647
1776870293599083300,6.696083251953125,0.10731767117977142,0.4111017882823944,1.324803352355957
1776870293609120300,6.706120361328125,0.07401829957962036,0.3916687071323395,1.31548273563385
1776870293619158300,6.716158203125,0.03960093855857849,0.4203171133995056,1.2612149715423584
1776870293629195300,6.7261953125,0.02058090828359127,0.47136032581329346,1.2652143239974976
1776870293639232300,6.736232177734375,0.15810121595859528,0.5149120688438416,1.34245765209198
1776870293649269000,6.74626904296875,0.3874547779560089,0.5365960597991943,1.396539568901062
1776870293659306200,6.75630615234375,0.6336475014686584,0.5223124623298645,1.3618910312652588
1776870293669344300,6.76634423828125,0.8718797564506531,0.5447144508361816,1.305370807647705
1776870293679381200,6.77638134765625,1.0584315061569214,0.5713180899620056,1.20302152633667
1776870293689418200,6.786418212890625,1.1802793741226196,0.5209087133407593,1.044697642326355
1776870293699455200,6.796455322265625,1.2131420373916626,0.45249876379966736,0.9119859337806702
1776870293709492200,6.8064921875,1.2116285562515259,0.5446984767913818,0.8554621934890747
1776870293719529200,6.816529296875,1.2002187967300415,0.6340187788009644,0.9175871014595032
1776870293729567200,6.826567138671875,1.1950397491455078,0.6298884749412537,1.0527456998825073
1776870293739604200,6.836604248046875,1.1723357439041138,0.635100781917572,1.0818489789962769
1776870293749641200,6.84664111328125,1.1423696279525757,0.6011154055595398,1.0207552909851074
1776870293759678200,6.85667822265625,1.1286625862121582,0.5681822299957275,0.9701980948448181
1776870293769715200,6.866715087890625,1.1589187383651733,0.5240107774734497,1.005306601524353
1776870293779753200,6.876753173828125,1.2031283378601074,0.559404730796814,1.1082485914230347
1776870293789790200,6.886790283203125,1.1992608308792114,0.5833057761192322,1.2201930284500122
1776870293799827200,6.8968271484375,1.2057222127914429,0.5780148506164551,1.350517749786377
1776870293809864200,6.9068642578125,1.2596086263656616,0.5514367818832397,1.4469844102859497
1776870293819901200,6.916901123046875,1.269525408744812,0.5370032787322998,1.4488168954849243
1776870293829939200,6.926939208984375,1.252573847770691,0.6219144463539124,1.3847273588180542
1776870293839976200,6.93697607421875,1.1962839365005493,0.7203919887542725,1.3201262950897217
1776870293850013200,6.94701318359375,1.112403392791748,0.6963385939598083,1.3449546098709106
1776870293860050200,6.95705029296875,1.0227625370025635,0.5395580530166626,1.566380500793457
1776870293870087200,6.967087158203125,0.9423246383666992,0.3413067162036896,1.8451900482177734
1776870293880125200,6.977125244140625,0.8779554963111877,0.20281383395195007,2.0535528659820557
1776870293890162200,6.987162109375,0.8572641015052795,0.19558201730251312,2.157083749771118
1776870293900199200,6.99719921875,0.890407145023346,0.21486437320709229,2.1261508464813232
1776870293910236200,7.007236083984375,1.0068554878234863,0.23672465980052948,2.077624797821045
1776870293920273400,7.0172734375,1.1822376251220703,0.22922013700008392,2.0858285427093506
1776870293930310100,7.02731005859375,1.3467615842819214,0.24949131906032562,2.111830234527588
1776870293940348200,7.03734814453125,1.4298932552337646,0.3400305509567261,2.1227364540100098
1776870293950386200,7.04738623046875,1.4144644737243652,0.5016737580299377,2.1245322227478027
1776870293960423200,7.057423095703125,1.3467233180999756,0.7276461720466614,2.2138607501983643
1776870293970460200,7.067460205078125,1.2760640382766724,0.899968147277832,2.347062110900879
1776870293980497200,7.0774970703125,1.213024377822876,0.9136916995048523,2.450918436050415
1776870293990535200,7.08753515625,1.1505953073501587,0.8002407550811768,2.4262924194335938
1776870294000572200,7.097572265625,1.0836354494094849,0.6208204030990601,2.361604928970337
1776870294010609200,7.107609130859375,1.0742608308792114,0.6309744715690613,2.2995870113372803
1776870294020646100,7.117646240234375,1.0699119567871094,0.47935327887535095,2.426962375640869
1776870294030683400,7.127683349609375,1.0412472486495972,0.2575678825378418,2.6810781955718994
1776870294040721200,7.13772119140625,0.9861781597137451,0.1635652333498001,2.836338758468628
1776870294050758100,7.147758056640625,0.9474490880966187,0.08760974556207657,2.817408323287964
1776870294060795400,7.15779541015625,0.978796660900116,0.001315068919211626,2.6842844486236572
1776870294070832000,7.16783203125,1.0586878061294556,0.12107822299003601,2.4848198890686035
1776870294080869000,7.177869140625,1.0894051790237427,-0.04779361933469772,2.604433298110962
1776870294090907100,7.1879072265625,1.0632619857788086,-0.05536152422428131,2.6794493198394775
1776870294100944400,7.1979443359375,1.023017406463623,-0.07385025173425674,2.532170534133911
1776870294110981000,7.207981201171875,0.9621420502662659,0.05152204632759094,2.2816765308380127
1776870294121018000,7.21801806640625,0.9291611909866333,0.35111701488494873,2.04580020904541
1776870294131055000,7.22805517578125,0.860211968421936,0.38862496614456177,2.015460252761841
1776870294141092400,7.23809228515625,0.8031688928604126,0.3378733694553375,2.086035966873169
1776870294151130000,7.248130126953125,0.8743911385536194,0.417859822511673,1.8978066444396973
1776870294161167000,7.2581669921875,0.9697863459587097,0.3633726239204407,1.7492296695709229
1776870294171204000,7.2682041015625,1.0173767805099487,0.2475956827402115,1.729107141494751
1776870294181241300,7.278241455078125,1.025041937828064,0.32100197672843933,1.6041308641433716
1776870294191278300,7.2882783203125,0.9957058429718018,0.3844728469848633,1.4308749437332153
1776870294201316000,7.298316162109375,0.9224334955215454,0.3896774649620056,1.2527821063995361
1776870294211353300,7.308353271484375,0.7918901443481445,0.3450774848461151,1.028281331062317
1776870294221390300,7.318390380859375,0.6721264719963074,0.2537880539894104,0.801048994064331
1776870294231427000,7.328427001953125,0.6468429565429688,0.2135828584432602,0.5836637020111084
1776870294241464000,7.338464111328125,0.6351338028907776,0.09053442627191544,0.38196495175361633
1776870294251502300,7.34850244140625,0.5018711090087891,0.10891956090927124,0.16884920001029968
1776870294261539300,7.358539306640625,0.312248170375824,0.04998673498630524,-0.12180420011281967
1776870294271576000,7.368576171875,0.18907484412193298,0.07634803652763367,-0.4077632427215576
1776870294281613000,7.378613037109375,0.052139367908239365,0.06859077513217926,-0.6835024356842041
1776870294291650300,7.388650390625,-0.067787304520607,0.02882632240653038,-0.9324227571487427
1776870294301687300,7.398687255859375,-0.1743430346250534,0.053353503346443176,-1.1187503337860107
1776870294311725000,7.40872509765625,-0.2762976288795471,-0.0395926833152771,-1.2642792463302612
1776870294321762300,7.41876220703125,-0.4243752360343933,-0.12505005300045013,-1.3846608400344849
1776870294331799300,7.42879931640625,-0.5615264177322388,-0.21541909873485565,-1.5164731740951538
1776870294341836300,7.438836181640625,-0.6600740551948547,-0.30160805583000183,-1.6309165954589844
1776870294351873300,7.448873291015625,-0.7739574909210205,-0.44540169835090637,-1.7049483060836792
1776870294361911300,7.458911376953125,-0.8628663420677185,-0.5295080542564392,-1.7750717401504517
1776870294371948300,7.4689482421875,-0.9233120679855347,-0.5330921411514282,-1.8439130783081055
1776870294381985300,7.4789853515625,-0.9961130619049072,-0.5276819467544556,-1.9139827489852905
1776870294392022000,7.48902197265625,-1.0589913129806519,-0.5587602257728577,-1.9919930696487427
1776870294402059300,7.499059326171875,-1.100892424583435,-0.6011146306991577,-2.0865087509155273
1776870294412097300,7.50909716796875,-1.1340278387069702,-0.5474303364753723,-2.1455037593841553
1776870294422134300,7.51913427734375,-1.2044713497161865,-0.43989402055740356,-2.1494150161743164
1776870294432171000,7.5291708984375,-1.2336491346359253,-0.4383038580417633,-2.1937708854675293
1776870294442208300,7.539208251953125,-1.2538007497787476,-0.37398210167884827,-2.2233238220214844
1776870294452245200,7.549245361328125,-1.2465755939483643,-0.39554572105407715,-2.209174156188965
1776870294462283000,7.559282958984375,-1.226561188697815,-0.46372663974761963,-2.1887283325195312
1776870294472320300,7.5693203125,-1.202353835105896,-0.4066716134548187,-2.23563551902771
1776870294482357200,7.579357177734375,-1.1716194152832031,-0.26381272077560425,-2.313345193862915
1776870294492394200,7.589394287109375,-1.1386877298355103,-0.1456858366727829,-2.414560556411743
1776870294502431200,7.59943115234375,-1.0949416160583496,-0.152611643075943,-2.49650502204895
1776870294512468200,7.60946826171875,-1.0425993204116821,-0.19938820600509644,-2.5117437839508057
1776870294522506200,7.61950634765625,-0.9887259602546692,-0.13794322311878204,-2.5026824474334717
1776870294532543200,7.629543212890625,-0.9538545608520508,-0.003260774305090308,-2.4533071517944336
1776870294542580200,7.639580322265625,-0.9403342008590698,0.023248597979545593,-2.401247262954712
1776870294552617200,7.6496171875,-0.9565408825874329,-0.006558300461620092,-2.364375591278076
1776870294562654200,7.659654296875,-1.0132888555526733,-0.03333532065153122,-2.2984352111816406
1776870294572692200,7.669692138671875,-1.1182312965393066,0.020923390984535217,-2.163177013397217
1776870294582729200,7.679729248046875,-1.224461317062378,0.05840818211436272,-2.0538899898529053
1776870294592766200,7.68976611328125,-1.2810659408569336,0.042872365564107895,-1.92501699924469
1776870294602803200,7.69980322265625,-1.2792654037475586,0.0027483822777867317,-1.819219946861267
1776870294612840200,7.709840087890625,-1.2429710626602173,-0.07367555052042007,-1.7891267538070679
1776870294622878200,7.719878173828125,-1.2197831869125366,-0.14596545696258545,-1.7624813318252563
1776870294632915200,7.729915283203125,-1.2464812994003296,-0.19107381999492645,-1.7086631059646606
1776870294642952200,7.7399521484375,-1.3033528327941895,-0.18937444686889648,-1.6230851411819458
1776870294652989200,7.7499892578125,-1.3319590091705322,-0.22344213724136353,-1.5652934312820435
1776870294663026200,7.760026123046875,-1.3368957042694092,-0.3441784083843231,-1.5175261497497559
1776870294673064200,7.770064208984375,-1.338840365409851,-0.541854739189148,-1.4011026620864868
1776870294683101200,7.78010107421875,-1.3368064165115356,-0.7175322771072388,-1.268791675567627
1776870294693138200,7.79013818359375,-1.3225702047348022,-0.7104101777076721,-1.1746433973312378
1776870294703175400,7.800175537109375,-1.2789463996887207,-0.6625372171401978,-1.1507564783096313
1776870294713212200,7.810212158203125,-1.2214395999908447,-0.6548281908035278,-1.1665623188018799
1776870294723249200,7.820249267578125,-1.176881194114685,-0.64757239818573,-1.178802728652954
1776870294733287200,7.830287109375,-1.1492335796356201,-0.6342222094535828,-1.1773412227630615
1776870294743324200,7.84032421875,-1.1513431072235107,-0.6190680265426636,-1.1720901727676392
1776870294753361200,7.850361083984375,-1.1812446117401123,-0.5587239861488342,-1.15579354763031
1776870294763398100,7.860398193359375,-1.2144932746887207,-0.4097369313240051,-1.1687809228897095
1776870294773435100,7.87043505859375,-1.2405019998550415,-0.31022924184799194,-1.2040740251541138
1776870294783473200,7.88047314453125,-1.2430013418197632,-0.284598171710968,-1.2646422386169434
1776870294793510100,7.89051025390625,-1.2193058729171753,-0.30382195115089417,-1.3154503107070923
1776870294803547100,7.900547119140625,-1.1781877279281616,-0.2793320417404175,-1.3900954723358154
1776870294813584100,7.910584228515625,-1.1442878246307373,-0.2306758165359497,-1.4416228532791138
1776870294823621400,7.920621337890625,-1.12538480758667,-0.1588391810655594,-1.4486477375030518
1776870294833659100,7.9306591796875,-1.1225268840789795,-0.0810149610042572,-1.4396865367889404
1776870294843696000,7.940696044921875,-1.1051521301269531,-0.07795099169015884,-1.4395301342010498
1776870294853733400,7.9507333984375,-1.0723353624343872,-0.11198832094669342,-1.4489939212799072
1776870294863770400,7.960770263671875,-1.0266749858856201,-0.14384159445762634,-1.4645087718963623
1776870294873807000,7.97080712890625,-0.9709411263465881,-0.15561355650424957,-1.505031943321228
1776870294883845000,7.98084521484375,-0.8845689296722412,-0.18663592636585236,-1.5568437576293945
1776870294893882400,7.99088232421875,-0.7808782458305359,-0.22341205179691315,-1.5911750793457031
1776870294903919000,8.000919189453125,-0.6980310082435608,-0.24675917625427246,-1.599345088005066
1776870294913956000,8.0109560546875,-0.6347103714942932,-0.25209563970565796,-1.6145485639572144
1776870294923993000,8.0209931640625,-0.5699295401573181,-0.2816593647003174,-1.6271506547927856
1776870294934030300,8.0310302734375,-0.5056418776512146,-0.3220265209674835,-1.6279789209365845
1776870294944068000,8.041068115234374,-0.4347842037677765,-0.35602042078971863,-1.6084063053131104
1776870294954104800,8.051104736328124,-0.3616122603416443,-0.3634969890117645,-1.5810755491256714
1776870294964141800,8.061141845703125,-0.30884653329849243,-0.3124503195285797,-1.5659549236297607
1776870294974178800,8.0711787109375,-0.28223276138305664,-0.20905627310276031,-1.5621671676635742
1776870294984215800,8.0812158203125,-0.27642521262168884,-0.05576259642839432,-1.5546032190322876
1776870294994253800,8.09125390625,-0.2949408292770386,0.0946815013885498,-1.5078741312026978
1776870295004290800,8.101290771484376,-0.3251517117023468,0.248994380235672,-1.408189296722412
1776870295014327800,8.111327880859376,-0.34473955631256104,0.3395839333534241,-1.2154251337051392
1776870295024365000,8.121364990234374,-0.3417235016822815,0.3315187990665436,-0.9740530252456665
1776870295034401800,8.13140185546875,-0.31988611817359924,0.2539084255695343,-0.7596635222434998
1776870295044439800,8.141439697265625,-0.271601140499115,0.11025380343198776,-0.6419544219970703
1776870295054476800,8.151476806640625,-0.20095893740653992,-0.06324421614408493,-0.6560846567153931
1776870295064514000,8.16151416015625,-0.11671649664640427,-0.2557675838470459,-0.7449013590812683
1776870295074550800,8.17155078125,-0.026990072801709175,-0.45338451862335205,-0.8294830322265625
1776870295084587800,8.181587890625,0.0601608082652092,-0.5771589279174805,-0.9096633791923523
1776870295094624800,8.191624755859374,0.137238010764122,-0.6818190217018127,-0.9665138721466064
1776870295104662800,8.201662841796875,0.19001200795173645,-0.7962068915367126,-0.9847314953804016
1776870295114699800,8.21169970703125,0.19557268917560577,-0.9153817296028137,-1.022861361503601
1776870295124736800,8.22173681640625,0.19075849652290344,-1.1794629096984863,-1.1701689958572388
1776870295134773800,8.231773681640625,0.18275223672389984,-1.8761754035949707,-1.3718382120132446
1776870295144811000,8.24181103515625,-0.0005374259199015796,-3.4241750240325928,-1.296280026435852
1776870295154848800,8.251848876953124,-0.4154861569404602,-5.061186790466309,-0.6820909380912781
1776870295164885800,8.2618857421875,-0.8635158538818359,-5.321597576141357,0.22265997529029846
1776870295174923000,8.271923095703125,-1.1689244508743286,-3.9777801036834717,1.0212860107421875
1776870295184960000,8.2819599609375,-1.2085456848144531,-1.694580316543579,1.640358328819275
1776870295194996700,8.291996826171875,-0.978944718837738,0.48852306604385376,1.9930585622787476
1776870295205034800,8.30203466796875,-0.5780172944068909,2.047666549682617,2.0186190605163574
1776870295215072000,8.312072021484376,-0.14749491214752197,2.940272331237793,1.7931511402130127
1776870295225108700,8.322108642578126,0.16703905165195465,3.315274715423584,1.3935816287994385
1776870295235145700,8.332145751953124,0.3443712294101715,3.217233419418335,0.9253510236740112
1776870295245182700,8.3421826171875,0.42762404680252075,2.765357494354248,0.465149849653244
1776870295255221000,8.352220947265625,0.43419644236564636,2.034785747528076,0.042338933795690536
1776870295265257700,8.3622578125,0.40650543570518494,1.139831304550171,-0.289375364780426
1776870295275294700,8.372294677734375,0.34275150299072266,0.23731881380081177,-0.5721825361251831
1776870295285331700,8.382331787109376,0.20060953497886658,-0.5409114360809326,-0.7584714889526367
1776870295295369000,8.392368896484374,0.01447215024381876,-1.0181059837341309,-0.857005774974823
1776870295305406700,8.40240673828125,-0.06948080658912659,-1.2544487714767456,-0.8711380958557129
1776870295315443700,8.412443603515625,-0.041003625839948654,-1.2525229454040527,-0.7129298448562622
1776870295325481000,8.42248095703125,0.03062262386083603,-0.9834297299385071,-0.395633339881897
1776870295335518000,8.43251806640625,0.09561120718717575,-0.5695228576660156,0.015243401750922203
1776870295345555000,8.442554931640625,0.13567420840263367,-0.11651702225208282,0.3978573679924011
1776870295355591700,8.452591796875,0.1619790494441986,0.2985539436340332,0.5835414528846741
1776870295365630000,8.4626298828125,0.1523277461528778,0.6438098549842834,0.573603630065918
1776870295375667000,8.4726669921875,0.13371652364730835,0.8618593811988831,0.41325387358665466
1776870295385703700,8.48270361328125,0.14251400530338287,0.9296464323997498,0.1685490608215332
1776870295395740700,8.49274072265625,0.20055200159549713,0.8510762453079224,-0.05516977980732918
1776870295405778000,8.50277783203125,0.2855353355407715,0.6443845629692078,-0.23893454670906067
1776870295415816000,8.51281591796875,0.3262864947319031,0.3993513882160187,-0.39068278670310974
1776870295425852700,8.522852783203126,0.3018205761909485,0.10629262030124664,-0.5295757055282593
1776870295435889700,8.5328896484375,0.2259146273136139,-0.27810510993003845,-0.6154690384864807
1776870295445927000,8.542927001953124,0.13209012150764465,-0.7647932767868042,-0.6465819478034973
1776870295455964000,8.5529638671875,0.012045743875205517,-1.2269244194030762,-0.632335364818573
1776870295466001700,8.563001708984375,-0.11363495141267776,-1.4663021564483643,-0.519961953163147
1776870295476039000,8.573038818359375,-0.20678940415382385,-1.3643821477890015,-0.2362697869539261
1776870295486076000,8.583075927734376,-0.24819383025169373,-0.9200177788734436,0.1560729593038559
1776870295496113000,8.59311279296875,-0.258107453584671,-0.31553852558135986,0.49724599719047546
1776870295506150000,8.60314990234375,-0.23301167786121368,0.20371557772159576,0.6690579652786255
1776870295516188000,8.61318798828125,-0.17140477895736694,0.5024213194847107,0.6981396675109863
1776870295526225000,8.623224853515625,-0.10055457055568695,0.5929677486419678,0.6422596573829651
1776870295536262000,8.633261962890625,-0.041242778301239014,0.548884391784668,0.5585514307022095
1776870295546298600,8.643298583984375,0.006937268190085888,0.44046899676322937,0.46056947112083435
1776870295556335900,8.6533359375,0.04260019212961197,0.3261948823928833,0.3578473627567291
1776870295566374000,8.663373779296874,0.07781996577978134,0.2477719783782959,0.23153015971183777
1776870295576411000,8.673410888671874,0.12287505716085434,0.24648860096931458,0.09664984047412872
1776870295586447600,8.683447509765625,0.17350120842456818,0.2959384620189667,-0.01447081845253706
1776870295596484900,8.69348486328125,0.2120126485824585,0.3190576136112213,-0.07481059432029724
1776870295606521900,8.70352197265625,0.22283786535263062,0.2988937497138977,-0.1152656078338623
1776870295616558800,8.713558837890625,0.20867864787578583,0.24501001834869385,-0.1529163122177124
1776870295626596900,8.723596923828126,0.17673616111278534,0.16139209270477295,-0.19455909729003906
1776870295636633900,8.7336337890625,0.1307723969221115,0.06889650970697403,-0.21239535510540009
1776870295646670800,8.7436708984375,0.07206087559461594,-0.024386566132307053,-0.17905071377754211
1776870295656707800,8.753707763671875,0.015853531658649445,-0.0962224081158638,-0.11525441706180573
1776870295666744800,8.763744873046875,-0.039268843829631805,-0.155300110578537,-0.059413790702819824
1776870295676782800,8.773782958984375,-0.08492235094308853,-0.18737095594406128,-0.03573695942759514
1776870295686819800,8.78381982421875,-0.11474256217479706,-0.17018131911754608,-0.03611459583044052
1776870295696856800,8.79385693359375,-0.12761521339416504,-0.12886077165603638,-0.04077752307057381
1776870295706893800,8.803893798828126,-0.13110768795013428,-0.09908930212259293,-0.03657052665948868
1776870295716930800,8.813930908203124,-0.11858709901571274,-0.09453476220369339,-0.019542807713150978
1776870295726968800,8.82396875,-0.10119186341762543,-0.13838744163513184,0.0006506102508865297
1776870295737005800,8.834005859375,-0.08952615410089493,-0.20706424117088318,0.01474698819220066
1776870295747042800,8.844042724609375,-0.08999647200107574,-0.2881662845611572,0.006355633959174156
1776870295757079800,8.854079833984375,-0.09320610761642456,-0.320090651512146,-0.009122924879193306
1776870295767116800,8.86411669921875,-0.07809560000896454,-0.2685987055301666,-0.016464726999402046
1776870295777154800,8.87415478515625,-0.03843154385685921,-0.15605857968330383,-0.003637611633166671
1776870295787191800,8.88419189453125,0.00296276668086648,-0.0415802001953125,0.040457677096128464
1776870295797228800,8.894228759765625,0.042100582271814346,0.045349638909101486,0.08303656429052353
1776870295807265800,8.904265869140625,0.06745227426290512,0.0907842293381691,0.11267515271902084
1776870295817303000,8.914302978515625,0.08152788132429123,0.08101735264062881,0.13620631396770477
1776870295827340800,8.9243408203125,0.08858712017536163,0.04354507848620415,0.15389768779277802
1776870295837377800,8.934377685546876,0.07787429541349411,-0.012677978724241257,0.16738606989383698
1776870295847414800,8.944414794921874,0.05582917854189873,-0.06950531154870987,0.1704859882593155
1776870295857452000,8.9544521484375,0.035585157573223114,-0.09503357112407684,0.17162048816680908
1776870295867488800,8.96448876953125,0.017320666462183,-0.08222749829292297,0.16650429368019104
1776870295877526800,8.97452685546875,0.006130064371973276,-0.035898346453905106,0.17298349738121033
1776870295887564000,8.98456396484375,0.002667954657226801,0.0065077003091573715,0.1897856444120407
1776870295897600800,8.994600830078125,0.0062248725444078445,0.0347963310778141,0.20549376308918
1776870295907637800,9.0046376953125,0.010130397975444794,0.027090206742286682,0.21481457352638245
1776870295917674800,9.0146748046875,0.020593691617250443,-0.0031611721497029066,0.21073593199253082
1776870295927713000,9.024713134765625,0.029020199552178383,-0.044862013310194016,0.19582276046276093
1776870295937749800,9.034749755859375,0.04168326407670975,-0.07610195875167847,0.18435333669185638
1776870295947786500,9.044786376953125,0.0561482235789299,-0.08541209995746613,0.1753140240907669
1776870295957823500,9.054823486328125,0.05775411054491997,-0.05872323364019394,0.17530497908592224
1776870295967860500,9.064860595703125,0.05662093311548233,-0.0036570527590811253,0.18018442392349243
1776870295977898500,9.0748984375,0.0579511821269989,0.05410477891564369,0.18379433453083038
1776870295987935500,9.084935546875,0.06529565155506134,0.11120694875717163,0.19164586067199707
1776870295997972500,9.094972412109374,0.06466128677129745,0.15888658165931702,0.19070151448249817
1776870296008009500,9.105009521484375,0.061164554208517075,0.19194786250591278,0.1805037260055542
1776870296018046500,9.11504638671875,0.04986316338181496,0.19385015964508057,0.1648225039243698
1776870296028084500,9.12508447265625,0.03614814952015877,0.15609265863895416,0.15870335698127747
1776870296038121500,9.13512158203125,0.00833675917237997,0.07944502681493759,0.17870210111141205
1776870296048158500,9.145158447265626,-0.03219548612833023,0.013523798435926437,0.24067147076129913
1776870296058195700,9.15519580078125,-0.06754868477582932,-0.04343056306242943,0.3193367123603821
1776870296068232400,9.165232421875,-0.10715947300195694,-0.11072944104671478,0.3616500794887543
1776870296078270500,9.1752705078125,-0.12530119717121124,-0.20826931297779083,0.3533436954021454
1776870296088307500,9.185307373046875,-0.11428450047969818,-0.30835118889808655,0.34546151757240295
1776870296098344400,9.195344482421875,-0.08571543544530869,-0.3204230070114136,0.38973018527030945
1776870296108381400,9.20538134765625,-0.05582331866025925,-0.2625330984592438,0.49404993653297424
1776870296118418400,9.21541845703125,-0.03669729456305504,-0.16085493564605713,0.6139523983001709
1776870296128456700,9.225456787109374,-0.02720765210688114,-0.06299148499965668,0.7123042345046997
1776870296138493400,9.235493408203125,-0.010093114338815212,0.06136482208967209,0.7767564654350281
1776870296148530400,9.245530517578125,0.0026082999538630247,0.20448097586631775,0.8137669563293457
1776870296158567400,9.2555673828125,0.02833603322505951,0.3571224510669708,0.8273639678955078
1776870296168604700,9.265604736328125,0.05184588581323624,0.47209909558296204,0.8218538761138916
1776870296178642400,9.275642333984376,0.08499957621097565,0.5180463194847107,0.8407082557678223
1776870296188679400,9.285679443359374,0.1272333264350891,0.4624587297439575,0.9311659932136536
1776870296198716400,9.29571630859375,0.18420925736427307,0.33050841093063354,1.1402143239974976
1776870296208753700,9.305753662109375,0.22978739440441132,0.18785804510116577,1.3798394203186035
1776870296218790700,9.315790771484375,0.22142799198627472,0.11348102241754532,1.567106008529663
1776870296228828400,9.325828369140625,0.18910148739814758,0.08939751982688904,1.7002708911895752
1776870296238865700,9.33586572265625,0.15090642869472504,0.11408156156539917,1.7491655349731445
1776870296248902700,9.345902587890626,0.1014656350016594,0.18126486241817474,1.7328547239303589
1776870296258939400,9.355939453125,0.07047336548566818,0.27158835530281067,1.6509106159210205
1776870296268976400,9.365976318359374,0.11183305829763412,0.4062420427799225,1.544271469116211
1776870296279014700,9.3760146484375,0.23302526772022247,0.5980538129806519,1.4529615640640259
1776870296289051600,9.3860517578125,0.45625701546669006,0.7939650416374207,1.4480013847351074
1776870296299088400,9.39608837890625,0.7131516337394714,0.9597939252853394,1.5367752313613892
1776870296309125400,9.40612548828125,0.95039963722229,1.039769172668457,1.6305112838745117
1776870296319162600,9.41616259765625,1.081221580505371,0.9526816606521606,1.6249219179153442
1776870296329200400,9.426200439453124,1.0795831680297852,0.7556344270706177,1.421498417854309
1776870296339237400,9.4362373046875,1.0235953330993652,0.5806452631950378,1.1635534763336182
1776870296349274400,9.4462744140625,0.9202603697776794,0.3951249420642853,1.0782079696655273
1776870296359311600,9.4563115234375,0.8258979320526123,0.32523030042648315,1.1532334089279175
1776870296369349400,9.466349365234375,0.8121488094329834,0.4965977668762207,1.3032565116882324
1776870296379386400,9.476386474609376,0.9313138127326965,0.7863526344299316,1.4351950883865356
1776870296389423600,9.486423583984376,1.0643360614776611,1.0228732824325562,1.5441234111785889
1776870296399460600,9.496460693359374,1.13033926486969,1.1126223802566528,1.55443274974823
1776870296409497600,9.50649755859375,1.1807023286819458,0.9462000727653503,1.4575552940368652
1776870296419534300,9.516534423828125,1.2290573120117188,0.5702555179595947,1.3759562969207764
1776870296429572600,9.526572509765625,1.2617117166519165,0.27155932784080505,1.402823805809021
1776870296439609600,9.536609619140625,1.2673126459121704,0.278504341840744,1.5368658304214478
1776870296449646600,9.546646484375,1.2527083158493042,0.4549829661846161,1.7049522399902344
1776870296459683300,9.556683349609376,1.2180278301239014,0.5879369974136353,1.8561702966690063
1776870296469721600,9.5667216796875,1.1593751907348633,0.5997430682182312,1.897886037826538
1776870296479758600,9.576758544921875,1.1660445928573608,0.6650722622871399,1.8921610116958618
1776870296489795300,9.58679541015625,1.2042686939239502,0.751353919506073,1.8993600606918335
1776870296499832300,9.596832275390625,1.2372393608093262,0.7463969588279724,1.8868639469146729
1776870296509869600,9.60686962890625,1.2679983377456665,0.6141155958175659,1.9749290943145752
1776870296519907600,9.616907470703126,1.2987812757492065,0.4745103120803833,2.128228187561035
1776870296529944300,9.6269443359375,1.321384072303772,0.4355216324329376,2.276036024093628
1776870296539981600,9.636981689453124,1.3291027545928955,0.5333986878395081,2.407625913619995
1776870296550018600,9.6470185546875,1.3228285312652588,0.7117793560028076,2.429368734359741
1776870296560055600,9.6570556640625,1.3223375082015991,0.8559207916259766,2.3849611282348633
1776870296570093300,9.66709326171875,1.3447165489196777,1.0354758501052856,2.338524341583252
1776870296580130600,9.677130615234375,1.3468530178070068,1.1777169704437256,2.331179618835449
1776870296590167600,9.68716748046875,1.3105440139770508,1.118295431137085,2.339418649673462
1776870296600204500,9.69720458984375,1.2610046863555908,0.8390270471572876,2.3465802669525146
1776870296610241500,9.707241455078124,1.2365522384643555,0.602739691734314,2.3680500984191895
1776870296620279600,9.717279541015625,1.208423137664795,0.5197728872299194,2.5175747871398926
1776870296630316500,9.727316650390625,1.169193983078003,0.4284972846508026,2.7507576942443848
1776870296640353500,9.737353515625,1.1122503280639648,0.39147162437438965,2.952932357788086
1776870296650390300,9.747390380859375,1.0276625156402588,0.27454128861427307,3.11657977104187
1776870296660427500,9.757427490234376,0.9707823991775513,0.13143712282180786,3.2115061283111572
1776870296670465500,9.767465576171874,0.9755233526229858,-0.05822468921542168,3.1904454231262207
1776870296680502500,9.77750244140625,1.0944877862930298,-0.13388775289058685,3.1720638275146484
1776870296690539500,9.78753955078125,1.14316725730896,0.0804988369345665,3.0573794841766357
1776870296700576500,9.797576416015625,1.1500078439712524,0.36571434140205383,2.7942557334899902
1776870296710613500,9.807613525390625,1.0989941358566284,0.24526089429855347,2.8608896732330322
1776870296720651300,9.8176513671875,0.9949010610580444,0.3951529264450073,2.745556592941284
1776870296730688500,9.8276884765625,0.9531123042106628,0.705480694770813,2.5003254413604736
1776870296740725500,9.8377255859375,0.8477922677993774,0.9034613966941833,2.313159942626953
1776870296750762500,9.847762451171874,0.7905215620994568,1.0482311248779297,2.0792007446289062
1776870296760799500,9.857799560546875,0.9211940765380859,0.5101404786109924,2.269620418548584
1776870296770837500,9.86783740234375,1.0209012031555176,0.5269556641578674,2.148183822631836
1776870296780874500,9.87787451171875,1.2409508228302002,0.6076585054397583,2.054628849029541
1776870296790911500,9.887911376953125,1.3987460136413574,0.5574252009391785,1.9213844537734985
1776870296800948500,9.897948486328126,1.3503491878509521,0.5913125872612,1.6876018047332764
1776870296810986500,9.907986572265624,1.1281763315200806,0.6747968196868896,1.4059906005859375
1776870296821023500,9.9180234375,0.9171047806739807,0.7753444314002991,1.1021279096603394
1776870296831060500,9.928060546875,0.8564571738243103,0.5202354788780212,0.7717257738113403
1776870296841097500,9.938097412109375,0.9314723014831543,0.4669000804424286,0.3690083920955658
1776870296851134500,9.948134521484375,0.889960527420044,0.5193579792976379,0.08902281522750854
1776870296861172500,9.95817236328125,0.7361035943031311,0.37305426597595215,-0.17241837084293365
1776870296871209500,9.96820947265625,0.5305203199386597,0.26970845460891724,-0.4263305366039276
1776870296881246500,9.97824658203125,0.3500418961048126,0.15665405988693237,-0.6959124803543091
1776870296891283500,9.988283447265625,0.15201562643051147,0.13898184895515442,-0.9804408550262451
1776870296901320400,9.998320556640625,0.01654701866209507,0.13399215042591095,-1.2644678354263306
1776870296911358700,10.008358642578125,-0.15765035152435303,0.1352347880601883,-1.5304392576217651
1776870296921395500,10.0183955078125,-0.3032861053943634,0.09534382820129395,-1.7144397497177124
1776870296931432400,10.028432373046876,-0.4218180775642395,-0.00105328019708395,-1.84089994430542
1776870296941469400,10.038469482421876,-0.5332077145576477,-0.14520247280597687,-1.944892168045044
1776870296951507200,10.048507080078124,-0.6613422632217407,-0.3348110020160675,-2.0539283752441406
1776870296961545000,10.058544921875,-0.759946882724762,-0.45078688859939575,-2.1948227882385254
1776870296971582200,10.068582275390625,-0.7877300381660461,-0.5069739818572998,-2.346884250640869
1776870296981619200,10.078619140625,-0.7843744158744812,-0.5603879690170288,-2.4311578273773193
1776870296991656200,10.08865625,-0.8199982047080994,-0.603496789932251,-2.446667194366455
1776870297001694000,10.09869384765625,-0.88002610206604,-0.594967782497406,-2.4754297733306885
1776870297011731200,10.108731201171874,-0.9538984894752502,-0.6466386914253235,-2.5347800254821777
1776870297021768200,10.118768310546875,-1.0603508949279785,-0.6306549310684204,-2.53409481048584
1776870297031805000,10.128804931640625,-1.180316686630249,-0.619188666343689,-2.5588297843933105
1776870297041842000,10.138842041015625,-1.2226446866989136,-0.6068925857543945,-2.6041126251220703
1776870297051880200,10.148880126953125,-1.2377469539642334,-0.46615171432495117,-2.5733392238616943
1776870297061917200,10.158917236328126,-1.197412133216858,-0.45658618211746216,-2.565739393234253
1776870297071954000,10.168953857421876,-1.1721628904342651,-0.46888333559036255,-2.5301427841186523
1776870297081991200,10.1789912109375,-1.1861207485198975,-0.43826577067375183,-2.5042145252227783
1776870297092028200,10.189028076171875,-1.1743837594985962,-0.4717414379119873,-2.5771420001983643
1776870297102066000,10.19906591796875,-1.1827175617218018,-0.4035208225250244,-2.6259846687316895
1776870297112103000,10.20910302734375,-1.1948444843292236,-0.2434893548488617,-2.6192972660064697
1776870297122140200,10.21914013671875,-1.1853221654891968,-0.1967753767967224,-2.5931570529937744
1776870297132177200,10.22917724609375,-1.1574116945266724,-0.23308411240577698,-2.5278995037078857
1776870297142214100,10.239214111328126,-1.1222946643829346,-0.22650264203548431,-2.4875311851501465
1776870297152252200,10.249252197265625,-1.1016868352890015,-0.1777161955833435,-2.478163003921509
1776870297162289200,10.2592890625,-1.0825331211090088,-0.05383659899234772,-2.4458730220794678
1776870297172326100,10.269326171875,-1.0895729064941406,0.047443948686122894,-2.358081340789795
1776870297182363100,10.279363037109375,-1.1269389390945435,0.1625276654958725,-2.1981313228607178
1776870297192401200,10.289401123046876,-1.1834166049957275,0.18781091272830963,-2.0334348678588867
1776870297202438100,10.299438232421876,-1.2563613653182983,0.1456887573003769,-1.9008759260177612
1776870297212475100,10.30947509765625,-1.332132339477539,0.07416104525327682,-1.8606516122817993
1776870297222512000,10.31951220703125,-1.3856794834136963,-0.04012185335159302,-1.8548873662948608
1776870297232549000,10.329549072265625,-1.4128737449645996,-0.10391095280647278,-1.8105149269104004
1776870297242587100,10.339587158203125,-1.4044880867004395,-0.11741664260625839,-1.7244726419448853
1776870297252624100,10.3496240234375,-1.3526551723480225,-0.1257890909910202,-1.629209280014038
1776870297262660900,10.359660888671876,-1.2947815656661987,-0.10532322525978088,-1.5140845775604248
1776870297272698000,10.369697998046876,-1.2310699224472046,-0.13984258472919464,-1.3826285600662231
1776870297282735000,10.379735107421874,-1.209602952003479,-0.33641424775123596,-1.2985477447509766
1776870297292773000,10.389773193359375,-1.2426512241363525,-0.5340325236320496,-1.2379109859466553
1776870297302810000,10.39981005859375,-1.2996151447296143,-0.6007500290870667,-1.1737024784088135
1776870297312848100,10.40984814453125,-1.3568669557571411,-0.5618220567703247,-1.1442832946777344
1776870297322886000,10.419885986328126,-1.4014350175857544,-0.5148971676826477,-1.2046723365783691
1776870297332923100,10.429923095703124,-1.4240611791610718,-0.5445722341537476,-1.2709161043167114
1776870297342960000,10.439960205078124,-1.4102492332458496,-0.5530868768692017,-1.2565710544586182
1776870297352997000,10.4499970703125,-1.364031434059143,-0.5139296054840088,-1.1818227767944336
1776870297363034000,10.4600341796875,-1.3077588081359863,-0.42313581705093384,-1.1399717330932617
1776870297373072100,10.470072021484375,-1.249056339263916,-0.38270583748817444,-1.1568154096603394
1776870297383109000,10.480109130859375,-1.2154115438461304,-0.3699370324611664,-1.2252216339111328
1776870297393146000,10.49014599609375,-1.189581274986267,-0.4225190281867981,-1.2856868505477905
1776870297403183000,10.50018310546875,-1.1714166402816772,-0.48915210366249084,-1.322949767112732
1776870297413221000,10.51022119140625,-1.1630951166152954,-0.5261801481246948,-1.3782521486282349
1776870297423258000,10.520258056640625,-1.1417120695114136,-0.546640157699585,-1.4041264057159424
1776870297433295000,10.530295166015625,-1.1202057600021362,-0.5251519083976746,-1.4626648426055908
1776870297443332000,10.54033203125,-1.1095740795135498,-0.4375741481781006,-1.5194036960601807
1776870297453369000,10.550369140625,-1.1072076559066772,-0.295510470867157,-1.576084017753601
1776870297463407000,10.560406982421876,-1.0912398099899292,-0.20106066763401031,-1.6081633567810059
1776870297473444000,10.570444091796874,-1.0338287353515625,-0.18660689890384674,-1.6402273178100586
1776870297483481000,10.580481201171875,-0.9338105320930481,-0.290167897939682,-1.6276915073394775
1776870297493518000,10.59051806640625,-0.8391870856285095,-0.45623570680618286,-1.5896799564361572
1776870297503555000,10.60055517578125,-0.7629501223564148,-0.5860185027122498,-1.5714069604873657
1776870297513593000,10.610593017578125,-0.7105262875556946,-0.6510672569274902,-1.577805519104004
1776870297523630000,10.620630126953126,-0.6606783270835876,-0.6663703322410583,-1.6314884424209595
1776870297533667000,10.6306669921875,-0.5966788530349731,-0.6592096090316772,-1.7007532119750977
1776870297543704000,10.6407041015625,-0.5599181652069092,-0.5941879749298096,-1.7513474225997925
1776870297553742000,10.6507421875,-0.5321661829948425,-0.4892418682575226,-1.778260588645935
1776870297563779000,10.660779052734375,-0.49617940187454224,-0.37600958347320557,-1.7781190872192383
1776870297573816000,10.670816162109375,-0.43308326601982117,-0.2673978805541992,-1.7277582883834839
1776870297583853000,10.68085302734375,-0.3683980107307434,-0.1531171202659607,-1.6368975639343262
1776870297593890300,10.690890380859376,-0.3049119710922241,-0.07806603610515594,-1.5324534177780151
1776870297603928000,10.700927978515624,-0.23934787511825562,-0.0721394419670105,-1.4133845567703247
1776870297613965000,10.710965087890624,-0.17013151943683624,-0.07422097027301788,-1.2712045907974243
1776870297624002000,10.721001953125,-0.1070534810423851,-0.08060722798109055,-1.0789005756378174
1776870297634039000,10.7310390625,-0.06142367795109749,-0.08757991343736649,-0.8576827645301819
1776870297644076000,10.741075927734375,-0.0434553325176239,-0.06654440611600876,-0.6429951786994934
1776870297654114000,10.751114013671875,-0.06083352118730545,0.027104854583740234,-0.4641149342060089
1776870297664151300,10.7611513671875,-0.09250622987747192,0.2081020623445511,-0.378707617521286
1776870297674188000,10.77118798828125,-0.13304805755615234,0.40386196970939636,-0.4465346038341522
1776870297684225000,10.78122509765625,-0.15118259191513062,0.5017872452735901,-0.6550225615501404
1776870297694263000,10.791262939453125,-0.1429435759782791,0.4392450153827667,-1.0325552225112915
1776870297704300300,10.80130029296875,-0.11038962751626968,0.13933178782463074,-1.4796559810638428
1776870297714337000,10.8113369140625,-0.06319521367549896,-0.4338665008544922,-1.7110135555267334
1776870297724374000,10.8213740234375,-0.007841677404940128,-1.1127382516860962,-1.4453539848327637
1776870297734411000,10.831410888671876,0.05173776298761368,-1.7060960531234741,-0.7399103045463562
1776870297744449000,10.841448974609374,-0.004150004126131535,-1.9709199666976929,-0.039094407111406326
1776870297754486000,10.851486083984375,-0.09107105433940887,-1.97904372215271,0.36197417974472046
1776870297764523000,10.86152294921875,-0.11726004630327225,-1.7945388555526733,0.4200369715690613
1776870297774560000,10.87156005859375,-0.015005314722657204,-1.4668192863464355,0.3250848948955536
1776870297784598000,10.881597900390625,0.18342335522174835,-0.980749249458313,0.2590073347091675
1776870297794635000,10.891635009765626,0.455777108669281,-0.33613941073417664,0.579440712928772
1776870297804672000,10.901672119140626,0.5819510221481323,0.3724609315395355,0.9535360336303711
1776870297814709200,10.911709228515624,0.5291376113891602,0.9306342005729675,1.0723034143447876
1776870297824746200,10.921746337890625,0.391702800989151,1.2741918563842773,0.9541645646095276
1776870297834784000,10.931783935546875,0.2627538740634918,1.3728238344192505,0.7198505997657776
1776870297844821000,10.941821044921875,0.16891498863697052,1.292589783668518,0.49071004986763
1776870297854858200,10.951858154296875,0.1329529881477356,1.0719223022460938,0.28967416286468506
1776870297864895200,10.961895263671876,0.13069570064544678,0.7648915648460388,0.18408727645874023
1776870297874932000,10.971931884765626,0.14567624032497406,0.44132867455482483,0.13860023021697998
1776870297884970200,10.98197021484375,0.15113678574562073,0.1764059215784073,0.1263645887374878
1776870297895007200,10.99200732421875,0.10511736571788788,0.05565154552459717,0.1028779149055481
1776870297905044000,11.0020439453125,-0.010617490857839584,0.10386354476213455,0.02087731845676899
1776870297915081000,11.0120810546875,-0.1614365577697754,0.2671275734901428,-0.08894718438386917
1776870297925118000,11.022117919921875,-0.2923077642917633,0.4197498857975006,-0.1695357710123062
1776870297935156200,11.03215625,-0.34826502203941345,0.4372793436050415,-0.1925707757472992
1776870297945193000,11.04219287109375,-0.3476833999156952,0.3371809720993042,-0.15006087720394135
1776870297955233300,11.0522333984375,-0.30677512288093567,0.17740488052368164,-0.08457507193088531
1776870297965270300,11.062270263671875,-0.2507419288158417,0.023085877299308777,-0.03315262869000435
1776870297975308500,11.07230859375,-0.2086392343044281,-0.07388248294591904,-0.018503110855817795
1776870297985345300,11.08234521484375,-0.18376663327217102,-0.10170026123523712,-0.03904300555586815
1776870297995382300,11.09238232421875,-0.15500928461551666,-0.08302271366119385,-0.07570887356996536
1776870298005419300,11.102419189453125,-0.09483463317155838,-0.07178390771150589,-0.09707195311784744
1776870298015456500,11.11245654296875,-0.012112855911254883,-0.05981859192252159,-0.12032667547464371
1776870298025494300,11.122494384765625,0.081758514046669,-0.03220347687602043,-0.15166489779949188
1776870298035531300,11.13253125,0.17755773663520813,-0.003355050226673484,-0.21528248488903046
1776870298045568500,11.142568603515626,0.2774076461791992,-0.037581462413072586,-0.30365949869155884
1776870298055605500,11.15260546875,0.3854885697364807,-0.18474161624908447,-0.41778790950775146
1776870298065642200,11.162642333984374,0.428653359413147,-0.4138733446598053,-0.46645984053611755
1776870298075680300,11.17268017578125,0.37622690200805664,-0.6425864100456238,-0.43190160393714905
1776870298085717500,11.182717529296875,0.24457405507564545,-0.8587517142295837,-0.3142964243888855
1776870298095754500,11.19275439453125,0.07718852907419205,-0.9258255958557129,-0.07991880178451538
1776870298105791200,11.202791259765625,-0.04448091611266136,-0.7689880132675171,0.18438474833965302
1776870298115828200,11.212828125,-0.11448770016431808,-0.43779465556144714,0.37148115038871765
1776870298125866500,11.222866455078124,-0.14962677657604218,-0.07763194292783737,0.43343693017959595
1776870298135903200,11.2329033203125,-0.15417945384979248,0.17355580627918243,0.4176289439201355
1776870298145940200,11.242940185546875,-0.09153817594051361,0.2516934871673584,0.3758106529712677
1776870298155977500,11.2529775390625,-0.03521151840686798,0.2563508152961731,0.3487372100353241
1776870298166015500,11.263015380859375,-0.025050224736332893,0.20473583042621613,0.3177478611469269
1776870298176052200,11.27305224609375,-0.05167730897665024,0.12424179166555405,0.2743726968765259
1776870298186089200,11.283089111328126,-0.0925496444106102,0.02803190052509308,0.19943800568580627
1776870298196126500,11.29312646484375,-0.1295473426580429,-0.04507932811975479,0.1079658791422844
1776870298206163500,11.30316357421875,-0.136975958943367,-0.06620804965496063,0.027848675847053528
1776870298216201200,11.313201171875,-0.09549296647310257,-0.04879923164844513,-0.013705958612263203
1776870298226238500,11.323238525390625,-0.018372615799307823,0.6192757487297058,0.312356561422348
1776870298236275500,11.333275390625,0.0772969201207161,0.6317428350448608,0.10704629123210907
1776870298246312400,11.3433125,0.1357184201478958,0.32969242334365845,-0.1183743104338646
1776870298256349400,11.353349365234376,0.13234898447990417,0.12097382545471191,-0.16486378014087677
1776870298266387500,11.363387451171874,0.1433401107788086,-0.17158134281635284,-0.1891893595457077
1776870298276424400,11.373424560546875,0.142617866396904,-0.4219786822795868,-0.2091742604970932
1776870298286461400,11.38346142578125,0.1197114884853363,-0.5945954322814941,-0.23295468091964722
1776870298296498200,11.393498291015625,0.08032280206680298,-0.6978499293327332,-0.258562833070755
1776870298306535400,11.403535400390625,0.047813329845666885,-0.7561841011047363,-0.2876608073711395
1776870298316573400,11.413573486328126,0.025540780276060104,-0.7640883326530457,-0.31053122878074646
1776870298326610400,11.4236103515625,0.009278985671699047,-0.7115111351013184,-0.30114731192588806
1776870298336647200,11.433647216796874,-0.0027712853625416756,-0.5369095206260681,-0.2271798849105835
1776870298346684400,11.443684326171875,-0.020297547802329063,-0.2655251622200012,-0.0961313247680664
1776870298356722400,11.453722412109375,-0.02183366008102894,-0.005043228156864643,0.031253792345523834
1776870298366759400,11.463759521484375,-0.025540513917803764,0.1464560180902481,0.1078106164932251
1776870298376796400,11.47379638671875,-0.019871177151799202,0.20116373896598816,0.1428634077310562
1776870298386833400,11.48383349609375,-0.021569740027189255,0.20391903817653656,0.16368001699447632
1776870298396870400,11.493870361328124,-0.028128840029239655,0.17807093262672424,0.18167605996131897
1776870298406908200,11.503908203125,-0.02576395310461521,0.15561595559120178,0.19059577584266663
1776870298416945400,11.5139453125,-0.015054583549499512,0.13607928156852722,0.18510860204696655
1776870298426982400,11.523982421875,0.008846488781273365,0.12118528038263321,0.1650262326002121
1776870298437019400,11.534019287109375,0.03063221089541912,0.12384790927171707,0.1377360224723816
1776870298447056400,11.544056396484375,0.04860614985227585,0.14661261439323425,0.1058790311217308
1776870298457094400,11.554094482421876,0.06322584301233292,0.1719011813402176,0.0769118219614029
1776870298467131400,11.56413134765625,0.07815312594175339,0.17630019783973694,0.05608271062374115
1776870298477168400,11.57416845703125,0.08458173274993896,0.15667776763439178,0.04888099059462547
1776870298487205400,11.584205322265625,0.08395162224769592,0.11218965798616409,0.04428224265575409
1776870298497242400,11.594242431640625,0.07712061703205109,0.04346465319395065,0.03852475434541702
1776870298507280400,11.6042802734375,0.06955937296152115,-0.03061809577047825,0.03081011027097702
1776870298517317400,11.6143173828125,0.05594822019338608,-0.08135850727558136,0.021166006103157997
1776870298527354400,11.624354248046876,0.05130473151803017,-0.11001385003328323,0.022915968671441078
1776870298537391400,11.634391357421874,0.05148822441697121,-0.10846708714962006,0.0370245985686779
1776870298547428400,11.644428466796874,0.04327769950032234,-0.07468302547931671,0.04724793881177902
1776870298557466400,11.65446630859375,0.0379021093249321,-0.01864505745470524,0.041782598942518234
1776870298567503400,11.66450341796875,0.04162999987602234,0.03534147888422012,0.026040920987725258
1776870298577540400,11.674540283203125,0.061169080436229706,0.07338953018188477,0.005423794034868479
1776870298587577300,11.684577392578126,0.08703822642564774,0.07917790859937668,-0.010161823593080044
1776870298597614300,11.6946142578125,0.10651925206184387,0.06257070600986481,-0.024297082796692848
1776870298607652400,11.70465234375,0.1102609932422638,0.017662882804870605,-0.020650416612625122
1776870298617689300,11.714689453125,0.11076699197292328,-0.030249249190092087,0.0019270633347332478
1776870298627726300,11.724726318359375,0.10706041008234024,-0.07300363481044769,0.04243028163909912
1776870298637763300,11.734763427734375,0.10384197533130646,-0.10567689687013626,0.08977089822292328
1776870298647800300,11.74480029296875,0.09516353160142899,-0.10197137296199799,0.1414945423603058
1776870298657838300,11.75483837890625,0.08652876317501068,-0.05861750617623329,0.18255729973316193
1776870298667875300,11.764875244140624,0.08208448439836502,0.014179201796650887,0.22959990799427032
1776870298677912600,11.77491259765625,0.09368175268173218,0.08933787047863007,0.287549763917923
1776870298687949300,11.78494921875,0.1180182471871376,0.15264466404914856,0.337609201669693
1776870298697986300,11.794986328125,0.14320030808448792,0.19483420252799988,0.3582899868488312
1776870298708024300,11.8050244140625,0.1616666615009308,0.20286816358566284,0.38252127170562744
1776870298718061600,11.8150615234375,0.17500589787960052,0.178668811917305,0.403510183095932
1776870298728098300,11.825098388671876,0.17224739491939545,0.12467934936285019,0.42031392455101013
1776870298738135300,11.83513525390625,0.1557597666978836,0.05018860101699829,0.42416831851005554
1776870298748173600,11.845173583984375,0.12495897710323334,-0.026578348129987717,0.43652886152267456
1776870298758210300,11.855210205078125,0.10006268322467804,-0.11329619586467743,0.45713159441947937
1776870298768247300,11.865247314453125,0.0926540344953537,-0.1851631999015808,0.4900661110877991
1776870298778284300,11.8752841796875,0.0978408083319664,-0.2364937663078308,0.5473986268043518
1776870298788321300,11.8853212890625,0.10824551433324814,-0.2360551357269287,0.6441922783851624
1776870298798359300,11.895359375,0.12041296064853668,-0.18111146986484528,0.7797916531562805
1776870298808396300,11.905396240234374,0.1343575417995453,-0.049739859998226166,0.9242215752601624
1776870298818433300,11.915433349609375,0.1505168080329895,0.1795215606689453,1.0313736200332642
1776870298828470500,11.925470458984375,0.1709379255771637,0.43693044781684875,1.1008343696594238
1776870298838507500,11.935507568359375,0.1927390992641449,0.6728769540786743,1.1717925071716309
1776870298848545300,11.945545166015625,0.21805110573768616,0.8655763268470764,1.2417497634887695
1776870298858582300,11.955582275390626,0.2344239503145218,0.9368070960044861,1.284783959388733
1776870298868619500,11.96561962890625,0.23790577054023743,0.8354016542434692,1.2973381280899048
1776870298878656500,11.975656494140624,0.24620285630226135,0.575475811958313,1.3124366998672485
1776870298888693200,11.985693359375,0.2461511790752411,0.23252005875110626,1.332367181777954
1776870298898731500,11.9957314453125,0.24954324960708618,-0.08386027812957764,1.3492157459259033
1776870298908767500,12.005767578125,0.24809342622756958,-0.19455723464488983,1.3420435190200806
1776870298918804500,12.015804443359375,0.23473261296749115,-0.07811344414949417,1.3403961658477783
1776870298928841500,12.025841552734375,0.24206297099590302,0.10596983879804611,1.403849720954895
1776870298938878200,12.035878173828126,0.29496294260025024,0.2531515657901764,1.4896695613861084
1776870298948915500,12.04591552734375,0.3821372389793396,0.31274938583374023,1.5465383529663086
1776870298958949000,12.05594921875,0.45778220891952515,0.357448935508728,1.5212657451629639
1776870298968986000,12.065986083984376,0.5578832626342773,0.41851097345352173,1.4563645124435425
1776870298979023000,12.076023193359376,0.6934010982513428,0.3590391278266907,1.4030869007110596
1776870298989060000,12.08606005859375,0.8212965130805969,0.2110951989889145,1.3905320167541504
1776870298999097000,12.09609716796875,0.9056861996650696,0.05499321222305298,1.4106143712997437
1776870299009135000,12.106135009765625,0.937628448009491,-0.00044607947347685695,1.421340823173523
1776870299019172000,12.116172119140625,0.9164642691612244,0.0049795787781476974,1.336108684539795
1776870299029209000,12.126208984375,0.8445152640342712,0.12676140666007996,1.2020840644836426
1776870299039246000,12.13624609375,0.7479732632637024,0.35198894143104553,1.160588026046753
1776870299049283000,12.146282958984376,0.6679916381835938,0.6076667904853821,1.259954571723938
1776870299059321000,12.156321044921874,0.6298064589500427,0.8098960518836975,1.4096215963363647
1776870299069358000,12.166358154296875,0.6544001698493958,0.9332605600357056,1.486342191696167
1776870299079395000,12.17639501953125,0.8063492178916931,0.97288578748703,1.549562931060791
1776870299089432000,12.18643212890625,0.9668968319892883,0.9189099073410034,1.4892436265945435
1776870299099469300,12.19646923828125,1.1031467914581299,0.9239650964736938,1.3382525444030762
1776870299109507000,12.206507080078126,1.2265348434448242,0.9710244536399841,1.183362603187561
1776870299119544000,12.2165439453125,1.3724606037139893,1.1077868938446045,1.1728510856628418
1776870299129581000,12.2265810546875,1.4468703269958496,1.2705129384994507,1.215350866317749
1776870299139618000,12.2366181640625,1.4709384441375732,1.3910014629364014,1.2390273809432983
1776870299149655000,12.246655029296875,1.3996871709823608,1.4061450958251953,1.2106815576553345
1776870299159693000,12.256693115234375,1.2456732988357544,1.2533403635025024,1.1852738857269287
1776870299169730300,12.266730224609375,1.10858154296875,1.0048266649246216,1.2213560342788696
1776870299179767000,12.27676708984375,1.0347568988800049,0.8071963787078857,1.382057547569275
1776870299189804000,12.286803955078126,1.0403361320495605,0.7065483331680298,1.615858554840088
1776870299199841000,12.296841064453124,1.0936685800552368,0.653032124042511,1.7567600011825562
1776870299209879000,12.306879150390625,1.1543141603469849,0.6126434206962585,1.808226466178894
1776870299219916000,12.316916015625,1.2013884782791138,0.6372174620628357,1.8702991008758545
1776870299229953000,12.326953125,1.2036398649215698,0.6533147096633911,1.9621353149414062
1776870299239990000,12.336989990234375,1.1514933109283447,0.6160139441490173,2.0559158325195312
1776870299250027300,12.34702734375,1.1019340753555298,0.5078557729721069,2.1788992881774902
1776870299260065000,12.35706494140625,1.1115293502807617,0.36001595854759216,2.3228838443756104
1776870299270102000,12.36710205078125,1.1777241230010986,0.31443464756011963,2.4025521278381348
1776870299280139000,12.377138916015625,1.2710423469543457,0.3983502984046936,2.4546892642974854
1776870299290176300,12.38717626953125,1.3456205129623413,0.501722514629364,2.4452128410339355
1776870299300213000,12.397212890625,1.3560688495635986,0.5617504119873047,2.4208507537841797
1776870299310251000,12.4072509765625,1.2763150930404663,0.6067125797271729,2.418654203414917
1776870299320288300,12.417288330078126,1.146440029144287,0.5779387354850769,2.530163288116455
1776870299330325200,12.4273251953125,0.997334361076355,0.44712236523628235,2.749155282974243
1776870299340362000,12.437362060546874,0.8416654467582703,0.2513643205165863,2.929656744003296
1776870299350399000,12.44739892578125,0.7368982434272766,0.01477841380983591,3.0284886360168457
1776870299360437200,12.457437255859375,0.7286589741706848,-0.19037526845932007,3.0914745330810547
1776870299370474000,12.467473876953125,0.8161118626594543,-0.30958449840545654,3.1049387454986572
1776870299380511000,12.477510986328125,0.9570602178573608,-0.47884994745254517,3.1624903678894043
1776870299390548000,12.4875478515625,1.0376708507537842,-0.3727826178073883,3.0845625400543213
1776870299400585200,12.497585205078124,1.0263983011245728,-0.1126469224691391,2.950270414352417
1776870299410623000,12.507623046875,0.9190704822540283,0.2021901160478592,2.6846120357513428
1776870299420660000,12.517659912109375,0.8045989871025085,0.3407301604747772,2.6713802814483643
1776870299430697000,12.527697021484375,0.7400684952735901,0.4221736192703247,2.644280433654785
1776870299440734200,12.537734130859375,0.7363243699073792,0.5308550596237183,2.536808967590332
1776870299450771200,12.547771240234376,0.7521461844444275,0.5908100605010986,2.3245849609375
1776870299460809000,12.55780908203125,0.783348560333252,0.6230353713035583,2.1234142780303955
1776870299470846200,12.56784619140625,0.8319456577301025,0.19453725218772888,2.1571176052093506
