time,seconds_elapsed,z,y,x
1776870286993377300,0.090377197265625,0.2973523437976837,0.38678982853889465,-0.6935520768165588
1776870287003414300,0.100414306640625,0.2762414515018463,0.4603990912437439,-0.6244640946388245
1776870287013452300,0.110452392578125,0.2617117166519165,0.4864557981491089,-0.5305916666984558
1776870287023489300,0.1204892578125,0.2574631869792938,0.5506891012191772,-0.420224130153656
1776870287033526300,0.1305263671875,0.27868959307670593,0.7179693579673767,-0.28535979986190796
1776870287043563000,0.14056298828125,0.4584242105484009,1.0543808937072754,-0.13672052323818207
1776870287053600300,0.150600341796875,0.5572877526283264,1.340065836906433,0.06608698517084122
1776870287063637200,0.16063720703125,0.5511217713356018,1.597725510597229,0.215325728058815
1776870287073674200,0.17067431640625,0.5042244791984558,1.8850314617156982,0.3114815652370453
1776870287083711200,0.180711181640625,0.4931239187717438,2.1590499877929688,0.36255380511283875
1776870287093749200,0.190749267578125,0.5726072788238525,2.542961359024048,0.4364864230155945
1776870287103786200,0.2007861328125,0.7182673215866089,2.896052837371826,0.5148049592971802
1776870287113823200,0.2108232421875,0.8771763443946838,3.0461390018463135,0.5404409766197205
1776870287123860200,0.220860107421875,0.9656505584716797,3.0119497776031494,0.5180501937866211
1776870287133897200,0.230897216796875,1.1078664064407349,2.751056671142578,0.28667765855789185
1776870287143934200,0.240934326171875,1.2063599824905396,2.66872501373291,-0.05166712403297424
1776870287153971200,0.25097119140625,1.3701560497283936,2.667894124984741,-0.39872246980667114
1776870287164009200,0.26100927734375,1.3818004131317139,2.647721767425537,-0.7261016964912415
1776870287174046200,0.271046142578125,1.3015462160110474,3.1185567378997803,-0.9311861991882324
1776870287184083200,0.281083251953125,1.211611270904541,3.875711441040039,-1.0489139556884766
1776870287194120200,0.2911201171875,1.2511612176895142,4.135862350463867,-1.3310855627059937
1776870287204157200,0.3011572265625,0.9182714223861694,4.216645240783691,-1.7241284847259521
1776870287214194200,0.311194091796875,0.02338344417512417,3.952056407928467,-1.8904119729995728
1776870287224231200,0.321231201171875,-0.5770350098609924,3.957305431365967,-1.9062508344650269
1776870287234269200,0.331269287109375,-1.0578140020370483,3.61303973197937,-1.8304791450500488
1776870287244306200,0.34130615234375,-1.3286124467849731,3.2372195720672607,-1.7613139152526855
1776870287254343200,0.35134326171875,-1.2697192430496216,2.948004722595215,-1.711044192314148
1776870287264380200,0.361380126953125,-0.9391434788703918,2.666285276412964,-1.6643027067184448
1776870287274417200,0.371417236328125,-0.48327937722206116,2.6799588203430176,-1.6194217205047607
1776870287284454100,0.3814541015625,-0.19862902164459229,3.0145928859710693,-1.5214626789093018
1776870287294491400,0.391491455078125,-0.0552283376455307,3.4766135215759277,-1.2334626913070679
1776870287304529200,0.401529052734375,0.09079571068286896,2.8159844875335693,-0.4100547730922699
1776870287314566100,0.411566162109375,-0.4503064453601837,3.2202436923980713,0.19302891194820404
1776870287324603400,0.421603271484375,-1.1292630434036255,4.116117477416992,0.6054473519325256
1776870287334640400,0.431640380859375,-1.425980567932129,3.9601683616638184,1.0164467096328735
1776870287344677000,0.441677001953125,-1.3799257278442383,3.073357343673706,1.2936344146728516
1776870287354714000,0.451714111328125,-1.229348063468933,1.136783242225647,0.8279053568840027
1776870287364751000,0.461751220703125,-1.3737646341323853,1.003929853439331,0.7036846280097961
1776870287374788400,0.471788330078125,-1.1677216291427612,0.9250080585479736,0.39095622301101685
1776870287384826000,0.481826171875,-0.6607252359390259,0.7634822726249695,-0.01854502037167549
1776870287394863000,0.491863037109375,-0.18350167572498322,-0.04199456050992012,-0.49423670768737793
1776870287404900400,0.501900390625,-0.02533360943198204,-0.5694434642791748,-0.6925806999206543
1776870287414937300,0.511937255859375,-0.1127455085515976,-0.24980491399765015,-0.5100652575492859
1776870287424974000,0.52197412109375,-0.14132308959960938,-0.31089621782302856,-0.207441508769989
1776870287435011000,0.532010986328125,-0.18716447055339813,-0.035505712032318115,0.11282651871442795
1776870287445048000,0.542048095703125,-0.33430516719818115,0.17648564279079437,0.48417502641677856
1776870287455086300,0.55208642578125,-0.5341795682907104,0.34942296147346497,0.8910835981369019
1776870287465123000,0.562123046875,-0.6157625913619995,0.45776036381721497,1.0508493185043335
1776870287475160000,0.57216015625,-0.5779396891593933,0.4634309709072113,0.9575015902519226
1776870287485197300,0.582197265625,-0.5308963060379028,0.42605990171432495,0.7218496203422546
1776870287495234300,0.592234375,-0.39553114771842957,0.3604319095611572,0.476992130279541
1776870287505271300,0.602271240234375,-0.15955138206481934,0.14105692505836487,0.25039467215538025
1776870287515308000,0.61230810546875,0.07671153545379639,-0.4132134020328522,-0.1892286092042923
1776870287525346300,0.62234619140625,0.17218291759490967,-0.9207980036735535,-0.28029966354370117
1776870287535383300,0.63238330078125,0.04580279439687729,-1.238469123840332,-0.3199513256549835
1776870287545420300,0.642420166015625,-0.16117197275161743,-1.0899713039398193,-0.5284677743911743
1776870287555457000,0.65245703125,-0.4308239817619324,-0.7522655129432678,-0.8286082744598389
1776870287565494300,0.662494384765625,-0.7147494554519653,-0.1979815512895584,-1.0620521306991577
1776870287575531300,0.67253125,-1.026291012763977,0.4537881910800934,-1.2379692792892456
1776870287585569000,0.682569091796875,-1.1871013641357422,1.1205240488052368,-1.2925028800964355
1776870287595606000,0.69260595703125,-1.5436890125274658,1.674652338027954,-0.9477338194847107
1776870287605643300,0.702643310546875,-1.902243733406067,2.156804084777832,-0.5643520951271057
1776870287615680300,0.71268017578125,-2.2205324172973633,2.0247747898101807,-0.24036955833435059
1776870287625717200,0.72271728515625,-2.6217539310455322,1.8239474296569824,-0.12731944024562836
1776870287635754000,0.73275390625,-3.0925967693328857,1.5058618783950806,-0.27570682764053345
1776870287645791200,0.742791259765625,-3.499370574951172,1.1723507642745972,-0.6428353190422058
1776870287655829200,0.752829345703125,-3.8803000450134277,0.801433801651001,-1.0841529369354248
1776870287665866200,0.7628662109375,-4.1939826011657715,0.41460859775543213,-1.5290007591247559
1776870287675903200,0.7729033203125,-4.328843593597412,0.06625459343194962,-1.9533644914627075
1776870287685940200,0.782940185546875,-4.396207809448242,-0.3761177361011505,-2.4224488735198975
1776870287695977200,0.792977294921875,-4.365903377532959,-0.924370288848877,-2.907661199569702
1776870287706014200,0.80301416015625,-4.220512866973877,-1.3027904033660889,-3.1983954906463623
1776870287716051200,0.81305126953125,-4.132870197296143,-1.54076087474823,-3.1504099369049072
1776870287726089200,0.823089111328125,-4.125303268432617,-1.6823904514312744,-2.910428047180176
1776870287736126200,0.833126220703125,-4.196691989898682,-1.6138226985931396,-2.8198084831237793
1776870287746163200,0.8431630859375,-4.291031360626221,-1.4118679761886597,-2.996021032333374
1776870287756200200,0.8532001953125,-4.416537761688232,-1.0789915323257446,-3.4253504276275635
1776870287766237200,0.8632373046875,-4.50948429107666,-0.6034742593765259,-3.940589189529419
1776870287776274200,0.873274169921875,-4.434743881225586,-0.06108889728784561,-4.310506343841553
1776870287786312200,0.883312255859375,-4.168849945068359,0.4069560766220093,-4.468805313110352
1776870287796349200,0.89334912109375,-3.749103546142578,0.6535196900367737,-4.521944522857666
1776870287806386200,0.90338623046875,-3.2492241859436035,0.7050608992576599,-4.596474647521973
1776870287816423200,0.913423095703125,-2.692966938018799,0.6351045966148376,-4.70248556137085
1776870287826460200,0.923460205078125,-2.197892665863037,0.7228389382362366,-4.632889270782471
1776870287836497400,0.933497314453125,-1.8977752923965454,0.8985450267791748,-4.343747615814209
1776870287846534100,0.9435341796875,-1.6766338348388672,1.1028456687927246,-3.9637389183044434
1776870287856572200,0.953572265625,-1.463513731956482,1.2454403638839722,-3.6628923416137695
1776870287866609200,0.963609130859375,-1.156642198562622,1.302446961402893,-3.5571889877319336
1776870287876646400,0.973646484375,-0.6665825247764587,1.3279892206192017,-3.6573519706726074
1776870287886683100,0.98368310546875,-0.08571086078882217,1.2827507257461548,-3.8136532306671143
1776870287896720100,0.99372021484375,0.5523108243942261,1.2434923648834229,-3.886716604232788
1776870287906757000,1.003757080078125,1.0907779932022095,1.3123241662979126,-3.749267816543579
1776870287916794400,1.01379443359375,1.3321723937988281,1.6001025438308716,-3.4197723865509033
1776870287926832000,1.02383203125,1.3228803873062134,1.9462331533432007,-2.9459476470947266
1776870287936870100,1.0338701171875,1.3212403059005737,2.3324127197265625,-2.4135985374450684
1776870287946907400,1.043907470703125,1.3670262098312378,2.685077428817749,-1.8445574045181274
1776870287956944100,1.053944091796875,1.4154701232910156,2.8591525554656982,-1.2007983922958374
1776870287966982100,1.063982177734375,1.46712327003479,2.8927063941955566,-0.5422918796539307
1776870287977019400,1.074019287109375,1.4846371412277222,2.9078760147094727,0.021165695041418076
1776870287987056000,1.08405615234375,1.423172116279602,2.9202401638031006,0.4451526403427124
1776870287997093000,1.094093017578125,1.3349659442901611,2.8497025966644287,0.7508881688117981
1776870288007130000,1.104130126953125,1.2851052284240723,2.6432461738586426,0.999402642250061
1776870288017167000,1.1141669921875,1.3093070983886719,2.3482298851013184,1.2300307750701904
1776870288027204400,1.124204345703125,1.367746114730835,1.989235281944275,1.438152551651001
1776870288037242000,1.1342421875,1.4229073524475098,1.5805999040603638,1.5925426483154297
1776870288047279000,1.144279052734375,1.440513014793396,1.2224555015563965,1.7149807214736938
1776870288057316400,1.15431640625,1.3626925945281982,0.9916213750839233,1.8084126710891724
1776870288067353300,1.164353271484375,1.2315415143966675,0.7871279120445251,1.9010143280029297
1776870288077390000,1.17439013671875,1.1469285488128662,0.5983498096466064,1.9947490692138672
1776870288087427000,1.184427001953125,1.2136985063552856,0.36931344866752625,2.0854012966156006
1776870288097465300,1.19446533203125,1.407453179359436,-0.00251953792758286,2.0455996990203857
1776870288107502300,1.20450244140625,1.6542341709136963,-0.23684895038604736,1.8303632736206055
1776870288117539000,1.2145390625,1.9211674928665161,-0.4307096600532532,1.546068787574768
1776870288127576000,1.224576171875,2.0407447814941406,-0.7396001815795898,1.3177815675735474
1776870288137613300,1.23461328125,2.133161783218384,-0.8528266549110413,1.1643160581588745
1776870288147650300,1.244650390625,2.2005815505981445,-0.8421106338500977,1.0761082172393799
1776870288157688000,1.25468798828125,2.2093560695648193,-0.8382077217102051,1.1089445352554321
1776870288167725000,1.26472509765625,2.0620429515838623,-0.674211323261261,1.1537362337112427
1776870288177762300,1.27476220703125,1.8140202760696411,-0.49648207426071167,1.125632405281067
1776870288187799300,1.28479931640625,1.581641674041748,-0.2974992096424103,0.9826021790504456
1776870288197836300,1.294836181640625,1.2609498500823975,-0.2126358151435852,0.8648306727409363
1776870288207873000,1.304873046875,1.0505534410476685,-0.11585309356451035,0.870607316493988
1776870288217910300,1.31491015625,0.932256817817688,0.07585498690605164,0.8863813877105713
1776870288227948300,1.3249482421875,0.8823404312133789,0.2603505253791809,0.7758181095123291
1776870288237985000,1.334985107421875,0.8016764521598816,0.32216787338256836,0.6352766156196594
1776870288248022300,1.345022216796875,0.7383451461791992,0.27075713872909546,0.4880903661251068
1776870288258059300,1.355059326171875,0.754439115524292,0.2751319110393524,0.31643369793891907
1776870288268096300,1.36509619140625,0.7459660172462463,0.19936896860599518,0.1658412665128708
1776870288278133200,1.37513330078125,0.6850632429122925,0.14373363554477692,0.036719586700201035
1776870288288171300,1.385171142578125,0.6275277733802795,0.08482451736927032,-0.07619152218103409
1776870288298208300,1.395208251953125,0.6273701190948486,-0.016491711139678955,-0.14537537097930908
1776870288308245200,1.405245361328125,0.6171947121620178,-0.12435106933116913,-0.16360418498516083
1776870288318282200,1.4152822265625,0.5941730737686157,-0.23924735188484192,-0.15234950184822083
1776870288328319200,1.4253193359375,0.5673201084136963,-0.3397228419780731,-0.12514904141426086
1776870288338356200,1.435356201171875,0.5432661175727844,-0.41143107414245605,-0.04387836158275604
1776870288348394200,1.445394287109375,0.5478089451789856,-0.3913252651691437,0.11620878428220749
1776870288358431000,1.455430908203125,0.5091800093650818,-0.2932625710964203,0.31406059861183167
1776870288368468200,1.46546826171875,0.38625645637512207,-0.05992090702056885,0.4503265619277954
1776870288378505200,1.475505126953125,0.18403629958629608,0.2617052495479584,0.461711049079895
1776870288388542200,1.485542236328125,-0.057128120213747025,0.5975881814956665,0.3921908140182495
1776870288398579200,1.4955791015625,-0.18548014760017395,0.7662383317947388,0.29648101329803467
1776870288408617200,1.5056171875,-0.20117415487766266,0.8115874528884888,0.18576914072036743
1776870288418654200,1.515654296875,-0.08875878900289536,0.7134971022605896,0.10944391787052155
1776870288428691200,1.525691162109375,0.1312555968761444,0.5611576437950134,0.0867452621459961
1776870288438728200,1.535728271484375,0.38721075654029846,0.33422136306762695,0.09808158129453659
1776870288448765200,1.54576513671875,0.6004244685173035,0.11073154956102371,0.16667607426643372
1776870288458802200,1.55580224609375,0.7057023644447327,-0.020472921431064606,0.30620723962783813
1776870288468839200,1.565839111328125,0.7049207091331482,-0.06532321870326996,0.4815044701099396
1776870288478877200,1.575877197265625,0.6172266006469727,-0.01727214641869068,0.630535364151001
1776870288488914200,1.5859140625,0.47710147500038147,0.1268101930618286,0.7556415796279907
1776870288498951200,1.595951171875,0.3107552230358124,0.29010361433029175,0.844681978225708
1776870288508988200,1.60598828125,0.15883812308311462,0.35178959369659424,0.8857300877571106
1776870288519025200,1.616025146484375,0.09458054602146149,0.3235780596733093,0.8575894236564636
1776870288529062100,1.626062255859375,0.12785488367080688,0.18848495185375214,0.7757155895233154
1776870288539100200,1.63610009765625,0.23446901142597198,0.003941196482628584,0.7015089392662048
1776870288549137200,1.64613720703125,0.3795801103115082,-0.2674064338207245,0.6092396974563599
1776870288559174400,1.65617431640625,0.5907542705535889,-0.5404046177864075,0.5017330050468445
1776870288569211100,1.666211181640625,0.7693096399307251,-0.7373589277267456,0.42466750741004944
1776870288579248000,1.676248046875,0.8412315845489502,-0.8593641519546509,0.375120609998703
1776870288589285000,1.68628515625,0.7886331081390381,-0.8021256327629089,0.33789706230163574
1776870288599323400,1.696323486328125,0.6084374189376831,-0.6158522963523865,0.3504461944103241
1776870288609360100,1.706360107421875,0.3398807942867279,-0.3848893940448761,0.3757936358451843
1776870288619397000,1.716397216796875,0.08551129698753357,-0.09183037281036377,0.37811070680618286
1776870288629434000,1.72643408203125,-0.07510314881801605,0.18513040244579315,0.3305796682834625
1776870288639471400,1.736471435546875,-0.17033731937408447,0.31639382243156433,0.24211499094963074
1776870288649508400,1.74650830078125,-0.15322384238243103,0.3101969063282013,0.1166718527674675
1776870288659546000,1.756546142578125,-0.06072438508272171,0.19043050706386566,0.016976144164800644
1776870288669583400,1.766583251953125,0.015599412843585014,-0.00006832391954958439,-0.05116136372089386
1776870288679620400,1.776620361328125,0.03609474375844002,-0.13023820519447327,-0.09888515621423721
1776870288689657000,1.786656982421875,0.023686811327934265,-0.18154959380626678,-0.09979648888111115
1776870288699694000,1.796694091796875,-0.006128648761659861,-0.19091126322746277,-0.05649469420313835
1776870288709731000,1.80673095703125,-0.07858500629663467,-0.11652570962905884,0.01252778246998787
1776870288719768300,1.816768310546875,-0.20017945766448975,0.031760323792696,0.06844259798526764
1776870288729806000,1.82680615234375,-0.33331194519996643,0.1665269285440445,0.08688285946846008
1776870288739843000,1.836843017578125,-0.4048384130001068,0.17669309675693512,0.09658588469028473
1776870288749880300,1.84688037109375,-0.3812457323074341,0.09559585899114609,0.1307568997144699
1776870288759917300,1.856917236328125,-0.2932671308517456,-0.0161928441375494,0.20989252626895905
1776870288769954300,1.866954345703125,-0.20516707003116608,-0.08057289570569992,0.33900657296180725
1776870288779991000,1.876990966796875,-0.16089756786823273,-0.1007111668586731,0.5076407194137573
1776870288790029300,1.887029296875,-0.1772080957889557,-0.07155727595090866,0.64851313829422
1776870288800066300,1.89706640625,-0.20426233112812042,-0.002622743835672736,0.7527974247932434
1776870288810103300,1.907103271484375,-0.2567859888076782,0.06637869775295258,0.8204123973846436
1776870288820140000,1.91714013671875,-0.31629645824432373,0.1712331622838974,0.8557931184768677
1776870288830177300,1.92717724609375,-0.3430505692958832,0.26929473876953125,0.8322305083274841
1776870288840214300,1.93721435546875,-0.3512946665287018,0.35958001017570496,0.752060055732727
1776870288850252000,1.947251953125,-0.3175897002220154,0.3991580307483673,0.6424909830093384
1776870288860289000,1.9572890625,-0.23143914341926575,0.3177507519721985,0.5500674843788147
1776870288870326300,1.967326171875,-0.0953042209148407,0.18510986864566803,0.5030016899108887
1776870288880363300,1.97736328125,0.04872604459524155,0.03659315034747124,0.5032491087913513
1776870288890400300,1.987400146484375,0.16795150935649872,-0.12019699811935425,0.4970815181732178
1776870288900437000,1.99743701171875,0.2520360052585602,-0.2724067270755768,0.4412209987640381
1776870288910475300,2.007475341796875,0.30422624945640564,-0.4509013593196869,0.34942662715911865
1776870288920512300,2.01751220703125,0.41028347611427307,-0.6610925197601318,0.2636886537075043
1776870288930549200,2.02754931640625,0.6022132039070129,-0.8022493720054626,0.1929052770137787
1776870288940586200,2.037586181640625,0.8258072733879089,-0.8067987561225891,0.16470883786678314
1776870288950623200,2.047623291015625,1.0542864799499512,-0.6538680195808411,0.17387144267559052
1776870288960660200,2.05766015625,1.2324877977371216,-0.3930262327194214,0.16339580714702606
1776870288970698200,2.0676982421875,1.41879403591156,-0.256466805934906,0.07884684205055237
1776870288980735200,2.0777353515625,1.6660655736923218,-0.2545982599258423,-0.053901251405477524
1776870288990772200,2.087772216796875,1.9332762956619263,-0.3885001242160797,-0.17075197398662567
1776870289000809200,2.097809326171875,2.215055465698242,-0.606876015663147,-0.2583182454109192
1776870289010846200,2.10784619140625,2.4357151985168457,-0.7463830709457397,-0.3316129744052887
1776870289020883200,2.11788330078125,2.5682871341705322,-0.8108069896697998,-0.5004773139953613
1776870289030920200,2.127920166015625,2.6472630500793457,-0.8140084147453308,-0.7237615585327148
1776870289040958200,2.137958251953125,2.7270147800445557,-0.797499418258667,-0.8991426825523376
1776870289050995500,2.147995361328125,2.8256664276123047,-0.8816723227500916,-1.0331065654754639
1776870289061032200,2.1580322265625,2.8658931255340576,-0.8756359815597534,-1.1156389713287354
1776870289071069200,2.168069091796875,2.8876118659973145,-0.6961488127708435,-1.165595531463623
1776870289081106200,2.178106201171875,2.916478395462036,-0.3386302888393402,-1.072487711906433
1776870289091143200,2.18814306640625,2.92268443107605,0.026119191199541092,-0.9504603147506714
1776870289101181200,2.19818115234375,2.9121029376983643,0.2603898346424103,-0.8678993582725525
1776870289111218200,2.20821826171875,2.8329570293426514,0.27403825521469116,-0.7749955058097839
1776870289121255200,2.218255126953125,2.6418588161468506,0.09209886193275452,-0.6457750797271729
1776870289131292400,2.22829248046875,2.26526141166687,-0.06668226420879364,-0.3937593400478363
1776870289141329400,2.238329345703125,1.800598382949829,-0.15724872052669525,0.11281894147396088
1776870289151366100,2.2483662109375,0.8531086444854736,-0.31502026319503784,0.500687301158905
1776870289161404200,2.258404052734375,0.12669645249843597,-0.4100803732872009,0.3331865966320038
1776870289171441400,2.26844140625,0.21038469672203064,-0.4834512770175934,0.20043548941612244
1776870289181478100,2.27847802734375,1.025901198387146,-1.1558897495269775,0.1310383528470993
1776870289191515100,2.28851513671875,1.2188231945037842,-1.8089964389801025,0.06691049784421921
1776870289201552100,2.29855224609375,1.3205289840698242,-1.8340792655944824,-0.4028221368789673
1776870289211589400,2.30858935546875,1.5621082782745361,-1.4015326499938965,-0.45048683881759644
1776870289221626400,2.31862646484375,1.027980089187622,-0.9874419569969177,-0.37382060289382935
1776870289231664000,2.3286640625,0.5521629452705383,-0.14034394919872284,-0.254369854927063
1776870289241701400,2.338701416015625,0.10617619752883911,0.4022100865840912,-0.10561281442642212
1776870289251738400,2.34873828125,-0.13624230027198792,0.3884356915950775,-0.1391707807779312
1776870289261775400,2.358775390625,-0.23602542281150818,-0.03670388460159302,-0.30578598380088806
1776870289271812000,2.36881201171875,-0.3449018597602844,-0.6556936502456665,-0.4961053133010864
1776870289281849000,2.37884912109375,-0.5522972941398621,-1.3824450969696045,-0.6383475661277771
1776870289291887400,2.388887451171875,-1.100135326385498,-2.254195213317871,-0.718818724155426
1776870289301924400,2.39892431640625,-1.8169606924057007,-2.794133186340332,-0.7915500402450562
1776870289311961000,2.408961181640625,-2.693826675415039,-2.7168056964874268,-0.7213331460952759
1776870289321998300,2.418998291015625,-3.6496193408966064,-2.083054780960083,-0.3405894339084625
1776870289332035300,2.429035400390625,-4.191699028015137,-1.7600783109664917,0.015470407903194427
1776870289342072300,2.439072265625,-4.180727481842041,-1.8018368482589722,-0.06098984181880951
1776870289352109300,2.449109375,-3.8419463634490967,-1.7191483974456787,-0.38272392749786377
1776870289362147300,2.459147216796875,-3.393500566482544,-1.2775264978408813,-0.5848524570465088
1776870289372184300,2.469184326171875,-3.1400272846221924,-0.4018559753894806,-0.526557207107544
1776870289382221300,2.47922119140625,-3.2641971111297607,0.3983002305030823,-0.1468094438314438
1776870289392258000,2.489258056640625,-3.703162908554077,0.9925920963287354,0.3072507083415985
1776870289402295300,2.49929541015625,-3.9835004806518555,0.36711570620536804,-0.07364640384912491
1776870289412332300,2.509332275390625,-4.175661563873291,0.026758678257465363,-0.4303094446659088
1776870289422370300,2.519370361328125,-4.237658500671387,0.6774650812149048,-0.5254972577095032
1776870289432407000,2.529406982421875,-3.871804714202881,0.5432505011558533,0.07058797776699066
1776870289442444300,2.5394443359375,-3.1950490474700928,-0.056022051721811295,0.34182077646255493
1776870289452481300,2.549481201171875,-2.8898818492889404,-0.918777585029602,0.08645638823509216
1776870289462518300,2.559518310546875,-3.3876965045928955,-1.0936486721038818,-0.2755200266838074
1776870289472555300,2.56955517578125,-4.100971221923828,-1.2160320281982422,-0.6117507219314575
1776870289482593300,2.57959326171875,-4.630882263183594,-2.2532119750976562,-0.46254509687423706
1776870289492630300,2.58963037109375,-4.936126708984375,-2.819096326828003,-0.32988399267196655
1776870289502667300,2.599667236328125,-5.408027172088623,-1.4546589851379395,-0.9919318556785583
1776870289512704300,2.609704345703125,-5.185837745666504,0.988401472568512,-1.305107593536377
1776870289522741200,2.6197412109375,-4.559223651885986,2.796309471130371,-2.426970958709717
1776870289532778200,2.6297783203125,-3.662829637527466,3.637331485748291,-3.1501994132995605
1776870289542815200,2.639815185546875,-3.0841805934906006,3.380265951156616,-3.226707696914673
1776870289552853200,2.649853271484375,-3.207815408706665,2.3729941844940186,-3.568789482116699
1776870289562890200,2.65989013671875,-3.610085964202881,1.6168400049209595,-3.9247002601623535
1776870289572927200,2.66992724609375,-4.133356094360352,1.8418153524398804,-3.8950917720794678
1776870289582964200,2.679964111328125,-4.572361469268799,1.8425556421279907,-3.745648145675659
1776870289593001500,2.69000146484375,-4.9722981452941895,1.7893377542495728,-3.3731882572174072
1776870289603038200,2.7000380859375,-5.284954071044922,1.7512966394424438,-2.8085896968841553
1776870289613076200,2.710076171875,-5.381306171417236,1.7791434526443481,-2.10300612449646
1776870289623113200,2.72011328125,-5.279355525970459,1.3510496616363525,-1.1362512111663818
1776870289633150500,2.730150390625,-4.91310453414917,0.2635640501976013,-0.3548307418823242
1776870289643187200,2.740187255859375,-4.490218162536621,-0.6777638792991638,0.3181035816669464
1776870289653224200,2.75022412109375,-4.3408684730529785,-1.3820595741271973,0.7695925235748291
1776870289663261200,2.76026123046875,-4.743185043334961,-2.6805384159088135,0.5719534158706665
1776870289673299200,2.77029931640625,-4.766293048858643,-3.3366811275482178,0.2484739124774933
1776870289683336200,2.780336181640625,-4.5650634765625,-4.503606796264648,0.31520897150039673
1776870289693373200,2.790373291015625,-4.26971960067749,-4.303816318511963,0.7097892761230469
1776870289703410200,2.80041015625,-3.888739585876465,-3.1804418563842773,0.7314146161079407
1776870289713447400,2.810447509765625,-2.838869333267212,-1.9713585376739502,0.2650427222251892
1776870289723484200,2.820484130859375,-1.6055434942245483,-1.096314549446106,-0.05873185023665428
1776870289733521200,2.830521240234375,-0.4005391001701355,-1.0217591524124146,0.13381069898605347
1776870289743559400,2.840559326171875,0.49318206310272217,-0.9979674816131592,0.3297988474369049
1776870289753596400,2.850596435546875,0.961141049861908,-0.7253296375274658,0.2573491334915161
1776870289763633200,2.860633056640625,1.0529978275299072,-0.5827678442001343,0.13078199326992035
1776870289773670100,2.870670166015625,0.9608767032623291,-0.5170173048973083,0.008822273463010788
1776870289783707100,2.88070703125,0.8251545429229736,-0.4832693934440613,-0.08141933381557465
1776870289793744400,2.890744384765625,0.7204846143722534,-0.450226753950119,-0.0670371949672699
1776870289803782100,2.9007822265625,0.648921012878418,-0.40447568893432617,0.029605429619550705
1776870289813819100,2.910819091796875,0.5838940143585205,-0.24466070532798767,0.12578123807907104
1776870289823856400,2.9208564453125,0.5236446857452393,-0.013217258267104626,0.16032519936561584
1776870289833893400,2.930893310546875,0.4986085593700409,0.21121345460414886,0.19405093789100647
1776870289843930400,2.940930419921875,0.5284728407859802,0.38371649384498596,0.1759689748287201
1776870289853967000,2.950967041015625,0.5625290870666504,0.4617665708065033,0.14890646934509277
1776870289864005400,2.96100537109375,0.5654441714286804,0.40605229139328003,0.1496635228395462
1776870289874042400,2.97104248046875,0.5495376586914062,0.27509427070617676,0.17259946465492249
1776870289884079000,2.9810791015625,0.5076079964637756,0.1486894190311432,0.207650288939476
1776870289894116000,2.9911162109375,0.48353680968284607,0.05022197216749191,0.26686328649520874
1776870289904153300,3.0011533203125,0.4409278631210327,-0.043726012110710144,0.3206159770488739
1776870289914190300,3.0111904296875,0.3059154450893402,-0.12119629979133606,0.3346202075481415
1776870289924227300,3.021227294921875,0.10042904317378998,-0.149804949760437,0.27933329343795776
1776870289934265000,3.03126513671875,-0.08784791827201843,-0.19044345617294312,0.1800045669078827
1776870289944302800,3.041302734375,-0.1772001087665558,-0.2388429194688797,0.07410065829753876
1776870289954339800,3.05133984375,-0.12538617849349976,-0.25539687275886536,0.0060140155255794525
1776870289964376800,3.061376953125,-0.03277973830699921,-0.21931158006191254,-0.029403943568468094
1776870289974413800,3.071413818359375,0.036489080637693405,-0.12631240487098694,-0.06224391981959343
1776870289984450800,3.081450927734375,0.07996486127376556,-0.04475605860352516,-0.093145951628685
1776870289994488800,3.09148876953125,0.1226063221693039,0.022179296240210533,-0.10943624377250671
1776870290004525800,3.10152587890625,0.18082578480243683,0.08641917258501053,-0.10396217554807663
1776870290014562800,3.111562744140625,0.23741209506988525,0.17929771542549133,-0.07476726919412613
1776870290024599800,3.121599853515625,0.25040268898010254,0.2871290147304535,-0.03994135558605194
1776870290034636800,3.13163671875,0.21863064169883728,0.34749674797058105,-0.010480400174856186
1776870290044673800,3.141673828125,0.11657027900218964,0.22400639951229095,-0.012382837943732738
1776870290054710800,3.151710693359375,0.014799178577959538,0.1293986737728119,-0.0003054027911275625
1776870290064748800,3.161748779296875,0.06918861716985703,0.13459597527980804,0.05479789897799492
1776870290074786000,3.1717861328125,0.2456752210855484,0.18293580412864685,0.09965884685516357
1776870290084822800,3.18182275390625,0.3960195779800415,0.2617819309234619,0.12117639929056168
1776870290094859800,3.19185986328125,0.45406582951545715,0.3362974524497986,0.1115671843290329
1776870290104896800,3.201896728515625,0.45988231897354126,0.4169534146785736,0.09261781722307205
1776870290114933800,3.211933837890625,0.44385993480682373,0.47917285561561584,0.08054596930742264
1776870290124971800,3.2219716796875,0.42221394181251526,0.47741371393203735,0.07663296908140182
1776870290135008800,3.2320087890625,0.38456588983535767,0.48221856355667114,0.05252976715564728
1776870290145045800,3.242045654296875,0.3093062937259674,0.47003573179244995,0.023143023252487183
1776870290155083000,3.2520830078125,0.22104673087596893,0.43222975730895996,-0.013971321284770966
1776870290165120000,3.2621201171875,0.12241588532924652,0.38889721035957336,-0.03855006396770477
1776870290175156700,3.27215673828125,0.0369715616106987,0.31364718079566956,-0.03861051797866821
1776870290185193700,3.28219384765625,-0.03487367928028107,0.1903253197669983,-0.02051660232245922
1776870290195232000,3.29223193359375,-0.11790172010660172,0.0758591890335083,0.011177144944667816
1776870290205268700,3.302268798828125,-0.14348411560058594,-0.026488985866308212,0.04728823900222778
1776870290215305700,3.3123056640625,-0.11319545656442642,-0.11312747746706009,0.06730269640684128
1776870290225342700,3.3223427734375,-0.07367034256458282,-0.14083263278007507,0.06503798067569733
1776870290235380000,3.3323798828125,-0.036654531955718994,-0.14669638872146606,0.05802401155233383
1776870290245417000,3.3424169921875,-0.004481162875890732,-0.10847066342830658,0.038784194737672806
1776870290255454700,3.352454833984375,0.0349850207567215,0.0017828753916546702,0.021824121475219727
1776870290265491700,3.36249169921875,0.06453302502632141,0.09013790637254715,-0.0020675237756222486
1776870290275529000,3.372529052734375,0.08117831498384476,0.1459851861000061,-0.04615296050906181
1776870290285566000,3.38256591796875,0.11451945453882217,0.13846321403980255,-0.07394257932901382
1776870290295602700,3.392602783203125,0.13771986961364746,0.09080647677183151,-0.10358968377113342
1776870290305639700,3.4026396484375,0.1407649964094162,0.023181065917015076,-0.13401174545288086
1776870290315678000,3.412677978515625,0.12982286512851715,-0.05627061799168587,-0.1514011174440384
1776870290325715000,3.42271484375,0.12589320540428162,-0.10871453583240509,-0.15068727731704712
1776870290335751700,3.432751708984375,0.11386637389659882,-0.12635451555252075,-0.13263876736164093
1776870290345788700,3.44278857421875,0.08166753500699997,-0.10114072263240814,-0.08821536600589752
1776870290355826000,3.452825927734375,0.05567348748445511,-0.06721524894237518,-0.030599212273955345
1776870290365863000,3.46286279296875,0.034518033266067505,-0.026140624657273293,0.012518055737018585
1776870290375900000,3.47289990234375,0.0028794128447771072,0.013433150015771389,0.04147700220346451
1776870290385938000,3.48293798828125,-0.02856697142124176,0.03246454522013664,0.05542241036891937
1776870290395975000,3.492974853515625,-0.04546313360333443,0.0453297458589077,0.062294162809848785
1776870290406012000,3.503011962890625,-0.048169076442718506,0.03798465058207512,0.053304869681596756
1776870290416048600,3.513048583984375,-0.04682125151157379,0.035015758126974106,0.04179495573043823
1776870290426086000,3.5230859375,-0.04172957316040993,0.03443419933319092,0.03936110436916351
1776870290436123000,3.533122802734375,-0.027337849140167236,0.03469305485486984,0.03686891496181488
1776870290446161000,3.543160888671875,-0.008863486349582672,0.04138072580099106,0.034242141991853714
1776870290456197600,3.55319775390625,0.012928628362715244,0.042089395225048065,0.030655130743980408
1776870290466235000,3.56323486328125,0.029077116400003433,0.03796728700399399,0.03232234716415405
1776870290476271900,3.57327197265625,0.04337403178215027,0.041618749499320984,0.0315774604678154
1776870290486308900,3.583308837890625,0.055553585290908813,0.049658894538879395,0.03366317227482796
1776870290496345900,3.593345947265625,0.06731250882148743,0.0519084706902504,0.03321096673607826
1776870290506382800,3.6033828125,0.07734007388353348,0.05503194034099579,0.03411024808883667
1776870290516420900,3.6134208984375,0.07907778769731522,0.059291936457157135,0.0398392379283905
1776870290526457900,3.623457763671875,0.07621603459119797,0.06250767409801483,0.052712731063365936
1776870290536494800,3.633494873046875,0.07099330425262451,0.06985826045274734,0.06139623373746872
1776870290546531800,3.64353173828125,0.054156020283699036,0.0750708058476448,0.07295745611190796
1776870290556568800,3.65356884765625,0.037606336176395416,0.08762121945619583,0.08359917998313904
1776870290566605800,3.663605712890625,0.023378975689411163,0.08622847497463226,0.09496232122182846
1776870290576643800,3.673643798828125,0.026534553617239,0.07925951480865479,0.10395342111587524
1776870290586680800,3.683680908203125,0.03151073306798935,0.06058518961071968,0.12493234127759933
1776870290596717800,3.6937177734375,0.043579377233982086,0.04198061302304268,0.14320802688598633
1776870290606754800,3.7037548828125,0.058823250234127045,0.02958463691174984,0.16030670702457428
1776870290616791800,3.713791748046875,0.07870561629533768,0.026925737038254738,0.17278708517551422
1776870290626828800,3.723828857421875,0.09384772181510925,0.0350458025932312,0.18266427516937256
1776870290636865800,3.73386572265625,0.10488013923168182,0.043741025030612946,0.18043814599514008
1776870290646903800,3.74390380859375,0.11335162073373795,0.0657510980963707,0.18510907888412476
1776870290656941000,3.753941162109375,0.1143985167145729,0.09681740403175354,0.18415886163711548
1776870290666977800,3.763977783203125,0.1081540510058403,0.1302068531513214,0.1783600151538849
1776870290677014800,3.774014892578125,0.10387808084487915,0.15989656746387482,0.18516625463962555
1776870290687051800,3.7840517578125,0.11211735010147095,0.17430353164672852,0.2002776563167572
1776870290697088800,3.7940888671875,0.12114733457565308,0.16744908690452576,0.23106060922145844
1776870290707126800,3.804126708984375,0.12953412532806396,0.15231205523014069,0.265670508146286
1776870290717163800,3.814163818359375,0.1411614865064621,0.1306818574666977,0.3188280165195465
1776870290727200800,3.82420068359375,0.16000357270240784,0.11429886519908905,0.3769031763076782
1776870290737238000,3.834238037109375,0.18045611679553986,0.11116166412830353,0.4293181896209717
1776870290747274800,3.844274658203125,0.20151229202747345,0.13536828756332397,0.48973605036735535
1776870290757311700,3.854311767578125,0.22777159512043,0.18387271463871002,0.5670377612113953
1776870290767348700,3.8643486328125,0.24737420678138733,0.26248598098754883,0.662019670009613
1776870290777387000,3.874386962890625,0.27438637614250183,0.41569337248802185,0.7472184300422668
1776870290787423700,3.884423828125,0.2967562675476074,0.5774442553520203,0.8631759881973267
1776870290797460700,3.894460693359375,0.31099459528923035,0.7023078799247742,0.993313193321228
1776870290807497700,3.904497802734375,0.3241962790489197,0.8081304430961609,1.0914499759674072
1776870290817535000,3.914534912109375,0.31479611992836,0.8903678059577942,1.1302099227905273
1776870290827572000,3.924572021484375,0.26994752883911133,0.8889849781990051,1.1290948390960693
1776870290837609700,3.934609619140625,0.1685527265071869,0.817877471446991,1.0708355903625488
1776870290847646700,3.944646728515625,0.019690867513418198,0.7200758457183838,0.9759728312492371
1776870290857684000,3.95468408203125,-0.05526087060570717,0.5221353769302368,0.8636230826377869
1776870290867721000,3.964720947265625,-0.08225363492965698,0.30554133653640747,0.7944405674934387
1776870290877757700,3.9747578125,-0.07612676918506622,0.2150000035762787,0.8476483821868896
1776870290887794700,3.984794677734375,-0.017347412183880806,0.39069193601608276,1.043805718421936
1776870290897830700,3.99483056640625,0.019537635147571564,0.7160754203796387,1.2898136377334595
1776870290907868000,4.004867919921875,-0.014496338553726673,1.0360338687896729,1.4806139469146729
1776870290917905000,4.01490478515625,-0.0820159912109375,1.1094465255737305,1.60918390750885
1776870290927942700,4.024942626953125,-0.14998584985733032,1.0222686529159546,1.766493797302246
1776870290937980000,4.03497998046875,0.04989450052380562,0.42751777172088623,2.026545763015747
1776870290948016400,4.045016357421875,0.27652350068092346,0.30667585134506226,1.686204195022583
1776870290958053400,4.055053466796875,0.3396156430244446,0.25679725408554077,1.5883331298828125
1776870290968090600,4.065090576171875,0.4279323220252991,0.4086032211780548,1.540543556213379
1776870290978127400,4.07512744140625,0.5573771595954895,0.44507095217704773,1.5442373752593994
1776870290988165400,4.085165283203125,0.6504421234130859,0.2710723578929901,1.6145974397659302
1776870290998202600,4.09520263671875,0.745186984539032,0.0978129580616951,1.6466320753097534
1776870291008239600,4.105239501953125,0.8526044487953186,0.035051871091127396,1.6352640390396118
1776870291018276400,4.1152763671875,0.8674818873405457,0.09157213568687439,1.5367376804351807
1776870291028313300,4.125313232421875,0.8381989002227783,0.329399436712265,1.4454405307769775
1776870291038350300,4.135350341796875,0.7581725120544434,0.5440049767494202,1.4489433765411377
1776870291048387600,4.1453876953125,0.6273484230041504,0.6226847171783447,1.5436283349990845
1776870291058425300,4.15542529296875,0.5773667693138123,0.7083783149719238,1.5769226551055908
1776870291068462300,4.16546240234375,0.7366047501564026,0.9521864056587219,1.5262699127197266
1776870291078499600,4.17549951171875,0.9278671145439148,1.1677721738815308,1.4391404390335083
1776870291088536600,4.18553662109375,1.1158955097198486,1.2384459972381592,1.4651813507080078
1776870291098573600,4.195573486328125,1.2248963117599487,1.2366691827774048,1.5303337574005127
1776870291108610300,4.2056103515625,1.2830166816711426,1.2813643217086792,1.5851579904556274
1776870291118648600,4.215648681640625,1.325889229774475,1.412484049797058,1.60770583152771
1776870291128685600,4.225685546875,1.313995599746704,1.537304162979126,1.5605597496032715
1776870291138722300,4.235722412109375,1.3056398630142212,1.6246449947357178,1.4827011823654175
1776870291148759300,4.24575927734375,1.3556209802627563,1.6951018571853638,1.3280041217803955
1776870291158796500,4.255796630859375,1.4770821332931519,1.750076174736023,1.2460781335830688
1776870291168833500,4.26583349609375,1.6156865358352661,1.6917484998703003,1.2922946214675903
1776870291178870500,4.27587060546875,1.6704893112182617,1.4781808853149414,1.373916506767273
1776870291188908300,4.285908203125,1.6287535429000854,1.1753065586090088,1.442016363143921
1776870291198945500,4.295945556640625,1.470260739326477,0.8052310347557068,1.5523312091827393
1776870291208982500,4.305982421875,1.3265055418014526,0.6700973510742188,1.8135864734649658
1776870291219019500,4.31601953125,1.214564561843872,0.7757889032363892,2.0150537490844727
1776870291229056300,4.32605615234375,1.0984888076782227,0.6481767892837524,2.0006704330444336
1776870291239093500,4.336093505859375,1.0412598848342896,0.3811027407646179,1.9175684452056885
1776870291249131500,4.346131591796875,1.0194848775863647,0.2843312621116638,1.9707977771759033
1776870291259168500,4.35616845703125,1.0108360052108765,0.3099822998046875,2.133777379989624
1776870291269205500,4.36620556640625,1.0198348760604858,0.33934617042541504,2.236086130142212
1776870291279242500,4.376242431640625,1.0355509519577026,0.3679828643798828,2.269303321838379
1776870291289279500,4.386279541015625,1.0651986598968506,0.3928193747997284,2.2360928058624268
1776870291299316500,4.39631640625,1.0866466760635376,0.42847058176994324,2.12575626373291
1776870291309353500,4.406353515625,1.098145842552185,0.45460641384124756,2.0557024478912354
1776870291319391500,4.4163916015625,1.0745750665664673,0.4952843487262726,2.094438076019287
1776870291329428500,4.426428466796875,1.0374692678451538,0.4434475004673004,2.2361643314361572
1776870291339465500,4.436465576171875,1.02348792552948,0.2646194398403168,2.287571668624878
1776870291349502500,4.44650244140625,1.0300283432006836,0.29079368710517883,2.229410171508789
1776870291359539500,4.45653955078125,1.038443922996521,0.23352190852165222,2.233034610748291
1776870291369576400,4.466576416015625,1.055690884590149,0.24442093074321747,2.3542122840881348
1776870291379614500,4.476614501953125,1.0748608112335205,0.09058715403079987,2.4008796215057373
1776870291389651500,4.4866513671875,1.0750102996826172,0.031089194118976593,2.31325626373291
1776870291399688400,4.4966884765625,1.030122995376587,0.025210266932845116,2.37516450881958
1776870291409725400,4.506725341796875,0.9724372029304504,-0.04340067878365517,2.4859395027160645
1776870291419762400,4.516762451171875,0.9822829365730286,-0.018402118235826492,2.4311840534210205
1776870291429799700,4.526799560546875,1.0140680074691772,0.2122606486082077,2.3219027519226074
1776870291439836400,4.53683642578125,0.9882729649543762,0.32730627059936523,2.082784414291382
1776870291449874400,4.54687451171875,0.892259418964386,0.39053741097450256,2.016810417175293
1776870291459911400,4.556911376953125,0.7818953394889832,0.12992630898952484,2.224069833755493
1776870291469948400,4.566948486328125,0.8119028806686401,0.11279474943876266,2.1590723991394043
1776870291479985400,4.5769853515625,0.9312572479248047,0.024202566593885422,2.0308029651641846
1776870291490022400,4.5870224609375,1.0458639860153198,-0.07516873627901077,1.9861528873443604
1776870291500059400,4.597059326171875,1.0780251026153564,-0.04704894870519638,1.974767804145813
1776870291510097400,4.607097412109375,1.0222638845443726,0.058730218559503555,1.8104937076568604
1776870291520134400,4.617134521484375,0.863002598285675,0.11657301336526871,1.4604058265686035
1776870291530171400,4.62717138671875,0.6926881074905396,0.3467903137207031,1.0667144060134888
1776870291540208400,4.63720849609375,0.574532151222229,0.5290943384170532,0.7460404634475708
1776870291550245600,4.64724560546875,0.4790034592151642,0.3787435293197632,0.5061768293380737
1776870291560282400,4.657282470703125,0.4230025112628937,0.32634609937667847,0.30508318543434143
1776870291570319400,4.6673193359375,0.3523593842983246,0.28516775369644165,0.1217440590262413
1776870291580357600,4.677357666015625,0.22681742906570435,0.2642052173614502,-0.06908182054758072
1776870291590394600,4.68739453125,0.03797607123851776,0.13506029546260834,-0.21870571374893188
1776870291600431400,4.697431396484375,-0.12304503470659256,0.05321042984724045,-0.3283376395702362
1776870291610468400,4.70746826171875,-0.25116607546806335,-0.04798450320959091,-0.45451417565345764
1776870291620505600,4.717505615234375,-0.3692682087421417,-0.02516840025782585,-0.5298494100570679
1776870291630542600,4.72754248046875,-0.5223805904388428,-0.1389266699552536,-0.625267744064331
1776870291640579600,4.73757958984375,-0.655432403087616,-0.12862317264080048,-0.7303212285041809
1776870291650617300,4.747617431640625,-0.7137430310249329,-0.17832139134407043,-0.8687582612037659
1776870291660654600,4.757654541015625,-0.7728611826896667,-0.28073084354400635,-0.969309389591217
1776870291670691600,4.767691650390625,-0.8470038771629333,-0.3242449164390564,-1.063517451286316
1776870291680728300,4.777728271484375,-0.9622074365615845,-0.34388118982315063,-1.1725038290023804
1776870291690765300,4.787765380859375,-1.0728405714035034,-0.38416948914527893,-1.3023897409439087
1776870291700802600,4.797802490234375,-1.127389669418335,-0.4576570391654968,-1.4454052448272705
1776870291710840600,4.807840576171875,-1.1978124380111694,-0.5109624266624451,-1.5568251609802246
1776870291720877300,4.817877197265625,-1.2349823713302612,-0.5132431983947754,-1.6452155113220215
1776870291730914300,4.827914306640625,-1.2050342559814453,-0.5027976036071777,-1.75263512134552
1776870291740951600,4.83795166015625,-1.1720051765441895,-0.49992671608924866,-1.8532980680465698
1776870291750988500,4.847988525390625,-1.178942084312439,-0.5093274116516113,-1.9168992042541504
1776870291761025500,4.858025634765625,-1.2361414432525635,-0.5444383025169373,-1.9591566324234009
1776870291771063600,4.8680634765625,-1.314068078994751,-0.4916483759880066,-2.0214595794677734
1776870291781100500,4.8781005859375,-1.326694130897522,-0.42935943603515625,-2.1015892028808594
1776870291791137500,4.888137451171875,-1.2756236791610718,-0.3521355390548706,-2.244570016860962
1776870291801174500,4.898174560546875,-1.1692607402801514,-0.24578778445720673,-2.371782064437866
1776870291811211300,4.908211181640625,-1.032742977142334,-0.20855167508125305,-2.461674928665161
1776870291821248500,4.91824853515625,-0.9426378607749939,-0.21739868819713593,-2.4715187549591064
1776870291831285500,4.928285400390625,-0.8959910273551941,-0.2465871274471283,-2.4699454307556152
1776870291841323300,4.9383232421875,-0.9113481044769287,-0.21926255524158478,-2.4478816986083984
1776870291851360500,4.948360595703125,-0.9567868709564209,-0.20676289498806,-2.43371844291687
1776870291861397500,4.9583974609375,-1.0216410160064697,-0.1592760682106018,-2.4295663833618164
1776870291871434500,4.9684345703125,-1.0777233839035034,-0.04192686080932617,-2.430269718170166
1776870291881471500,4.978471435546875,-1.109266996383667,0.04256165772676468,-2.447577953338623
1776870291891508200,4.98850830078125,-1.144757866859436,0.052007343620061874,-2.3991270065307617
1776870291901546500,4.99854638671875,-1.194452166557312,-0.005138765089213848,-2.284916639328003
1776870291911583500,5.00858349609375,-1.2549538612365723,-0.04728762432932854,-2.1270809173583984
1776870291921620500,5.018620361328125,-1.2898799180984497,-0.08238915354013443,-2.004319429397583
1776870291931657500,5.028657470703125,-1.284074306488037,-0.044133786112070084,-1.9481967687606812
1776870291941694500,5.038694580078125,-1.2446800470352173,0.02176799811422825,-1.9474297761917114
1776870291951731700,5.048731689453125,-1.2096681594848633,0.05900096520781517,-1.9187570810317993
1776870291961769700,5.058769775390625,-1.1807340383529663,0.05305492505431175,-1.8448623418807983
1776870291971806700,5.068806640625,-1.142524242401123,-0.011905290186405182,-1.760284185409546
1776870291981843700,5.07884375,-1.1154375076293945,-0.0483061745762825,-1.698929786682129
1776870291991880700,5.088880615234375,-1.0936226844787598,-0.05121029168367386,-1.7003579139709473
1776870292001917700,5.098917724609375,-1.0931588411331177,-0.0938381776213646,-1.6794427633285522
1776870292011954700,5.10895458984375,-1.1244782209396362,-0.22010676562786102,-1.6231403350830078
1776870292021992700,5.11899267578125,-1.1783576011657715,-0.34364867210388184,-1.5376230478286743
1776870292032029700,5.12902978515625,-1.2234975099563599,-0.3505636751651764,-1.4882316589355469
1776870292042066700,5.139066650390625,-1.2293002605438232,-0.31275105476379395,-1.49972403049469
1776870292052103700,5.149103759765625,-1.20745050907135,-0.2993282377719879,-1.5025842189788818
1776870292062140700,5.159140625,-1.1687734127044678,-0.3409430682659149,-1.4619395732879639
1776870292072177700,5.169177734375,-1.1262296438217163,-0.3945787250995636,-1.3917856216430664
1776870292082215700,5.179215576171875,-1.1030389070510864,-0.4309766888618469,-1.3288894891738892
1776870292092252700,5.189252685546875,-1.1102571487426758,-0.4305054247379303,-1.3137435913085938
1776870292102289700,5.19928955078125,-1.1637635231018066,-0.3962257504463196,-1.3740025758743286
1776870292112326700,5.20932666015625,-1.2348109483718872,-0.35746681690216064,-1.473260760307312
1776870292122364000,5.219364013671875,-1.2897915840148926,-0.32406917214393616,-1.5293892621994019
1776870292132400600,5.229400634765625,-1.2988837957382202,-0.2811177670955658,-1.4888015985488892
1776870292142438700,5.239438720703125,-1.2690463066101074,-0.21651586890220642,-1.3962548971176147
1776870292152475600,5.2494755859375,-1.229434847831726,-0.1958814561367035,-1.3518427610397339
1776870292162513000,5.259512939453125,-1.1766382455825806,-0.30144914984703064,-1.3918581008911133
1776870292172549600,5.269549560546875,-1.093390703201294,-0.5092985033988953,-1.4661297798156738
1776870292182586600,5.279586669921875,-1.0255924463272095,-0.6410427093505859,-1.5373179912567139
1776870292192623600,5.28962353515625,-0.9852756261825562,-0.7273145914077759,-1.5921064615249634
1776870292202661600,5.29966162109375,-0.9721696376800537,-0.7327498197555542,-1.5883597135543823
1776870292212698600,5.30969873046875,-0.9889464378356934,-0.6988111734390259,-1.5879104137420654
1776870292222735600,5.319735595703125,-1.0218387842178345,-0.6122685670852661,-1.5778998136520386
1776870292232772600,5.329772705078125,-1.050804615020752,-0.48653408885002136,-1.58893620967865
1776870292242809900,5.339809814453125,-1.0585989952087402,-0.33758747577667236,-1.6102540493011475
1776870292252846600,5.3498466796875,-1.0387096405029297,-0.2051016241312027,-1.6259161233901978
1776870292262884600,5.359884521484375,-0.954262912273407,-0.24006865918636322,-1.6420137882232666
1776870292272921900,5.369921875,-0.8355216979980469,-0.4137383997440338,-1.645143985748291
1776870292282958800,5.379958740234375,-0.724640965461731,-0.6292610764503479,-1.6311043500900269
1776870292292995600,5.38999560546875,-0.6659848093986511,-0.7719050645828247,-1.5993342399597168
1776870292303032600,5.400032470703125,-0.6279519200325012,-0.7684914469718933,-1.5802611112594604
1776870292313069800,5.41006982421875,-0.6002683639526367,-0.6549187302589417,-1.546183705329895
1776870292323107800,5.42010791015625,-0.586808443069458,-0.4987933337688446,-1.4819504022598267
1776870292333144600,5.43014453125,-0.5479081869125366,-0.3448987305164337,-1.416933536529541
1776870292343181600,5.440181640625,-0.46908336877822876,-0.24254706501960754,-1.3407673835754395
1776870292353218800,5.45021875,-0.3573652505874634,-0.19492624700069427,-1.26842200756073
1776870292363255800,5.460255859375,-0.23223476111888885,-0.2102239727973938,-1.1763077974319458
1776870292373292800,5.470292724609375,-0.14055168628692627,-0.24580895900726318,-1.0640314817428589
1776870292383330800,5.480330810546875,-0.06090478599071503,-0.29326969385147095,-0.8963981866836548
1776870292393367800,5.490367919921875,0.016640184447169304,-0.36204439401626587,-0.6874597072601318
1776870292403404800,5.50040478515625,0.10331755131483078,-0.44843602180480957,-0.464449018239975
1776870292413441500,5.510441650390625,0.17405088245868683,-0.47662946581840515,-0.26616770029067993
1776870292423478500,5.520478515625,0.21890251338481903,-0.4505608379840851,-0.20466120541095734
1776870292433515800,5.530515869140625,0.2328149378299713,-0.39916107058525085,-0.28547248244285583
1776870292443553800,5.5405537109375,0.21733397245407104,-0.4233574867248535,-0.5350330471992493
1776870292453590500,5.550590576171875,0.1565106064081192,-0.5528484582901001,-0.8714396953582764
1776870292463627800,5.560627685546875,0.08795738220214844,-0.8438243865966797,-1.0294203758239746
1776870292473664800,5.570664794921875,0.006361296400427818,-1.136397361755371,-0.9168292880058289
1776870292483701800,5.58070166015625,-0.031516045331954956,-1.428877353668213,-0.5150102376937866
1776870292493739500,5.590739501953125,-0.05777492746710777,-1.5988075733184814,-0.05944236367940903
1776870292503776800,5.60077685546875,-0.07663729786872864,-1.696995496749878,0.2654601037502289
1776870292513813800,5.610813720703125,-0.1315138339996338,-1.703092336654663,0.3543148636817932
1776870292523850800,5.620850830078125,-0.2434757798910141,-1.7173775434494019,0.09855953603982925
1776870292533887700,5.6308876953125,-0.30364975333213806,-1.7057182788848877,-0.27037808299064636
1776870292543924700,5.6409248046875,-0.18794205784797668,-1.6405161619186401,-0.38483941555023193
1776870292553962800,5.650962646484375,0.07220857590436935,-1.2966704368591309,-0.0005797203630208969
1776870292563999700,5.660999755859375,0.2722785472869873,-0.6040709018707275,0.5409703254699707
1776870292574036500,5.671036376953125,0.36007553339004517,0.26169419288635254,0.8590384721755981
1776870292584073700,5.68107373046875,0.3480069041252136,1.076954960823059,0.9219420552253723
1776870292594110700,5.69111083984375,0.29672184586524963,1.6932311058044434,0.807522177696228
1776870292604147700,5.701147705078125,0.2631652057170868,2.0171561241149902,0.6326704621315002
1776870292614185700,5.711185791015625,0.29479697346687317,2.0241644382476807,0.5109792947769165
1776870292624222700,5.72122265625,0.31286224722862244,1.7258083820343018,0.4573914706707001
1776870292634259700,5.731259765625,0.2787828743457794,1.2823692560195923,0.44484642148017883
1776870292644296700,5.741296630859375,0.18502336740493774,0.776996374130249,0.4128440320491791
1776870292654333700,5.751333740234375,0.05092567950487137,0.3007720410823822,0.3190230131149292
1776870292664370700,5.76137060546875,-0.11014922708272934,-0.040052905678749084,0.16894082725048065
1776870292674408700,5.77140869140625,-0.27317389845848083,-0.2365693598985672,0.0336550734937191
1776870292684445700,5.78144580078125,-0.40418118238449097,-0.30297285318374634,-0.08329950273036957
1776870292694482700,5.791482666015625,-0.4774097800254822,-0.2816055715084076,-0.15921053290367126
1776870292704519700,5.801519775390625,-0.48196619749069214,-0.23274587094783783,-0.1836405098438263
1776870292714556700,5.811556640625,-0.40327444672584534,-0.19986006617546082,-0.15415231883525848
1776870292724594700,5.8215947265625,-0.26545318961143494,-0.22764137387275696,-0.07893319427967072
1776870292734631700,5.831631591796875,-0.12007593363523483,-0.288489431142807,-0.0233670212328434
1776870292744668700,5.841668701171875,-0.013831250369548798,-0.30686843395233154,-0.010082640685141087
1776870292754705700,5.85170556640625,0.04312573000788689,-0.27084264159202576,-0.04219228774309158
1776870292764742700,5.86174267578125,0.0880306288599968,-0.20102548599243164,-0.09577162563800812
1776870292774780000,5.87177978515625,0.1393292397260666,-0.11187541484832764,-0.15298894047737122
1776870292784817700,5.881817626953125,0.25065311789512634,-0.07492325454950333,-0.2123236358165741
1776870292794854700,5.891854736328125,0.39690861105918884,-0.09280949831008911,-0.29516875743865967
1776870292804891600,5.9018916015625,0.5179067254066467,-0.14314484596252441,-0.41038188338279724
1776870292814929000,5.911928955078125,0.580679714679718,-0.2229192703962326,-0.521604597568512
1776870292824965600,5.921965576171875,0.537716269493103,-0.28526970744132996,-0.5481743812561035
1776870292835002600,5.932002685546875,0.4044431149959564,-0.4032331109046936,-0.43165627121925354
1776870292845041000,5.942041015625,0.20658914744853973,-0.5840463042259216,-0.19768370687961578
1776870292855077600,5.95207763671875,0.0036185486242175102,-0.7452611327171326,0.06595319509506226
1776870292865114600,5.962114501953125,-0.15242111682891846,-0.7215304970741272,0.25932052731513977
1776870292875151600,5.972151611328125,-0.17319947481155396,-0.4396916925907135,0.34389808773994446
1776870292885188900,5.98218896484375,-0.09328147768974304,0.04498204588890076,0.3256799280643463
1776870292895226600,5.9922265625,-0.03842183202505112,0.5210873484611511,0.2846819758415222
1776870292905263600,6.002263671875,-0.025532929226756096,0.8439133763313293,0.2908852994441986
1776870292915300600,6.012300537109375,-0.02945418283343315,0.9470453858375549,0.3447265028953552
1776870292925337900,6.022337890625,-0.06526783853769302,0.8725693225860596,0.4189711809158325
1776870292935374800,6.032374755859375,-0.12853772938251495,0.6725490689277649,0.4502370357513428
1776870292945411300,6.042411376953125,-0.19807739555835724,0.41309216618537903,0.4109644889831543
1776870292955449000,6.052448974609375,-0.26157626509666443,0.1590217649936676,0.30175694823265076
1776870292965486300,6.062486328125,-0.2994786500930786,-0.03887001797556877,0.1672758311033249
1776870292975523300,6.0725234375,-0.291171669960022,-0.13705506920814514,0.03822535648941994
1776870292985560000,6.08256005859375,-0.2394927591085434,-0.14593751728534698,-0.05286860093474388
1776870292995597000,6.09259716796875,-0.15554383397102356,-0.07767387479543686,-0.09496084600687027
1776870293005635300,6.10263525390625,-0.04508870840072632,0.018329089507460594,-0.10108531266450882
1776870293015672300,6.11267236328125,0.05550737679004669,0.09668263047933578,-0.07898999750614166
1776870293025709000,6.122708984375,0.12241343408823013,0.1345282793045044,-0.05851215124130249
1776870293035746000,6.13274609375,0.1594027727842331,0.12996672093868256,-0.057756729423999786
1776870293045783300,6.142783203125,0.1747303307056427,0.08263888210058212,-0.06152936816215515
1776870293055820300,6.1528203125,0.16861742734909058,0.008044842630624771,-0.07289624959230423
1776870293065858000,6.162858154296875,0.14680667221546173,-0.07375015318393707,-0.08323650062084198
1776870293075895300,6.172895263671875,0.11297878623008728,-0.15388725697994232,-0.07969459146261215
1776870293085932300,6.182932373046875,0.07916223257780075,-0.20530277490615845,-0.06901371479034424
1776870293095969300,6.19296923828125,0.04204399883747101,-0.22439804673194885,-0.041335154324769974
1776870293106006300,6.20300634765625,0.010028277523815632,-0.20974241197109222,-0.009429685771465302
1776870293116044300,6.213044189453125,-0.009284965693950653,-0.1664266735315323,0.01949288882315159
1776870293126081300,6.223081298828125,-0.014807828702032566,-0.10080158710479736,0.042569179087877274
1776870293136118300,6.2331181640625,-0.0073613193817436695,-0.0174860842525959,0.053672611713409424
1776870293146155000,6.243155029296875,0.019140060991048813,0.05791253224015236,0.05744790658354759
1776870293156192300,6.253192138671875,0.035503871738910675,0.12570856511592865,0.06162146478891373
1776870293166229200,6.263229248046875,0.03728818893432617,0.1705692559480667,0.07535139471292496
1776870293176267300,6.273267333984375,0.037773653864860535,0.18548890948295593,0.09924851357936859
1776870293186304000,6.283303955078125,0.036994144320487976,0.1682441383600235,0.12233199179172516
1776870293196341200,6.29334130859375,0.025298388674855232,0.12399129569530487,0.13621123135089874
1776870293206378200,6.303378173828125,0.005037857219576836,0.05434510484337807,0.14288724958896637
1776870293216415200,6.313415283203125,-0.010990533977746964,-0.009480644948780537,0.14771035313606262
1776870293226453200,6.323453369140625,-0.01824605092406273,-0.051619309931993484,0.15167447924613953
1776870293236490200,6.333490234375,-0.006604416761547327,-0.07529490441083908,0.1518050581216812
1776870293246527200,6.34352734375,0.010405725799500942,-0.09560204297304153,0.15647011995315552
1776870293256564200,6.353564208984375,0.0252993106842041,-0.12156330049037933,0.15959620475769043
1776870293266601200,6.363601318359375,0.051676854491233826,-0.16567164659500122,0.1625312864780426
1776870293276638200,6.37363818359375,0.07335669547319412,-0.22160832583904266,0.17813490331172943
1776870293286676200,6.38367626953125,0.07590720802545547,-0.2827790081501007,0.19641351699829102
1776870293296713200,6.393713134765625,0.055655620992183685,-0.32039889693260193,0.20793764293193817
1776870293306750200,6.403750244140625,0.033086393028497696,-0.2996408939361572,0.21424613893032074
1776870293316787200,6.413787109375,0.02976847067475319,-0.2449384182691574,0.22632241249084473
1776870293326824200,6.42382421875,0.037628259509801865,-0.16371706128120422,0.23774869740009308
1776870293336862200,6.4338623046875,0.05761135369539261,-0.08839006721973419,0.22787225246429443
1776870293346899200,6.443899169921875,0.08446986228227615,-0.0113445483148098,0.18499162793159485
1776870293356936200,6.453936279296875,0.12121479213237762,0.06431705504655838,0.1473967283964157
1776870293366973200,6.46397314453125,0.16973119974136353,0.12022985517978668,0.12638358771800995
1776870293377010200,6.47401025390625,0.2185603827238083,0.12667720019817352,0.09380233287811279
1776870293387048200,6.484048095703125,0.2581394612789154,0.08107243478298187,0.08646372705698013
1776870293397085200,6.494085205078125,0.2822280526161194,0.0056830039247870445,0.124959297478199
1776870293407122200,6.5041220703125,0.2736755609512329,-0.06402017921209335,0.1911095529794693
1776870293417159400,6.514159423828125,0.23962987959384918,-0.11403943598270416,0.26114827394485474
1776870293427196200,6.524196044921875,0.18843965232372284,-0.12405291944742203,0.3083040714263916
1776870293437233200,6.534233154296875,0.13480015099048615,-0.12757529318332672,0.32086050510406494
1776870293447271200,6.544271240234375,0.08663288503885269,-0.1379605531692505,0.3225915729999542
1776870293457308400,6.554308349609375,0.06260383874177933,-0.14584879577159882,0.3553529977798462
1776870293467345200,6.56434521484375,0.033003069460392,-0.11123941838741302,0.46140140295028687
1776870293477382100,6.574382080078125,0.0075714197009801865,0.0038208486512303352,0.6353921890258789
1776870293487419100,6.584419189453125,-0.016313672065734863,0.14471912384033203,0.8225516676902771
1776870293497457200,6.59445703125,-0.0388919860124588,0.272749662399292,0.9653327465057373
1776870293507494100,6.604494140625,-0.0590321384370327,0.36844688653945923,1.0593788623809814
1776870293517531100,6.61453125,-0.0625474825501442,0.4721033573150635,1.105211615562439
1776870293527569400,6.6245693359375,-0.03759073466062546,0.6032909750938416,1.0990266799926758
1776870293537606100,6.634606201171875,-0.010319963097572327,0.7493701577186584,1.0811083316802979
1776870293547643100,6.64464306640625,0.022193772718310356,0.8430681228637695,1.0861533880233765
1776870293557680000,6.65468017578125,0.039621561765670776,0.870160698890686,1.1303333044052124
1776870293567718100,6.66471826171875,0.0633162409067154,0.7963618636131287,1.1984535455703735
1776870293577755100,6.674755126953125,0.08923522382974625,0.6572317481040955,1.2603189945220947
1776870293587792100,6.684792236328125,0.09810115396976471,0.5055767297744751,1.296815037727356
1776870293597829000,6.6948291015625,0.09678328782320023,0.41719523072242737,1.323937177658081
1776870293607866400,6.704866455078125,0.06637851148843765,0.3971565365791321,1.3233563899993896
1776870293617904000,6.714904052734375,0.0354265533387661,0.41518232226371765,1.2701735496520996
1776870293627941000,6.724941162109375,0.002530653029680252,0.4717150926589966,1.265161156654358
1776870293637978400,6.734978271484375,0.12092418223619461,0.5104607343673706,1.334612488746643
1776870293648015400,6.745015380859375,0.3453407883644104,0.536439061164856,1.397731900215149
1776870293658052000,6.755052001953125,0.589434802532196,0.5258170366287231,1.3728138208389282
1776870293668090000,6.765090087890625,0.8317510485649109,0.5483430624008179,1.3135355710983276
1776870293678127400,6.77512744140625,1.0238137245178223,0.5707835555076599,1.2232671976089478
1776870293688164400,6.785164306640625,1.156821608543396,0.5350737571716309,1.0670278072357178
1776870293698201000,6.795201171875,1.1982345581054688,0.45315995812416077,0.9294646382331848
1776870293708238000,6.805238037109375,1.2000519037246704,0.5308688879013062,0.8580599427223206
1776870293718275300,6.815275390625,1.18999445438385,0.6349993944168091,0.9056038856506348
1776870293728313000,6.82531298828125,1.1776179075241089,0.6340038776397705,1.0365757942199707
1776870293738350000,6.83535009765625,1.161892056465149,0.6425378918647766,1.09035325050354
1776870293748387000,6.845386962890625,1.1313014030456543,0.6102345585823059,1.0314546823501587
1776870293758424300,6.85542431640625,1.1158043146133423,0.5740883350372314,0.9728087186813354
1776870293768461300,6.86546142578125,1.136420726776123,0.5277786254882812,0.9924641847610474
1776870293778499000,6.8754990234375,1.1884205341339111,0.5581744313240051,1.097917079925537
1776870293788536300,6.885536376953125,1.1880743503570557,0.5850086808204651,1.2065790891647339
1776870293798573300,6.8955732421875,1.1833689212799072,0.5848987102508545,1.338375210762024
1776870293808610300,6.9056103515625,1.2434825897216797,0.560802698135376,1.443495750427246
1776870293818647000,6.91564697265625,1.2558022737503052,0.5365196466445923,1.4508287906646729
1776870293828685300,6.925685302734375,1.24342679977417,0.6104266047477722,1.397923231124878
1776870293838722300,6.935722412109375,1.193914532661438,0.7153983116149902,1.3292499780654907
1776870293848759300,6.94575927734375,1.1111805438995361,0.7097631096839905,1.3322534561157227
1776870293858796000,6.955796142578125,1.0204626321792603,0.5692391395568848,1.5333865880966187
1776870293868833300,6.965833251953125,0.9404247403144836,0.3669637441635132,1.8160052299499512
1776870293878871300,6.975871337890625,0.8690536618232727,0.2167801707983017,2.032337188720703
1776870293888908000,6.985907958984375,0.8458434343338013,0.1945643573999405,2.1553452014923096
1776870293898945000,6.995945068359375,0.8727256059646606,0.21454450488090515,2.135329484939575
1776870293908982300,7.005982177734375,0.9753853678703308,0.23474831879138947,2.081037759780884
1776870293919019300,7.016019287109375,1.146368145942688,0.236246258020401,2.085723638534546
1776870293929056300,7.02605615234375,1.3177114725112915,0.2468847781419754,2.109174966812134
1776870293939094300,7.03609423828125,1.4131966829299927,0.3295704126358032,2.1274361610412598
1776870293949132300,7.04613232421875,1.4091389179229736,0.4793154299259186,2.1215949058532715
1776870293959169000,7.0561689453125,1.3389123678207397,0.7037084102630615,2.1988391876220703
1776870293969206000,7.0662060546875,1.2699085474014282,0.8853786587715149,2.3328559398651123
1776870293979243300,7.0762431640625,1.2092827558517456,0.9210140705108643,2.44754958152771
1776870293989281300,7.08628125,1.146794319152832,0.8181878328323364,2.4352974891662598
1776870293999318000,7.096318115234375,1.0762220621109009,0.6484107375144958,2.3727574348449707
1776870294009355300,7.106355224609375,1.063219666481018,0.636657178401947,2.307661294937134
1776870294019392300,7.116392333984375,1.0563758611679077,0.5024406909942627,2.4071435928344727
1776870294029429200,7.12642919921875,1.0377055406570435,0.2844679057598114,2.6569464206695557
1776870294039467000,7.136467041015625,0.9786909818649292,0.17608650028705597,2.8247745037078857
1776870294049504300,7.146504150390625,0.9356029033660889,0.09916029125452042,2.8331966400146484
1776870294059541200,7.156541259765625,0.951987624168396,-0.04589513689279556,2.7296338081359863
1776870294069578200,7.166578125,1.0390033721923828,0.12030235677957535,2.491868019104004
1776870294079615200,7.176615234375,1.0807685852050781,-0.025019587948918343,2.5905613899230957
1776870294089653200,7.1866533203125,1.0527862310409546,-0.05312632396817207,2.687044620513916
1776870294099690200,7.196690185546875,1.0157184600830078,-0.06760184466838837,2.5698015689849854
1776870294109727200,7.206727294921875,0.9610881209373474,0.023044172674417496,2.3110783100128174
1776870294119764000,7.216763916015625,0.921622097492218,0.29953670501708984,2.0893068313598633
1776870294129801200,7.22680126953125,0.8594769239425659,0.4153272211551666,1.9963160753250122
1776870294139838200,7.236838134765625,0.7920949459075928,0.34509825706481934,2.0973894596099854
1776870294149876200,7.246876220703125,0.851771354675293,0.4080876111984253,1.9273585081100464
1776870294159913200,7.256913330078125,0.9451072812080383,0.3761236071586609,1.764257788658142
1776870294169950200,7.2669501953125,1.0011711120605469,0.2533678412437439,1.731910228729248
1776870294179987200,7.2769873046875,1.0127794742584229,0.2995544970035553,1.6264011859893799
1776870294190024200,7.287024169921875,0.9897713661193848,0.4025346636772156,1.4592032432556152
1776870294200062200,7.297062255859375,0.9230304956436157,0.392652302980423,1.2865536212921143
1776870294210099200,7.30709912109375,0.8005762100219727,0.3519938290119171,1.0572596788406372
1776870294220136200,7.31713623046875,0.6680160760879517,0.2630578577518463,0.8312423825263977
1776870294230173200,7.327173095703125,0.6385596990585327,0.2223879098892212,0.6095610857009888
1776870294240210200,7.337210205078125,0.6309530138969421,0.10662466287612915,0.409816175699234
1776870294250248200,7.347248291015625,0.5162373185157776,0.11521521210670471,0.20234714448451996
1776870294260285200,7.35728515625,0.3164089322090149,0.0593734011054039,-0.08533433079719543
1776870294270322400,7.367322509765625,0.19391709566116333,0.07057039439678192,-0.37131813168525696
1776870294280359200,7.377359130859375,0.05804280936717987,0.07781562954187393,-0.645796000957489
1776870294290396200,7.387396240234375,-0.06564211845397949,0.03244442492723465,-0.9008815884590149
1776870294300433200,7.39743310546875,-0.17550505697727203,0.05499531701207161,-1.0972042083740234
1776870294310471400,7.407471435546875,-0.27088963985443115,-0.025150116533041,-1.244364619255066
1776870294320508200,7.417508056640625,-0.4188719689846039,-0.10759114474058151,-1.3667199611663818
1776870294330545200,7.427545166015625,-0.557351291179657,-0.20253576338291168,-1.4974273443222046
1776870294340582100,7.43758203125,-0.658920407295227,-0.2842898964881897,-1.6149965524673462
1776870294350619400,7.447619384765625,-0.7712258696556091,-0.4257271885871887,-1.6947848796844482
1776870294360657200,7.4576572265625,-0.868950605392456,-0.5227314233779907,-1.7635008096694946
1776870294370694100,7.467694091796875,-0.9295878410339355,-0.5288012623786926,-1.8287237882614136
1776870294380731100,7.477731201171875,-0.996575653553009,-0.5250123143196106,-1.9013888835906982
1776870294390768400,7.487768310546875,-1.0639922618865967,-0.5511805415153503,-1.9779363870620728
1776870294400805000,7.49780517578125,-1.1076585054397583,-0.5961536169052124,-2.071528673171997
1776870294410843100,7.507843017578125,-1.1357064247131348,-0.5564826130867004,-2.1459083557128906
1776870294420880400,7.51788037109375,-1.2078657150268555,-0.44728878140449524,-2.145408868789673
1776870294430917400,7.52791748046875,-1.241160273551941,-0.43869131803512573,-2.1886794567108154
1776870294440954000,7.5379541015625,-1.2638018131256104,-0.38275519013404846,-2.217231512069702
1776870294450991000,7.5479912109375,-1.259186029434204,-0.3838718831539154,-2.210212230682373
1776870294461029400,7.558029296875,-1.2438808679580688,-0.46102145314216614,-2.1863081455230713
1776870294471066000,7.568066162109375,-1.2199225425720215,-0.40949299931526184,-2.2230582237243652
1776870294481103000,7.57810302734375,-1.1873525381088257,-0.281705766916275,-2.3025386333465576
1776870294491140000,7.58814013671875,-1.1589983701705933,-0.15073923766613007,-2.3975062370300293
1776870294501177300,7.59817724609375,-1.1148796081542969,-0.13489407300949097,-2.483473777770996
1776870294511214300,7.60821435546875,-1.0613443851470947,-0.1969020515680313,-2.50905442237854
1776870294521252000,7.618252197265625,-1.0074868202209473,-0.15408967435359955,-2.5063040256500244
1776870294531289000,7.6282890625,-0.9675060510635376,-0.016445789486169815,-2.460503339767456
1776870294541326300,7.638326416015625,-0.9509404301643372,0.03723505884408951,-2.4008898735046387
1776870294551363300,7.64836328125,-0.9631891250610352,0.001579859759658575,-2.371464490890503
1776870294561400000,7.658400146484375,-1.0160077810287476,-0.0431973896920681,-2.3107192516326904
1776870294571438300,7.668438232421875,-1.1171408891677856,0.020085977390408516,-2.177734136581421
1776870294581475300,7.678475341796875,-1.2263492345809937,0.06014953926205635,-2.067192792892456
1776870294591512300,7.68851220703125,-1.2893991470336914,0.04630642756819725,-1.9406869411468506
1776870294601549000,7.698549072265625,-1.2965002059936523,0.012326276861131191,-1.8254166841506958
1776870294611586000,7.7085859375,-1.2597379684448242,-0.06448328495025635,-1.7890515327453613
1776870294621624300,7.718624267578125,-1.2330585718154907,-0.1343790739774704,-1.7618639469146729
1776870294631661000,7.7286611328125,-1.2521846294403076,-0.18301238119602203,-1.7145110368728638
1776870294641698000,7.738697998046875,-1.3110617399215698,-0.18835103511810303,-1.6318893432617188
1776870294651735300,7.7487353515625,-1.3424087762832642,-0.21446092426776886,-1.5666019916534424
1776870294661772300,7.758772216796875,-1.3472108840942383,-0.32047003507614136,-1.5263384580612183
1776870294671810000,7.76881005859375,-1.3521132469177246,-0.5129202008247375,-1.4142616987228394
1776870294681847000,7.778846923828125,-1.3513422012329102,-0.6981872320175171,-1.2830153703689575
1776870294691884300,7.78888427734375,-1.3388110399246216,-0.7154474258422852,-1.1808059215545654
1776870294701921300,7.79892138671875,-1.297183871269226,-0.6634113192558289,-1.150727391242981
1776870294711958300,7.808958251953125,-1.241223692893982,-0.6503634452819824,-1.165096402168274
1776870294721995000,7.8189951171875,-1.1935192346572876,-0.6456058621406555,-1.1725590229034424
1776870294732033300,7.829033203125,-1.1645359992980957,-0.6299837231636047,-1.1818870306015015
1776870294742070300,7.8390703125,-1.1609381437301636,-0.6209172606468201,-1.168788194656372
1776870294752107300,7.849107177734375,-1.1909085512161255,-0.5636898875236511,-1.1561843156814575
1776870294762144000,7.85914404296875,-1.2205883264541626,-0.4287077486515045,-1.163976788520813
1776870294772181200,7.86918115234375,-1.2495145797729492,-0.31784915924072266,-1.1952953338623047
1776870294782219300,7.87921923828125,-1.2574952840805054,-0.28150203824043274,-1.2528492212295532
1776870294792256000,7.889256103515625,-1.2356592416763306,-0.29403194785118103,-1.304362416267395
1776870294802293200,7.899293212890625,-1.1944788694381714,-0.28482526540756226,-1.3795922994613647
1776870294812330200,7.909330322265625,-1.1595845222473145,-0.23801836371421814,-1.4356292486190796
1776870294822367200,7.9193671875,-1.1390172243118286,-0.16377389430999756,-1.4507781267166138
1776870294832405000,7.929405029296875,-1.1341638565063477,-0.08702585101127625,-1.4389467239379883
1776870294842442200,7.939442138671875,-1.1182751655578613,-0.07624387741088867,-1.4369012117385864
1776870294852479200,7.949479248046875,-1.0878050327301025,-0.1050662025809288,-1.4465945959091187
1776870294862516200,7.95951611328125,-1.044581413269043,-0.1355673223733902,-1.4595774412155151
1776870294872553200,7.96955322265625,-0.9914970993995667,-0.15272526443004608,-1.4948872327804565
1776870294882591200,7.97959130859375,-0.9087298512458801,-0.17887285351753235,-1.549072504043579
1776870294892628200,7.989628173828125,-0.8049541711807251,-0.2181057333946228,-1.5873136520385742
1776870294902664200,7.999664306640625,-0.7218604683876038,-0.24284115433692932,-1.5966713428497314
1776870294912701200,8.009701171875,-0.6550337672233582,-0.24681831896305084,-1.6113035678863525
1776870294922739200,8.0197392578125,-0.5910509824752808,-0.2744608521461487,-1.6239863634109497
1776870294932776200,8.029776123046876,-0.5272725224494934,-0.31544315814971924,-1.627863883972168
1776870294942813200,8.039813232421874,-0.4554371237754822,-0.34925031661987305,-1.610192060470581
1776870294952850000,8.049849853515624,-0.3848993182182312,-0.36323803663253784,-1.5806623697280884
1776870294962887000,8.059886962890625,-0.3245079219341278,-0.31907597184181213,-1.5641063451766968
1776870294972925000,8.069925048828125,-0.29982733726501465,-0.22131690382957458,-1.561504602432251
1776870294982962000,8.0799619140625,-0.28612759709358215,-0.07552125304937363,-1.554284930229187
1776870294992999000,8.0899990234375,-0.3033880889415741,0.07977698743343353,-1.5151711702346802
1776870295003036000,8.100035888671876,-0.3348029851913452,0.23592451214790344,-1.4232864379882812
1776870295013072600,8.11007275390625,-0.3551577925682068,0.33645087480545044,-1.2410447597503662
1776870295023111000,8.12011083984375,-0.3563137650489807,0.33966580033302307,-1.0013827085494995
1776870295033148000,8.13014794921875,-0.33683085441589355,0.27155250310897827,-0.7793437242507935
1776870295043184600,8.1401845703125,-0.29110267758369446,0.13377849757671356,-0.648353636264801
1776870295053222000,8.150221923828125,-0.21976804733276367,-0.03750856965780258,-0.646699845790863
1776870295063259000,8.1602587890625,-0.1391192525625229,-0.22779548168182373,-0.7299983501434326
1776870295073296000,8.1702958984375,-0.050532128661870956,-0.42971527576446533,-0.8197370171546936
1776870295083333600,8.180333740234374,0.03768909350037575,-0.5713209509849548,-0.8923985362052917
1776870295093371000,8.190370849609375,0.11401262134313583,-0.6663771271705627,-0.9589163064956665
1776870295103407900,8.200407958984375,0.17309142649173737,-0.7681673169136047,-0.9789087772369385
1776870295113444900,8.21044482421875,0.185205340385437,-0.8975332975387573,-1.010768175125122
1776870295123481900,8.22048193359375,0.17892201244831085,-1.1278661489486694,-1.143361210823059
1776870295133520000,8.230519775390626,0.17628681659698486,-1.745593786239624,-1.3522677421569824
1776870295143556900,8.240556884765626,0.03103606030344963,-3.178727626800537,-1.3292523622512817
1776870295153593900,8.25059375,-0.3700501024723053,-4.881368160247803,-0.7847392559051514
1776870295163630800,8.260630859375,-0.8248828053474426,-5.390926837921143,0.10950156301259995
1776870295173667800,8.270667724609375,-1.1560125350952148,-4.210302829742432,0.9384719729423523
1776870295183705900,8.280705810546875,-1.2301727533340454,-1.9940259456634521,1.580468773841858
1776870295193742800,8.290742919921875,-1.0313256978988647,0.257057249546051,1.9643940925598145
1776870295203779800,8.30077978515625,-0.6445332169532776,1.8930257558822632,2.0324203968048096
1776870295213816800,8.31081689453125,-0.2107521891593933,2.860757827758789,1.838581919670105
1776870295223853800,8.320853759765624,0.12505577504634857,3.300764560699463,1.4593865871429443
1776870295233891800,8.330891845703125,0.3125537633895874,3.252122163772583,0.985948383808136
1776870295243928800,8.3409287109375,0.408436119556427,2.84187650680542,0.5236290693283081
1776870295253965800,8.3509658203125,0.4253293573856354,2.1426610946655273,0.09127552062273026
1776870295264002800,8.3610029296875,0.39778080582618713,1.2577147483825684,-0.2487991750240326
1776870295274039800,8.371039794921876,0.3397830128669739,0.3495653569698334,-0.5333930850028992
1776870295284077000,8.3810771484375,0.21070444583892822,-0.4577132761478424,-0.7412229776382446
1776870295294114800,8.39111474609375,0.019897207617759705,-0.9715491533279419,-0.8442846536636353
1776870295304151800,8.40115185546875,-0.07928387075662613,-1.2360422611236572,-0.8752610683441162
1776870295314188800,8.411188720703125,-0.0603296160697937,-1.263952374458313,-0.7400057911872864
1776870295324225800,8.421225830078125,0.006845501251518726,-1.0281790494918823,-0.43746817111968994
1776870295334262800,8.4312626953125,0.07617317885160446,-0.6177883744239807,-0.038328785449266434
1776870295344300800,8.44130078125,0.11976509541273117,-0.17031806707382202,0.36076897382736206
1776870295354338000,8.451338134765624,0.14655543863773346,0.25960829854011536,0.5720271468162537
1776870295364374800,8.461374755859374,0.14265507459640503,0.6109618544578552,0.5857329964637756
1776870295374411800,8.471411865234375,0.1232941597700119,0.8470268845558167,0.43734297156333923
1776870295384448800,8.48144873046875,0.12742140889167786,0.9343012571334839,0.20048221945762634
1776870295394486800,8.49148681640625,0.17803744971752167,0.872722864151001,-0.02783510647714138
1776870295404523800,8.501523681640625,0.26436716318130493,0.6772864460945129,-0.21765634417533875
1776870295414560800,8.511560791015626,0.31535017490386963,0.4318404793739319,-0.36906448006629944
1776870295424597800,8.52159765625,0.2962763011455536,0.15053394436836243,-0.5132905840873718
1776870295434635000,8.531635009765624,0.22665327787399292,-0.2251581847667694,-0.6046244502067566
1776870295444672800,8.5416728515625,0.133099764585495,-0.6980037689208984,-0.6448691487312317
1776870295454709800,8.551709716796875,0.014494557864964008,-1.1739444732666016,-0.6348884105682373
1776870295464746800,8.561746826171875,-0.11077212542295456,-1.4517676830291748,-0.5391478538513184
1776870295474784000,8.571783935546875,-0.21038421988487244,-1.3963004350662231,-0.27927497029304504
1776870295484820700,8.58182080078125,-0.2591090202331543,-0.9869834184646606,0.10922133177518845
1776870295494858800,8.591858642578124,-0.27344852685928345,-0.3863149583339691,0.4630824625492096
1776870295504896000,8.60189599609375,-0.2527921497821808,0.15223011374473572,0.6578861474990845
1776870295514933000,8.61193310546875,-0.19250217080116272,0.4798111915588379,0.7017756104469299
1776870295524969700,8.6219697265625,-0.12151692062616348,0.5925565361976624,0.6556175351142883
1776870295535006700,8.6320068359375,-0.06013531982898712,0.5626700520515442,0.5737400054931641
1776870295545044000,8.6420439453125,-0.009374742396175861,0.45791006088256836,0.4762767255306244
1776870295555081700,8.652081787109376,0.029026709496974945,0.3424537777900696,0.3735186457633972
1776870295565118700,8.66211865234375,0.0626191645860672,0.254632830619812,0.25240203738212585
1776870295575155700,8.67215576171875,0.10469551384449005,0.24499429762363434,0.11610279232263565
1776870295585193000,8.68219287109375,0.15105517208576202,0.2919425368309021,-0.0023406175896525383
1776870295595230000,8.69222998046875,0.19592757523059845,0.3195749521255493,-0.06886771321296692
1776870295605267700,8.702267822265625,0.21246398985385895,0.30587202310562134,-0.10685905814170837
1776870295615305000,8.712304931640626,0.19992582499980927,0.25832366943359375,-0.14398646354675293
1776870295625342000,8.722342041015626,0.16876927018165588,0.17569658160209656,-0.18557563424110413
1776870295635379000,8.73237890625,0.12396664917469025,0.08052744716405869,-0.2103251963853836
1776870295645415700,8.742415771484374,0.06876465678215027,-0.011457393877208233,-0.18341083824634552
1776870295655454000,8.752453857421875,0.009999611414968967,-0.08738917857408524,-0.12083082646131516
1776870295665491000,8.762490966796875,-0.04336372762918472,-0.14590102434158325,-0.062391847372055054
1776870295675528000,8.77252783203125,-0.0951550230383873,-0.17981530725955963,-0.03624733164906502
1776870295685564700,8.782564697265625,-0.12306372821331024,-0.17222006618976593,-0.03306444361805916
1776870295695602000,8.792601806640626,-0.1386765092611313,-0.13310781121253967,-0.03752923384308815
1776870295705640000,8.802639892578124,-0.14553548395633698,-0.09945318102836609,-0.036579057574272156
1776870295715676700,8.8126767578125,-0.13334059715270996,-0.09121229499578476,-0.01909887045621872
1776870295725713700,8.822713623046875,-0.11542953550815582,-0.12581488490104675,0.0008537248941138387
1776870295735751000,8.8327509765625,-0.10222159326076508,-0.19628266990184784,0.016891280189156532
1776870295745788000,8.842787841796875,-0.10110954195261002,-0.27668851613998413,0.011228019371628761
1776870295755825700,8.85282568359375,-0.10773441940546036,-0.3161323368549347,-0.005395964719355106
1776870295765863000,8.86286279296875,-0.09207170456647873,-0.2803039848804474,-0.014675989747047424
1776870295775900000,8.87289990234375,-0.05748336762189865,-0.17156952619552612,-0.004299248568713665
1776870295785937000,8.88293701171875,-0.016006924211978912,-0.051045406609773636,0.035981226712465286
1776870295795974000,8.892973876953125,0.024221986532211304,0.041033919900655746,0.08168826252222061
1776870295806012000,8.903011962890625,0.05367525294423103,0.09149883687496185,0.11260310560464859
1776870295816049000,8.913048828125,0.06713752448558807,0.0891035869717598,0.13452838361263275
1776870295826086000,8.9230859375,0.07269898056983948,0.05387600138783455,0.1548067033290863
1776870295836122600,8.93312255859375,0.06710740178823471,-0.001957703847438097,0.1682807058095932
1776870295846160000,8.943159912109374,0.04657848924398422,-0.06048283725976944,0.17245852947235107
1776870295856198000,8.953197998046875,0.02411499433219433,-0.08997521549463272,0.17471688985824585
1776870295866235000,8.96323486328125,0.006006190553307533,-0.08420290797948837,0.17103543877601624
1776870295876271600,8.973271728515625,-0.0048882681876420975,-0.039816003292798996,0.1728554368019104
1776870295886308900,8.983308837890625,-0.009094721637666225,0.0043359496630728245,0.18636454641819
1776870295896345900,8.993345947265626,-0.007676854729652405,0.035366568714380264,0.20728473365306854
1776870295906384000,9.0033837890625,-0.002999182790517807,0.033403180539608,0.21657565236091614
1776870295916420900,9.0134208984375,0.009247364476323128,0.0047720675356686115,0.21371248364448547
1776870295926457900,9.023457763671875,0.015486206859350204,-0.034152135252952576,0.20134642720222473
1776870295936494800,9.033494873046875,0.027336476370692253,-0.07191469520330429,0.18699225783348083
1776870295946531800,9.04353173828125,0.042646374553442,-0.08323115110397339,0.18024058640003204
1776870295956569300,9.0535693359375,0.04806217551231384,-0.06134582683444023,0.17892737686634064
1776870295966606300,9.0636064453125,0.04469265043735504,-0.008862534537911415,0.18125581741333008
1776870295976643600,9.0736435546875,0.04292510822415352,0.05157577618956566,0.1864793449640274
1776870295986680600,9.0836806640625,0.04973170533776283,0.10940807312726974,0.19268424808979034
1776870295996717600,9.093717529296875,0.05267076939344406,0.15825124084949493,0.1926504224538803
1776870296006755600,9.103755615234375,0.04741130769252777,0.19151566922664642,0.18499213457107544
1776870296016792600,9.11379248046875,0.039738476276397705,0.19832031428813934,0.17046166956424713
1776870296026829600,9.12382958984375,0.025591587647795677,0.16604433953762054,0.15951049327850342
1776870296036866300,9.1338662109375,0.0021821362897753716,0.08997833728790283,0.17481355369091034
1776870296046903600,9.143903564453124,-0.03744134306907654,0.021861962974071503,0.23132948577404022
1776870296056941600,9.153941650390625,-0.07534212619066238,-0.03299116715788841,0.3161858022212982
1776870296066978600,9.163978515625,-0.11716128885746002,-0.0970396175980568,0.3617716133594513
1776870296077015300,9.174015380859375,-0.1362961083650589,-0.1924489438533783,0.35649776458740234
1776870296087052500,9.184052490234375,-0.12992683053016663,-0.2952495515346527,0.3463854491710663
1776870296097089500,9.194089599609375,-0.10426993668079376,-0.3215583860874176,0.384549081325531
1776870296107127600,9.20412744140625,-0.07136891782283783,-0.2698637545108795,0.4842821955680847
1776870296117164500,9.21416455078125,-0.05116990953683853,-0.1729196310043335,0.6008749008178711
1776870296127201500,9.224201416015624,-0.03916781395673752,-0.07110065966844559,0.7039904594421387
1776870296137238500,9.234238525390625,-0.02732926607131958,0.049373555928468704,0.7735788226127625
1776870296147275500,9.244275634765625,-0.012987005524337292,0.18747545778751373,0.8104168772697449
1776870296157313500,9.2543134765625,0.012741261161863804,0.34007275104522705,0.8287897706031799
1776870296167350500,9.2643505859375,0.03511040657758713,0.46311140060424805,0.8250879049301147
1776870296177387500,9.274387451171876,0.06624489277601242,0.5204351544380188,0.8380575180053711
1776870296187424500,9.284424560546874,0.10853306949138641,0.47592228651046753,0.917759358882904
1776870296197461500,9.29446142578125,0.16262613236904144,0.35671573877334595,1.1101045608520508
1776870296207499500,9.30449951171875,0.21528251469135284,0.2043149173259735,1.354478120803833
1776870296217536500,9.31453662109375,0.2139543890953064,0.12434765696525574,1.5478897094726562
1776870296227573500,9.324573486328125,0.18149353563785553,0.09405677020549774,1.6917401552200317
1776870296237610500,9.334610595703126,0.1418694257736206,0.11079606413841248,1.7482683658599854
1776870296247647500,9.3446474609375,0.09513656795024872,0.1742178499698639,1.7406848669052124
1776870296257685500,9.354685546875,0.060506422072649,0.26541486382484436,1.6649805307388306
1776870296267722500,9.364722412109375,0.09151827543973923,0.3916596472263336,1.5598610639572144
1776870296277759500,9.374759521484375,0.1979008913040161,0.5801630020141602,1.464247703552246
1776870296287796500,9.38479638671875,0.4137900769710541,0.7737478017807007,1.4454723596572876
1776870296297833500,9.39483349609375,0.6662601232528687,0.9435474872589111,1.5254875421524048
1776870296307871500,9.40487158203125,0.9136414527893066,1.0432809591293335,1.623516321182251
1776870296317908500,9.414908447265624,1.0604524612426758,0.9803805947303772,1.638076901435852
1776870296327945500,9.424945556640624,1.071282148361206,0.7803381085395813,1.4586542844772339
1776870296337982500,9.434982421875,1.0221593379974365,0.6054059863090515,1.1900683641433716
1776870296348019700,9.445019775390625,0.9213864207267761,0.4181481897830963,1.0796771049499512
1776870296358057500,9.455057373046875,0.8247008919715881,0.32371756434440613,1.1411534547805786
1776870296368094500,9.465094482421875,0.7918468713760376,0.4649268388748169,1.2877475023269653
1776870296378131500,9.47513134765625,0.8981956839561462,0.7553274631500244,1.4227020740509033
1776870296388168400,9.48516845703125,1.039841651916504,0.9992887377738953,1.5342808961868286
1776870296398205400,9.495205322265624,1.1088017225265503,1.114534854888916,1.5627782344818115
1776870296408243500,9.505243408203125,1.1601060628890991,0.9865341186523438,1.474340796470642
1776870296418280700,9.51528076171875,1.210772156715393,0.6250262260437012,1.3840750455856323
1776870296428317400,9.5253173828125,1.245975136756897,0.2931949496269226,1.3972176313400269
1776870296438354400,9.5353544921875,1.2564400434494019,0.2663734555244446,1.519924283027649
1776870296448392400,9.545392333984376,1.2384071350097656,0.434423565864563,1.6849913597106934
1776870296458429700,9.5554296875,1.2157684564590454,0.5841177105903625,1.8466832637786865
1776870296468466400,9.565466552734375,1.1499117612838745,0.603633463382721,1.8984547853469849
1776870296478503400,9.57550341796875,1.1503515243530273,0.6553714871406555,1.8933035135269165
1776870296488540400,9.58554052734375,1.187501072883606,0.7452954053878784,1.9032979011535645
1776870296498578400,9.595578369140625,1.2227413654327393,0.7586703300476074,1.887507677078247
1776870296508615400,9.605615478515626,1.2532763481140137,0.6349509954452515,1.9597419500350952
1776870296518652400,9.61565234375,1.2838486433029175,0.4873085021972656,2.1132800579071045
1776870296528689400,9.625689453125,1.3076000213623047,0.4329395592212677,2.259549140930176
1776870296538726700,9.6357265625,1.3152140378952026,0.5160309672355652,2.3974111080169678
1776870296548764400,9.645764404296875,1.3126839399337769,0.6949222683906555,2.438281774520874
1776870296558801400,9.655801513671875,1.3085284233093262,0.8440337181091309,2.3927152156829834
1776870296568838700,9.665838623046875,1.3305385112762451,1.0122941732406616,2.346104145050049
1776870296578875600,9.675875732421876,1.3386377096176147,1.1720694303512573,2.3335764408111572
1776870296588912400,9.685912353515626,1.30467689037323,1.1453243494033813,2.342503070831299
1776870296598950400,9.695950439453124,1.2523773908615112,0.8876121044158936,2.343628168106079
1776870296608987600,9.705987548828125,1.2296454906463623,0.6289170384407043,2.3611552715301514
1776870296619024600,9.716024658203125,1.1993887424468994,0.5306988954544067,2.49511456489563
1776870296629061400,9.726061279296875,1.1588906049728394,0.4346788227558136,2.7259161472320557
1776870296639098400,9.736098388671875,1.110727310180664,0.3995128571987152,2.9370713233947754
1776870296649136600,9.74613671875,1.0252634286880493,0.29454392194747925,3.096235990524292
1776870296659173400,9.75617333984375,0.9635359048843384,0.15335990488529205,3.2265427112579346
1776870296669210400,9.76621044921875,0.9572953581809998,-0.03695635870099068,3.1987571716308594
1776870296679247400,9.776247314453125,1.0674277544021606,-0.12435704469680786,3.172168016433716
1776870296689284600,9.78628466796875,1.1263530254364014,0.03342064097523689,3.089000940322876
1776870296699322400,9.796322265625,1.1360461711883545,0.36832353472709656,2.799884557723999
1776870296709359400,9.806359375,1.0989185571670532,0.2623262405395508,2.858020782470703
1776870296719396600,9.816396728515626,0.9945877194404602,0.3596338927745819,2.7716176509857178
1776870296729433600,9.82643359375,0.9425533413887024,0.6741705536842346,2.5322213172912598
1776870296739470600,9.836470703125,0.8531363606452942,0.8603249788284302,2.3316593170166016
1776870296749508400,9.84650830078125,0.7701975703239441,1.0984735488891602,2.073399305343628
1776870296759545600,9.856545654296875,0.8943130970001221,0.5527864694595337,2.265432834625244
1776870296769582600,9.86658251953125,0.992001473903656,0.5046533942222595,2.1767780780792236
1776870296779619300,9.876619384765625,1.2004324197769165,0.6026982069015503,2.069596290588379
1776870296789657600,9.88665771484375,1.3771452903747559,0.5544801354408264,1.9536405801773071
1776870296799694600,9.896694580078124,1.3587034940719604,0.586329460144043,1.7170487642288208
1776870296809731600,9.906731689453125,1.1445342302322388,0.647628664970398,1.4443769454956055
1776870296819768300,9.916768310546875,0.9259494543075562,0.7870400547981262,1.1416336297988892
1776870296829805600,9.9268056640625,0.8341137170791626,0.5857006311416626,0.8250908851623535
1776870296839843600,9.936843505859375,0.9130492806434631,0.444524347782135,0.4134567379951477
1776870296849880600,9.946880615234376,0.8889977931976318,0.5187646746635437,0.1243920549750328
1776870296859917300,9.956917236328126,0.7513821721076965,0.389225572347641,-0.13894318044185638
1776870296869954600,9.96695458984375,0.5365927219390869,0.2860211133956909,-0.3882259130477905
1776870296879991600,9.976991455078124,0.3677254319190979,0.1716495305299759,-0.6618502736091614
1776870296890029300,9.987029296875,0.15722492337226868,0.1383088082075119,-0.9420517086982727
1776870296900066600,9.997066650390625,0.023107873275876045,0.13944758474826813,-1.2257976531982422
1776870296910103600,10.007103515625,-0.1482563316822052,0.13792654871940613,-1.5006167888641357
1776870296920140500,10.017140625,-0.2988458573818207,0.10333795845508575,-1.6916290521621704
1776870296930177500,10.027177490234376,-0.422342449426651,0.01738271489739418,-1.8249075412750244
1776870296940215600,10.037215576171874,-0.5300247073173523,-0.12376987934112549,-1.9291958808898926
1776870296950253000,10.047253173828125,-0.657719075679779,-0.30663347244262695,-2.0409233570098877
1776870296960290300,10.057290283203125,-0.7611466646194458,-0.4403334856033325,-2.172816276550293
1776870296970327000,10.0673271484375,-0.7975782752037048,-0.4973086416721344,-2.329505443572998
1776870296980364000,10.077364013671875,-0.7939537167549133,-0.5515119433403015,-2.4297375679016113
1776870296990402000,10.087402099609376,-0.8270662426948547,-0.5904192328453064,-2.4374401569366455
1776870297000439000,10.09743896484375,-0.8824166059494019,-0.602328360080719,-2.4728000164031982
1776870297010476000,10.10747607421875,-0.960105836391449,-0.6313155889511108,-2.518899917602539
1776870297020513000,10.117512939453125,-1.0540379285812378,-0.6304566860198975,-2.5306060314178467
1776870297030550000,10.127550048828125,-1.178144097328186,-0.6163151264190674,-2.5519659519195557
1776870297040588000,10.137588134765625,-1.2301396131515503,-0.6211524605751038,-2.6049113273620605
1776870297050625000,10.147625,-1.2497079372406006,-0.4755408763885498,-2.5711276531219482
1776870297060662000,10.157662109375,-1.2159297466278076,-0.4475843608379364,-2.565870761871338
1776870297070699000,10.167698974609374,-1.186762809753418,-0.468363881111145,-2.5342588424682617
1776870297080737000,10.177737060546875,-1.1947778463363647,-0.437620609998703,-2.5009002685546875
1776870297090774000,10.18777392578125,-1.185955286026001,-0.4752750098705292,-2.56734561920166
1776870297100811000,10.19781103515625,-1.1996948719024658,-0.41463109850883484,-2.620455026626587
1776870297110848300,10.20784814453125,-1.2080429792404175,-0.2407720386981964,-2.6149747371673584
1776870297120885200,10.21788525390625,-1.2003669738769531,-0.18314149975776672,-2.59531831741333
1776870297130923000,10.227923095703124,-1.1709741353988647,-0.21848443150520325,-2.5396149158477783
1776870297140960000,10.2379599609375,-1.1374385356903076,-0.22501130402088165,-2.4871881008148193
1776870297150997200,10.247997314453125,-1.1138046979904175,-0.18910713493824005,-2.478259325027466
1776870297161034000,10.258033935546875,-1.092244029045105,-0.06531567871570587,-2.4514639377593994
1776870297171071000,10.268071044921875,-1.100425124168396,0.03524864837527275,-2.372979164123535
1776870297181109200,10.278109130859375,-1.1337493658065796,0.14928120374679565,-2.214653491973877
1776870297191146200,10.288146240234376,-1.188893437385559,0.19979608058929443,-2.05865740776062
1776870297201183000,10.298182861328126,-1.2610914707183838,0.15223363041877747,-1.9069043397903442
1776870297211220000,10.308219970703124,-1.3373368978500366,0.09356393665075302,-1.8586087226867676
1776870297221258200,10.31825830078125,-1.391611099243164,-0.026069780811667442,-1.8546216487884521
1776870297231295200,10.328295166015625,-1.4261072874069214,-0.10006775707006454,-1.8155360221862793
1776870297241332000,10.33833203125,-1.4213393926620483,-0.11488105356693268,-1.7367559671401978
1776870297251369000,10.348368896484375,-1.3727067708969116,-0.12157917022705078,-1.641758918762207
1776870297261406200,10.35840625,-1.3134427070617676,-0.10721167922019958,-1.5276148319244385
1776870297271444000,10.36844384765625,-1.2490326166152954,-0.12302686274051666,-1.3956140279769897
1776870297281481000,10.37848095703125,-1.222817063331604,-0.30493009090423584,-1.3032007217407227
1776870297291518000,10.38851806640625,-1.2491832971572876,-0.5139860510826111,-1.2442907094955444
1776870297301555200,10.39855517578125,-1.3021138906478882,-0.59565669298172,-1.179121494293213
1776870297311594000,10.408593994140626,-1.3634624481201172,-0.564359188079834,-1.1420575380325317
1776870297321632300,10.41863232421875,-1.4105297327041626,-0.5168460011482239,-1.1911540031433105
1776870297331669000,10.4286689453125,-1.4335836172103882,-0.5408708453178406,-1.2617969512939453
1776870297341706000,10.4387060546875,-1.4267743825912476,-0.5511149764060974,-1.2597804069519043
1776870297351743000,10.448742919921875,-1.3815962076187134,-0.5251730680465698,-1.1947091817855835
1776870297361780200,10.4587802734375,-1.3288445472717285,-0.43281832337379456,-1.1400675773620605
1776870297371818000,10.46881787109375,-1.2668354511260986,-0.38529011607170105,-1.1435797214508057
1776870297381855000,10.47885498046875,-1.2330756187438965,-0.36526980996131897,-1.2169901132583618
1776870297391892200,10.488892333984374,-1.2032710313796997,-0.4152219295501709,-1.2749063968658447
1776870297401929200,10.49892919921875,-1.1864616870880127,-0.47753962874412537,-1.3114633560180664
1776870297411967000,10.508967041015625,-1.1794185638427734,-0.5104655623435974,-1.3746871948242188
1776870297422004000,10.51900390625,-1.1587071418762207,-0.5319021940231323,-1.4025472402572632
1776870297432041200,10.529041259765625,-1.1348131895065308,-0.5354267358779907,-1.451653003692627
1776870297442078200,10.539078125,-1.1235907077789307,-0.45181041955947876,-1.51046884059906
1776870297452115000,10.549114990234376,-1.120396614074707,-0.3088485598564148,-1.5677695274353027
1776870297462153200,10.5591533203125,-1.108453631401062,-0.20448246598243713,-1.6022289991378784
1776870297472190200,10.569190185546875,-1.0537034273147583,-0.18014565110206604,-1.6320929527282715
1776870297482227200,10.579227294921875,-0.9600648283958435,-0.26791810989379883,-1.631077766418457
1776870297492264000,10.589263916015625,-0.8618766069412231,-0.433586984872818,-1.5926023721694946
1776870297502301000,10.599301025390625,-0.7841245532035828,-0.566475510597229,-1.5677212476730347
1776870297512339200,10.609339111328126,-0.7291426062583923,-0.6423578262329102,-1.571822166442871
1776870297522376000,10.6193759765625,-0.6789880990982056,-0.6665099859237671,-1.6203831434249878
1776870297532413000,10.629412841796874,-0.6140373349189758,-0.6617280840873718,-1.6907217502593994
1776870297542450200,10.6394501953125,-0.5741910934448242,-0.6015260219573975,-1.7426025867462158
1776870297552488200,10.64948828125,-0.5481647253036499,-0.5006205439567566,-1.7790151834487915
1776870297562525000,10.65952490234375,-0.5162909626960754,-0.38667720556259155,-1.7777032852172852
1776870297572562000,10.66956201171875,-0.454062283039093,-0.278611421585083,-1.7350834608078003
1776870297582599200,10.67959912109375,-0.3888973891735077,-0.16415941715240479,-1.6511293649673462
1776870297592636200,10.68963623046875,-0.32518601417541504,-0.07928832620382309,-1.5470759868621826
1776870297602674000,10.699673828125,-0.26054710149765015,-0.06909560412168503,-1.4269429445266724
1776870297612711200,10.709711181640625,-0.1915639042854309,-0.07082009315490723,-1.2901026010513306
1776870297622748200,10.719748046875,-0.1253150999546051,-0.07392720133066177,-1.1033692359924316
1776870297632785200,10.72978515625,-0.07688869535923004,-0.08416663110256195,-0.8819858431816101
1776870297642822100,10.739822265625,-0.05716612562537193,-0.06950832903385162,-0.6675310730934143
1776870297652860200,10.749860107421876,-0.06946083903312683,0.013605605810880661,-0.48099735379219055
1776870297662897200,10.759897216796874,-0.10225367546081543,0.18819019198417664,-0.3824406862258911
1776870297672934100,10.76993408203125,-0.1410200148820877,0.37139326333999634,-0.42614468932151794
1776870297682971000,10.779970947265625,-0.1633514165878296,0.4962798058986664,-0.6212701797485352
1776870297693009200,10.790009033203125,-0.15665404498577118,0.4624003767967224,-0.9744793772697449
1776870297703046100,10.800046142578125,-0.12898778915405273,0.19801558554172516,-1.4268925189971924
1776870297713083100,10.810083251953126,-0.08034658432006836,-0.3485129177570343,-1.7019984722137451
1776870297723119900,10.820119873046876,-0.028487110510468483,-1.0274262428283691,-1.5074725151062012
1776870297733157000,10.8301572265625,0.03627489134669304,-1.642472743988037,-0.8364312052726746
1776870297743195100,10.840195068359375,-0.0070009431801736355,-1.9497424364089966,-0.11280670762062073
1776870297753232100,10.850232177734375,-0.09260106086730957,-1.9875006675720215,0.3367123007774353
1776870297763269000,10.86026904296875,-0.13188108801841736,-1.820751428604126,0.4292915165424347
1776870297773306000,10.87030615234375,-0.04960457980632782,-1.5123404264450073,0.3419676125049591
1776870297783344000,10.88034423828125,0.13762257993221283,-1.0505157709121704,0.24867042899131775
1776870297793380900,10.890380859375,0.41431206464767456,-0.42244938015937805,0.5302053689956665
1776870297803418000,10.900418212890624,0.5674089193344116,0.29225170612335205,0.9193437695503235
1776870297813455000,10.910455078125,0.5279344320297241,0.87736576795578,1.072094202041626
1776870297823492000,10.9204921875,0.39849498867988586,1.2457761764526367,0.9841047525405884
1776870297833530000,10.930530029296875,0.2639848291873932,1.3774545192718506,0.7496907114982605
1776870297843567000,10.940567138671875,0.1663525551557541,1.3143032789230347,0.5180915594100952
1776870297853604000,10.95060400390625,0.12460575252771378,1.105309247970581,0.314968466758728
1776870297863641000,10.96064111328125,0.11668098717927933,0.8051881790161133,0.19500529766082764
1776870297873678000,10.970677978515624,0.13167957961559296,0.4819350242614746,0.14690420031547546
1776870297883716000,10.980716064453125,0.14232370257377625,0.20570051670074463,0.12929324805736542
1776870297893753000,10.990753173828125,0.10545258224010468,0.06683770567178726,0.10942378640174866
1776870297903790000,11.0007900390625,-0.004429979249835014,0.08635681122541428,0.03532426059246063
1776870297913827000,11.0108271484375,-0.15717557072639465,0.24760794639587402,-0.07567079365253448
1776870297923864000,11.020864013671876,-0.2883346676826477,0.40588733553886414,-0.16105787456035614
1776870297933902000,11.030902099609374,-0.35711508989334106,0.44441622495651245,-0.19012337923049927
1776870297943939000,11.04093896484375,-0.36370161175727844,0.3586217164993286,-0.15492837131023407
1776870297953979100,11.050979248046875,-0.32479479908943176,0.20239843428134918,-0.09002623707056046
1776870297964016400,11.061016357421876,-0.2696433961391449,0.03944813460111618,-0.033996790647506714
1776870297974054400,11.071054443359374,-0.22161807119846344,-0.06558726727962494,-0.015114275738596916
1776870297984091400,11.08109130859375,-0.19679661095142365,-0.09742163121700287,-0.0328458696603775
1776870297994128400,11.09112841796875,-0.17182882130146027,-0.08150547742843628,-0.06948664039373398
1776870298004165400,11.101165283203125,-0.11786200106143951,-0.06535793095827103,-0.09424098581075668
1776870298014202400,11.111202392578125,-0.03425014019012451,-0.058367010205984116,-0.11669351905584335
1776870298024240000,11.121240234375,0.05700254067778587,-0.03251117840409279,-0.1445094496011734
1776870298034277400,11.13127734375,0.1519545465707779,-0.0014595300890505314,-0.2025177776813507
1776870298044314400,11.141314453125,0.25065556168556213,-0.02471931278705597,-0.2913597524166107
1776870298054351400,11.151351318359374,0.3617057800292969,-0.15903586149215698,-0.40221866965293884
1776870298064388400,11.161388427734375,0.4153610169887543,-0.38271716237068176,-0.46120956540107727
1776870298074426400,11.17142626953125,0.3733525574207306,-0.6095808148384094,-0.4387384057044983
1776870298084463400,11.18146337890625,0.25075632333755493,-0.8328285217285156,-0.3304465413093567
1776870298094500400,11.191500244140625,0.08355715125799179,-0.9238008260726929,-0.11104962974786758
1776870298104537600,11.20153759765625,-0.04404527693986893,-0.8018940687179565,0.15625664591789246
1776870298114574300,11.21157421875,-0.12456146627664566,-0.47526654601097107,0.35879209637641907
1776870298124612400,11.2216123046875,-0.1559649109840393,-0.11961737275123596,0.4329307973384857
1776870298134649300,11.2316494140625,-0.17013856768608093,0.15207770466804504,0.4228246212005615
1776870298144686300,11.241686279296875,-0.1128489151597023,0.2526855170726776,0.3832859992980957
1776870298154723300,11.251723388671875,-0.05357625335454941,0.2624949514865875,0.35446488857269287
1776870298164761300,11.26176123046875,-0.036827899515628815,0.21520785987377167,0.3244782090187073
1776870298174798600,11.271798583984374,-0.059947896748781204,0.13916563987731934,0.28158655762672424
1776870298184835300,11.28183544921875,-0.09929317235946655,0.041301123797893524,0.21327033638954163
1776870298194872300,11.291872314453125,-0.1387716829776764,-0.03660694137215614,0.12275584042072296
1776870298204909300,11.301909423828125,-0.14832285046577454,-0.06359728425741196,0.03952006995677948
1776870298214947600,11.311947509765625,-0.11409632116556168,-0.0556715726852417,-0.012083811685442924
1776870298224984300,11.321984375,-0.04688585549592972,0.5403481125831604,0.29715123772621155
1776870298235021300,11.332021240234376,0.04903406649827957,0.6847988367080688,0.14371581375598907
1776870298245058300,11.342058349609376,0.12170746177434921,0.3556845486164093,-0.09611169248819351
1776870298255095600,11.352095458984374,0.12035036832094193,0.15775533020496368,-0.16223612427711487
1776870298265133300,11.36213330078125,0.1294778287410736,-0.13325494527816772,-0.1834130585193634
1776870298275170300,11.37217041015625,0.13294315338134766,-0.39395561814308167,-0.20247429609298706
1776870298285207300,11.382207275390625,0.11408957093954086,-0.5754745602607727,-0.22552183270454407
1776870298295244500,11.39224462890625,0.07236269116401672,-0.6854713559150696,-0.25399109721183777
1776870298305281300,11.40228125,0.038922179490327835,-0.7477751970291138,-0.2835002541542053
1776870298315319300,11.4123193359375,0.013608208857476711,-0.7609912753105164,-0.3055599331855774
1776870298325356500,11.4223564453125,0.0008886856958270073,-0.7191399335861206,-0.30241474509239197
1776870298335393500,11.4323935546875,-0.012486790306866169,-0.5602898001670837,-0.2371637523174286
1776870298345430300,11.44243017578125,-0.03004501201212406,-0.300256609916687,-0.11090993136167526
1776870298355468300,11.45246826171875,-0.03599289804697037,-0.03159942105412483,0.018864141777157784
1776870298365505500,11.462505615234376,-0.038870442658662796,0.1353062093257904,0.10273454338312149
1776870298375542500,11.47254248046875,-0.03308432549238205,0.2024063915014267,0.1409468799829483
1776870298385579300,11.482579345703124,-0.03336795046925545,0.2075881063938141,0.1628609597682953
1776870298395616300,11.4926162109375,-0.03958751633763313,0.18435852229595184,0.1810435950756073
1776870298405654500,11.502654541015625,-0.040021613240242004,0.15946675837039948,0.19142885506153107
1776870298415691300,11.512691162109375,-0.03123805671930313,0.14123162627220154,0.19000506401062012
1776870298425728300,11.522728271484375,-0.009080557152628899,0.12509898841381073,0.16989341378211975
1776870298435765200,11.53276513671875,0.015519728884100914,0.12724071741104126,0.14415904879570007
1776870298445802500,11.542802490234376,0.032783932983875275,0.14519254863262177,0.11267170310020447
1776870298455840300,11.55284033203125,0.04951161891222,0.1738986074924469,0.08067984133958817
1776870298465877200,11.562877197265625,0.06260291486978531,0.1801658272743225,0.059549521654844284
1776870298475914500,11.57291455078125,0.07053634524345398,0.16466060280799866,0.04981803148984909
1776870298485951500,11.582951416015625,0.07126551866531372,0.12295258045196533,0.0483599528670311
1776870298495988500,11.592988525390625,0.06731392443180084,0.05379268154501915,0.044780928641557693
1776870298506026200,11.603026123046876,0.05765596404671669,-0.01972814090549946,0.03322973474860191
1776870298516063500,11.6130634765625,0.04565194994211197,-0.07570289075374603,0.02378191612660885
1776870298526100500,11.6231005859375,0.040026020258665085,-0.11008696258068085,0.026776107028126717
1776870298536137200,11.63313720703125,0.038859009742736816,-0.10793059319257736,0.035765908658504486
1776870298546174200,11.64317431640625,0.0349753238260746,-0.07990987598896027,0.04681110009551048
1776870298556212500,11.65321240234375,0.026556316763162613,-0.02431519515812397,0.044285934418439865
1776870298566249500,11.66324951171875,0.028242100030183792,0.03097415901720524,0.029496334493160248
1776870298576286200,11.6732861328125,0.04742198809981346,0.07467633485794067,0.010733917355537415
1776870298586323200,11.6833232421875,0.07164770364761353,0.08578544110059738,-0.007872257381677628
1776870298596360400,11.6933603515625,0.09455528110265732,0.06611769646406174,-0.020442940294742584
1776870298606398500,11.7033984375,0.09722936153411865,0.027608389034867287,-0.019132131710648537
1776870298616435200,11.713435302734375,0.09828566759824753,-0.018898718059062958,-0.000672944588586688
1776870298626472400,11.723472412109375,0.09747899323701859,-0.0658867359161377,0.03852825611829758
1776870298636509400,11.733509521484375,0.092974454164505,-0.10276539623737335,0.08566712588071823
1776870298646546400,11.74354638671875,0.0836496651172638,-0.10123434662818909,0.1385231465101242
1776870298656584200,11.753584228515624,0.07678746432065964,-0.062405865639448166,0.17651119828224182
1776870298666621400,11.763621337890624,0.07016098499298096,0.0064158071763813496,0.225084587931633
1776870298676658400,11.773658447265625,0.08089175820350647,0.08253415673971176,0.28425198793411255
1776870298686695400,11.7836953125,0.10220770537853241,0.14991320669651031,0.33410051465034485
1776870298696732200,11.793732177734375,0.12671016156673431,0.19263359904289246,0.36174172163009644
1776870298706770400,11.8037705078125,0.148813858628273,0.20526869595050812,0.3828589916229248
1776870298716807400,11.813807373046876,0.1632765829563141,0.18740245699882507,0.40187960863113403
1776870298726844400,11.823844482421874,0.16208694875240326,0.13585351407527924,0.42085838317871094
1776870298736881200,11.833881103515624,0.14760278165340424,0.06291311979293823,0.4268176555633545
1776870298746919400,11.84391943359375,0.11699241399765015,-0.013524399138987064,0.4345775842666626
1776870298756956400,11.853956298828125,0.09086495637893677,-0.10087667405605316,0.4553368091583252
1776870298766993400,11.863993408203125,0.0813705176115036,-0.1756017804145813,0.48624733090400696
1776870298777030400,11.874030517578126,0.08519557863473892,-0.23077909648418427,0.5415105819702148
1776870298787067400,11.8840673828125,0.09508096426725388,-0.23467157781124115,0.6326373219490051
1776870298797105400,11.89410546875,0.10553693026304245,-0.19072917103767395,0.7641180753707886
1776870298807142100,11.90414208984375,0.12002160400152206,-0.06805598735809326,0.910090982913971
1776870298817179400,11.914179443359375,0.13477256894111633,0.14983639121055603,1.0227179527282715
1776870298827216400,11.92421630859375,0.1547212451696396,0.40755021572113037,1.0980702638626099
1776870298837253400,11.93425341796875,0.17653599381446838,0.6490906476974487,1.1638473272323608
1776870298847291400,11.94429150390625,0.20103920996189117,0.8493332266807556,1.2358989715576172
1776870298857328400,11.954328369140624,0.21873952448368073,0.9409709572792053,1.2830655574798584
1776870298867365400,11.964365478515624,0.22683553397655487,0.8602620363235474,1.2967946529388428
1776870298877402400,11.97440234375,0.23241253197193146,0.6175364851951599,1.3129373788833618
1776870298887439600,11.984439697265625,0.23233476281166077,0.27949345111846924,1.33181631565094
1776870298897477400,11.994477294921875,0.23666591942310333,-0.04965774714946747,1.3496748208999634
1776870298907512300,12.00451220703125,0.23580197989940643,-0.1924697607755661,1.3475043773651123
1776870298917549300,12.01454931640625,0.22359423339366913,-0.09706596285104752,1.3416110277175903
1776870298927586300,12.02458642578125,0.2267543524503708,0.08532914519309998,1.396253228187561
1776870298937623300,12.034623291015626,0.27350375056266785,0.23893015086650848,1.4825223684310913
1776870298947661300,12.044661376953124,0.3579632341861725,0.3082330822944641,1.5444732904434204
1776870298957694000,12.05469384765625,0.4343857169151306,0.3521430194377899,1.5295063257217407
1776870298967731000,12.06473095703125,0.5307947993278503,0.41923630237579346,1.4662320613861084
1776870298977768200,12.074768310546874,0.6655049920082092,0.37606632709503174,1.4095467329025269
1776870298987805200,12.08480517578125,0.7970622181892395,0.2336128056049347,1.3915014266967773
1776870298997843000,12.094843017578125,0.885158896446228,0.07298074662685394,1.4078316688537598
1776870299007880000,12.1048798828125,0.9243534207344055,0.0063391318544745445,1.426329493522644
1776870299017917200,12.114917236328125,0.9098256230354309,0.003817714052274823,1.3542296886444092
1776870299027954200,12.1249541015625,0.842496395111084,0.1112232655286789,1.2170974016189575
1776870299037991200,12.1349912109375,0.7465234398841858,0.322186678647995,1.1592415571212769
1776870299048029200,12.145029296875,0.6646903157234192,0.5790895819664001,1.247046709060669
1776870299058066200,12.155066162109375,0.6180449724197388,0.793169379234314,1.3943052291870117
1776870299068103200,12.165103271484375,0.635824978351593,0.9271031618118286,1.4821711778640747
1776870299078140000,12.175139892578125,0.7716723084449768,0.9829892516136169,1.5490165948867798
1776870299088177000,12.185177001953125,0.9352899789810181,0.9302016496658325,1.5029300451278687
1776870299098215200,12.195215087890626,1.0738205909729004,0.9138162136077881,1.361872911453247
1776870299108252200,12.205252197265626,1.1935720443725586,0.968447744846344,1.1956772804260254
1776870299118289000,12.215288818359374,1.350311279296875,1.0908260345458984,1.1721642017364502
1776870299128326100,12.225326171875,1.4280120134353638,1.2565476894378662,1.2116769552230835
1776870299138364200,12.2353642578125,1.458824634552002,1.3788480758666992,1.2429304122924805
1776870299148401000,12.24540087890625,1.4025216102600098,1.4160395860671997,1.2182950973510742
1776870299158438000,12.25543798828125,1.2529959678649902,1.281821608543396,1.188066005706787
1776870299168475100,12.26547509765625,1.1095201969146729,1.0373886823654175,1.213243007659912
1776870299178512100,12.27551220703125,1.0287997722625732,0.8288746476173401,1.356820821762085
1776870299188549000,12.285549072265624,1.024241328239441,0.7177110910415649,1.5889430046081543
1776870299198587100,12.295587158203125,1.0744374990463257,0.6601304411888123,1.74879789352417
1776870299208624000,12.3056240234375,1.1359226703643799,0.6181192994117737,1.8018137216567993
1776870299218661000,12.3156611328125,1.1857490539550781,0.6342911720275879,1.8630198240280151
1776870299228698000,12.325697998046875,1.1966779232025146,0.6569424271583557,1.952852487564087
1776870299238735000,12.335735107421876,1.1462284326553345,0.6284608840942383,2.045999050140381
1776870299248773000,12.345773193359374,1.0935742855072021,0.5291020274162292,2.1646687984466553
1776870299258810000,12.35581005859375,1.0970667600631714,0.37622958421707153,2.31113338470459
1776870299268847000,12.36584716796875,1.1529958248138428,0.3152732849121094,2.393643856048584
1776870299278884000,12.375884033203125,1.2477412223815918,0.38359928131103516,2.452796697616577
1776870299288921000,12.385921142578125,1.3266445398330688,0.4951700270175934,2.4522244930267334
1776870299298959000,12.395958984375,1.3465152978897095,0.5585024356842041,2.4243314266204834
1776870299308995800,12.405995849609376,1.2789970636367798,0.6082785129547119,2.415235757827759
1776870299319033000,12.416033203125,1.151538372039795,0.5910177230834961,2.5119094848632812
1776870299329070000,12.426070068359374,1.004714846611023,0.4693397283554077,2.7210302352905273
1776870299339108000,12.436108154296875,0.8472931385040283,0.28095799684524536,2.9163756370544434
1776870299349145000,12.44614501953125,0.7354472875595093,0.04813487082719803,3.023630380630493
1776870299359182000,12.45618212890625,0.7105545997619629,-0.1745464950799942,3.0911238193511963
1776870299369219000,12.466218994140625,0.788032591342926,-0.28811031579971313,3.0986716747283936
1776870299379256000,12.476256103515626,0.9291548728942871,-0.4415283799171448,3.1462295055389404
1776870299389293300,12.486293212890626,1.0220584869384766,-0.40108826756477356,3.108687400817871
1776870299399331000,12.4963310546875,1.0205661058425903,-0.14086779952049255,2.9664552211761475
1776870299409368000,12.5063681640625,0.9189817905426025,0.17846305668354034,2.7140743732452393
1776870299419405000,12.516405029296875,0.8048674464225769,0.3312673568725586,2.6726512908935547
1776870299429442000,12.526442138671875,0.7343325614929199,0.41928401589393616,2.658473491668701
1776870299439479000,12.53647900390625,0.719908595085144,0.5254750847816467,2.5528109073638916
1776870299449517000,12.54651708984375,0.7425127029418945,0.5390119552612305,2.3937385082244873
1776870299459554300,12.55655419921875,0.7633951902389526,0.6784670948982239,2.1248209476470947
1776870299469591000,12.566591064453124,0.8133335113525391,0.2317899763584137,2.1680192947387695
