time,seconds_elapsed,z,y,x
1776870286986721300,0.08372119140625,-110.941650390625,60.59437561035156,-85.22149658203125
1776870286996812000,0.09381201171875,-111.23403930664062,60.47178649902344,-85.37277221679688
1776870287006904000,0.103904052734375,-110.28645324707031,61.27195739746094,-84.447265625
1776870287016996000,0.11399609375,-112.18768310546875,61.15367126464844,-85.88676452636719
1776870287027088100,0.124088134765625,-111.3382568359375,61.44293212890625,-84.58686828613281
1776870287037180200,0.13418017578125,-109.95016479492188,61.84733581542969,-83.27188110351562
1776870287047272200,0.144272216796875,-110.92674255371094,61.90586853027344,-83.6759033203125
1776870287057365200,0.154365234375,-110.05293273925781,62.33174133300781,-81.99832153320312
1776870287067457300,0.164457275390625,-110.01734924316406,62.06361389160156,-81.26400756835938
1776870287077549300,0.17454931640625,-111.75230407714844,61.791412353515625,-82.08348083496094
1776870287087640300,0.184640380859375,-110.40043640136719,62.22882080078125,-79.98637390136719
1776870287097731000,0.19473095703125,-113.72894287109375,61.66120910644531,-81.37017822265625
1776870287107823000,0.204822998046875,-111.14396667480469,62.23921203613281,-78.09031677246094
1776870287117914000,0.2149140625,-111.03227233886719,61.99888610839844,-76.69233703613281
1776870287128006100,0.225006103515625,-111.78361511230469,62.01165771484375,-75.87355041503906
1776870287138097400,0.235097412109375,-111.48710632324219,61.93487548828125,-74.24017333984375
1776870287148189200,0.245189208984375,-111.51203918457031,61.97007751464844,-73.37759399414062
1776870287158281000,0.255281005859375,-112.33451843261719,62.434173583984375,-72.83297729492188
1776870287168373000,0.265373046875,-112.69354248046875,62.636383056640625,-71.75344848632812
1776870287178464300,0.27546435546875,-113.31993103027344,62.80029296875,-71.24650573730469
1776870287188556300,0.285556396484375,-113.35993957519531,63.11192321777344,-69.54344177246094
1776870287198648300,0.2956484375,-113.74444580078125,63.818267822265625,-68.35366821289062
1776870287208740400,0.305740234375,-113.46524047851562,64.38442993164062,-66.70175170898438
1776870287218832100,0.31583203125,-113.96047973632812,65.12904357910156,-65.48373413085938
1776870287228924200,0.325924072265625,-113.92204284667969,66.01425170898438,-63.94720458984375
1776870287239015200,0.33601513671875,-112.77592468261719,66.73501586914062,-61.829345703125
1776870287249106200,0.346106201171875,-112.73373413085938,67.26065063476562,-60.645721435546875
1776870287259197200,0.356197265625,-112.52314758300781,67.90861511230469,-59.99391174316406
1776870287269287200,0.366287109375,-111.79328918457031,68.83804321289062,-58.57365417480469
1776870287279378200,0.376378173828125,-111.4534912109375,69.46649169921875,-57.47959899902344
1776870287289470200,0.38647021484375,-111.24916076660156,70.12106323242188,-56.47373962402344
1776870287299561200,0.396561279296875,-110.9849853515625,70.49650573730469,-55.27543640136719
1776870287309653200,0.4066533203125,-111.52154541015625,70.65226745605469,-54.82281494140625
1776870287319745300,0.416745361328125,-110.44415283203125,70.62733459472656,-53.076995849609375
1776870287329836000,0.4268359375,-109.79910278320312,70.72119140625,-51.66801452636719
1776870287339928000,0.436927978515625,-109.72662353515625,70.71351623535156,-50.60685729980469
1776870287350019300,0.447019287109375,-109.22596740722656,70.620361328125,-49.48500061035156
1776870287360110300,0.4571103515625,-109.95445251464844,70.3189697265625,-50.10198974609375
1776870287370202400,0.467202392578125,-109.4317626953125,70.31684875488281,-49.157623291015625
1776870287380295200,0.477295166015625,-108.89572143554688,70.39448547363281,-48.42549133300781
1776870287390386200,0.48738623046875,-109.52255249023438,70.53810119628906,-48.90263366699219
1776870287400477200,0.497477294921875,-109.04695129394531,70.67401123046875,-48.27964782714844
1776870287410568200,0.507568115234375,-109.08244323730469,70.85850524902344,-48.749755859375
1776870287420659200,0.5176591796875,-109.17337036132812,71.40432739257812,-48.84928894042969
1776870287430750200,0.527750244140625,-109.44395446777344,71.63224792480469,-49.03172302246094
1776870287440842200,0.53784228515625,-110.0408935546875,71.50196838378906,-49.78105163574219
1776870287450933200,0.547933349609375,-110.01138305664062,70.94389343261719,-49.35614013671875
1776870287461025300,0.558025390625,-109.30744934082031,71.0325927734375,-48.623443603515625
1776870287471117300,0.568117431640625,-108.78372192382812,70.9324951171875,-48.27427673339844
1776870287481207000,0.57820703125,-108.75172424316406,70.56874084472656,-47.74725341796875
1776870287491298300,0.58829833984375,-108.74974060058594,70.37062072753906,-47.95098876953125
1776870287501390300,0.598390380859375,-109.01760864257812,70.55180358886719,-47.98876953125
1776870287511483100,0.608483154296875,-108.60768127441406,70.53216552734375,-47.8658447265625
1776870287521576200,0.618576171875,-109.02290344238281,70.38569641113281,-48.09321594238281
1776870287531668200,0.628668212890625,-109.21359252929688,70.33541870117188,-48.04743957519531
1776870287541759200,0.63875927734375,-110.22163391113281,70.43609619140625,-49.371490478515625
1776870287551851300,0.648851318359375,-109.71839904785156,70.97319030761719,-48.87953186035156
1776870287561944300,0.6589443359375,-109.59428405761719,70.90768432617188,-49.440399169921875
1776870287572036400,0.669036376953125,-109.37098693847656,71.50453186035156,-48.85395812988281
1776870287582128400,0.67912841796875,-109.52200317382812,72.40054321289062,-48.89923095703125
1776870287592219100,0.68921923828125,-109.78875732421875,72.69068908691406,-49.24336242675781
1776870287602310100,0.69931005859375,-108.97186279296875,73.36170959472656,-48.123931884765625
1776870287612401200,0.709401123046875,-109.27609252929688,73.71635437011719,-48.14506530761719
1776870287622492400,0.719492431640625,-109.02641296386719,74.21800231933594,-47.809600830078125
1776870287632583200,0.729583251953125,-107.83047485351562,75.15777587890625,-46.74015808105469
1776870287642674200,0.739674072265625,-107.57449340820312,75.77694702148438,-46.92271423339844
1776870287652767200,0.749767333984375,-108.22709655761719,76.71510314941406,-47.25819396972656
1776870287662860000,0.759860107421875,-107.318115234375,78.03042602539062,-47.39225769042969
1776870287672953000,0.769953125,-106.95587158203125,79.23663330078125,-47.53987121582031
1776870287683046100,0.780046142578125,-107.38070678710938,80.46281433105469,-49.21604919433594
1776870287693138200,0.79013818359375,-106.89472961425781,82.32635498046875,-49.94960021972656
1776870287703230200,0.800230224609375,-105.97381591796875,83.95988464355469,-50.59382629394531
1776870287713322200,0.810322265625,-105.04289245605469,85.67216491699219,-51.38825988769531
1776870287723414300,0.820414306640625,-104.43504333496094,87.33584594726562,-52.584320068359375
1776870287733506300,0.83050634765625,-104.39996337890625,88.81651306152344,-54.53608703613281
1776870287743598300,0.840598388671875,-103.28237915039062,90.14604187011719,-55.450897216796875
1776870287753690400,0.8506904296875,-102.32827758789062,91.59266662597656,-56.648712158203125
1776870287763783200,0.860783203125,-101.56059265136719,93.36466979980469,-58.47367858886719
1776870287773875200,0.870875244140625,-101.18145751953125,94.47282409667969,-60.23301696777344
1776870287783967200,0.88096728515625,-99.65174865722656,95.8427734375,-61.35064697265625
1776870287794060300,0.891060302734375,-97.83177185058594,97.12907409667969,-62.46348571777344
1776870287804153000,0.901153076171875,-96.16355895996094,98.56393432617188,-63.26771545410156
1776870287814245000,0.9112451171875,-94.88124084472656,99.3583984375,-64.43307495117188
1776870287824336400,0.92133642578125,-93.31903076171875,100.76350402832031,-65.3739013671875
1776870287834427100,0.93142724609375,-91.21699523925781,101.55337524414062,-65.59306335449219
1776870287844520200,0.941520263671875,-90.22416687011719,102.35385131835938,-66.58662414550781
1776870287854612200,0.9516123046875,-88.11068725585938,102.99539184570312,-66.22146606445312
1776870287864705300,0.961705322265625,-86.87490844726562,103.40199279785156,-66.65800476074219
1776870287874797000,0.971797119140625,-85.81758117675781,103.8560791015625,-66.74526977539062
1776870287884890400,0.981890380859375,-84.31895446777344,104.38699340820312,-67.08245849609375
1776870287894984200,0.991984130859375,-83.51304626464844,104.77857971191406,-67.391845703125
1776870287905076200,1.002076171875,-81.9818115234375,105.5439453125,-66.99453735351562
1776870287915169300,1.012169189453125,-80.52651977539062,105.85244750976562,-66.24267578125
1776870287925262300,1.022262451171875,-79.80186462402344,106.20158386230469,-65.79385375976562
1776870287935354000,1.03235400390625,-78.27865600585938,106.49040222167969,-65.12750244140625
1776870287945446100,1.042446044921875,-78.68017578125,106.29203796386719,-65.08450317382812
1776870287955538200,1.0525380859375,-77.67317199707031,106.55912780761719,-64.40412902832031
1776870287965628200,1.062628173828125,-77.17218017578125,106.69953918457031,-63.479949951171875
1776870287975721200,1.07272119140625,-76.96743774414062,106.64157104492188,-62.8892822265625
1776870287985813200,1.082813232421875,-77.20674133300781,106.66587829589844,-62.38087463378906
1776870287995905300,1.0929052734375,-77.06121826171875,106.80087280273438,-61.482574462890625
1776870288005997000,1.1029970703125,-77.52313232421875,106.73974609375,-60.99821472167969
1776870288016088300,1.11308837890625,-77.72859191894531,106.52375793457031,-60.4786376953125
1776870288026181000,1.12318115234375,-78.1842041015625,106.49006652832031,-59.87384033203125
1776870288036273200,1.133273193359375,-78.60838317871094,106.25892639160156,-58.938720703125
1776870288046364400,1.143364501953125,-79.96736145019531,106.08497619628906,-58.92681884765625
1776870288056455200,1.153455078125,-80.07453918457031,106.01304626464844,-57.8721923828125
1776870288066546200,1.163546142578125,-80.27275085449219,105.85850524902344,-56.96711730957031
1776870288076638200,1.17363818359375,-81.10250854492188,105.72640991210938,-56.619384765625
1776870288086730200,1.183730224609375,-81.97471618652344,105.16361999511719,-56.21855163574219
1776870288096823300,1.1938232421875,-82.77157592773438,104.92881774902344,-55.82649230957031
1776870288106914300,1.203914306640625,-83.46217346191406,104.57322692871094,-54.99761962890625
1776870288117006300,1.21400634765625,-84.11390686035156,104.27847290039062,-54.31512451171875
1776870288127098400,1.224098388671875,-84.72677612304688,104.10369873046875,-53.908782958984375
1776870288137188000,1.23418798828125,-85.39866638183594,103.51972961425781,-53.11674499511719
1776870288147279400,1.244279296875,-85.62355041503906,103.12168884277344,-52.1864013671875
1776870288157366300,1.2543662109375,-86.3609619140625,102.70564270019531,-51.667999267578125
1776870288167463400,1.26446337890625,-86.42091369628906,102.25515747070312,-50.740631103515625
1776870288177554200,1.27455419921875,-86.95611572265625,101.85765075683594,-50.130584716796875
1776870288187644200,1.28464404296875,-87.79182434082031,101.45829772949219,-49.66960144042969
1776870288197736200,1.294736083984375,-87.91683959960938,100.9932861328125,-48.98899841308594
1776870288207827200,1.3048271484375,-88.31881713867188,100.78910827636719,-48.76420593261719
1776870288217918200,1.314918212890625,-88.64736938476562,100.59417724609375,-48.56158447265625
1776870288228010200,1.32501025390625,-88.56973266601562,100.08282470703125,-48.22528076171875
1776870288238101200,1.335101318359375,-89.21722412109375,99.90762329101562,-47.727691650390625
1776870288248192300,1.345192138671875,-89.17271423339844,99.673583984375,-47.426910400390625
1776870288258283300,1.355283203125,-88.93309020996094,99.60995483398438,-47.00047302246094
1776870288268375000,1.365375,-89.22467041015625,99.45468139648438,-46.92225646972656
1776870288278466300,1.37546630859375,-89.49542236328125,98.95626831054688,-46.87162780761719
1776870288288556000,1.38555615234375,-89.38591003417969,99.10676574707031,-46.52064514160156
1776870288298648000,1.39564794921875,-89.65533447265625,98.86444091796875,-46.370758056640625
1776870288308739000,1.405739013671875,-88.74595642089844,98.862060546875,-45.87220764160156
1776870288318831000,1.4158310546875,-89.48468017578125,98.5869140625,-46.02262878417969
1776870288328924200,1.425924072265625,-89.55325317382812,98.74658203125,-46.23374938964844
1776870288339015200,1.43601513671875,-88.94877624511719,98.89024353027344,-45.406219482421875
1776870288349107200,1.446107177734375,-89.33474731445312,98.6700439453125,-45.27227783203125
1776870288359201300,1.456201171875,-89.09521484375,98.69905090332031,-45.16169738769531
1776870288369294000,1.466294189453125,-89.60877990722656,98.47883605957031,-45.13609313964844
1776870288379387100,1.47638720703125,-89.62960815429688,98.31219482421875,-45.12489318847656
1776870288389480200,1.486480224609375,-89.46792602539062,98.17813110351562,-44.89630126953125
1776870288399572200,1.496572265625,-89.45762634277344,98.16848754882812,-44.960357666015625
1776870288409664300,1.506664306640625,-89.45816040039062,98.04042053222656,-44.681793212890625
1776870288419755300,1.51675537109375,-89.6160888671875,98.10704040527344,-45.11247253417969
1776870288429848300,1.526848388671875,-89.8568115234375,98.08749389648438,-45.20231628417969
1776870288439942100,1.536942138671875,-89.79539489746094,98.09219360351562,-44.89823913574219
1776870288450036200,1.5470361328125,-89.78793334960938,97.80308532714844,-44.62471008300781
1776870288460129300,1.55712939453125,-89.9830322265625,97.74436950683594,-44.56309509277344
1776870288470222300,1.567222412109375,-90.76304626464844,97.54922485351562,-44.95567321777344
1776870288480315100,1.577315185546875,-90.9805908203125,96.958740234375,-44.540130615234375
1776870288490407200,1.5874072265625,-91.07879638671875,97.01309204101562,-44.34883117675781
1776870288500501200,1.597501220703125,-91.39335632324219,96.76861572265625,-44.22216796875
1776870288510592300,1.60759228515625,-91.9559326171875,96.63026428222656,-44.57493591308594
1776870288520684300,1.617684326171875,-92.173583984375,96.4981689453125,-44.40425109863281
1776870288530777000,1.627777099609375,-91.69735717773438,96.23658752441406,-43.69432067871094
1776870288540869000,1.637869140625,-91.95001220703125,96.13604736328125,-43.73014831542969
1776870288550961200,1.647961181640625,-92.60891723632812,96.0126953125,-43.79234313964844
1776870288561053200,1.65805322265625,-92.97984313964844,95.69364929199219,-43.713897705078125
1776870288571145200,1.668145263671875,-93.10392761230469,95.59271240234375,-43.597930908203125
1776870288581237200,1.6782373046875,-93.23931884765625,95.26914978027344,-43.488555908203125
1776870288591329000,1.6883291015625,-93.98554992675781,95.12571716308594,-43.49491882324219
1776870288601422300,1.69842236328125,-94.10472106933594,94.66326904296875,-43.594512939453125
1776870288611515400,1.708515380859375,-94.38168334960938,94.47413635253906,-43.71260070800781
1776870288621607400,1.718607421875,-94.21514892578125,94.46990966796875,-43.41090393066406
1776870288631699200,1.72869921875,-94.16015625,94.4495849609375,-43.16770935058594
1776870288641791200,1.738791259765625,-94.873046875,94.36824035644531,-43.6219482421875
1776870288651884300,1.74888427734375,-94.22911071777344,94.59251403808594,-43.34553527832031
1776870288661976000,1.75897607421875,-94.4520263671875,94.38447570800781,-43.53147888183594
1776870288672068000,1.769068115234375,-93.71087646484375,94.610107421875,-42.98695373535156
1776870288682160000,1.77916015625,-93.55523681640625,94.60067749023438,-42.95716857910156
1776870288692251100,1.789251220703125,-93.90438842773438,94.50155639648438,-42.88191223144531
1776870288702343200,1.79934326171875,-94.18862915039062,94.69476318359375,-43.173187255859375
1776870288712435200,1.809435302734375,-94.17721557617188,94.55316162109375,-43.32502746582031
1776870288722528300,1.8195283203125,-93.89884948730469,94.62452697753906,-43.003631591796875
1776870288732620300,1.829620361328125,-93.68963623046875,94.77822875976562,-43.103240966796875
1776870288742712300,1.83971240234375,-93.81004333496094,94.7130126953125,-43.10939025878906
1776870288752804400,1.849804443359375,-94.03507995605469,94.8258056640625,-43.314697265625
1776870288762895000,1.85989501953125,-94.11421203613281,94.72972106933594,-43.35371398925781
1776870288772987100,1.869987060546875,-94.10040283203125,94.804931640625,-43.418914794921875
1776870288783079200,1.8800791015625,-94.53199768066406,94.6942138671875,-43.395355224609375
1776870288793170200,1.890170166015625,-94.92216491699219,94.58009338378906,-43.92718505859375
1776870288803263200,1.90026318359375,-94.97103881835938,94.6605224609375,-43.780120849609375
1776870288813354200,1.910354248046875,-95.29475402832031,94.53990173339844,-43.59242248535156
1776870288823445200,1.9204453125,-95.75962829589844,94.52970886230469,-44.14799499511719
1776870288833537000,1.930537109375,-95.37226867675781,94.15373229980469,-43.60914611816406
1776870288843628300,1.940628173828125,-95.782470703125,94.25146484375,-44.14778137207031
1776870288853719300,1.95071923828125,-95.96469116210938,94.24102783203125,-44.176055908203125
1776870288863810300,1.960810302734375,-96.32310485839844,94.12120056152344,-44.28239440917969
1776870288873901000,1.970901123046875,-96.07125854492188,93.84175109863281,-43.880096435546875
1776870288883993000,1.9809931640625,-96.16508483886719,93.93789672851562,-43.71382141113281
1776870288894084000,1.991083984375,-96.7314453125,93.56312561035156,-44.18351745605469
1776870288904175400,2.00117529296875,-96.69886779785156,93.83940124511719,-43.91517639160156
1776870288914266000,2.01126611328125,-97.01393127441406,93.41522216796875,-44.08314514160156
1776870288924357000,2.021357177734375,-96.9608154296875,93.50996398925781,-44.01921081542969
1776870288934448000,2.0314482421875,-97.454833984375,93.00686645507812,-44.20173645019531
1776870288944539400,2.041539306640625,-97.49346923828125,93.01614379882812,-43.97956848144531
1776870288954629000,2.051629150390625,-97.68222045898438,92.76878356933594,-43.897552490234375
1776870288964720000,2.06172021484375,-97.67353820800781,92.49565124511719,-43.59806823730469
1776870288974809000,2.07180908203125,-97.96360778808594,92.16007995605469,-43.256927490234375
1776870288984900400,2.081900390625,-97.78536987304688,91.78739929199219,-42.83355712890625
1776870288994990300,2.091990234375,-97.88702392578125,91.23458862304688,-42.43028259277344
1776870289005081000,2.1020810546875,-98.12776184082031,90.79804992675781,-42.1817626953125
1776870289015173000,2.112173095703125,-98.37969970703125,90.07553100585938,-41.484222412109375
1776870289025262300,2.122262451171875,-98.30595397949219,89.62884521484375,-41.102783203125
1776870289035353000,2.13235302734375,-98.15603637695312,89.2763671875,-40.86662292480469
1776870289045443300,2.142443359375,-98.44491577148438,88.78730773925781,-40.52546691894531
1776870289055534300,2.152534423828125,-98.55131530761719,88.40335083007812,-40.32725524902344
1776870289065624300,2.162624267578125,-98.71531677246094,87.72758483886719,-39.88981628417969
1776870289075714300,2.17271435546875,-98.81710815429688,87.07757568359375,-39.399017333984375
1776870289085804300,2.18280419921875,-98.16615295410156,86.82916259765625,-38.54466247558594
1776870289095893200,2.192893310546875,-97.85270690917969,85.97981262207031,-37.801300048828125
1776870289105981400,2.2029814453125,-97.371337890625,85.79269409179688,-37.31146240234375
1776870289116070100,2.213070068359375,-96.76368713378906,84.66407775878906,-36.1614990234375
1776870289126159000,2.2231591796875,-97.15817260742188,83.84822082519531,-36.183837890625
1776870289136248300,2.233248291015625,-97.56431579589844,83.44978332519531,-36.47984313964844
1776870289146339000,2.243339111328125,-97.58242797851562,82.77690124511719,-36.112518310546875
1776870289156429300,2.25342919921875,-98.06028747558594,82.47235107421875,-36.09930419921875
1776870289166519000,2.26351904296875,-97.67814636230469,82.09976196289062,-35.76849365234375
1776870289176609300,2.273609375,-97.64254760742188,82.07179260253906,-35.498687744140625
1776870289186700300,2.2837001953125,-98.25643920898438,81.70783996582031,-36.25743103027344
1776870289196792300,2.293792236328125,-98.50254821777344,81.20343017578125,-35.97480773925781
1776870289206884000,2.303884033203125,-98.70028686523438,80.85702514648438,-36.00480651855469
1776870289216976100,2.31397607421875,-98.8255615234375,80.57061767578125,-36.04266357421875
1776870289227066400,2.32406640625,-99.31649780273438,80.18527221679688,-36.35565185546875
1776870289237157400,2.334157470703125,-99.22756958007812,80.07133483886719,-36.30369567871094
1776870289247248100,2.344248046875,-98.8323974609375,80.34559631347656,-36.01338195800781
1776870289257338400,2.35433837890625,-98.69229125976562,80.21174621582031,-35.75904846191406
1776870289267427300,2.36442724609375,-98.27363586425781,80.38041687011719,-36.13667297363281
1776870289277518300,2.374518310546875,-98.52536010742188,80.42207336425781,-36.479949951171875
1776870289287608000,2.384608154296875,-98.896728515625,81.11257934570312,-36.86326599121094
1776870289297698300,2.3946982421875,-99.4093017578125,81.33547973632812,-37.75495910644531
1776870289307788000,2.4047880859375,-100.15567016601562,82.28788757324219,-38.661529541015625
1776870289317879300,2.41487939453125,-101.03372192382812,83.1038818359375,-40.33210754394531
1776870289327968300,2.42496826171875,-101.38580322265625,84.14280700683594,-41.611297607421875
1776870289338059300,2.435059326171875,-101.86138916015625,85.11441040039062,-42.75181579589844
1776870289348149200,2.445149169921875,-101.84278869628906,85.84796142578125,-43.6612548828125
1776870289358239200,2.4552392578125,-101.88691711425781,86.71575927734375,-44.78236389160156
1776870289368329200,2.4653291015625,-102.77703857421875,87.5679931640625,-46.00091552734375
1776870289378419200,2.475419189453125,-102.46440124511719,88.33343505859375,-46.905914306640625
1776870289388509200,2.48550927734375,-102.4024658203125,88.93966674804688,-47.85606384277344
1776870289398600400,2.495600341796875,-101.58546447753906,89.79664611816406,-48.15277099609375
1776870289408690200,2.505690185546875,-101.13307189941406,90.4842529296875,-48.96943664550781
1776870289418780400,2.515780517578125,-100.91812133789062,91.06550598144531,-50.02809143066406
1776870289428869000,2.525869140625,-100.25999450683594,91.69258117675781,-51.23789978027344
1776870289438958000,2.5359580078125,-100.14727783203125,92.06845092773438,-52.15373229980469
1776870289449049300,2.54604931640625,-99.44773864746094,92.66824340820312,-52.96795654296875
1776870289459139300,2.556139404296875,-99.31588745117188,92.91458129882812,-53.824981689453125
1776870289469227300,2.566227294921875,-99.4835205078125,93.30972290039062,-55.72259521484375
1776870289479318000,2.576318115234375,-99.27337646484375,93.77998352050781,-57.13121032714844
1776870289489408300,2.586408203125,-99.34637451171875,94.62869262695312,-59.23487854003906
1776870289499499300,2.596499267578125,-99.51248168945312,95.0198974609375,-61.309906005859375
1776870289509590300,2.60659033203125,-98.79899597167969,95.40542602539062,-62.94697570800781
1776870289519679200,2.61667919921875,-98.217041015625,96.03575134277344,-63.83787536621094
1776870289529769200,2.626769287109375,-97.33450317382812,96.51322937011719,-64.3800048828125
1776870289539858400,2.6368583984375,-96.10472106933594,97.49183654785156,-64.5166015625
1776870289549950500,2.646950439453125,-95.25486755371094,98.52854919433594,-65.13662719726562
1776870289560040200,2.657040283203125,-94.14569091796875,98.95143127441406,-65.78617858886719
1776870289570131200,2.667131103515625,-92.72181701660156,99.81221008300781,-66.69354248046875
1776870289580222200,2.67722216796875,-91.49298095703125,100.6683349609375,-68.05390930175781
1776870289590313200,2.687313232421875,-90.50320434570312,101.01583862304688,-69.65403747558594
1776870289600404200,2.697404296875,-89.21354675292969,101.24618530273438,-70.91438293457031
1776870289610497300,2.707497314453125,-88.74029541015625,101.21888732910156,-72.461181640625
1776870289620587300,2.717587158203125,-88.08428955078125,100.76051330566406,-74.23040771484375
1776870289630678300,2.72767822265625,-88.29928588867188,100.85977172851562,-76.14190673828125
1776870289640769300,2.737769287109375,-88.45425415039062,100.400390625,-77.72738647460938
1776870289650861300,2.747861328125,-88.80381774902344,99.55226135253906,-79.18130493164062
1776870289660952300,2.757952392578125,-88.76914978027344,98.79008483886719,-81.12190246582031
1776870289671044400,2.76804443359375,-88.46783447265625,97.87132263183594,-82.92835998535156
1776870289681135000,2.778135009765625,-87.71200561523438,96.83088684082031,-84.75764465332031
1776870289691227100,2.78822705078125,-86.65060424804688,95.82035827636719,-86.61247253417969
1776870289701318100,2.798318115234375,-86.51327514648438,94.67430114746094,-88.17213439941406
1776870289711410200,2.80841015625,-87.10992431640625,93.37269592285156,-89.70742797851562
1776870289721502200,2.818502197265625,-86.11470031738281,93.39918518066406,-90.01106262207031
1776870289731594200,2.82859423828125,-85.71321105957031,92.75177001953125,-90.20249938964844
1776870289741686300,2.838686279296875,-85.11112976074219,92.79742431640625,-90.18672180175781
1776870289751779300,2.848779296875,-84.86557006835938,93.31498718261719,-90.0367431640625
1776870289761871400,2.858871337890625,-85.13992309570312,93.19497680664062,-90.10995483398438
1776870289771963400,2.86896337890625,-84.62474060058594,93.51202392578125,-89.4027099609375
1776870289782055200,2.87905517578125,-84.71832275390625,93.65066528320312,-89.32608032226562
1776870289792147200,2.889147216796875,-84.41818237304688,93.93292236328125,-88.88194274902344
1776870289802239200,2.8992392578125,-84.32666015625,93.93983459472656,-89.02427673339844
1776870289812330200,2.909330322265625,-84.39273071289062,94.23892211914062,-89.11038208007812
1776870289822422300,2.91942236328125,-85.08154296875,94.10798645019531,-89.25503540039062
1776870289832513300,2.92951318359375,-84.53146362304688,94.43136596679688,-88.525390625
1776870289842604300,2.939604248046875,-84.19868469238281,94.54164123535156,-88.21818542480469
1776870289852697000,2.949697021484375,-84.62211608886719,94.78785705566406,-88.19480895996094
1776870289862788000,2.9597880859375,-84.75347900390625,94.79156494140625,-88.13629150390625
1776870289872880000,2.969880126953125,-84.81059265136719,94.85031127929688,-87.932373046875
1776870289882972200,2.97997216796875,-84.85345458984375,94.91383361816406,-87.63449096679688
1776870289893064200,2.990064208984375,-85.0806884765625,94.81948852539062,-87.3907470703125
1776870289903157200,3.0001572265625,-85.16232299804688,94.7947998046875,-87.39144897460938
1776870289913249300,3.010249267578125,-84.79273986816406,94.92674255371094,-87.2452392578125
1776870289923339000,3.020339111328125,-85.01618957519531,94.98854064941406,-87.39825439453125
1776870289933431000,3.03043115234375,-85.20211791992188,95.0147705078125,-87.27362060546875
1776870289943522800,3.040522705078125,-85.05828857421875,95.09632873535156,-87.39691162109375
1776870289953616000,3.050615966796875,-85.25762939453125,94.96046447753906,-87.79083251953125
1776870289963708000,3.0607080078125,-85.07470703125,94.89602661132812,-87.47624206542969
1776870289973800000,3.070800048828125,-85.05140686035156,94.87031555175781,-87.40255737304688
1776870289983890700,3.080890625,-84.84646606445312,95.327392578125,-87.48408508300781
1776870289993982000,3.09098193359375,-85.06118774414062,94.98580932617188,-87.74826049804688
1776870290004073000,3.101072998046875,-85.06610107421875,95.24290466308594,-87.68705749511719
1776870290014165000,3.1111650390625,-84.80647277832031,95.29794311523438,-87.42106628417969
1776870290024254700,3.121254638671875,-85.04022216796875,95.35333251953125,-87.2786865234375
1776870290034346000,3.131345947265625,-84.90632629394531,95.33755493164062,-87.22564697265625
1776870290044437800,3.141437744140625,-85.05963134765625,95.46574401855469,-87.38710021972656
1776870290054529800,3.15152978515625,-85.3858642578125,95.33282470703125,-87.41751098632812
1776870290064622800,3.161622802734375,-85.2205810546875,95.56520080566406,-87.13302612304688
1776870290074716000,3.1717158203125,-84.99714660644531,95.73875427246094,-86.98489379882812
1776870290084808000,3.181807861328125,-85.14398193359375,95.85050964355469,-86.85801696777344
1776870290094900000,3.19189990234375,-85.95396423339844,95.48199462890625,-87.00631713867188
1776870290104992000,3.201991943359375,-85.66839599609375,95.86135864257812,-86.54522705078125
1776870290115082800,3.212082763671875,-85.92901611328125,95.63142395019531,-86.34689331054688
1776870290125175800,3.22217578125,-85.79493713378906,96.01840209960938,-86.23904418945312
1776870290135267800,3.232267822265625,-86.11598205566406,95.90499877929688,-86.345703125
1776870290145360000,3.24235986328125,-86.66319274902344,96.01289367675781,-86.42808532714844
1776870290155452700,3.25245263671875,-86.502197265625,96.22941589355469,-86.08625793457031
1776870290165546000,3.2625458984375,-86.40034484863281,96.07881164550781,-86.00013732910156
1776870290175637800,3.2726376953125,-86.21809387207031,96.05360412597656,-85.51626586914062
1776870290185729800,3.282729736328125,-86.3525390625,96.03718566894531,-85.6534423828125
1776870290195821800,3.29282177734375,-86.78559875488281,95.92475891113281,-85.85545349121094
1776870290205914600,3.30291455078125,-86.08000183105469,95.88616943359375,-85.67744445800781
1776870290216006700,3.313006591796875,-86.18939208984375,95.73037719726562,-85.99131774902344
1776870290226099700,3.323099609375,-86.34022521972656,95.79234313964844,-85.38957214355469
1776870290236193000,3.333193115234375,-86.12773132324219,95.96537780761719,-85.89356994628906
1776870290246284800,3.343284912109375,-86.09422302246094,95.96134948730469,-85.85995483398438
1776870290256377900,3.3533779296875,-87.15229797363281,95.81298828125,-86.6170654296875
1776870290266471000,3.363470947265625,-86.30882263183594,95.95333862304688,-85.8472900390625
1776870290276564000,3.37356396484375,-85.87730407714844,95.83757019042969,-85.54031372070312
1776870290286657800,3.38365771484375,-86.16156005859375,95.79971313476562,-85.53120422363281
1776870290296749800,3.393749755859375,-86.20431518554688,95.93368530273438,-85.54689025878906
1776870290306840800,3.4038408203125,-86.09053039550781,96.17904663085938,-85.677001953125
1776870290316932900,3.413932861328125,-85.83406066894531,96.17701721191406,-85.41543579101562
1776870290327023900,3.42402392578125,-86.19755554199219,96.28611755371094,-85.59541320800781
1776870290337115000,3.434114990234375,-86.53245544433594,96.35743713378906,-86.15927124023438
1776870290347207700,3.444207763671875,-86.35118103027344,96.07537841796875,-85.67098999023438
1776870290357299700,3.4542998046875,-85.89497375488281,96.33383178710938,-85.68972778320312
1776870290367391700,3.464391845703125,-86.22186279296875,96.08108520507812,-85.46000671386719
1776870290377484800,3.47448486328125,-86.43183898925781,96.36764526367188,-85.70013427734375
1776870290387576800,3.484576904296875,-86.14936828613281,96.03494262695312,-85.33627319335938
1776870290397668900,3.4946689453125,-86.29087829589844,96.11528015136719,-85.35400390625
1776870290407760000,3.504759765625,-86.05186462402344,96.21647644042969,-85.48126220703125
1776870290417852000,3.514851806640625,-85.95869445800781,96.15219116210938,-85.39640808105469
1776870290427942700,3.524942626953125,-86.23588562011719,96.22784423828125,-85.64997863769531
1776870290438034700,3.53503466796875,-85.84503173828125,96.16798400878906,-85.261962890625
1776870290448126700,3.545126708984375,-86.28604125976562,96.39962768554688,-85.49197387695312
1776870290458218800,3.55521875,-85.76274108886719,96.07582092285156,-85.30870056152344
1776870290468310800,3.565310791015625,-86.00886535644531,95.85090637207031,-85.3515625
1776870290478397000,3.57539697265625,-86.31315612792969,96.17086791992188,-85.59538269042969
1776870290488494800,3.585494873046875,-85.96578979492188,96.25637817382812,-85.2347412109375
1776870290498587000,3.5955869140625,-85.9737548828125,96.34494018554688,-85.3583984375
1776870290508679000,3.605678955078125,-85.91986083984375,96.22013854980469,-85.04298400878906
1776870290518771000,3.61577099609375,-85.83372497558594,96.22360229492188,-85.06803894042969
1776870290528864000,3.625864013671875,-86.37666320800781,96.17240905761719,-85.41549682617188
1776870290538956000,3.6359560546875,-86.10809326171875,96.51185607910156,-85.20088195800781
1776870290549048800,3.646048828125,-86.09297180175781,96.19375610351562,-85.21025085449219
1776870290559140900,3.656140869140625,-86.23849487304688,96.51341247558594,-84.87896728515625
1776870290569235000,3.66623486328125,-86.90261840820312,96.40312194824219,-85.45101928710938
1776870290579327700,3.67632763671875,-86.39082336425781,96.242919921875,-85.08377075195312
1776870290589420800,3.6864208984375,-86.4530029296875,96.32162475585938,-84.93730163574219
1776870290599512800,3.696512939453125,-86.40594482421875,96.25717163085938,-84.95094299316406
1776870290609604900,3.70660498046875,-86.57049560546875,96.12715148925781,-85.38917541503906
1776870290619698700,3.71669873046875,-86.57347106933594,96.1986083984375,-85.28286743164062
1776870290629791700,3.726791748046875,-86.60107421875,96.17552185058594,-85.21673583984375
1776870290639883800,3.7368837890625,-86.42367553710938,96.38899230957031,-84.91755676269531
1776870290649976800,3.746976806640625,-86.71286010742188,96.42976379394531,-85.01628112792969
1776870290660071000,3.75707080078125,-86.59890747070312,96.24443054199219,-84.80232238769531
1776870290670164000,3.7671640625,-87.36106872558594,96.24732971191406,-85.25747680664062
1776870290680256800,3.7772568359375,-87.02352905273438,96.31495666503906,-84.90805053710938
1776870290690349800,3.787349853515625,-87.27841186523438,96.27931213378906,-84.86410522460938
1776870290700437800,3.797437744140625,-87.3485107421875,96.31520080566406,-84.92520141601562
1776870290710530800,3.80753076171875,-87.61149597167969,95.92265319824219,-85.1424560546875
1776870290720630000,3.817630126953125,-87.45570373535156,96.230712890625,-84.778564453125
1776870290730722800,3.827722900390625,-87.82463073730469,96.004638671875,-84.63449096679688
1776870290740814800,3.83781494140625,-87.73268127441406,96.14739990234375,-84.60789489746094
1776870290750907000,3.847906982421875,-87.82620239257812,96.28773498535156,-84.41912841796875
1776870290761001000,3.8580009765625,-88.279296875,96.12541198730469,-84.3375244140625
1776870290771093800,3.86809375,-88.86341857910156,96.10484313964844,-84.51980590820312
1776870290781187800,3.878187744140625,-89.06320190429688,96.24014282226562,-84.22201538085938
1776870290791280600,3.88828076171875,-89.11431884765625,96.16470336914062,-84.06491088867188
1776870290801373700,3.898373779296875,-89.45332336425781,95.77644348144531,-83.93087768554688
1776870290811465700,3.9084658203125,-90.11026000976562,95.91778564453125,-83.85971069335938
1776870290821558800,3.918558837890625,-90.85127258300781,95.97441101074219,-84.03720092773438
1776870290831650800,3.92865087890625,-91.08425903320312,95.87442016601562,-83.76237487792969
1776870290841744000,3.938743896484375,-91.33158874511719,95.36790466308594,-82.89955139160156
1776870290851833900,3.948833740234375,-91.72286987304688,95.12147521972656,-83.04078674316406
1776870290861926000,3.95892578125,-92.39532470703125,94.89979553222656,-82.93608093261719
1776870290872017000,3.969016845703125,-92.728759765625,95.0260009765625,-83.06483459472656
1776870290882110000,3.97910986328125,-92.69512939453125,94.966796875,-82.87335205078125
1776870290892202000,3.989201904296875,-92.64543151855469,94.53428649902344,-82.57118225097656
1776870290902294000,3.9992939453125,-93.96772766113281,94.40966796875,-82.99070739746094
1776870290912386000,4.009385986328125,-94.53047180175781,94.05821228027344,-82.62919616699219
1776870290922476800,4.019476806640625,-94.56227111816406,93.89161682128906,-82.14204406738281
1776870290932567800,4.02956787109375,-95.37858581542969,93.59941101074219,-82.02232360839844
1776870290942659300,4.039659423828125,-96.098388671875,93.48597717285156,-82.02357482910156
1776870290952751400,4.04975146484375,-96.82949829101562,92.9068603515625,-81.94892883300781
1776870290962843400,4.059843505859375,-97.37265014648438,92.7418212890625,-82.09916687011719
1776870290972935400,4.069935302734375,-98.55075073242188,92.31294250488281,-82.5810546875
1776870290983027500,4.08002734375,-98.64857482910156,92.00567626953125,-82.02691650390625
1776870290993120500,4.09012060546875,-99.33287048339844,91.54487609863281,-81.80328369140625
1776870291003211500,4.10021142578125,-99.43376159667969,91.34841918945312,-81.45645141601562
1776870291013303600,4.110303466796875,-99.54476928710938,91.13746643066406,-81.10589599609375
1776870291023396600,4.120396728515625,-99.88153076171875,90.77334594726562,-80.82398986816406
1776870291033487600,4.130487548828125,-100.552490234375,90.21829223632812,-80.70207214355469
1776870291043579400,4.140579345703125,-100.40518188476562,90.17176818847656,-79.78474426269531
1776870291053671400,4.15067138671875,-100.95573425292969,89.9390869140625,-79.51872253417969
1776870291063763500,4.160763427734375,-102.09954833984375,89.283447265625,-79.85589599609375
1776870291073854500,4.1708544921875,-101.63436889648438,89.36225891113281,-78.74609375
1776870291083948300,4.1809482421875,-102.25382995605469,89.00401306152344,-78.00198364257812
1776870291094040300,4.191040283203125,-102.98260498046875,88.2117919921875,-77.82989501953125
1776870291104133400,4.20113330078125,-102.95072937011719,88.22102355957031,-76.84333801269531
1776870291114226400,4.211226318359375,-103.99867248535156,87.68504333496094,-76.84217834472656
1776870291124320500,4.221320556640625,-103.31649780273438,87.47126770019531,-75.15457153320312
1776870291134412500,4.23141259765625,-104.22767639160156,87.21015930175781,-74.91506958007812
1776870291144505600,4.241505615234375,-105.03929138183594,86.94038391113281,-74.52255249023438
1776870291154597600,4.25159765625,-104.691162109375,86.36125183105469,-73.21401977539062
1776870291164689700,4.261689697265625,-105.26715087890625,85.98974609375,-72.51957702636719
1776870291174782500,4.271782470703125,-105.40463256835938,85.51296997070312,-71.50216674804688
1776870291184869600,4.28186962890625,-105.77609252929688,85.13536071777344,-70.91929626464844
1776870291194968600,4.291968505859375,-106.61018371582031,84.641357421875,-70.87322998046875
1776870291205061400,4.302061279296875,-106.03327941894531,84.17584228515625,-69.92842102050781
1776870291215154400,4.312154541015625,-106.47183227539062,83.38693237304688,-69.53620910644531
1776870291225247500,4.32224755859375,-106.58892822265625,82.78520202636719,-68.87429809570312
1776870291235340300,4.33234033203125,-107.73954772949219,81.88099670410156,-69.1240234375
1776870291245432300,4.342432373046875,-108.450927734375,81.32177734375,-69.15509033203125
1776870291255525400,4.352525390625,-107.43533325195312,80.66523742675781,-68.05747985839844
1776870291265617400,4.362617431640625,-107.953369140625,79.91914367675781,-67.93995666503906
1776870291275709400,4.37270947265625,-108.22041320800781,78.83271789550781,-67.69107055664062
1776870291285800400,4.382800537109375,-108.50802612304688,77.94570922851562,-67.46331787109375
1776870291295887400,4.392887451171875,-109.55915832519531,77.1544189453125,-68.01409912109375
1776870291305984500,4.402984619140625,-108.73213195800781,76.36091613769531,-66.97390747070312
1776870291316077600,4.41307763671875,-109.05007934570312,75.48715209960938,-66.73585510253906
1776870291326168600,4.42316845703125,-109.57035827636719,74.48712158203125,-66.60179138183594
1776870291336260600,4.433260498046875,-109.15312194824219,73.59640502929688,-66.21343994140625
1776870291346348500,4.4433486328125,-110.02137756347656,72.59913635253906,-66.71647644042969
1776870291356445400,4.453445556640625,-109.03952026367188,71.67312622070312,-65.82310485839844
1776870291366539500,4.46353955078125,-109.29019165039062,70.85453796386719,-65.60438537597656
1776870291376632600,4.473632568359375,-110.13481140136719,69.79278564453125,-66.25956726074219
1776870291386723600,4.4837236328125,-109.63093566894531,68.75308227539062,-65.94105529785156
1776870291396816400,4.49381640625,-110.53253173828125,67.63638305664062,-66.17469787597656
1776870291406908400,4.503908447265625,-109.46041870117188,66.90812683105469,-65.5079345703125
1776870291417001500,4.51400146484375,-110.04815673828125,65.48139953613281,-65.89433288574219
1776870291427093500,4.524093505859375,-109.58207702636719,64.79283142089844,-65.79417419433594
1776870291437186600,4.5341865234375,-109.57286071777344,63.64555358886719,-65.63966369628906
1776870291447278600,4.544278564453125,-109.44325256347656,63.18363952636719,-65.68592834472656
1776870291457371400,4.554371337890625,-108.99797058105469,62.38787841796875,-65.52210998535156
1776870291467463400,4.56446337890625,-109.08697509765625,61.16114807128906,-65.61050415039062
1776870291477555500,4.574555419921875,-109.25270080566406,60.45930480957031,-66.05705261230469
1776870291487647500,4.5846474609375,-109.07569885253906,59.62919616699219,-66.15267944335938
1776870291497739500,4.594739501953125,-108.70603942871094,58.86993408203125,-66.09663391113281
1776870291507832600,4.60483251953125,-107.97024536132812,58.37635803222656,-65.48255920410156
1776870291517924600,4.614924560546875,-107.16575622558594,57.70454406738281,-65.34172058105469
1776870291528017400,4.625017333984375,-107.48297119140625,57.29193115234375,-65.60324096679688
1776870291538110500,4.6351103515625,-107.35383605957031,57.10578918457031,-65.49012756347656
1776870291548202500,4.645202392578125,-107.08592224121094,56.729888916015625,-65.60127258300781
1776870291558293200,4.655293212890625,-106.40779113769531,56.60890197753906,-65.29533386230469
1776870291568385300,4.66538525390625,-106.45817565917969,56.49995422363281,-64.93569946289062
1776870291578477300,4.675477294921875,-107.12435913085938,56.43212890625,-65.60945129394531
1776870291588569300,4.6855693359375,-106.54437255859375,56.37013244628906,-65.1676025390625
1776870291598660400,4.695660400390625,-106.67271423339844,56.78013610839844,-65.07267761230469
1776870291608752400,4.70575244140625,-106.78475952148438,56.95281982421875,-64.96408081054688
1776870291618844400,4.715844482421875,-107.33216857910156,56.96794128417969,-65.36550903320312
1776870291628936400,4.7259365234375,-108.18258666992188,56.984619140625,-66.07856750488281
1776870291639027500,4.73602734375,-107.5540771484375,57.45196533203125,-65.56758117675781
1776870291649117400,4.746117431640625,-107.9761962890625,57.70343017578125,-65.60469055175781
1776870291659208400,4.75620849609375,-107.29904174804688,58.26942443847656,-64.84288024902344
1776870291669299500,4.766299560546875,-107.7197265625,58.70787048339844,-64.93324279785156
1776870291679391500,4.7763916015625,-108.39411926269531,59.150238037109375,-65.60360717773438
1776870291689483500,4.7864833984375,-107.16508483886719,59.797882080078125,-64.90235900878906
1776870291699575600,4.796575439453125,-107.93281555175781,60.35316467285156,-64.985595703125
1776870291709666600,4.80666650390625,-108.20382690429688,60.95045471191406,-65.15533447265625
1776870291719757600,4.816757568359375,-108.03034973144531,61.71305847167969,-65.0596923828125
1776870291729848300,4.826848388671875,-108.8702392578125,62.36131286621094,-65.49314880371094
1776870291739940400,4.8369404296875,-108.43536376953125,63.271697998046875,-65.35807800292969
1776870291750032400,4.847032470703125,-108.75326538085938,64.06484985351562,-65.71630859375
1776870291760125400,4.85712548828125,-109.39845275878906,64.74559020996094,-65.85700988769531
1776870291770216400,4.867216552734375,-109.16035461425781,65.88848876953125,-65.65565490722656
1776870291780308500,4.87730859375,-109.26994323730469,66.508544921875,-66.08291625976562
1776870291790398500,4.8873984375,-109.02008056640625,67.52714538574219,-65.9923095703125
1776870291800489500,4.897489501953125,-109.43374633789062,68.44589233398438,-66.3515625
1776870291810581500,4.90758154296875,-109.21995544433594,69.35227966308594,-66.21733093261719
1776870291820671500,4.91767138671875,-109.20829772949219,70.37991333007812,-66.65174865722656
1776870291830762500,4.927762451171875,-109.46287536621094,71.08377075195312,-66.67767333984375
1776870291840852500,4.9378525390625,-108.87528991699219,72.266357421875,-66.60061645507812
1776870291850944500,4.947944580078125,-109.13336181640625,73.40170288085938,-67.1181640625
1776870291861035300,4.95803515625,-108.78782653808594,74.47100830078125,-67.08099365234375
1776870291871125500,4.96812548828125,-108.745849609375,75.32936096191406,-67.22406005859375
1776870291881215500,4.978215576171875,-108.7701416015625,76.22056579589844,-67.67338562011719
1776870291891305500,4.988305419921875,-108.58299255371094,76.99284362792969,-67.6533203125
1776870291901396500,4.998396484375,-108.28170776367188,78.10353088378906,-67.76972961425781
1776870291911487200,5.0084873046875,-108.53523254394531,79.06838989257812,-68.4053955078125
1776870291921577500,5.018577392578125,-107.76484680175781,79.82525634765625,-68.17955017089844
1776870291931668500,5.02866845703125,-107.22547912597656,80.62760925292969,-68.39529418945312
1776870291941760500,5.038760498046875,-107.17034912109375,81.26345825195312,-68.40480041503906
1776870291951850800,5.048850830078125,-106.79676818847656,81.87298583984375,-68.70248413085938
1776870291961940700,5.058940673828125,-107.56632995605469,82.49185180664062,-69.52841186523438
1776870291972031500,5.069031494140625,-106.13362121582031,83.21397399902344,-68.9107666015625
1776870291982123500,5.07912353515625,-106.23239135742188,84.09649658203125,-69.57157897949219
1776870291992214800,5.08921484375,-105.49604797363281,84.47654724121094,-69.39898681640625
1776870292002305800,5.099305908203125,-105.56852722167969,84.97212219238281,-69.90690612792969
1776870292012395500,5.1093955078125,-106.05717468261719,85.36279296875,-70.67921447753906
1776870292022485800,5.11948583984375,-105.14349365234375,85.98109436035156,-70.39663696289062
1776870292032575500,5.129575439453125,-104.90852355957031,86.71842956542969,-71.1053466796875
1776870292042665700,5.139665771484375,-104.46202087402344,87.12559509277344,-70.96412658691406
1776870292052755700,5.149755615234375,-104.42549133300781,87.6221923828125,-71.6126708984375
1776870292062846700,5.1598466796875,-104.36331176757812,87.87623596191406,-72.29447937011719
1776870292072937700,5.169937744140625,-103.47874450683594,88.38536071777344,-72.12544250488281
1776870292083028700,5.18002880859375,-103.50576782226562,88.94786071777344,-72.81602478027344
1776870292093118700,5.19011865234375,-103.23141479492188,89.455078125,-72.88734436035156
1776870292103207700,5.200207763671875,-103.13987731933594,89.65505981445312,-73.84208679199219
1776870292113298700,5.210298583984375,-103.04344177246094,89.86932373046875,-74.03567504882812
1776870292123389700,5.2203896484375,-102.47618103027344,90.52180480957031,-74.20292663574219
1776870292133480700,5.230480712890625,-102.27993774414062,90.69439697265625,-74.54658508300781
1776870292143570700,5.24057080078125,-101.89860534667969,91.03828430175781,-75.06593322753906
1776870292153660700,5.25066064453125,-101.79568481445312,91.1256103515625,-75.49755859375
1776870292163750700,5.260750732421875,-101.974853515625,91.36416625976562,-76.34613037109375
1776870292173840600,5.270840576171875,-100.83013916015625,91.60369873046875,-76.10018920898438
1776870292183931600,5.280931640625,-100.82540893554688,92.07723999023438,-76.80503845214844
1776870292194021600,5.291021728515625,-99.75752258300781,92.3192138671875,-76.74655151367188
1776870292204110600,5.301110595703125,-100.00996398925781,92.7625732421875,-77.55256652832031
1776870292214201600,5.31120166015625,-100.13973999023438,92.74043273925781,-78.2978515625
1776870292224292900,5.32129296875,-99.0028076171875,93.43063354492188,-78.34288024902344
1776870292234382600,5.331382568359375,-98.69978332519531,93.58819580078125,-78.79150390625
1776870292244473600,5.3414736328125,-98.12013244628906,93.84764099121094,-79.0968017578125
1776870292254565600,5.351565673828125,-98.6673583984375,93.83067321777344,-80.20100402832031
1776870292264657000,5.361656982421875,-98.27290344238281,94.28471374511719,-80.39134216308594
1776870292274749000,5.3717490234375,-97.3453369140625,94.45181274414062,-80.41789245605469
1776870292284840700,5.3818408203125,-96.87356567382812,94.99417114257812,-80.92355346679688
1776870292294932500,5.391932373046875,-96.2698974609375,95.01161193847656,-81.05476379394531
1776870292305024500,5.4020244140625,-96.11798095703125,95.37899780273438,-81.65980529785156
1776870292315116500,5.412116455078125,-95.30424499511719,95.41380310058594,-81.87107849121094
1776870292325207800,5.422207763671875,-94.73011779785156,95.81504821777344,-81.78823852539062
1776870292335299800,5.4322998046875,-94.59071350097656,95.85238647460938,-82.16690063476562
1776870292345386800,5.44238671875,-93.64161682128906,96.06822204589844,-82.23170471191406
1776870292355484700,5.452484619140625,-93.24797058105469,96.14762878417969,-82.46324157714844
1776870292365573600,5.46257373046875,-93.00285339355469,96.31784057617188,-82.52912902832031
1776870292375671600,5.472671630859375,-92.36663818359375,96.57292175292969,-82.40786743164062
1776870292385764600,5.4827646484375,-92.3388671875,96.4669189453125,-82.51768493652344
1776870292395856600,5.492856689453125,-92.43931579589844,96.50178527832031,-82.76899719238281
1776870292405949700,5.50294970703125,-91.66329956054688,96.83149719238281,-82.68252563476562
1776870292416039700,5.513039794921875,-91.70938110351562,96.93902587890625,-82.69856262207031
1776870292426131700,5.523131591796875,-91.12715148925781,97.08706665039062,-82.31488037109375
1776870292436223700,5.5332236328125,-91.3211669921875,96.84449768066406,-82.73562622070312
1776870292446315800,5.543315673828125,-90.25758361816406,97.20390319824219,-81.78312683105469
1776870292456407800,5.55340771484375,-90.90689086914062,97.10379028320312,-82.58177185058594
1776870292466499800,5.563499755859375,-90.14506530761719,97.31915283203125,-82.405029296875
1776870292476593000,5.573593017578125,-89.39364624023438,97.43342590332031,-82.14799499511719
1776870292486684700,5.5836845703125,-89.56736755371094,97.18778991699219,-82.70143127441406
1776870292496776700,5.593776611328125,-88.115478515625,97.48515319824219,-82.23301696777344
1776870292506867700,5.60386767578125,-89.31118774414062,97.4578857421875,-83.28494262695312
1776870292516959700,5.613959716796875,-87.85379028320312,97.28822326660156,-82.85040283203125
1776870292527052500,5.624052490234375,-87.81378173828125,97.07281494140625,-83.23715209960938
1776870292537144600,5.63414453125,-87.91177368164062,96.95399475097656,-83.74371337890625
1776870292547235800,5.64423583984375,-88.20915222167969,97.27803039550781,-84.53666687011719
1776870292557328000,5.654327880859375,-87.46896362304688,97.17889404296875,-84.19760131835938
1776870292567420700,5.664420654296875,-87.49908447265625,97.3045654296875,-84.21760559082031
1776870292577513700,5.674513671875,-89.1837158203125,97.040771484375,-84.95890808105469
1776870292587605800,5.684605712890625,-88.42671203613281,97.20814514160156,-83.49015808105469
1776870292597697800,5.69469775390625,-89.07980346679688,97.04563903808594,-83.55470275878906
1776870292607789800,5.704789794921875,-89.46067810058594,97.10601806640625,-83.00473022460938
1776870292617881900,5.7148818359375,-89.76223754882812,96.99720764160156,-82.92376708984375
1776870292627972600,5.72497265625,-90.21430969238281,97.09022521972656,-82.19154357910156
1776870292638063600,5.735063720703125,-90.72157287597656,97.13705444335938,-82.36370849609375
1776870292648155600,5.74515576171875,-91.07806396484375,97.13153076171875,-82.34645080566406
1776870292658246700,5.75524658203125,-90.7698974609375,96.83515930175781,-81.87103271484375
1776870292668334800,5.7653349609375,-91.25340270996094,96.97689819335938,-82.40594482421875
1776870292678431700,5.775431640625,-91.96073913574219,96.66716003417969,-82.94285583496094
1776870292688523800,5.785523681640625,-90.73515319824219,96.74429321289062,-82.29524230957031
1776870292698610700,5.795610595703125,-91.82516479492188,96.59025573730469,-83.66043090820312
1776870292708708900,5.805708984375,-93.28294372558594,96.25865173339844,-84.76258850097656
1776870292718801000,5.81580078125,-91.97544860839844,96.65847778320312,-83.89584350585938
1776870292728890600,5.825890625,-91.20858764648438,96.58090209960938,-83.51152038574219
1776870292738981600,5.835981689453125,-91.9276123046875,96.43142700195312,-83.95976257324219
1776870292749073000,5.846072998046875,-90.61949157714844,96.71563720703125,-83.25035095214844
1776870292759165000,5.8561650390625,-90.07014465332031,96.92105102539062,-82.79855346679688
1776870292769255700,5.866255615234375,-90.34884643554688,96.6129150390625,-83.00491333007812
1776870292779347700,5.87634765625,-91.49476623535156,96.45191955566406,-83.69479370117188
1776870292789439700,5.886439697265625,-90.15791320800781,96.71435546875,-82.9222412109375
1776870292799531800,5.89653173828125,-90.10844421386719,97.04255676269531,-82.92610168457031
1776870292809623800,5.906623779296875,-90.02485656738281,96.72607421875,-82.51889038085938
1776870292819716600,5.916716552734375,-90.36558532714844,97.007568359375,-82.80036926269531
1776870292829807900,5.926807861328125,-90.63143920898438,97.10507202148438,-83.14207458496094
1776870292839898600,5.936898681640625,-90.07005310058594,97.36396789550781,-82.96334838867188
1776870292849990700,5.94699072265625,-89.95916748046875,97.40744018554688,-82.94355773925781
1776870292860082700,5.957082763671875,-89.42890930175781,97.45828247070312,-82.6053466796875
1776870292870173700,5.967173583984375,-89.19174194335938,97.44216918945312,-82.74742126464844
1776870292880264700,5.9772646484375,-89.6151123046875,97.15531921386719,-82.84579467773438
1776870292890355700,5.987355712890625,-89.73008728027344,96.92057800292969,-83.06028747558594
1776870292900447500,5.997447509765625,-89.72843933105469,96.95622253417969,-82.65376281738281
1776870292910540800,6.007540771484375,-90.24949645996094,96.93255615234375,-82.9580078125
1776870292920631600,6.017631591796875,-90.61299133300781,96.9013671875,-82.67568969726562
1776870292930724600,6.027724609375,-90.65342712402344,96.67886352539062,-82.25898742675781
1776870292940817700,6.037817626953125,-90.7105712890625,97.070556640625,-82.29620361328125
1776870292950909200,6.0479091796875,-90.64962768554688,96.89533996582031,-82.31571960449219
1776870292961002000,6.058001953125,-90.97886657714844,96.77549743652344,-82.86676025390625
1776870292971093200,6.06809326171875,-90.94650268554688,96.7333984375,-82.64756774902344
1776870292981185300,6.078185302734375,-91.01739501953125,96.46286010742188,-82.67622375488281
1776870292991278000,6.088278076171875,-90.64518737792969,96.79231262207031,-82.63442993164062
1776870293001370000,6.0983701171875,-90.87185668945312,96.54017639160156,-82.66287231445312
1776870293011461400,6.10846142578125,-90.92921447753906,96.54994201660156,-82.97552490234375
1776870293021553200,6.11855322265625,-90.88545227050781,96.58326721191406,-82.761962890625
1776870293031645200,6.128645263671875,-90.93663024902344,96.33903503417969,-82.75238037109375
1776870293041737200,6.1387373046875,-90.55686950683594,96.58682250976562,-82.56077575683594
1776870293051829000,6.1488291015625,-91.04608154296875,96.6708984375,-82.76936340332031
1776870293061921000,6.158921142578125,-90.97189331054688,97.01951599121094,-82.56794738769531
1776870293072013000,6.169012939453125,-90.6846923828125,96.70413208007812,-82.382080078125
1776870293082106000,6.179106201171875,-90.33378601074219,96.97360229492188,-82.27430725097656
1776870293092200200,6.1892001953125,-90.83580017089844,96.54017639160156,-82.44659423828125
1776870293102292200,6.199292236328125,-91.41900634765625,96.79568481445312,-83.225341796875
1776870293112383200,6.20938330078125,-90.79020690917969,96.63676452636719,-82.82154846191406
1776870293122474200,6.21947412109375,-91.04754638671875,97.02291870117188,-82.89494323730469
1776870293132565200,6.229565185546875,-91.39517211914062,96.81338500976562,-83.23622131347656
1776870293142656000,6.239656005859375,-91.47048950195312,96.56202697753906,-83.20500183105469
1776870293152749300,6.249749267578125,-91.46441650390625,96.76814270019531,-83.20610046386719
1776870293162841300,6.25984130859375,-91.45046997070312,96.81407165527344,-83.04965209960938
1776870293172932000,6.26993212890625,-91.72361755371094,96.83360290527344,-83.306884765625
1776870293183023000,6.280023193359375,-91.46311950683594,96.8314208984375,-83.25642395019531
1776870293193114400,6.2901142578125,-91.6412353515625,96.51824951171875,-83.04251098632812
1776870293203206400,6.300206298828125,-91.60475158691406,96.64907836914062,-83.02702331542969
1776870293213298400,6.31029833984375,-91.32713317871094,96.70314025878906,-82.82432556152344
1776870293223390200,6.32039013671875,-91.02281188964844,96.87762451171875,-82.34515380859375
1776870293233481200,6.330481201171875,-90.58111572265625,96.66641235351562,-82.31822204589844
1776870293243573200,6.3405732421875,-91.06512451171875,96.71180725097656,-82.62080383300781
1776870293253664300,6.350664306640625,-91.16975402832031,96.82554626464844,-82.61567687988281
1776870293263756300,6.36075634765625,-90.828857421875,96.751953125,-82.42794799804688
1776870293273848300,6.370848388671875,-91.20806884765625,96.6453857421875,-82.77334594726562
1776870293283940400,6.3809404296875,-91.19271850585938,96.75920104980469,-82.73880004882812
1776870293294032100,6.3910322265625,-90.94308471679688,96.61126708984375,-82.2823486328125
1776870293304124200,6.401124267578125,-91.44805908203125,96.55645751953125,-82.79548645019531
1776870293314215200,6.411215087890625,-90.68580627441406,96.54493713378906,-82.31755065917969
1776870293324305400,6.421305419921875,-90.74258422851562,96.53057861328125,-82.24382019042969
1776870293334396200,6.431396240234375,-90.56173706054688,96.52238464355469,-82.119140625
1776870293344488200,6.44148828125,-90.68406677246094,96.55197143554688,-82.10617065429688
1776870293354579200,6.4515791015625,-90.66983032226562,96.48835754394531,-82.19087219238281
1776870293364668200,6.461668212890625,-91.0179443359375,96.20082092285156,-82.20404052734375
1776870293374757400,6.47175732421875,-90.78335571289062,96.39471435546875,-82.03045654296875
1776870293384848100,6.48184814453125,-90.87229919433594,96.53182983398438,-82.12408447265625
1776870293394938000,6.491938232421875,-91.16415405273438,96.45985412597656,-82.23587036132812
1776870293405030100,6.502030029296875,-90.68544006347656,96.54718017578125,-81.61408996582031
1776870293415121400,6.512121337890625,-90.73529052734375,96.59062194824219,-81.76475524902344
1776870293425212200,6.522212158203125,-91.13725280761719,96.5003662109375,-81.68063354492188
1776870293435303200,6.53230322265625,-91.55902099609375,96.39175415039062,-81.78401184082031
1776870293445393400,6.542393310546875,-91.85853576660156,96.33045959472656,-82.31990051269531
1776870293455482400,6.552482421875,-91.11013793945312,96.45806884765625,-81.57743835449219
1776870293465572000,6.562572021484375,-91.35426330566406,96.28459167480469,-81.74977111816406
1776870293475661300,6.572661376953125,-91.25407409667969,96.285400390625,-81.23968505859375
1776870293485751000,6.5827509765625,-91.279296875,96.30888366699219,-81.25047302246094
1776870293495843000,6.592843017578125,-92.69847106933594,96.08038330078125,-82.3489990234375
1776870293505933300,6.602933349609375,-92.96824645996094,95.87286376953125,-82.09553527832031
1776870293516023000,6.61302294921875,-92.53817749023438,95.9254150390625,-81.30247497558594
1776870293526115000,6.623114990234375,-93.07936096191406,95.51483154296875,-81.32887268066406
1776870293536205300,6.633205322265625,-93.286376953125,95.5411376953125,-81.24211120605469
1776870293546296000,6.643296142578125,-94.01773071289062,95.12312316894531,-80.96133422851562
1776870293556386300,6.65338623046875,-94.24955749511719,94.879638671875,-80.84284973144531
1776870293566477300,6.663477294921875,-94.48857116699219,94.84443664550781,-80.52827453613281
1776870293576569300,6.6735693359375,-94.69879150390625,94.60049438476562,-80.01713562011719
1776870293586660000,6.68366015625,-95.26483154296875,94.14894104003906,-80.23164367675781
1776870293596751000,6.693751220703125,-96.26837158203125,93.9410400390625,-80.68891906738281
1776870293606841000,6.703841064453125,-95.85548400878906,94.02154541015625,-79.969482421875
1776870293616930300,6.713930419921875,-96.48338317871094,93.4454345703125,-79.98350524902344
1776870293627021300,6.724021240234375,-96.64048767089844,92.96595764160156,-79.67498779296875
1776870293637111300,6.734111328125,-97.15936279296875,92.77032470703125,-79.48165893554688
1776870293647201300,6.744201171875,-97.87265014648438,92.67512512207031,-79.94400024414062
1776870293657290200,6.754290283203125,-97.69828796386719,91.96650695800781,-78.96405029296875
1776870293667380000,6.7643798828125,-98.35507202148438,92.1268310546875,-78.82487487792969
1776870293677470200,6.77447021484375,-98.76295471191406,91.76066589355469,-78.51393127441406
1776870293687560200,6.784560302734375,-99.34002685546875,91.81161499023438,-78.18913269042969
1776870293697648400,6.7946484375,-99.66291809082031,91.73908996582031,-77.73233032226562
1776870293707737000,6.804737060546875,-99.57133483886719,91.1917724609375,-77.04084777832031
1776870293717827300,6.814827392578125,-99.75407409667969,91.38859558105469,-76.53521728515625
1776870293727917300,6.824917236328125,-99.54086303710938,91.17437744140625,-75.720458984375
1776870293738008300,6.83500830078125,-100.10885620117188,90.99894714355469,-75.439697265625
1776870293748099000,6.84509912109375,-100.36700439453125,90.74119567871094,-75.31015014648438
1776870293758188300,6.855188232421875,-100.54997253417969,90.7926025390625,-74.90626525878906
1776870293768277200,6.86527734375,-100.78363037109375,90.50440979003906,-74.35542297363281
1776870293778366200,6.8753662109375,-101.27737426757812,90.23179626464844,-74.24411010742188
1776870293788455200,6.885455078125,-101.69926452636719,89.89602661132812,-73.73606872558594
1776870293798544100,6.895544189453125,-101.52316284179688,89.66078186035156,-73.1002197265625
1776870293808634400,6.90563427734375,-102.21052551269531,89.17521667480469,-72.755615234375
1776870293818724000,6.91572412109375,-102.51498413085938,88.56118774414062,-72.28312683105469
1776870293828814300,6.925814453125,-102.75431823730469,88.12950134277344,-72.0828857421875
1776870293838904000,6.935904052734375,-102.92330932617188,87.80052185058594,-71.01896667480469
1776870293848995300,6.945995361328125,-103.19088745117188,87.28182983398438,-70.69912719726562
1776870293859087000,6.956087158203125,-103.07539367675781,87.0223388671875,-70.3404541015625
1776870293869178400,6.966178466796875,-103.56600952148438,86.48844909667969,-69.79539489746094
1776870293879269000,6.97626904296875,-104.13021850585938,85.81288146972656,-69.86184692382812
1776870293889359400,6.986359375,-104.40278625488281,85.164306640625,-69.44374084472656
1776870293899451100,6.996451171875,-104.15348815917969,84.74632263183594,-69.12051391601562
1776870293909542400,7.00654248046875,-104.85331726074219,83.51779174804688,-68.80618286132812
1776870293919633200,7.016633056640625,-105.38230895996094,83.10032653808594,-68.669921875
1776870293929724200,7.02672412109375,-105.81462097167969,82.2388916015625,-68.40359497070312
1776870293939815200,7.036815185546875,-106.22254943847656,81.59457397460938,-68.0504150390625
1776870293949907200,7.0469072265625,-106.14469909667969,80.89268493652344,-67.83897399902344
1776870293959998200,7.056998291015625,-106.37297058105469,80.05484008789062,-67.41439819335938
1776870293970088200,7.067088134765625,-106.7371826171875,79.12619018554688,-66.65745544433594
1776870293980179200,7.07717919921875,-107.85157775878906,78.03691101074219,-66.90127563476562
1776870293990269200,7.087269287109375,-107.54267883300781,77.01980590820312,-66.19354248046875
1776870294000360200,7.097360107421875,-107.72453308105469,76.18150329589844,-65.85044860839844
1776870294010451200,7.107451171875,-107.60908508300781,75.35305786132812,-65.49923706054688
1776870294020540200,7.1175400390625,-108.36326599121094,74.34954833984375,-65.33766174316406
1776870294030631400,7.12763134765625,-108.62892150878906,73.26437377929688,-65.57125854492188
1776870294040722200,7.13772216796875,-108.18861389160156,72.21638488769531,-64.9425048828125
1776870294050813200,7.147813232421875,-108.58541870117188,70.95933532714844,-64.82473754882812
1776870294060904200,7.157904296875,-108.46095275878906,69.7802734375,-64.37705993652344
1776870294070996200,7.167996337890625,-108.37278747558594,68.77294921875,-64.37416076660156
1776870294081088300,7.178088134765625,-107.99971008300781,67.85836791992188,-64.14747619628906
1776870294091180300,7.18818017578125,-108.17774963378906,66.75064086914062,-64.20291137695312
1776870294101271000,7.19827099609375,-108.13160705566406,65.50654602050781,-64.37123107910156
1776870294111362300,7.2083623046875,-108.20292663574219,64.73902893066406,-64.32656860351562
1776870294121454300,7.218454345703125,-107.85066223144531,63.713775634765625,-64.12852478027344
1776870294131545300,7.22854541015625,-107.49313354492188,62.9822998046875,-63.90010070800781
1776870294141637000,7.23863720703125,-107.85340881347656,62.14862060546875,-64.05699157714844
1776870294151729200,7.248729248046875,-107.70497131347656,61.163970947265625,-64.08363342285156
1776870294161821200,7.2588212890625,-107.65362548828125,60.222564697265625,-64.05557250976562
1776870294171913200,7.268913330078125,-106.93467712402344,59.57444763183594,-63.7509765625
1776870294182005200,7.279005126953125,-107.29518127441406,59.010284423828125,-63.95924377441406
1776870294192096300,7.28909619140625,-106.81103515625,58.36041259765625,-64.07376098632812
1776870294202188300,7.299188232421875,-106.46246337890625,57.95623779296875,-63.9351806640625
1776870294212279300,7.309279296875,-107.45466613769531,57.17811584472656,-64.78434753417969
1776870294222368300,7.3193681640625,-106.71951293945312,56.93370056152344,-64.14347839355469
1776870294232457200,7.329457275390625,-106.60527038574219,56.99327087402344,-64.14247131347656
1776870294242547200,7.339547119140625,-106.43400573730469,56.854400634765625,-64.24728393554688
1776870294252638200,7.34963818359375,-106.30360412597656,56.37544250488281,-64.160888671875
1776870294262727200,7.35972705078125,-107.08232116699219,56.33351135253906,-64.65333557128906
1776870294272817200,7.369817138671875,-106.52569580078125,56.56695556640625,-64.26736450195312
1776870294282906400,7.37990625,-107.05793762207031,56.94073486328125,-64.91676330566406
1776870294292997000,7.3899970703125,-106.98419189453125,57.17236328125,-64.41001892089844
1776870294303089200,7.400089111328125,-106.89305114746094,57.637969970703125,-64.40556335449219
1776870294313180200,7.41018017578125,-107.43804931640625,58.36015319824219,-64.61955261230469
1776870294323271200,7.420271240234375,-107.33575439453125,58.695526123046875,-64.45503234863281
1776870294333362200,7.430362060546875,-107.2091064453125,59.27687072753906,-64.29255676269531
1776870294343452200,7.4404521484375,-107.77510070800781,60.0277099609375,-64.86892700195312
1776870294353542100,7.450542236328125,-107.47833251953125,60.84626770019531,-64.59400939941406
1776870294363632000,7.460632080078125,-107.81509399414062,61.39378356933594,-64.70375061035156
1776870294373721000,7.47072119140625,-108.15768432617188,62.145263671875,-64.81694030761719
1776870294383812000,7.48081201171875,-108.335205078125,62.97998046875,-64.80143737792969
1776870294393903400,7.4909033203125,-107.91941833496094,64.014404296875,-64.93815612792969
1776870294403995400,7.500995361328125,-108.2454833984375,64.9049072265625,-65.00192260742188
1776870294414086100,7.511086181640625,-108.39662170410156,65.58082580566406,-65.23379516601562
1776870294424179200,7.52117919921875,-108.3677978515625,66.54568481445312,-65.38261413574219
1776870294434271000,7.53127099609375,-108.56808471679688,67.33499145507812,-65.37413024902344
1776870294444363000,7.541363037109375,-108.59588623046875,68.39617919921875,-65.82591247558594
1776870294454454300,7.551454345703125,-108.38212585449219,69.21101379394531,-65.69721984863281
1776870294464545300,7.561545166015625,-109.33905029296875,70.00703430175781,-66.79804992675781
1776870294474637300,7.57163720703125,-108.60202026367188,71.23025512695312,-66.48957824707031
1776870294484728000,7.58172802734375,-108.90045166015625,72.15118408203125,-66.95681762695312
1776870294494818300,7.591818359375,-108.62236022949219,72.97859191894531,-66.95419311523438
1776870294504909300,7.601909423828125,-108.47064208984375,74.11427307128906,-67.14192199707031
1776870294515001300,7.61200146484375,-107.89561462402344,75.16815185546875,-67.23591613769531
1776870294525092000,7.622092041015625,-107.59217834472656,76.15290832519531,-67.22824096679688
1776870294535184100,7.63218408203125,-107.48626708984375,77.05577087402344,-67.22334289550781
1776870294545277200,7.642277099609375,-108.59413146972656,77.88822937011719,-68.49212646484375
1776870294555369200,7.652369140625,-107.48210144042969,78.99617004394531,-68.06918334960938
1776870294565459200,7.662459228515625,-106.72438049316406,79.8603515625,-67.8062744140625
1776870294575550200,7.67255029296875,-106.14358520507812,80.42362976074219,-67.81646728515625
1776870294585641200,7.68264111328125,-105.89030456542969,81.53494262695312,-68.04496765136719
1776870294595732200,7.692732177734375,-106.00323486328125,82.01690673828125,-68.68479919433594
1776870294605823200,7.7028232421875,-105.25447082519531,82.79014587402344,-68.37490844726562
1776870294615914000,7.7129140625,-105.13427734375,83.25872802734375,-68.70620727539062
1776870294626005200,7.723005126953125,-104.75373840332031,84.21873474121094,-68.79385375976562
1776870294636096300,7.73309619140625,-104.43855285644531,84.51887512207031,-69.20613098144531
1776870294646186200,7.743186279296875,-104.43711853027344,85.23672485351562,-69.79214477539062
1776870294656276200,7.753276123046875,-104.01322937011719,85.66375732421875,-69.70938110351562
1776870294666366200,7.7633662109375,-104.07791137695312,86.3028564453125,-70.55599975585938
1776870294676455200,7.773455078125,-103.3619384765625,86.84526062011719,-70.67704772949219
1776870294686545200,7.783545166015625,-103.30406188964844,86.9715576171875,-71.07794189453125
1776870294696635100,7.79363525390625,-103.98609924316406,87.39936828613281,-72.44718933105469
1776870294706724000,7.80372412109375,-102.87142944335938,87.80186462402344,-72.21537780761719
1776870294716814300,7.813814453125,-102.97724914550781,88.13484191894531,-73.10745239257812
1776870294726902300,7.82390234375,-102.53489685058594,88.46830749511719,-73.13571166992188
1776870294736993300,7.8339931640625,-102.30857849121094,88.93194580078125,-73.80241394042969
1776870294747083300,7.844083251953125,-102.26768493652344,89.04957580566406,-74.26112365722656
1776870294757175300,7.85417529296875,-101.80589294433594,89.26176452636719,-74.41084289550781
1776870294767267300,7.864267333984375,-101.98789978027344,89.67311096191406,-75.08580017089844
1776870294777359400,7.874359375,-101.18095397949219,90.03431701660156,-75.03138732910156
1776870294787450400,7.884450439453125,-101.13438415527344,90.38619995117188,-75.66375732421875
1776870294797541000,7.894541015625,-100.92529296875,90.54173278808594,-76.10858154296875
1776870294807632100,7.904632080078125,-100.49800109863281,90.87696838378906,-76.15324401855469
1776870294817723400,7.914723388671875,-100.01901245117188,91.3336181640625,-76.5478515625
1776870294827813000,7.924813232421875,-99.97434997558594,91.4710693359375,-77.09169006347656
1776870294837904100,7.934904052734375,-99.19685363769531,91.82247924804688,-76.93141174316406
1776870294847995400,7.944995361328125,-99.16378784179688,92.101806640625,-77.59725952148438
1776870294858085000,7.955085205078125,-98.82818603515625,92.38319396972656,-77.727783203125
1776870294868176100,7.965176025390625,-98.6756591796875,92.63148498535156,-78.10076904296875
1776870294878267400,7.975267333984375,-98.42033386230469,92.84910583496094,-78.51972961425781
1776870294888359400,7.985359375,-98.54643249511719,93.18728637695312,-79.370849609375
1776870294898451200,7.995451171875,-98.07916259765625,93.28153991699219,-79.54045104980469
1776870294908543200,8.005543212890625,-97.1358642578125,93.65182495117188,-79.31304931640625
1776870294918635000,8.015635009765624,-96.74287414550781,93.97642517089844,-79.46240234375
1776870294928726300,8.025726318359375,-96.98654174804688,94.26551818847656,-80.13471984863281
1776870294938818300,8.035818359375,-96.03201293945312,94.3704833984375,-79.97128295898438
1776870294948908800,8.04590869140625,-95.60865783691406,94.74943542480469,-80.3419189453125
1776870294959000800,8.056000732421875,-95.76742553710938,94.71676635742188,-80.93769836425781
1776870294969092900,8.0660927734375,-95.25674438476562,95.01266479492188,-81.08798217773438
1776870294979185000,8.076184814453125,-95.30419921875,95.39303588867188,-81.41903686523438
1776870294989276000,8.08627587890625,-95.46640014648438,95.400146484375,-82.04400634765625
1776870294999367700,8.09636767578125,-93.5006103515625,96.00457763671875,-81.11328125
1776870295009459700,8.106459716796875,-93.01734924316406,96.0882568359375,-80.98768615722656
1776870295019553000,8.116552978515625,-93.13011169433594,96.37022399902344,-81.17172241210938
1776870295029643800,8.126643798828125,-93.52949523925781,96.21586608886719,-81.57182312011719
1776870295039734800,8.13673486328125,-92.98110961914062,96.24740600585938,-81.48652648925781
1776870295049824800,8.14682470703125,-92.08309936523438,96.55178833007812,-80.86151123046875
1776870295059917800,8.156917724609375,-91.79835510253906,96.529541015625,-80.95159912109375
1776870295070009900,8.167009765625,-91.49894714355469,96.50053405761719,-80.815185546875
1776870295080098800,8.177098876953124,-91.364990234375,96.60003662109375,-81.27000427246094
1776870295090189800,8.18718994140625,-91.04045104980469,96.741455078125,-81.30242919921875
1776870295100279800,8.19727978515625,-90.80393981933594,96.94039916992188,-81.46946716308594
1776870295110370800,8.207370849609376,-90.07759094238281,97.01718139648438,-81.30827331542969
1776870295120461800,8.2174619140625,-89.76890563964844,97.26457214355469,-81.54949951171875
1776870295130553600,8.2275537109375,-89.14546203613281,97.27619934082031,-81.67901611328125
1776870295140644900,8.237644775390624,-88.63751220703125,97.60227966308594,-81.77420043945312
1776870295150737700,8.247737548828125,-87.2557373046875,97.65933227539062,-82.26129150390625
1776870295160829000,8.257828857421876,-86.89840698242188,97.54234313964844,-82.98736572265625
1776870295170920000,8.267919921875,-86.52801513671875,97.4451904296875,-84.11119079589844
1776870295181012000,8.278011962890625,-86.19212341308594,97.12406921386719,-84.85676574707031
1776870295191104000,8.28810400390625,-86.32743835449219,96.79928588867188,-85.18687438964844
1776870295201195800,8.29819580078125,-86.54844665527344,96.44810485839844,-85.1702880859375
1776870295211286800,8.308286865234376,-88.68743896484375,96.18154907226562,-85.59854125976562
1776870295221377800,8.318377685546874,-89.7503662109375,95.83035278320312,-85.30290222167969
1776870295231469800,8.3284697265625,-89.77763366699219,95.9395751953125,-84.08157348632812
1776870295241560800,8.338560791015626,-90.62509155273438,95.76644897460938,-83.62924194335938
1776870295251652600,8.348652587890625,-92.27471923828125,95.84185791015625,-83.67233276367188
1776870295261744600,8.35874462890625,-92.16239929199219,95.82513427734375,-83.15890502929688
1776870295271836700,8.368836669921874,-91.57514953613281,96.03794860839844,-82.65667724609375
1776870295281928000,8.378927978515625,-92.393798828125,95.92568969726562,-83.21885681152344
1776870295292019000,8.38901904296875,-90.96597290039062,96.23646545410156,-82.62467956542969
1776870295302111000,8.399111083984375,-90.82339477539062,96.39874267578125,-83.02346801757812
1776870295312201700,8.40920166015625,-90.44009399414062,96.48809814453125,-83.0416259765625
1776870295322292000,8.4192919921875,-90.03695678710938,96.52766418457031,-83.48109436035156
1776870295332383000,8.429383056640624,-89.70361328125,96.68559265136719,-83.26350402832031
1776870295342472700,8.43947265625,-89.97705078125,96.64614868164062,-83.39595031738281
1776870295352564000,8.44956396484375,-89.87547302246094,96.60482788085938,-83.36851501464844
1776870295362655000,8.459655029296876,-90.35731506347656,96.3538818359375,-83.18930053710938
1776870295372744700,8.46974462890625,-90.89393615722656,96.33486938476562,-83.1507568359375
1776870295382836700,8.479836669921875,-90.7158203125,96.38893127441406,-82.73399353027344
1776870295392928000,8.489927978515626,-91.67826843261719,96.12828063964844,-83.559326171875
1776870295403018800,8.500018798828124,-91.1282958984375,96.19400024414062,-82.62712097167969
1776870295413109800,8.51010986328125,-90.82228088378906,96.36076354980469,-82.10585021972656
1776870295423200800,8.52020068359375,-90.51315307617188,96.59390258789062,-81.94398498535156
1776870295433290800,8.530290771484376,-90.50054931640625,96.72145080566406,-81.9464111328125
1776870295443382800,8.5403828125,-90.55223083496094,97.02189636230469,-82.27607727050781
1776870295453473800,8.550473876953125,-90.1884765625,97.06639099121094,-82.34963989257812
1776870295463564800,8.560564697265624,-89.8546142578125,96.96598815917969,-82.7569580078125
1776870295473656000,8.570656005859375,-89.29917907714844,97.03782653808594,-82.64584350585938
1776870295483742700,8.58074267578125,-89.31367492675781,97.0186767578125,-83.17762756347656
1776870295493838800,8.5908388671875,-89.03375244140625,96.96401977539062,-83.01509094238281
1776870295503929900,8.600929931640625,-89.03047180175781,96.78733825683594,-83.09501647949219
1776870295514020900,8.611020751953125,-89.64991760253906,96.6063232421875,-83.17758178710938
1776870295524112000,8.62111181640625,-89.60774230957031,96.74884033203125,-83.09881591796875
1776870295534203600,8.63120361328125,-89.94825744628906,96.75747680664062,-83.25958251953125
1776870295544296700,8.641296630859374,-89.80928039550781,96.58206176757812,-82.91802978515625
1776870295554389800,8.6513896484375,-90.48777770996094,96.41978454589844,-83.02914428710938
1776870295564481800,8.661481689453124,-90.03939819335938,96.50016784667969,-82.66448974609375
1776870295574572800,8.67157275390625,-90.31341552734375,96.52923583984375,-82.58659362792969
1776870295584663800,8.681663818359375,-90.33360290527344,96.42218017578125,-82.76947021484375
1776870295594754800,8.6917548828125,-90.08282470703125,96.57867431640625,-82.56605529785156
1776870295604845800,8.701845703125,-90.68534851074219,96.41603088378906,-82.56365966796875
1776870295614936800,8.711936767578125,-90.04441833496094,96.59809875488281,-82.14784240722656
1776870295625027800,8.72202783203125,-90.26380920410156,96.50885009765625,-82.25923156738281
1776870295635118800,8.732118896484375,-90.1864013671875,96.70013427734375,-82.19352722167969
1776870295645210600,8.742210693359375,-90.67803955078125,96.60235595703125,-82.45751953125
1776870295655303700,8.7523037109375,-90.05162048339844,96.49369812011719,-82.10050964355469
1776870295665395700,8.762395751953125,-90.05485534667969,96.67269897460938,-82.03884887695312
1776870295675486700,8.77248681640625,-90.3953857421875,96.85198974609375,-82.40434265136719
1776870295685578800,8.782578857421875,-90.04469299316406,96.59788513183594,-82.38607788085938
1776870295695670800,8.7926708984375,-90.09893798828125,96.44386291503906,-82.271728515625
1776870295705762800,8.8027626953125,-89.917724609375,96.875244140625,-82.31654357910156
1776870295715856000,8.81285595703125,-92.041015625,96.21531677246094,-84.06918334960938
1776870295725949000,8.822948974609375,-90.57110595703125,96.35517883300781,-82.53086853027344
1776870295736041700,8.833041748046876,-89.87449645996094,96.6500244140625,-82.37391662597656
1776870295746132700,8.8431328125,-89.90432739257812,96.63247680664062,-82.62301635742188
1776870295756224800,8.853224853515625,-89.8499755859375,96.49906921386719,-82.64529418945312
1776870295766316800,8.86331689453125,-89.45039367675781,96.68394470214844,-82.61906433105469
1776870295776408800,8.873408935546875,-89.937744140625,96.67678833007812,-82.95062255859375
1776870295786500900,8.8835009765625,-90.18586730957031,96.65972900390625,-83.02169799804688
1776870295796592600,8.893592529296875,-90.261962890625,96.30882263183594,-83.10049438476562
1776870295806684700,8.9036845703125,-89.95649719238281,96.64889526367188,-82.88555908203125
1776870295816776700,8.913776611328124,-89.90061950683594,96.60505676269531,-82.78965759277344
1776870295826868700,8.92386865234375,-90.18638610839844,96.6441650390625,-82.97427368164062
1776870295836961800,8.9339619140625,-90.23838806152344,96.77133178710938,-83.22305297851562
1776870295847053800,8.9440537109375,-90.79959106445312,96.24945068359375,-83.15126037597656
1776870295857146600,8.954146728515624,-90.56059265136719,96.19435119628906,-83.01002502441406
1776870295867238000,8.96423779296875,-90.46067810058594,96.43447875976562,-82.96321105957031
1776870295877329000,8.974328857421876,-90.43284606933594,96.36076354980469,-82.93324279785156
1776870295887421000,8.9844208984375,-90.536376953125,96.320068359375,-82.79364013671875
1776870295897513000,8.994512939453125,-90.39566040039062,96.33047485351562,-82.8404541015625
1776870295907605800,9.004605712890625,-91.16395568847656,96.1580810546875,-83.26943969726562
1776870295917697800,9.01469775390625,-90.39495849609375,96.41543579101562,-82.97030639648438
1776870295927788800,9.024788818359376,-90.64279174804688,96.30540466308594,-82.90385437011719
1776870295937880800,9.034880859375,-91.18678283691406,96.30003356933594,-83.2928466796875
1776870295947971600,9.0449716796875,-91.55070495605469,96.38099670410156,-83.45942687988281
1776870295958062300,9.055062255859376,-91.01312255859375,96.3133544921875,-83.1712646484375
1776870295968154400,9.065154296875,-90.99790954589844,96.25672912597656,-83.05451965332031
1776870295978245400,9.075245361328125,-91.35067749023438,96.29731750488281,-83.14500427246094
1776870295988335600,9.085335693359376,-91.44367980957031,96.05450439453125,-83.26283264160156
1776870295998424600,9.095424560546874,-91.58201599121094,96.03599548339844,-82.92201232910156
1776870296008513500,9.105513427734374,-91.67742919921875,95.96141052246094,-83.08615112304688
1776870296018602500,9.1156025390625,-91.41212463378906,96.235107421875,-82.87588500976562
1776870296028691500,9.12569140625,-92.17787170410156,95.99736022949219,-83.25344848632812
1776870296038783500,9.135783447265625,-92.32034301757812,95.95573425292969,-83.08589172363281
1776870296048874500,9.14587451171875,-92.08856201171875,95.57168579101562,-82.99044799804688
1776870296058963500,9.15596337890625,-92.41677856445312,95.61421203613281,-83.2301025390625
1776870296069054700,9.1660546875,-92.31236267089844,95.67401123046875,-83.12911987304688
1776870296079144400,9.17614453125,-92.83221435546875,95.50862121582031,-83.314453125
1776870296089234700,9.186234619140626,-92.42620849609375,95.56105041503906,-83.34388732910156
1776870296099325400,9.196325439453124,-92.59425354003906,95.24418640136719,-83.45187377929688
1776870296109418500,9.20641845703125,-93.1234130859375,95.22651672363281,-83.52931213378906
1776870296119509500,9.216509521484374,-92.67726135253906,95.32716369628906,-83.34068298339844
1776870296129601500,9.2266015625,-93.34768676757812,95.07699584960938,-83.8009033203125
1776870296139692500,9.236692626953126,-93.8758544921875,94.771484375,-84.02069091796875
1776870296149783600,9.246783447265624,-93.8131103515625,94.74787902832031,-83.61903381347656
1776870296159875300,9.256875244140625,-93.63111877441406,94.52981567382812,-83.27494812011719
1776870296169966300,9.26696630859375,-94.08990478515625,94.72543334960938,-83.22648620605469
1776870296180058400,9.277058349609375,-94.72966003417969,93.90898132324219,-83.53793334960938
1776870296190148600,9.287148681640625,-94.4971923828125,94.26002502441406,-83.00811767578125
1776870296200239400,9.2972392578125,-94.91000366210938,93.9091796875,-82.6474609375
1776870296210330400,9.307330322265624,-95.30126953125,93.96640014648438,-82.67622375488281
1776870296220419300,9.31741943359375,-95.1348876953125,93.69149780273438,-82.32110595703125
1776870296230508500,9.327508544921875,-96.31356811523438,93.16935729980469,-82.74282836914062
1776870296240598500,9.3375986328125,-96.13720703125,92.94900512695312,-82.22203063964844
1776870296250688500,9.3476884765625,-96.33807373046875,92.6480712890625,-81.96223449707031
1776870296260779300,9.357779296875,-97.05569458007812,92.21371459960938,-82.08555603027344
1776870296270869500,9.367869384765624,-97.105712890625,92.06698608398438,-81.66598510742188
1776870296280958500,9.37795849609375,-98.9862060546875,91.31842041015625,-82.75149536132812
1776870296291049500,9.388049560546875,-98.62431335449219,91.33833312988281,-81.63352966308594
1776870296301140500,9.398140380859376,-98.95594787597656,91.1451416015625,-81.20884704589844
1776870296311231500,9.4082314453125,-99.33515930175781,90.64128112792969,-80.60128784179688
1776870296321322500,9.418322509765625,-100.00279235839844,90.51136779785156,-79.9764404296875
1776870296331412500,9.42841259765625,-100.63409423828125,90.20539855957031,-79.7965087890625
1776870296341503500,9.43850341796875,-100.99720764160156,90.03666687011719,-79.37643432617188
1776870296351592400,9.448592529296874,-100.66270446777344,89.83311462402344,-78.74957275390625
1776870296361683700,9.45868359375,-101.28190612792969,89.62771606445312,-78.61683654785156
1776870296371773400,9.4687734375,-101.50827026367188,89.22027587890625,-78.19833374023438
1776870296381864400,9.478864501953124,-101.75370788574219,89.06674194335938,-77.95109558105469
1776870296391956500,9.48895654296875,-102.41279602050781,88.78324890136719,-77.56048583984375
1776870296402047500,9.499047607421875,-102.35383605957031,88.53387451171875,-76.59054565429688
1776870296412138500,9.509138427734374,-103.14125061035156,87.95750427246094,-76.41314697265625
1776870296422230500,9.51923046875,-103.3848876953125,87.71754455566406,-75.89567565917969
1776870296432321500,9.529321533203126,-103.27188110351562,87.06077575683594,-75.4019775390625
1776870296442411500,9.53941162109375,-103.95773315429688,86.8388671875,-75.22355651855469
1776870296452502500,9.54950244140625,-103.59489440917969,86.3951416015625,-74.51023864746094
1776870296462593500,9.559593505859375,-104.6287841796875,85.78825378417969,-74.51615905761719
1776870296472680400,9.569680419921875,-104.24005126953125,85.187255859375,-73.52593994140625
1776870296482776300,9.5797763671875,-105.07637023925781,84.58734130859375,-73.38031005859375
1776870296492868400,9.589868408203126,-106.7059326171875,83.75978088378906,-73.49386596679688
1776870296502960400,9.59996044921875,-106.28659057617188,83.39353942871094,-72.66793823242188
1776870296513051400,9.610051513671875,-108.103759765625,82.51448059082031,-73.66136169433594
1776870296523142700,9.620142578125,-106.28086853027344,82.17039489746094,-71.32064819335938
1776870296533233400,9.6302333984375,-106.92742919921875,81.34930419921875,-71.04786682128906
1776870296543320300,9.6403203125,-107.26351928710938,80.41751098632812,-70.8231201171875
1776870296553416400,9.65041650390625,-107.72914123535156,79.52464294433594,-70.66464233398438
1776870296563503600,9.660503662109376,-108.31816101074219,78.76806640625,-70.14137268066406
1776870296573600500,9.6706005859375,-108.3223876953125,77.95002746582031,-69.25180053710938
1776870296583691500,9.68069140625,-108.77932739257812,77.02085876464844,-68.86915588378906
1776870296593783300,9.690783203125,-108.97526550292969,76.09370422363281,-68.64845275878906
1776870296603873500,9.70087353515625,-108.68562316894531,75.04087829589844,-67.69020080566406
1776870296613964500,9.710964599609374,-109.57737731933594,74.44853210449219,-68.09672546386719
1776870296624054500,9.721054443359375,-109.19732666015625,73.15605163574219,-67.29844665527344
1776870296634145500,9.7311455078125,-109.50297546386719,72.08778381347656,-67.16122436523438
1776870296644235500,9.741235595703126,-109.49861145019531,70.92610168457031,-66.58195495605469
1776870296654326500,9.751326416015624,-109.24575805664062,69.59671020507812,-66.36677551269531
1776870296664418600,9.76141845703125,-110.36872863769531,68.44427490234375,-66.85415649414062
1776870296674509600,9.771509521484376,-109.96900939941406,67.01649475097656,-66.39961242675781
1776870296684600600,9.7816005859375,-109.67080688476562,65.90623474121094,-66.39390563964844
1776870296694692600,9.791692626953125,-110.20558166503906,64.54368591308594,-66.67453002929688
1776870296704779300,9.801779296875,-109.58975219726562,63.27076721191406,-66.01498413085938
1776870296714877700,9.811877685546875,-110.84089660644531,62.157073974609375,-67.32093811035156
1776870296724970500,9.821970458984374,-109.25849914550781,61.19627380371094,-66.12660217285156
1776870296735057700,9.8320576171875,-109.01640319824219,60.21669006347656,-66.1422119140625
1776870296745155600,9.842155517578124,-109.08065795898438,59.32011413574219,-65.93113708496094
1776870296755246300,9.852246337890625,-108.72651672363281,58.56190490722656,-65.69027709960938
1776870296765338400,9.86233837890625,-108.51473999023438,57.557708740234375,-65.74655151367188
1776870296775429400,9.872429443359374,-108.14927673339844,56.63520812988281,-65.49813842773438
1776870296785520600,9.882520751953125,-107.7666015625,56.068695068359375,-65.18641662597656
1776870296795612700,9.89261279296875,-107.74113464355469,55.384857177734375,-65.52783203125
1776870296805704700,9.90270458984375,-107.16160583496094,54.5848388671875,-64.70823669433594
1776870296815796700,9.912796630859376,-107.02774047851562,53.97389221191406,-65.06460571289062
1776870296825883400,9.92288330078125,-107.7965087890625,53.4178466796875,-65.70436096191406
1776870296835980300,9.932980224609375,-106.78575134277344,53.18528747558594,-65.06349182128906
1776870296846072300,9.943072265625,-106.45939636230469,53.09523010253906,-64.92225646972656
1776870296856164400,9.953164306640625,-106.26109313964844,53.00785827636719,-64.45664978027344
1776870296866255600,9.963255615234376,-106.12702941894531,53.14555358886719,-64.53984069824219
1776870296876341500,9.973341552734375,-106.18397521972656,53.19743347167969,-64.49017333984375
1776870296886438700,9.983438720703125,-106.15283203125,53.60455322265625,-64.30416870117188
1776870296896529400,9.993529296875,-106.73777770996094,54.14483642578125,-64.89057922363281
1776870296906620400,10.003620361328124,-106.51126098632812,54.503997802734375,-64.71185302734375
1776870296916712400,10.01371240234375,-107.13182067871094,55.00877380371094,-64.68687438964844
1776870296926804500,10.023804443359374,-107.09115600585938,55.82667541503906,-64.37872314453125
1776870296936896500,10.033896484375,-106.99111938476562,56.45726013183594,-64.14971923828125
1776870296946987300,10.0439873046875,-107.6005859375,57.30079650878906,-64.46922302246094
1776870296957079300,10.054079345703125,-107.54249572753906,58.070892333984375,-64.28790283203125
1776870296967171000,10.064171142578125,-108.06990051269531,58.9268798828125,-64.77049255371094
1776870296977262000,10.074261962890626,-108.32041931152344,59.79096984863281,-64.694580078125
1776870296987354000,10.08435400390625,-108.1536865234375,60.99261474609375,-64.58602905273438
1776870296997445000,10.094445068359375,-108.77490234375,61.85920715332031,-65.23541259765625
1776870297007537200,10.104537109375,-108.87664794921875,62.7557373046875,-65.10400390625
1776870297017624000,10.1146240234375,-109.02259826660156,63.64103698730469,-65.58171081542969
1776870297027718100,10.12471826171875,-109.19154357910156,64.90679931640625,-65.69273376464844
1776870297037817000,10.134817138671876,-108.72607421875,65.93310546875,-65.37962341308594
1776870297047910000,10.144909912109375,-109.33984375,66.70033264160156,-66.10682678222656
1776870297057998000,10.154998046875,-109.35218811035156,67.78611755371094,-66.03898620605469
1776870297068094000,10.165093994140625,-108.92709350585938,69.12483215332031,-66.36927795410156
1776870297078186000,10.17518603515625,-109.04457092285156,69.86288452148438,-66.51600646972656
1776870297088279000,10.185279052734375,-108.90228271484375,70.94400024414062,-66.64797973632812
1776870297098371000,10.19537109375,-108.77398681640625,72.11454772949219,-66.89396667480469
1776870297108463000,10.205463134765624,-108.47703552246094,73.00401306152344,-66.93370056152344
1776870297118555100,10.21555517578125,-108.38813781738281,74.27308654785156,-67.44917297363281
1776870297128648000,10.22564794921875,-108.72224426269531,75.32687377929688,-67.86483764648438
1776870297138740000,10.235739990234375,-108.29693603515625,76.18780517578125,-67.78684997558594
1776870297148828000,10.245827880859375,-107.74798583984375,77.11174011230469,-67.92239379882812
1776870297158926000,10.255926025390625,-107.08512878417969,78.23051452636719,-67.96253967285156
1776870297169019000,10.266018798828124,-107.44467163085938,79.16990661621094,-68.41960144042969
1776870297179108000,10.276108154296875,-107.65498352050781,80.01622009277344,-68.84478759765625
1776870297189202200,10.2862021484375,-107.00173950195312,80.77323913574219,-68.69145202636719
1776870297199300000,10.296300048828124,-106.724365234375,81.40887451171875,-68.9461669921875
1776870297209392000,10.30639208984375,-106.13172912597656,82.25979614257812,-69.03080749511719
1776870297219485000,10.31648486328125,-106.14395141601562,83.04109191894531,-69.45181274414062
1776870297229578000,10.326577880859375,-105.72383117675781,83.73031616210938,-69.8321533203125
1776870297239667200,10.336667236328125,-104.90980529785156,84.34251403808594,-69.58984375
1776870297249766100,10.34676611328125,-105.07342529296875,84.96336364746094,-70.33395385742188
1776870297259855000,10.356855224609374,-104.45368957519531,85.34701538085938,-70.27401733398438
1776870297269949200,10.36694921875,-104.72547912597656,85.93045043945312,-70.87496948242188
1776870297280046000,10.377046142578125,-104.125244140625,86.33273315429688,-70.98226928710938
1776870297290140200,10.38714013671875,-103.86257934570312,86.73867797851562,-71.49293518066406
1776870297300234000,10.39723388671875,-103.12832641601562,87.11070251464844,-71.49290466308594
1776870297310327000,10.4073271484375,-103.27363586425781,87.53150939941406,-72.13836669921875
1776870297320420900,10.4174208984375,-102.93177795410156,87.70864868164062,-72.47813415527344
1776870297330514200,10.42751416015625,-102.49368286132812,88.25396728515625,-72.72019958496094
1776870297340608000,10.43760791015625,-102.05058288574219,88.69515991210938,-72.96208190917969
1776870297350696200,10.4476962890625,-102.26065063476562,88.84295654296875,-74.08229064941406
1776870297360790000,10.4577900390625,-101.55792236328125,89.31306457519531,-74.37715148925781
1776870297370888000,10.467887939453124,-101.46891784667969,89.66415405273438,-74.67088317871094
1776870297380980000,10.47797998046875,-101.68650817871094,89.79237365722656,-75.00502014160156
1776870297391073000,10.488072998046874,-101.18528747558594,90.03927612304688,-75.47830200195312
1776870297401166000,10.498166015625,-100.68861389160156,90.27879333496094,-75.79447937011719
1776870297411259100,10.508259033203124,-100.40711975097656,90.73194885253906,-76.08247375488281
1776870297421353200,10.518353271484376,-99.93963623046875,91.10371398925781,-76.4906005859375
1776870297431446000,10.528446044921875,-99.93202209472656,91.25018310546875,-77.19155883789062
1776870297441539000,10.5385390625,-99.4146728515625,91.73966979980469,-77.35903930664062
1776870297451632000,10.548632080078125,-99.16023254394531,91.59243774414062,-77.70263671875
1776870297461726200,10.558726318359374,-98.98385620117188,91.90736389160156,-78.20217895507812
1776870297471819300,10.5688193359375,-98.45094299316406,92.28662109375,-78.60020446777344
1776870297481913000,10.5789130859375,-98.19171142578125,92.5860595703125,-78.70512390136719
1776870297492005000,10.589005126953126,-97.47315979003906,92.92796325683594,-79.044921875
1776870297502092000,10.599092041015625,-96.98405456542969,93.33004760742188,-79.34988403320312
1776870297512190200,10.609190185546876,-97.08724975585938,93.400634765625,-80.18601989746094
1776870297522282200,10.6192822265625,-96.34690856933594,93.64999389648438,-80.29257202148438
1776870297532376000,10.6293759765625,-95.99319458007812,94.01313781738281,-80.524169921875
1776870297542464000,10.639464111328126,-95.09190368652344,94.12763977050781,-80.60003662109375
1776870297552562000,10.64956201171875,-94.81640625,94.4407958984375,-81.14239501953125
1776870297562651100,10.659651123046874,-94.43254089355469,94.853759765625,-81.51123046875
1776870297572749000,10.6697490234375,-93.36500549316406,95.00350952148438,-81.40110778808594
1776870297582844000,10.679843994140626,-93.05451965332031,95.40960693359375,-81.7022705078125
1776870297592938200,10.689938232421875,-93.15621948242188,95.48518371582031,-82.03253173828125
1776870297603027200,10.700027099609375,-92.56062316894531,95.74000549316406,-82.06520080566406
1776870297613126100,10.710126220703126,-92.38522338867188,96.08482360839844,-82.46438598632812
1776870297623216000,10.720216064453124,-92.19853210449219,96.20314025878906,-82.36332702636719
1776870297633315000,10.730315185546875,-91.72113037109375,96.25248718261719,-82.48335266113281
1776870297643403000,10.740403076171875,-91.44297790527344,96.37947082519531,-82.42608642578125
1776870297653500200,10.750500244140625,-90.52322387695312,96.38319396972656,-81.93721008300781
1776870297663593000,10.760593017578126,-90.84455871582031,96.45710754394531,-81.98374938964844
1776870297673686000,10.77068603515625,-90.298583984375,96.34410095214844,-81.78952026367188
1776870297683774000,10.78077392578125,-90.38676452636719,96.32521057128906,-81.77349853515625
1776870297693873200,10.790873046875,-90.45875549316406,96.46342468261719,-81.72665405273438
1776870297703966200,10.80096630859375,-89.88896179199219,96.81802368164062,-81.72581481933594
1776870297714059000,10.81105908203125,-89.56748962402344,96.94575500488281,-81.76518249511719
1776870297724150300,10.821150390625,-88.99992370605469,97.08131408691406,-82.08782958984375
1776870297734243000,10.8312431640625,-88.89962768554688,97.47283935546875,-82.49147033691406
1776870297744330200,10.841330322265625,-88.04367065429688,97.32000732421875,-82.31605529785156
1776870297754424000,10.851424072265624,-87.97792053222656,97.39300537109375,-82.91616821289062
1776870297764523000,10.86152294921875,-87.64498901367188,97.13505554199219,-82.93559265136719
1776870297774616000,10.871615966796876,-87.46183776855469,97.005859375,-83.033935546875
1776870297784708900,10.881708984375,-88.19139099121094,96.83760070800781,-83.60713195800781
1776870297794801000,10.89180078125,-87.67802429199219,96.91081237792969,-83.20332336425781
1776870297804890000,10.90189013671875,-87.82168579101562,96.92747497558594,-82.75848388671875
1776870297814990000,10.911989990234375,-88.31248474121094,96.73587036132812,-82.59445190429688
1776870297825083100,10.922083251953126,-89.26081848144531,96.57411193847656,-82.85061645507812
1776870297835172000,10.932172119140626,-89.39759826660156,96.82814025878906,-82.19097900390625
1776870297845264100,10.94226416015625,-89.72721862792969,96.6683349609375,-82.01948547363281
1776870297855359000,10.95235888671875,-89.87452697753906,96.98902893066406,-81.80610656738281
1776870297865452000,10.9624521484375,-90.01702880859375,96.78288269042969,-81.5692138671875
1776870297875545000,10.972545166015625,-90.5447998046875,96.82432556152344,-81.76521301269531
1776870297885637000,10.98263720703125,-90.72480773925781,96.71815490722656,-81.79278564453125
1776870297895729200,10.992729248046874,-90.87001037597656,96.73210144042969,-81.87269592285156
1776870297905821200,11.0028212890625,-90.89511108398438,96.82106018066406,-81.58659362792969
1776870297915913200,11.012913330078124,-90.65571594238281,96.73876953125,-81.62039184570312
1776870297926004200,11.023004150390625,-90.56533813476562,96.63084411621094,-81.48866271972656
1776870297936095000,11.033094970703125,-90.55503845214844,96.78448486328125,-81.43966674804688
1776870297946182000,11.043181884765625,-90.56709289550781,96.51176452636719,-81.4619140625
1776870297956282400,11.053282470703126,-90.86456298828125,96.31690979003906,-81.809814453125
1776870297966374400,11.06337451171875,-90.19773864746094,96.72537231445312,-81.52705383300781
1776870297976466400,11.073466552734375,-90.24032592773438,96.79815673828125,-81.49055480957031
1776870297986556400,11.083556396484376,-90.16064453125,96.49040222167969,-81.58779907226562
1776870297996646400,11.093646484375,-90.16851806640625,96.40147399902344,-81.759765625
1776870298006738400,11.103738525390625,-89.78462219238281,96.34469604492188,-81.53334045410156
1776870298016829400,11.113829345703126,-90.10536193847656,96.57369995117188,-81.85542297363281
1776870298026920200,11.123920166015624,-90.46818542480469,96.57795715332031,-82.11624145507812
1776870298037011500,11.134011474609375,-90.43147277832031,96.64598083496094,-81.8988037109375
1776870298047102500,11.1441025390625,-90.12568664550781,96.81661987304688,-81.65234375
1776870298057192400,11.1541923828125,-90.07684326171875,96.88998413085938,-81.79515075683594
1776870298067283500,11.164283447265625,-89.60240173339844,96.98234558105469,-81.57626342773438
1776870298077375500,11.17437548828125,-89.28459167480469,96.93344116210938,-81.48213195800781
1776870298087465200,11.18446533203125,-89.27261352539062,96.94717407226562,-81.43113708496094
1776870298097557200,11.19455712890625,-89.22357177734375,97.15083312988281,-81.68174743652344
1776870298107647500,11.2046474609375,-88.89889526367188,97.19064331054688,-81.69297790527344
1776870298117738500,11.214738525390626,-89.18153381347656,97.08303833007812,-82.20246887207031
1776870298127831600,11.22483154296875,-89.04071044921875,96.93902587890625,-82.0355224609375
1776870298137922300,11.23492236328125,-89.08779907226562,96.82772827148438,-81.98005676269531
1776870298148013300,11.245013427734374,-89.49436950683594,96.94189453125,-82.0745849609375
1776870298158104300,11.255104248046875,-89.5635986328125,96.726806640625,-82.009765625
1776870298168195600,11.265195556640625,-89.50210571289062,96.60649108886719,-81.91497802734375
1776870298178287400,11.275287353515624,-89.83186340332031,96.45539855957031,-81.99932861328125
1776870298188377300,11.28537744140625,-89.70906066894531,96.54692077636719,-81.76741027832031
1776870298198469400,11.295469482421876,-89.679443359375,96.59230041503906,-81.93118286132812
1776870298208561400,11.3055615234375,-89.72439575195312,96.50872802734375,-82.09814453125
1776870298218652400,11.31565234375,-90.10978698730469,96.38949584960938,-82.1142578125
1776870298228743400,11.325743408203126,-90.15592956542969,96.39979553222656,-82.20263671875
1776870298238833400,11.33583349609375,-90.10127258300781,96.39933776855469,-81.76191711425781
1776870298248925400,11.345925537109375,-90.18411254882812,96.42645263671875,-82.10104370117188
1776870298259016200,11.35601611328125,-90.14266967773438,96.37603759765625,-81.70072937011719
1776870298269108200,11.366108154296874,-89.98281860351562,96.70925903320312,-81.73141479492188
1776870298279199500,11.376199462890625,-90.48910522460938,96.87728881835938,-82.0164794921875
1776870298289292300,11.386292236328124,-90.25761413574219,96.58737182617188,-82.02952575683594
1776870298299384300,11.39638427734375,-90.01927185058594,96.63798522949219,-82.07412719726562
1776870298309477400,11.406477294921874,-89.48052978515625,96.61813354492188,-81.85978698730469
1776870298319570200,11.416570068359375,-89.59738159179688,96.524658203125,-82.16474914550781
1776870298329663200,11.426663330078124,-89.25453186035156,96.67503356933594,-82.19563293457031
1776870298339755300,11.43675537109375,-88.6536865234375,96.83100891113281,-81.96212768554688
1776870298349847300,11.446847412109374,-89.70628356933594,96.83163452148438,-83.06341552734375
1776870298359939300,11.456939208984375,-88.91265869140625,96.88734436035156,-82.50039672851562
1776870298370030300,11.4670302734375,-88.49935913085938,96.99256896972656,-82.23863220214844
1776870298380123400,11.477123291015625,-89.20700073242188,96.98179626464844,-82.47671508789062
1776870298390212400,11.48721240234375,-89.10720825195312,96.88433837890625,-82.27058410644531
1776870298400310300,11.497310302734375,-89.26307678222656,96.73263549804688,-82.40641784667969
1776870298410403600,11.507403564453124,-89.08502197265625,96.7947998046875,-82.34010314941406
1776870298420496400,11.517496337890625,-89.0206298828125,96.71769714355469,-82.43946838378906
1776870298430584300,11.527584228515625,-89.1156005859375,96.87968444824219,-82.1837158203125
1776870298440682500,11.5376826171875,-89.53921508789062,96.73249816894531,-82.431396484375
1776870298450775300,11.547775390625,-89.7459716796875,96.76112365722656,-82.53553771972656
1776870298460867300,11.557867431640625,-89.81301879882812,96.61300659179688,-82.47653198242188
1776870298470961400,11.56796142578125,-90.01416015625,96.7418212890625,-82.6905517578125
1776870298481054200,11.57805419921875,-91.48834228515625,96.64453125,-83.73138427734375
1776870298491148500,11.5881484375,-89.99464416503906,96.71737670898438,-82.62095642089844
1776870298501242400,11.598242431640625,-90.13566589355469,96.8359375,-82.49493408203125
1776870298511335400,11.60833544921875,-90.05494689941406,96.72189331054688,-82.70307922363281
1776870298521427500,11.618427490234374,-90.29322814941406,96.79971313476562,-82.4859619140625
1776870298531520300,11.628520263671875,-90.39984130859375,96.84587097167969,-82.77104187011719
1776870298541612300,11.6386123046875,-90.51637268066406,96.61366271972656,-82.81642150878906
1776870298551705300,11.648705322265625,-90.45892333984375,96.89714050292969,-82.92434692382812
1776870298561798400,11.65879833984375,-90.48332214355469,96.66615295410156,-82.89768981933594
1776870298571891200,11.66889111328125,-90.42486572265625,96.82710266113281,-82.62844848632812
1776870298581983200,11.678983154296875,-90.4931640625,96.86886596679688,-82.79779052734375
1776870298592075300,11.6890751953125,-90.67300415039062,96.73893737792969,-83.06834411621094
1776870298602162400,11.699162353515625,-90.2552490234375,97.052490234375,-82.69102478027344
1776870298612257500,11.709257568359375,-90.57122802734375,96.72486877441406,-82.67378234863281
1776870298622356500,11.7193564453125,-90.41903686523438,96.90971374511719,-82.64283752441406
1776870298632450300,11.7294501953125,-89.76992797851562,96.87252807617188,-82.29296875
1776870298642543400,11.73954345703125,-90.99319458007812,96.76931762695312,-83.08903503417969
1776870298652635400,11.749635498046874,-90.12469482421875,96.78115844726562,-82.11524963378906
1776870298662727400,11.7597275390625,-90.16270446777344,96.72138977050781,-82.15611267089844
1776870298672820200,11.7698203125,-90.74020385742188,96.65083312988281,-82.62046813964844
1776870298682913300,11.779913330078125,-90.96104431152344,96.76559448242188,-82.68891906738281
1776870298693005300,11.79000537109375,-90.62028503417969,96.63458251953125,-82.15908813476562
1776870298703096300,11.800096435546875,-90.54287719726562,96.54216003417969,-81.82115173339844
1776870298713188400,11.810188232421876,-91.132568359375,96.43487548828125,-82.00308227539062
1776870298723279400,11.820279296875,-90.84178161621094,96.42184448242188,-81.88662719726562
1776870298733371100,11.83037109375,-90.64393615722656,96.41976928710938,-81.78376770019531
1776870298743462400,11.84046240234375,-90.91630554199219,96.52468872070312,-81.65426635742188
1776870298753554400,11.850554443359375,-91.01797485351562,96.48513793945312,-81.50576782226562
1776870298763646500,11.860646484375,-91.59544372558594,96.24655151367188,-81.69108581542969
1776870298773737500,11.870737548828124,-91.06906127929688,96.35580444335938,-81.50387573242188
1776870298783829500,11.88082958984375,-91.60812377929688,96.21131896972656,-81.76498413085938
1776870298793922300,11.89092236328125,-91.69480895996094,96.25984191894531,-81.80587768554688
1776870298804013600,11.901013671875,-91.85089111328125,96.11997985839844,-81.61907958984375
1776870298814106400,11.9111064453125,-92.48846435546875,95.87384033203125,-81.718017578125
1776870298824194300,11.9211943359375,-92.89205932617188,95.79669189453125,-81.96585083007812
1776870298834289400,11.931289306640625,-92.80453491210938,95.58653259277344,-81.39474487304688
1776870298844383500,11.941383544921875,-93.16136169433594,95.25627136230469,-80.88482666015625
1776870298854481400,11.9514814453125,-93.66899108886719,95.19656372070312,-80.92562866210938
1776870298864573400,11.961573486328126,-94.93765258789062,95.0985107421875,-81.22727966308594
1776870298874660400,11.971660400390626,-95.08610534667969,94.71929931640625,-80.69583129882812
1776870298884758500,11.981758544921876,-95.48460388183594,94.58326721191406,-80.61643981933594
1776870298894851300,11.991851318359375,-97.03570556640625,94.34310913085938,-81.40731811523438
1776870298904940300,12.001940185546875,-96.35893249511719,93.87355041503906,-80.59361267089844
1776870298915038500,12.01203857421875,-96.63851928710938,93.72494506835938,-80.58551025390625
1776870298925131300,12.02213134765625,-96.393310546875,93.53851318359375,-80.17500305175781
1776870298935224300,12.032224365234375,-97.23399353027344,93.30720520019531,-80.2412109375
1776870298945317400,12.0423173828125,-98.150146484375,92.8961181640625,-80.51315307617188
1776870298955406000,12.052406005859375,-98.58146667480469,92.63145446777344,-80.30252075195312
1776870298965494300,12.062494384765625,-98.48269653320312,92.2801513671875,-80.05178833007812
1776870298975592200,12.07259228515625,-99.39451599121094,91.9171142578125,-79.8572998046875
1776870298985685000,12.08268505859375,-99.34489440917969,91.52497863769531,-79.45860290527344
1776870298995778000,12.092778076171875,-99.75338745117188,91.64990234375,-79.32089233398438
1776870299005870000,12.1028701171875,-100.08131408691406,91.38859558105469,-78.86576843261719
1776870299015963100,12.112963134765625,-99.86965942382812,90.80416870117188,-78.47169494628906
1776870299026056000,12.123055908203124,-100.37600708007812,90.79054260253906,-78.43093872070312
1776870299036145000,12.133144775390624,-100.57234191894531,90.5032958984375,-77.912109375
1776870299046239200,12.1432392578125,-100.88134765625,90.20408630371094,-77.77664184570312
1776870299056333000,12.1533330078125,-101.64239501953125,89.77244567871094,-77.58058166503906
1776870299066432000,12.163431884765625,-101.83566284179688,89.623046875,-77.16787719726562
1776870299076527000,12.173527099609375,-101.94619750976562,89.21885681152344,-76.46522521972656
1776870299086622000,12.1836220703125,-102.20172119140625,88.64793395996094,-76.02693176269531
1776870299096715000,12.193715087890626,-102.87260437011719,88.48033142089844,-75.94473266601562
1776870299106809000,12.20380908203125,-103.07292175292969,88.07798767089844,-75.20269775390625
1776870299116903200,12.213903076171874,-103.50631713867188,87.67387390136719,-74.68972778320312
1776870299126992000,12.223991943359374,-103.82960510253906,87.39260864257812,-73.94680786132812
1776870299137091000,12.234091064453125,-103.86044311523438,87.28707885742188,-73.29159545898438
1776870299147185200,12.24418505859375,-104.12684631347656,86.87141418457031,-72.56602478027344
1776870299157274000,12.254274169921874,-104.49053955078125,86.28712463378906,-71.93362426757812
1776870299167369200,12.264369140625,-105.41213989257812,86.05050659179688,-71.81521606445312
1776870299177468200,12.27446826171875,-105.5721435546875,85.65068054199219,-70.98597717285156
1776870299187558100,12.28455810546875,-105.65226745605469,84.84089660644531,-70.68032836914062
1776870299197651200,12.294651123046876,-106.36521911621094,84.23675537109375,-70.40788269042969
1776870299207750100,12.304750244140624,-106.54881286621094,83.76690673828125,-69.85684204101562
1776870299217844000,12.314843994140626,-107.10835266113281,82.89825439453125,-69.66656494140625
1776870299227933200,12.32493310546875,-107.07144165039062,82.31968688964844,-69.23432922363281
1776870299238032100,12.3350322265625,-107.3470458984375,81.75982666015625,-68.55384826660156
1776870299248125200,12.345125244140625,-107.49501037597656,80.97067260742188,-68.3505859375
1776870299258218000,12.355218017578125,-107.86640930175781,80.14825439453125,-68.45222473144531
1776870299268311000,12.36531103515625,-108.98013305664062,79.2930908203125,-68.56077575683594
1776870299278404000,12.375404052734375,-109.31106567382812,78.30230712890625,-68.19911193847656
1776870299288497000,12.385496826171876,-110.18818664550781,76.89036560058594,-68.2833251953125
1776870299298590200,12.395590087890625,-110.23348999023438,76.20375061035156,-67.88011169433594
1776870299308683300,12.405683349609374,-109.67649841308594,75.43907165527344,-66.94036865234375
1776870299318776000,12.415776123046875,-110.61044311523438,74.16909790039062,-67.08499145507812
1776870299328868000,12.4258681640625,-110.45716857910156,73.27088928222656,-66.7110595703125
1776870299338960100,12.435960205078125,-110.39689636230469,71.96141052246094,-66.41827392578125
1776870299349050000,12.446050048828125,-110.5728759765625,70.887939453125,-66.42961120605469
1776870299359140000,12.45614013671875,-110.11723327636719,69.70538330078125,-65.54682922363281
1776870299369231000,12.466231201171874,-110.13320922851562,68.2984619140625,-65.60446166992188
1776870299379319300,12.4763193359375,-110.35841369628906,67.03691101074219,-65.97332763671875
1776870299389417200,12.486417236328125,-110.68934631347656,65.81605529785156,-66.36231994628906
1776870299399505200,12.496505126953124,-109.9598388671875,64.71249389648438,-65.96533203125
1776870299409599000,12.506598876953126,-109.84552001953125,63.443267822265625,-65.71403503417969
1776870299419695000,12.516695068359375,-109.43154907226562,62.46449279785156,-65.65498352050781
1776870299429788200,12.5267880859375,-109.82666015625,61.207733154296875,-65.99667358398438
1776870299439876000,12.5368759765625,-109.295654296875,60.104217529296875,-65.50486755371094
1776870299449969200,12.54696923828125,-108.70816040039062,59.26800537109375,-65.33050537109375
1776870299460062000,12.55706201171875,-108.35997009277344,58.281158447265625,-64.71347045898438
1776870299470159000,12.5671591796875,-108.37455749511719,57.49607849121094,-64.86569213867188
1776870299480251100,12.577251220703126,-108.09555053710938,56.521026611328125,-65.01625061035156
1776870299490343200,12.58734326171875,-107.84971618652344,55.92181396484375,-65.15058898925781
1776870299500437000,12.59743701171875,-107.47892761230469,55.05937194824219,-64.88009643554688
1776870299510526200,12.607526123046876,-107.23919677734375,54.69380187988281,-64.98451232910156
1776870299520625200,12.617625244140624,-107.09271240234375,54.50794982910156,-64.99188232421875
1776870299530712000,12.627712158203124,-107.04965209960938,54.05366516113281,-64.77546691894531
1776870299540806100,12.63780615234375,-107.01412963867188,53.9755859375,-64.92652893066406
1776870299550905000,12.647905029296876,-106.72056579589844,53.85400390625,-64.62451171875
1776870299560998000,12.657997802734375,-106.43154907226562,53.98631286621094,-64.83915710449219
1776870299571091200,12.66809130859375,-106.36219787597656,53.98539733886719,-64.47177124023438
1776870299581184300,12.678184326171875,-106.95710754394531,54.16020202636719,-64.96383666992188
1776870299591278000,12.688278076171875,-107.32159423828125,54.61668395996094,-65.16493225097656
1776870299601371100,12.69837109375,-107.11979675292969,55.18663024902344,-64.86083984375
1776870299611459000,12.708458984375,-107.61085510253906,55.579620361328125,-65.1217041015625
1776870299621557000,12.718556884765626,-107.56303405761719,56.32496643066406,-65.00892639160156
1776870299631650000,12.728650146484375,-107.77378845214844,56.84068298339844,-65.12295532226562
1776870299641742000,12.7387421875,-108.34368896484375,57.42524719238281,-65.2464599609375
1776870299651835000,12.7488349609375,-108.12579345703125,58.47404479980469,-65.19535827636719
1776870299661928200,12.75892822265625,-108.19017028808594,59.155059814453125,-65.13616943359375
1776870299672022000,12.76902197265625,-108.58369445800781,59.95701599121094,-65.4613037109375
1776870299682115000,12.779114990234374,-109.30621337890625,60.9354248046875,-66.19853210449219
1776870299692208000,12.7892080078125,-109.30661010742188,61.63970947265625,-66.00489807128906
1776870299702301000,12.799301025390625,-109.40187072753906,62.52650451660156,-66.03117370605469
1776870299712394000,12.80939404296875,-109.99177551269531,63.53038024902344,-66.54193115234375
1776870299722488000,12.819488037109375,-109.5089111328125,64.35762023925781,-66.19552612304688
1776870299732582100,12.82958203125,-109.11799621582031,65.37815856933594,-66.1058349609375
1776870299742671000,12.839671142578124,-108.92733764648438,66.62678527832031,-66.28941345214844
1776870299752770300,12.849770263671875,-109.19921875,67.5755615234375,-66.46501159667969
1776870299762857200,12.859857177734375,-108.74430847167969,68.5589599609375,-66.48751831054688
1776870299772950300,12.8699501953125,-109.14613342285156,69.69197082519531,-66.4586181640625
1776870299783049200,12.88004931640625,-108.9986572265625,70.508544921875,-66.4971923828125
1776870299793141200,12.890141357421875,-109.18939208984375,71.59194946289062,-67.09536743164062
1776870299803234000,12.900234130859374,-108.48553466796875,73.00906372070312,-66.84315490722656
1776870299813327000,12.9103271484375,-108.28143310546875,73.79150390625,-67.03776550292969
1776870299823420200,12.920420166015624,-108.21270751953125,74.79051208496094,-67.32589721679688
1776870299833512200,12.93051220703125,-107.78550720214844,76.18595886230469,-67.53573608398438
1776870299843604000,12.94060400390625,-107.90580749511719,76.8687744140625,-67.59794616699219
1776870299853696000,12.950696044921875,-106.94853210449219,77.83978271484375,-67.67030334472656
1776870299863789000,12.9607890625,-107.598876953125,78.640625,-68.23472595214844
1776870299873882000,12.970882080078125,-107.20411682128906,79.59571838378906,-68.52436828613281
1776870299883971000,12.98097119140625,-106.38832092285156,80.5,-68.30928039550781
1776870299894069200,12.9910693359375,-106.68565368652344,81.45256042480469,-69.13569641113281
1776870299904162000,13.001162109375,-105.96669006347656,81.82839965820312,-69.15597534179688
1776870299914253000,13.011253173828125,-106.11807250976562,82.46072387695312,-69.66241455078125
1776870299924345900,13.021345947265624,-105.46670532226562,83.14199829101562,-69.477294921875
1776870299934437000,13.03143701171875,-105.13844299316406,83.77230834960938,-69.75625610351562
1776870299944530000,13.041530029296876,-105.03704833984375,84.18832397460938,-70.2216796875
1776870299954624000,13.0516240234375,-104.7003173828125,84.91532897949219,-70.55068969726562
1776870299964716800,13.061716796875,-104.45880126953125,85.37332153320312,-70.79652404785156
1776870299974809900,13.071809814453125,-104.47274780273438,86.13600158691406,-71.68641662597656
1776870299984903000,13.08190283203125,-104.22459411621094,86.26908874511719,-72.13517761230469
1776870299994995000,13.091994873046875,-103.65744018554688,86.95075988769531,-72.49934387207031
