time,seconds_elapsed,z,y,x
1776870286993377300,0.090377197265625,-36.974998474121094,-5.630706787109375,-22.198383331298828
1776870287003414300,0.100414306640625,-37.121192932128906,-5.6920013427734375,-22.27402114868164
1776870287013452300,0.110452392578125,-36.85407257080078,-5.445709228515625,-21.990734100341797
1776870287023489300,0.1204892578125,-37.83198547363281,-5.177940368652344,-22.61520767211914
1776870287033526300,0.1305263671875,-37.50263214111328,-4.894794464111328,-21.86301040649414
1776870287043563000,0.14056298828125,-36.415870666503906,-4.52490234375,-20.708194732666016
1776870287053600300,0.150600341796875,-36.805198669433594,-4.377754211425781,-20.668560028076172
1776870287063637200,0.16063720703125,-36.2908935546875,-4.031208038330078,-19.457149505615234
1776870287073674200,0.17067431640625,-36.119056701660156,-4.124393463134766,-18.587055206298828
1776870287083711200,0.180711181640625,-37.31132507324219,-4.345645904541016,-18.925655364990234
1776870287093749200,0.190749267578125,-36.68354034423828,-4.095699310302734,-17.521778106689453
1776870287103786200,0.2007861328125,-38.88604736328125,-4.430625915527344,-18.112178802490234
1776870287113823200,0.2108232421875,-37.66363525390625,-4.112453460693359,-15.933834075927734
1776870287123860200,0.220860107421875,-37.23582458496094,-4.193824768066406,-14.31375503540039
1776870287133897200,0.230897216796875,-37.65156555175781,-4.207847595214844,-13.266910552978516
1776870287143934200,0.240934326171875,-37.557769775390625,-4.266765594482422,-11.800464630126953
1776870287153971200,0.25097119140625,-37.548912048339844,-4.258350372314453,-10.76601791381836
1776870287164009200,0.26100927734375,-38.13478088378906,-3.9239463806152344,-10.08199691772461
1776870287174046200,0.271046142578125,-38.558372497558594,-3.684112548828125,-9.115032196044922
1776870287184083200,0.281083251953125,-39.127044677734375,-3.49859619140625,-8.477161407470703
1776870287194120200,0.2911201171875,-39.31751251220703,-3.222858428955078,-7.077259063720703
1776870287204157200,0.3011572265625,-39.64679718017578,-2.639068603515625,-5.827686309814453
1776870287214194200,0.311194091796875,-39.540771484375,-2.0678863525390625,-4.290279388427734
1776870287224231200,0.321231201171875,-39.86488342285156,-1.3726348876953125,-2.9813575744628906
1776870287234269200,0.331269287109375,-39.92963409423828,-0.5414886474609375,-1.5096092224121094
1776870287244306200,0.34130615234375,-39.128135681152344,0.21068572998046875,0.4243621826171875
1776870287254343200,0.35134326171875,-38.869842529296875,0.8007965087890625,1.8215408325195312
1776870287264380200,0.361380126953125,-38.64567565917969,1.4322967529296875,2.6854896545410156
1776870287274417200,0.371417236328125,-38.05974578857422,2.2769317626953125,3.947418212890625
1776870287284454100,0.3814541015625,-37.64989471435547,2.9669113159179688,5.0892486572265625
1776870287294491400,0.391491455078125,-37.38706970214844,3.631561279296875,6.133808135986328
1776870287304529200,0.401529052734375,-37.12327575683594,4.0893096923828125,7.288352966308594
1776870287314566100,0.411566162109375,-37.43205261230469,4.331024169921875,7.9407501220703125
1776870287324603400,0.421603271484375,-36.749176025390625,4.381980895996094,9.375370025634766
1776870287334640400,0.431640380859375,-36.093360900878906,4.463630676269531,10.791648864746094
1776870287344677000,0.441677001953125,-35.8548583984375,4.481376647949219,11.953876495361328
1776870287354714000,0.451714111328125,-35.428810119628906,4.4197845458984375,13.087223052978516
1776870287364751000,0.461751220703125,-35.828704833984375,4.186637878417969,12.968395233154297
1776870287374788400,0.471788330078125,-35.56859588623047,4.118766784667969,13.61016845703125
1776870287384826000,0.481826171875,-35.111083984375,4.154991149902344,14.316581726074219
1776870287394863000,0.491863037109375,-35.429298400878906,4.268043518066406,14.176292419433594
1776870287404900400,0.501900390625,-35.17962646484375,4.3974456787109375,14.582042694091797
1776870287414937300,0.511937255859375,-35.13395690917969,4.566261291503906,14.361213684082031
1776870287424974000,0.52197412109375,-35.186012268066406,5.004783630371094,14.227157592773438
1776870287435011000,0.532010986328125,-35.39440155029297,5.292640686035156,14.058490753173828
1776870287445048000,0.542048095703125,-35.88075256347656,5.2813720703125,13.47442626953125
1776870287455086300,0.55208642578125,-35.99806213378906,4.8789215087890625,13.612171173095703
1776870287465123000,0.562123046875,-35.527862548828125,4.8278350830078125,14.175540924072266
1776870287475160000,0.57216015625,-35.019371032714844,4.7416839599609375,14.585670471191406
1776870287485197300,0.582197265625,-34.85175323486328,4.456939697265625,15.079425811767578
1776870287495234300,0.592234375,-34.80262756347656,4.234169006347656,15.074203491210938
1776870287505271300,0.602271240234375,-34.98027801513672,4.300376892089844,15.04568862915039
1776870287515308000,0.61230810546875,-34.737579345703125,4.30517578125,15.125511169433594
1776870287525346300,0.62234619140625,-34.965553283691406,4.201759338378906,14.98556900024414
1776870287535383300,0.63238330078125,-35.16685485839844,4.1363525390625,14.97848892211914
1776870287545420300,0.642420166015625,-35.945289611816406,4.189765930175781,14.02926254272461
1776870287555457000,0.65245703125,-35.80683135986328,4.589195251464844,14.111045837402344
1776870287565494300,0.662494384765625,-35.67863464355469,4.6560211181640625,13.733081817626953
1776870287575531300,0.67253125,-35.48240661621094,5.102012634277344,14.0450439453125
1776870287585569000,0.682569091796875,-35.53459167480469,5.8699493408203125,14.101444244384766
1776870287595606000,0.69260595703125,-35.740272521972656,6.296073913574219,13.871307373046875
1776870287605643300,0.702643310546875,-35.21441650390625,6.89739990234375,14.606639862060547
1776870287615680300,0.71268017578125,-35.28239440917969,7.3222503662109375,14.800804138183594
1776870287625717200,0.72271728515625,-35.12312316894531,7.802040100097656,15.096050262451172
1776870287635754000,0.73275390625,-34.22222900390625,8.61090087890625,15.945152282714844
1776870287645791200,0.742791259765625,-33.78269958496094,9.2840576171875,16.05621337890625
1776870287655829200,0.752829345703125,-34.124473571777344,10.14678955078125,15.847824096679688
1776870287665866200,0.7628662109375,-33.57147216796875,11.333305358886719,15.692607879638672
1776870287675903200,0.7729033203125,-33.154937744140625,12.533905029296875,15.542831420898438
1776870287685940200,0.782940185546875,-33.340309143066406,13.7528076171875,14.301078796386719
1776870287695977200,0.792977294921875,-33.04540252685547,15.432876586914062,13.422889709472656
1776870287706014200,0.80301416015625,-32.30265808105469,17.07965087890625,12.712074279785156
1776870287716051200,0.81305126953125,-31.42529296875,18.773292541503906,11.94144058227539
1776870287726089200,0.823089111328125,-30.740737915039062,20.44549560546875,10.866462707519531
1776870287736126200,0.833126220703125,-30.52080535888672,21.980674743652344,9.164237976074219
1776870287746163200,0.8431630859375,-29.658706665039062,23.368736267089844,8.025321960449219
1776870287756200200,0.8532001953125,-28.730789184570312,24.798690795898438,6.844268798828125
1776870287766237200,0.8632373046875,-27.917495727539062,26.473342895507812,5.202568054199219
1776870287776274200,0.873274169921875,-27.414794921875,27.74272918701172,3.4767074584960938
1776870287786312200,0.883312255859375,-26.177383422851562,29.084060668945312,2.1859703063964844
1776870287796349200,0.89334912109375,-24.523208618164062,30.386024475097656,1.0224990844726562
1776870287806386200,0.90338623046875,-22.858993530273438,31.783058166503906,0.11602783203125
1776870287816423200,0.913423095703125,-21.467987060546875,32.7490234375,-0.9756507873535156
1776870287826460200,0.923460205078125,-19.954498291015625,34.029144287109375,-1.9594078063964844
1776870287836497400,0.933497314453125,-18.019973754882812,34.95854187011719,-2.3961830139160156
1776870287846534100,0.9435341796875,-16.759124755859375,35.79570770263672,-3.231281280517578
1776870287856572200,0.953572265625,-14.888313293457031,36.49292755126953,-3.207721710205078
1776870287866609200,0.963609130859375,-13.4718017578125,36.98223876953125,-3.513317108154297
1776870287876646400,0.973646484375,-12.312248229980469,37.44635772705078,-3.6627159118652344
1776870287886683100,0.98368310546875,-10.910118103027344,37.95825958251953,-3.946460723876953
1776870287896720100,0.99372021484375,-9.934524536132812,38.38408660888672,-4.248546600341797
1776870287906757000,1.003757080078125,-8.561431884765625,39.052818298339844,-4.050296783447266
1776870287916794400,1.01379443359375,-7.1295318603515625,39.463844299316406,-3.4559974670410156
1776870287926832000,1.02383203125,-6.203590393066406,39.830596923828125,-2.965770721435547
1776870287936870100,1.0338701171875,-4.850364685058594,40.14159393310547,-2.3495445251464844
1776870287946907400,1.043907470703125,-4.752471923828125,40.08819580078125,-2.1433982849121094
1776870287956944100,1.053944091796875,-4.00421142578125,40.264076232910156,-1.5979957580566406
1776870287966982100,1.063982177734375,-3.4328384399414062,40.414581298828125,-0.7816200256347656
1776870287977019400,1.074019287109375,-3.123748779296875,40.41594696044922,-0.12671661376953125
1776870287987056000,1.08405615234375,-3.2069778442382812,40.43372344970703,0.4233856201171875
1776870287997093000,1.094093017578125,-3.126556396484375,40.53535461425781,1.2225875854492188
1776870288007130000,1.104130126953125,-3.4341201782226562,40.52055358886719,1.7965545654296875
1776870288017167000,1.1141669921875,-3.66864013671875,40.36182403564453,2.3316116333007812
1776870288027204400,1.124204345703125,-4.0613250732421875,40.29254913330078,2.9165573120117188
1776870288037242000,1.1342421875,-4.476539611816406,40.10747528076172,3.75201416015625
1776870288047279000,1.144279052734375,-5.566917419433594,39.93035888671875,3.998310089111328
1776870288057316400,1.15431640625,-5.95391845703125,39.8284912109375,4.8228759765625
1776870288067353300,1.164353271484375,-6.205863952636719,39.688941955566406,5.705039978027344
1776870288077390000,1.17439013671875,-6.8711700439453125,39.554725646972656,6.204875946044922
1776870288087427000,1.184427001953125,-7.6844940185546875,39.11390686035156,6.633884429931641
1776870288097465300,1.19446533203125,-8.486038208007812,38.820472717285156,7.036460876464844
1776870288107502300,1.20450244140625,-9.208213806152344,38.482574462890625,7.744007110595703
1776870288117539000,1.2145390625,-9.879997253417969,38.175537109375,8.433631896972656
1776870288127576000,1.224576171875,-10.509628295898438,37.96311950683594,8.920597076416016
1776870288137613300,1.23461328125,-11.16949462890625,37.484901428222656,9.625808715820312
1776870288147650300,1.244650390625,-11.518180847167969,37.06404113769531,10.492076873779297
1776870288157688000,1.25468798828125,-12.14495849609375,36.64662170410156,11.109485626220703
1776870288167725000,1.26472509765625,-12.366233825683594,36.20555114746094,11.94863510131836
1776870288177762300,1.27476220703125,-12.812088012695312,35.79564666748047,12.623886108398438
1776870288187799300,1.28479931640625,-13.536842346191406,35.393287658691406,13.145854949951172
1776870288197836300,1.294836181640625,-13.832542419433594,34.94610595703125,13.781307220458984
1776870288207873000,1.304873046875,-14.204277038574219,34.672767639160156,14.122978210449219
1776870288217910300,1.31491015625,-14.545120239257812,34.45552062988281,14.36517333984375
1776870288227948300,1.3249482421875,-14.586585998535156,34.02787780761719,14.674694061279297
1776870288237985000,1.334985107421875,-15.061592102050781,33.78083038330078,15.118755340576172
1776870288248022300,1.345022216796875,-15.164947509765625,33.54308319091797,15.460315704345703
1776870288258059300,1.355059326171875,-15.022933959960938,33.429901123046875,15.862598419189453
1776870288268096300,1.36509619140625,-15.191108703613281,33.28660583496094,16.03304672241211
1776870288278133200,1.37513330078125,-15.432670593261719,32.88926696777344,16.117774963378906
1776870288288171300,1.385171142578125,-15.423072814941406,32.88384246826172,16.392982482910156
1776870288298208300,1.395208251953125,-15.613090515136719,32.70893859863281,16.578536987304688
1776870288308245200,1.405245361328125,-15.016609191894531,32.65745544433594,16.98800277709961
1776870288318282200,1.4152822265625,-15.375320434570312,32.44596862792969,16.996932983398438
1776870288328319200,1.4253193359375,-15.526466369628906,32.5,16.848438262939453
1776870288338356200,1.435356201171875,-15.137046813964844,32.61815643310547,17.39818572998047
1776870288348394200,1.445394287109375,-15.302337646484375,32.49425506591797,17.650466918945312
1776870288358431000,1.455430908203125,-15.178024291992188,32.47974395751953,17.801376342773438
1776870288368468200,1.46546826171875,-15.510040283203125,32.31806945800781,17.86264419555664
1776870288378505200,1.475505126953125,-15.619438171386719,32.15284729003906,17.88809585571289
1776870288388542200,1.485542236328125,-15.534904479980469,32.009910583496094,18.05887222290039
1776870288398579200,1.4955791015625,-15.50347900390625,31.96233367919922,18.061649322509766
1776870288408617200,1.5056171875,-15.494918823242188,31.857177734375,18.261722564697266
1776870288418654200,1.515654296875,-15.605461120605469,31.874908447265625,18.010562896728516
1776870288428691200,1.525691162109375,-15.809135437011719,31.865966796875,17.874805450439453
1776870288438728200,1.535728271484375,-15.823165893554688,31.866783142089844,18.05370330810547
1776870288448765200,1.54576513671875,-15.821815490722656,31.660194396972656,18.300296783447266
1776870288458802200,1.55580224609375,-15.961006164550781,31.55938720703125,18.41455841064453
1776870288468839200,1.565839111328125,-16.558631896972656,31.391098022460938,18.16623306274414
1776870288478877200,1.575877197265625,-16.884353637695312,30.92076873779297,18.392833709716797
1776870288488914200,1.5859140625,-17.04730987548828,30.825790405273438,18.594181060791016
1776870288498951200,1.595951171875,-17.3187255859375,30.623863220214844,18.74209976196289
1776870288508988200,1.60598828125,-17.798431396484375,30.467422485351562,18.531829833984375
1776870288519025200,1.616025146484375,-18.090667724609375,30.328399658203125,18.594093322753906
1776870288529062100,1.626062255859375,-17.833152770996094,30.101699829101562,19.11968994140625
1776870288539100200,1.63610009765625,-17.94061279296875,29.965248107910156,19.243648529052734
1776870288549137200,1.64613720703125,-18.44256591796875,29.838172912597656,19.23443603515625
1776870288559174400,1.65617431640625,-18.850784301757812,29.573760986328125,19.287933349609375
1776870288569211100,1.666211181640625,-19.055740356445312,29.426300048828125,19.386119842529297
1776870288579248000,1.676248046875,-19.055740356445312,29.426300048828125,19.386119842529297
1776870288589285000,1.68628515625,-19.21092987060547,29.152854919433594,19.4923095703125
1776870288599323400,1.696323486328125,-19.7889404296875,28.97241973876953,19.517982482910156
1776870288609360100,1.706360107421875,-20.03870391845703,28.590232849121094,19.45404052734375
1776870288619397000,1.716397216796875,-20.30792236328125,28.346153259277344,19.351360321044922
1776870288629434000,1.72643408203125,-20.265411376953125,28.273666381835938,19.537967681884766
1776870288639471400,1.736471435546875,-20.213966369628906,28.238494873046875,19.765056610107422
1776870288649508400,1.74650830078125,-20.709320068359375,28.1702880859375,19.504730224609375
1776870288659546000,1.756546142578125,-20.38964080810547,28.311325073242188,19.62838363647461
1776870288669583400,1.766583251953125,-20.4581298828125,28.20263671875,19.530555725097656
1776870288679620400,1.776620361328125,-19.947410583496094,28.333114624023438,19.892261505126953
1776870288689657000,1.786656982421875,-19.690711975097656,28.363502502441406,20.01651382446289
1776870288699694000,1.796694091796875,-19.867431640625,28.301246643066406,20.105712890625
1776870288709731000,1.80673095703125,-20.121070861816406,28.42174530029297,19.922725677490234
1776870288719768300,1.816768310546875,-20.185096740722656,28.354736328125,19.762020111083984
1776870288729806000,1.82680615234375,-20.004173278808594,28.38671875,19.946205139160156
1776870288739843000,1.836843017578125,-19.803016662597656,28.505783081054688,19.9273681640625
1776870288749880300,1.84688037109375,-19.83190155029297,28.493011474609375,19.917606353759766
1776870288759917300,1.856917236328125,-20.001113891601562,28.570068359375,19.76795196533203
1776870288769954300,1.866954345703125,-20.105880737304688,28.52326202392578,19.69744873046875
1776870288779991000,1.876990966796875,-20.125816345214844,28.563743591308594,19.6307373046875
1776870288790029300,1.887029296875,-20.44025421142578,28.496055603027344,19.628604888916016
1776870288800066300,1.89706640625,-20.808868408203125,28.395156860351562,19.24753189086914
1776870288810103300,1.907103271484375,-20.94873809814453,28.423973083496094,19.244285583496094
1776870288820140000,1.91714013671875,-21.220130920410156,28.34588623046875,19.377639770507812
1776870288830177300,1.92717724609375,-21.62993621826172,28.316368103027344,19.018138885498047
1776870288840214300,1.93721435546875,-21.469459533691406,28.03900146484375,19.301311492919922
1776870288850252000,1.947251953125,-21.717239379882812,28.02997589111328,18.996570587158203
1776870288860289000,1.9572890625,-21.918121337890625,28.019935607910156,18.889610290527344
1776870288870326300,1.967326171875,-22.23169708251953,27.931358337402344,18.783096313476562
1776870288880363300,1.97736328125,-22.140777587890625,27.70623016357422,19.04058074951172
1776870288890400300,1.987400146484375,-22.182022094726562,27.7109375,19.23281478881836
1776870288900437000,1.99743701171875,-22.59893035888672,27.444175720214844,18.95151138305664
1776870288910475300,2.007475341796875,-22.69428253173828,27.565895080566406,19.06341552734375
1776870288920512300,2.01751220703125,-22.946815490722656,27.297080993652344,18.975101470947266
1776870288930549200,2.02754931640625,-22.980690002441406,27.288352966308594,18.995704650878906
1776870288940586200,2.037586181640625,-23.34374237060547,26.92595672607422,18.870990753173828
1776870288950623200,2.047623291015625,-23.474716186523438,26.829452514648438,18.994434356689453
1776870288960660200,2.05766015625,-23.647018432617188,26.625030517578125,19.088241577148438
1776870288970698200,2.0676982421875,-23.689849853515625,26.37145233154297,19.32918930053711
1776870288980735200,2.0777353515625,-23.90955352783203,26.059219360351562,19.64181137084961
1776870288990772200,2.087772216796875,-23.844573974609375,25.70374298095703,20.033660888671875
1776870289000809200,2.097809326171875,-23.89879608154297,25.20709228515625,20.433685302734375
1776870289010846200,2.10784619140625,-24.086456298828125,24.753448486328125,20.725326538085938
1776870289020883200,2.11788330078125,-24.320098876953125,24.107452392578125,21.307342529296875
1776870289030920200,2.127920166015625,-24.333839416503906,23.604042053222656,21.745868682861328
1776870289040958200,2.137958251953125,-24.230499267578125,23.208602905273438,22.039623260498047
1776870289050995500,2.147995361328125,-24.407745361328125,22.746192932128906,22.367290496826172
1776870289061032200,2.1580322265625,-24.53430938720703,22.33990478515625,22.602344512939453
1776870289071069200,2.168069091796875,-24.687660217285156,21.74083709716797,22.982181549072266
1776870289081106200,2.178106201171875,-24.804122924804688,21.105323791503906,23.441402435302734
1776870289091143200,2.18814306640625,-24.37158203125,20.746742248535156,24.18329620361328
1776870289101181200,2.19818115234375,-24.02423858642578,20.037063598632812,24.92624282836914
1776870289111218200,2.20821826171875,-23.581016540527344,19.70122528076172,25.488117218017578
1776870289121255200,2.218255126953125,-23.020164489746094,18.798240661621094,26.470703125
1776870289131292400,2.22829248046875,-23.14275360107422,17.95758056640625,26.734375
1776870289141329400,2.238329345703125,-23.46819305419922,17.43328857421875,26.597660064697266
1776870289151366100,2.2483662109375,-23.573776245117188,16.802696228027344,26.821529388427734
1776870289161404200,2.258404052734375,-23.9456787109375,16.405349731445312,26.894699096679688
1776870289171441400,2.26844140625,-23.77814483642578,16.025711059570312,27.152183532714844
1776870289181478100,2.27847802734375,-23.704994201660156,15.897659301757812,27.41848373413086
1776870289191515100,2.28851513671875,-24.12335205078125,15.600845336914062,26.95147705078125
1776870289201552100,2.29855224609375,-24.418479919433594,15.155517578125,27.020748138427734
1776870289211589400,2.30858935546875,-24.643936157226562,14.780960083007812,27.019001007080078
1776870289221626400,2.31862646484375,-24.7977294921875,14.469459533691406,26.99142074584961
1776870289231664000,2.3286640625,-25.192710876464844,14.105133056640625,26.759662628173828
1776870289241701400,2.338701416015625,-25.24150848388672,13.919929504394531,26.730873107910156
1776870289251738400,2.34873828125,-24.972694396972656,14.063423156738281,26.93036651611328
1776870289261775400,2.358775390625,-24.79595184326172,14.008506774902344,27.169090270996094
1776870289271812000,2.36881201171875,-24.446151733398438,14.113548278808594,26.96688461303711
1776870289281849000,2.37884912109375,-24.52667236328125,14.173240661621094,26.66375732421875
1776870289291887400,2.388887451171875,-24.815261840820312,14.684211730957031,26.303264617919922
1776870289301924400,2.39892431640625,-25.26409149169922,14.989097595214844,25.562755584716797
1776870289311961000,2.408961181640625,-25.92577362060547,15.757217407226562,24.703449249267578
1776870289321998300,2.418998291015625,-26.74224853515625,16.559585571289062,23.26376724243164
1776870289332035300,2.429035400390625,-27.22650146484375,17.53118896484375,21.938899993896484
1776870289342072300,2.439072265625,-27.704551696777344,18.502792358398438,20.745914459228516
1776870289352109300,2.449109375,-27.827301025390625,19.304092407226562,19.755775451660156
1776870289362147300,2.459147216796875,-27.89380645751953,20.15296173095703,18.671939849853516
1776870289372184300,2.469184326171875,-28.549522399902344,21.004241943359375,17.491729736328125
1776870289382221300,2.47922119140625,-28.512481689453125,21.794113159179688,16.508403778076172
1776870289392258000,2.489258056640625,-28.45763397216797,22.452606201171875,15.548812866210938
1776870289402295300,2.49929541015625,-27.85755157470703,23.253097534179688,15.06344223022461
1776870289412332300,2.509332275390625,-27.363121032714844,23.97283172607422,14.341064453125
1776870289422370300,2.519370361328125,-27.068626403808594,24.59349822998047,13.378116607666016
1776870289432407000,2.529406982421875,-26.513992309570312,25.21875,12.238567352294922
1776870289442444300,2.5394443359375,-26.27550506591797,25.66559600830078,11.259063720703125
1776870289452481300,2.549481201171875,-25.707183837890625,26.22185516357422,10.39780044555664
1776870289462518300,2.559518310546875,-25.45111083984375,26.55640411376953,9.539569854736328
1776870289472555300,2.56955517578125,-25.498153686523438,26.934295654296875,7.937774658203125
1776870289482593300,2.57959326171875,-25.3612060546875,27.378273010253906,6.474178314208984
1776870289492630300,2.58963037109375,-25.37445068359375,28.111785888671875,4.552680969238281
1776870289502667300,2.599667236328125,-25.497055053710938,28.600418090820312,2.5213470458984375
1776870289512704300,2.609704345703125,-25.021530151367188,29.015289306640625,0.7720680236816406
1776870289522741200,2.6197412109375,-24.469863891601562,29.58429718017578,-0.36313629150390625
1776870289532778200,2.6297783203125,-23.681495666503906,30.08782196044922,-1.0740623474121094
1776870289542815200,2.639815185546875,-22.577346801757812,30.93122100830078,-1.3741188049316406
1776870289552853200,2.649853271484375,-21.655113220214844,31.91291046142578,-1.9030723571777344
1776870289562890200,2.65989013671875,-20.599143981933594,32.494834899902344,-2.5183067321777344
1776870289572927200,2.66992724609375,-19.27997589111328,33.27625274658203,-3.3425254821777344
1776870289582964200,2.679964111328125,-18.025436401367188,34.111114501953125,-4.550296783447266
1776870289593001500,2.69000146484375,-16.960304260253906,34.597320556640625,-6.038761138916016
1776870289603038200,2.7000380859375,-15.734550476074219,34.900489807128906,-7.364025115966797
1776870289613076200,2.710076171875,-15.047126770019531,34.967247009277344,-8.847774505615234
1776870289623113200,2.72011328125,-14.382179260253906,34.65833282470703,-10.535755157470703
1776870289633150500,2.730150390625,-14.346733093261719,34.64141845703125,-12.38363265991211
1776870289643187200,2.740187255859375,-14.447509765625,34.30796813964844,-14.04379653930664
1776870289653224200,2.75022412109375,-14.726264953613281,33.6063232421875,-15.556415557861328
1776870289663261200,2.76026123046875,-14.780799865722656,32.86137390136719,-17.375202178955078
1776870289673299200,2.77029931640625,-14.580764770507812,31.992080688476562,-19.185169219970703
1776870289683336200,2.780336181640625,-13.983116149902344,31.000350952148438,-21.008960723876953
1776870289693373200,2.790373291015625,-13.053703308105469,29.99517059326172,-22.85495376586914
1776870289703410200,2.80041015625,-12.690940856933594,28.88921356201172,-24.496105194091797
1776870289713447400,2.810447509765625,-13.014533996582031,27.643287658691406,-26.061527252197266
1776870289723484200,2.820484130859375,-12.394660949707031,27.307640075683594,-26.72427749633789
1776870289733521200,2.830521240234375,-11.931015014648438,26.74895477294922,-27.049854278564453
1776870289743559400,2.840559326171875,-11.368331909179688,26.622604370117188,-27.131229400634766
1776870289753596400,2.850596435546875,-11.032516479492188,26.9569091796875,-27.047100067138672
1776870289763633200,2.860633056640625,-11.133209228515625,26.966201782226562,-27.07552719116211
1776870289773670100,2.870670166015625,-10.793312072753906,27.195655822753906,-26.57766342163086
1776870289783707100,2.88070703125,-10.763519287109375,27.360145568847656,-26.381145477294922
1776870289793744400,2.890744384765625,-10.540328979492188,27.60887908935547,-26.007488250732422
1776870289803782100,2.9007822265625,-10.411331176757812,27.684616088867188,-26.00296401977539
1776870289813819100,2.910819091796875,-10.421882629394531,27.920143127441406,-26.063274383544922
1776870289823856400,2.9208564453125,-10.917655944824219,27.89350128173828,-26.18392562866211
1776870289833893400,2.930893310546875,-10.665237426757812,28.117263793945312,-25.696277618408203
1776870289843930400,2.940930419921875,-10.355323791503906,28.25983428955078,-25.337718963623047
1776870289853967000,2.950967041015625,-10.570037841796875,28.47655487060547,-25.218944549560547
1776870289864005400,2.96100537109375,-10.725128173828125,28.54088592529297,-25.14328384399414
1776870289874042400,2.97104248046875,-10.810127258300781,28.601226806640625,-24.97586441040039
1776870289884079000,2.9810791015625,-10.864982604980469,28.663841247558594,-24.71511459350586
1776870289894116000,2.9911162109375,-11.04315185546875,28.614166259765625,-24.466533660888672
1776870289904153300,3.0011533203125,-11.152259826660156,28.582366943359375,-24.396282196044922
1776870289914190300,3.0111904296875,-10.918922424316406,28.667709350585938,-24.27169418334961
1776870289924227300,3.021227294921875,-11.012359619140625,28.7362060546875,-24.345699310302734
1776870289934265000,3.03126513671875,-11.171966552734375,28.77446746826172,-24.277599334716797
1776870289944302800,3.041302734375,-11.114501953125,28.843704223632812,-24.346416473388672
1776870289954339800,3.05133984375,-11.240753173828125,28.766212463378906,-24.647815704345703
1776870289964376800,3.061376953125,-11.145820617675781,28.69805908203125,-24.508541107177734
1776870289974413800,3.071413818359375,-11.102134704589844,28.66027069091797,-24.416187286376953
1776870289984450800,3.081450927734375,-10.943092346191406,28.97650146484375,-24.448223114013672
1776870289994488800,3.09148876953125,-11.051429748535156,28.82213592529297,-24.64633560180664
1776870290004525800,3.10152587890625,-11.085784912109375,28.962127685546875,-24.658931732177734
1776870290014562800,3.111562744140625,-10.909828186035156,29.041343688964844,-24.472232818603516
1776870290024599800,3.121599853515625,-11.026969909667969,29.103515625,-24.31723403930664
1776870290034636800,3.13163671875,-10.964523315429688,29.10992431640625,-24.235179901123047
1776870290044673800,3.141673828125,-11.056419372558594,29.203453063964844,-24.327327728271484
1776870290054710800,3.151710693359375,-11.315956115722656,29.134979248046875,-24.375308990478516
1776870290064748800,3.161748779296875,-11.271583557128906,29.28173065185547,-24.185443878173828
1776870290074786000,3.1717861328125,-11.099113464355469,29.447662353515625,-24.025440216064453
1776870290084822800,3.18182275390625,-11.155067443847656,29.57483673095703,-23.88913345336914
1776870290094859800,3.19185986328125,-11.750450134277344,29.347396850585938,-23.956432342529297
1776870290104896800,3.201896728515625,-11.715606689453125,29.554061889648438,-23.64572525024414
1776870290114933800,3.211933837890625,-11.892135620117188,29.448387145996094,-23.415409088134766
1776870290124971800,3.2219716796875,-11.846458435058594,29.695152282714844,-23.272701263427734
1776870290135008800,3.2320087890625,-12.063133239746094,29.684249877929688,-23.308391571044922
1776870290145045800,3.242045654296875,-12.516265869140625,29.758338928222656,-23.377483367919922
1776870290155083000,3.2520830078125,-12.530059814453125,29.93431854248047,-23.152606964111328
1776870290165120000,3.2621201171875,-12.46112060546875,29.876663208007812,-23.026996612548828
1776870290175156700,3.27215673828125,-12.311119079589844,29.84222412109375,-22.645092010498047
1776870290185193700,3.28219384765625,-12.364608764648438,29.8206787109375,-22.634532928466797
1776870290195232000,3.29223193359375,-12.68963623046875,29.734115600585938,-22.776042938232422
1776870290205268700,3.302268798828125,-12.277366638183594,29.681869506835938,-22.688968658447266
1776870290215305700,3.3123056640625,-12.238288879394531,29.55554962158203,-22.888729095458984
1776870290225342700,3.3223427734375,-12.335067749023438,29.563926696777344,-22.51510238647461
1776870290235380000,3.3323798828125,-12.210601806640625,29.690101623535156,-22.76932144165039
1776870290245417000,3.3424169921875,-12.151199340820312,29.723129272460938,-22.817623138427734
1776870290255454700,3.352454833984375,-12.8912353515625,29.626388549804688,-23.373004913330078
1776870290265491700,3.36249169921875,-12.498435974121094,29.699264526367188,-22.98038101196289
1776870290275529000,3.372529052734375,-12.07794189453125,29.637184143066406,-22.649028778076172
1776870290285566000,3.38256591796875,-12.16162109375,29.592437744140625,-22.548206329345703
1776870290295602700,3.392602783203125,-12.216018676757812,29.67554473876953,-22.53072738647461
1776870290305639700,3.4026396484375,-12.150100708007812,29.874725341796875,-22.618839263916016
1776870290315678000,3.412677978515625,-11.947868347167969,29.929962158203125,-22.456790924072266
1776870290325715000,3.42271484375,-12.150352478027344,30.023727416992188,-22.539424896240234
1776870290335751700,3.432751708984375,-12.447563171386719,30.1014404296875,-22.966320037841797
1776870290345788700,3.44278857421875,-12.4024658203125,29.921775817871094,-22.738506317138672
1776870290355826000,3.452825927734375,-12.063270568847656,30.05553436279297,-22.687076568603516
1776870290365863000,3.46286279296875,-12.200584411621094,29.91278839111328,-22.508098602294922
1776870290375900000,3.47289990234375,-12.389877319335938,30.077163696289062,-22.62894058227539
1776870290385938000,3.48293798828125,-12.241676330566406,29.885940551757812,-22.403034210205078
1776870290395975000,3.492974853515625,-12.300735473632812,29.88898468017578,-22.351421356201172
1776870290406012000,3.503011962890625,-12.146553039550781,29.962249755859375,-22.427776336669922
1776870290416048600,3.513048583984375,-12.036018371582031,29.937110900878906,-22.388797760009766
1776870290426086000,3.5230859375,-12.202857971191406,29.98407745361328,-22.55910873413086
1776870290436123000,3.533122802734375,-11.970726013183594,29.954620361328125,-22.329998016357422
1776870290446161000,3.543160888671875,-12.22015380859375,30.111953735351562,-22.429340362548828
1776870290456197600,3.55319775390625,-12.22015380859375,30.111953735351562,-22.429340362548828
1776870290466235000,3.56323486328125,-11.916778564453125,29.925079345703125,-22.32650375366211
1776870290476271900,3.57327197265625,-12.006515502929688,29.71099853515625,-22.327892303466797
1776870290486308900,3.583308837890625,-12.249740600585938,29.87895965576172,-22.50271987915039
1776870290496345900,3.593345947265625,-12.070465087890625,29.987937927246094,-22.294475555419922
1776870290506382800,3.6033828125,-12.025138854980469,30.082313537597656,-22.323673248291016
1776870290516420900,3.6134208984375,-11.973678588867188,30.01988983154297,-22.106334686279297
1776870290526457900,3.623457763671875,-11.897415161132812,30.004600524902344,-22.06240463256836
1776870290536494800,3.633494873046875,-12.264122009277344,29.96363067626953,-22.298465728759766
1776870290546531800,3.64353173828125,-12.176361083984375,30.194801330566406,-22.21212387084961
1776870290556568800,3.65356884765625,-12.14056396484375,30.033035278320312,-22.19424819946289
1776870290566605800,3.663605712890625,-12.234481811523438,30.215667724609375,-21.952167510986328
1776870290576643800,3.673643798828125,-12.736320495605469,30.188751220703125,-22.29250717163086
1776870290586680800,3.683680908203125,-12.513015747070312,30.066482543945312,-22.126644134521484
1776870290596717800,3.6937177734375,-12.493942260742188,30.087989807128906,-21.974658966064453
1776870290606754800,3.7037548828125,-12.454849243164062,30.047996520996094,-21.941158294677734
1776870290616791800,3.713791748046875,-12.561439514160156,29.943603515625,-22.245128631591797
1776870290626828800,3.723828857421875,-12.593902587890625,29.965011596679688,-22.25558853149414
1776870290636865800,3.73386572265625,-12.622886657714844,29.95458984375,-22.211261749267578
1776870290646903800,3.74390380859375,-12.504226684570312,30.104331970214844,-21.984615325927734
1776870290656941000,3.753941162109375,-12.677337646484375,30.176124572753906,-21.990734100341797
1776870290666977800,3.763977783203125,-12.645088195800781,30.06396484375,-21.839412689208984
1776870290677014800,3.774014892578125,-13.18115234375,30.03411865234375,-22.121959686279297
1776870290687051800,3.7840517578125,-13.092247009277344,30.074005126953125,-21.952396392822266
1776870290697088800,3.7940888671875,-13.249282836914062,30.059860229492188,-21.872699737548828
1776870290707126800,3.804126708984375,-13.344123840332031,30.081504821777344,-21.893726348876953
1776870290717163800,3.814163818359375,-13.559257507324219,29.806838989257812,-22.055133819580078
1776870290727200800,3.82420068359375,-13.509033203125,29.949050903320312,-21.840740203857422
1776870290737238000,3.834238037109375,-13.7586669921875,29.827796936035156,-21.676654815673828
1776870290747274800,3.844274658203125,-13.763931274414062,29.895416259765625,-21.61092758178711
1776870290757311700,3.854311767578125,-13.83233642578125,30.015052795410156,-21.45718002319336
1776870290767348700,3.8643486328125,-14.175941467285156,29.9329833984375,-21.355045318603516
1776870290777387000,3.874386962890625,-14.691612243652344,29.89490509033203,-21.456378936767578
1776870290787423700,3.884423828125,-14.981300354003906,29.980865478515625,-21.27218246459961
1776870290797460700,3.894460693359375,-15.100318908691406,29.95136260986328,-21.107364654541016
1776870290807497700,3.904497802734375,-15.376708984375,29.665206909179688,-20.96457290649414
1776870290817535000,3.914534912109375,-15.925338745117188,29.68487548828125,-20.87302017211914
1776870290827572000,3.924572021484375,-16.611602783203125,29.730987548828125,-20.973941802978516
1776870290837609700,3.934609619140625,-16.973594665527344,29.672576904296875,-20.80605697631836
1776870290847646700,3.944646728515625,-17.253555297851562,29.293594360351562,-20.14101791381836
1776870290857684000,3.95468408203125,-17.61315155029297,29.009437561035156,-20.052776336669922
1776870290867721000,3.964720947265625,-18.196571350097656,28.769981384277344,-19.952754974365234
1776870290877757700,3.9747578125,-18.601150512695312,28.7921142578125,-20.016399383544922
1776870290887794700,3.984794677734375,-18.692237854003906,28.756057739257812,-19.897533416748047
1776870290897830700,3.99483056640625,-18.68260955810547,28.436386108398438,-19.647533416748047
1776870290907868000,4.004867919921875,-19.625823974609375,28.256248474121094,-19.87649917602539
1776870290917905000,4.01490478515625,-20.296859741210938,27.95355224609375,-19.683048248291016
1776870290927942700,4.024942626953125,-20.510589599609375,27.74822235107422,-19.279483795166016
1776870290937980000,4.03497998046875,-21.15540313720703,27.480743408203125,-19.078975677490234
1776870290948016400,4.045016357421875,-21.853866577148438,27.323463439941406,-19.022808074951172
1776870290958053400,4.055053466796875,-22.57568359375,26.864410400390625,-18.953418731689453
1776870290968090600,4.065090576171875,-23.16968536376953,26.615692138671875,-19.041149139404297
1776870290978127400,4.07512744140625,-24.181541442871094,26.238082885742188,-19.41085433959961
1776870290988165400,4.085165283203125,-24.539512634277344,25.910797119140625,-19.11965560913086
1776870290998202600,4.09520263671875,-25.13092803955078,25.487998962402344,-18.876789093017578
1776870291008239600,4.105239501953125,-25.371429443359375,25.22711944580078,-18.559551239013672
1776870291018276400,4.1152763671875,-25.51929473876953,25.00196075439453,-18.21847915649414
1776870291028313300,4.125313232421875,-25.802291870117188,24.677391052246094,-17.919727325439453
1776870291038350300,4.135350341796875,-26.362831115722656,24.18793487548828,-17.747486114501953
1776870291048387600,4.1453876953125,-26.41698455810547,24.015350341796875,-17.042217254638672
1776870291058425300,4.15542529296875,-26.826255798339844,23.799774169921875,-16.651180267333984
1776870291068462300,4.16546240234375,-27.761016845703125,23.269378662109375,-16.78109359741211
1776870291078499600,4.17549951171875,-27.69426727294922,23.1748046875,-16.024127960205078
1776870291088536600,4.18553662109375,-28.118431091308594,22.8916015625,-15.276363372802734
1776870291098573600,4.195573486328125,-28.760513305664062,22.244247436523438,-14.940425872802734
1776870291108610300,4.2056103515625,-28.920448303222656,22.066612243652344,-14.139041900634766
1776870291118648600,4.215648681640625,-29.715660095214844,21.63262176513672,-13.910137176513672
1776870291128685600,4.225685546875,-29.453956604003906,21.356170654296875,-12.637683868408203
1776870291138722300,4.235722412109375,-30.031326293945312,21.09069061279297,-12.104198455810547
1776870291148759300,4.24575927734375,-30.776268005371094,20.8221435546875,-11.671558380126953
1776870291158796500,4.255796630859375,-30.739242553710938,20.331405639648438,-10.612316131591797
1776870291168833500,4.26583349609375,-31.140762329101562,19.92596435546875,-9.814044952392578
1776870291178870500,4.27587060546875,-31.35338592529297,19.46949005126953,-8.859004974365234
1776870291188908300,4.285908203125,-31.679641723632812,19.069435119628906,-8.170207977294922
1776870291198945500,4.295945556640625,-32.36920166015625,18.6021728515625,-7.941219329833984
1776870291208982500,4.305982421875,-32.152740478515625,18.13616180419922,-7.200138092041016
1776870291219019500,4.31601953125,-32.404869079589844,17.43914794921875,-6.708637237548828
1776870291229056300,4.32605615234375,-32.560401916503906,16.810302734375,-6.095226287841797
1776870291239093500,4.336093505859375,-33.42781066894531,15.984466552734375,-6.099292755126953
1776870291249131500,4.346131591796875,-34.18359375,15.349365234375,-6.122676849365234
1776870291259168500,4.35616845703125,-33.672149658203125,14.698921203613281,-5.344112396240234
1776870291269205500,4.36620556640625,-33.897186279296875,13.980056762695312,-5.038448333740234
1776870291279242500,4.376242431640625,-34.15227508544922,12.998237609863281,-4.773403167724609
1776870291289279500,4.386279541015625,-34.430633544921875,12.084243774414062,-4.535037994384766
1776870291299316500,4.39631640625,-35.26182556152344,11.258033752441406,-4.861217498779297
1776870291309353500,4.406353515625,-34.90674591064453,10.455223083496094,-4.209911346435547
1776870291319391500,4.4163916015625,-35.03314208984375,9.601654052734375,-3.8542442321777344
1776870291329428500,4.426428466796875,-35.441314697265625,8.643302917480469,-3.6571083068847656
1776870291339465500,4.436465576171875,-35.259002685546875,7.73333740234375,-3.3231773376464844
1776870291349502500,4.44650244140625,-35.82825469970703,6.760917663574219,-3.588001251220703
1776870291359539500,4.45653955078125,-35.28785705566406,5.8217010498046875,-3.0242652893066406
1776870291369576400,4.466576416015625,-35.313385009765625,4.968780517578125,-2.707355499267578
1776870291379614500,4.476614501953125,-35.92488098144531,3.966461181640625,-3.085865020751953
1776870291389651500,4.4866513671875,-35.73844909667969,2.9374008178710938,-2.9657325744628906
1776870291399688400,4.4966884765625,-36.33038330078125,1.84564208984375,-3.0986900329589844
1776870291409725400,4.506725341796875,-35.73187255859375,1.0139312744140625,-2.659534454345703
1776870291419762400,4.516762451171875,-35.98199462890625,-0.24344635009765625,-2.8109703063964844
1776870291429799700,4.526799560546875,-35.719757080078125,-1.093902587890625,-2.782421112060547
1776870291439836400,4.53683642578125,-35.638526916503906,-2.156707763671875,-2.6637611389160156
1776870291449874400,4.54687451171875,-35.52268981933594,-2.7896385192871094,-2.6630821228027344
1776870291459911400,4.556911376953125,-35.171165466308594,-3.5390586853027344,-2.545696258544922
1776870291469948400,4.566948486328125,-35.134796142578125,-4.629940032958984,-2.5755271911621094
1776870291479985400,4.5769853515625,-35.243003845214844,-5.442508697509766,-2.9034690856933594
1776870291490022400,4.5870224609375,-35.14717102050781,-6.2676239013671875,-3.0652198791503906
1776870291500059400,4.597059326171875,-34.855445861816406,-7.045627593994141,-3.071155548095703
1776870291510097400,4.607097412109375,-34.24604034423828,-7.620155334472656,-2.6335411071777344
1776870291520134400,4.617134521484375,-33.4970703125,-8.2642822265625,-2.4082374572753906
1776870291530171400,4.62717138671875,-33.510841369628906,-8.742786407470703,-2.531208038330078
1776870291540208400,4.63720849609375,-33.42237854003906,-9.012134552001953,-2.4852867126464844
1776870291550245600,4.64724560546875,-33.205535888671875,-9.357711791992188,-2.5517234802246094
1776870291560282400,4.657282470703125,-32.65869140625,-9.542617797851562,-2.3517723083496094
1776870291570319400,4.6673193359375,-32.539100646972656,-9.67318344116211,-2.037586212158203
1776870291580357600,4.677357666015625,-32.98164367675781,-9.758865356445312,-2.430156707763672
1776870291590394600,4.68739453125,-32.69268035888672,-9.82760238647461,-2.2257957458496094
1776870291600431400,4.697431396484375,-32.70225524902344,-9.553852081298828,-2.099720001220703
1776870291610468400,4.70746826171875,-32.785133361816406,-9.352405548095703,-1.9861488342285156
1776870291620505600,4.717505615234375,-33.20033264160156,-9.284255981445312,-2.2410011291503906
1776870291630542600,4.72754248046875,-33.92688751220703,-9.252925872802734,-2.823650360107422
1776870291640579600,4.73757958984375,-33.68403625488281,-8.909675598144531,-2.6239280700683594
1776870291650617300,4.747617431640625,-33.916900634765625,-8.632087707519531,-2.5936317443847656
1776870291660654600,4.757654541015625,-33.498748779296875,-8.148178100585938,-2.040019989013672
1776870291670691600,4.767691650390625,-33.680694580078125,-7.6967926025390625,-1.9470939636230469
1776870291680728300,4.777728271484375,-34.214927673339844,-7.251857757568359,-2.400218963623047
1776870291690765300,4.787765380859375,-33.48773956298828,-6.661907196044922,-2.0275230407714844
1776870291700802600,4.797802490234375,-33.83000183105469,-6.0967559814453125,-1.9809913635253906
1776870291710840600,4.807840576171875,-34.12129211425781,-5.508613586425781,-2.0891761779785156
1776870291720877300,4.817877197265625,-34.08009338378906,-4.795661926269531,-2.0515480041503906
1776870291730914300,4.827914306640625,-34.669212341308594,-4.128993988037109,-2.350933074951172
1776870291740951600,4.83795166015625,-34.525779724121094,-3.287975311279297,-2.3395118713378906
1776870291750988500,4.847988525390625,-34.712379455566406,-2.4811973571777344,-2.5925331115722656
1776870291761025500,4.858025634765625,-35.22704315185547,-1.76458740234375,-2.7652015686035156
1776870291771063600,4.8680634765625,-35.20319366455078,-0.743011474609375,-2.670299530029297
1776870291781100500,4.8781005859375,-35.274803161621094,-0.0086822509765625,-2.9489479064941406
1776870291791137500,4.888137451171875,-35.116432189941406,0.92901611328125,-2.9634361267089844
1776870291801174500,4.898174560546875,-35.36729431152344,1.8531494140625,-3.224559783935547
1776870291811211300,4.908211181640625,-35.285743713378906,2.76458740234375,-3.2028541564941406
1776870291821248500,4.91824853515625,-35.285743713378906,2.76458740234375,-3.2028541564941406
1776870291831285500,4.928285400390625,-35.25419616699219,3.7591552734375,-3.507457733154297
1776870291841323300,4.9383232421875,-35.427337646484375,4.545753479003906,-3.612689971923828
1776870291851360500,4.948360595703125,-35.05626678466797,5.615638732910156,-3.5875205993652344
1776870291861397500,4.9583974609375,-35.135276794433594,6.732353210449219,-3.950603485107422
1776870291871434500,4.9684345703125,-34.91056823730469,7.815147399902344,-4.027347564697266
1776870291881471500,4.978471435546875,-34.81658935546875,8.737380981445312,-4.151538848876953
1776870291891508200,4.98850830078125,-34.807220458984375,9.637413024902344,-4.508327484130859
1776870291901546500,4.99854638671875,-34.67066955566406,10.446052551269531,-4.595516204833984
1776870291911583500,5.00858349609375,-34.41626739501953,11.470771789550781,-4.703609466552734
1776870291921620500,5.018620361328125,-34.525230407714844,12.452667236328125,-5.189128875732422
1776870291931657500,5.028657470703125,-34.00511932373047,13.273582458496094,-5.165744781494141
1776870291941694500,5.038694580078125,-33.471229553222656,14.081214904785156,-5.313426971435547
1776870291951731700,5.048731689453125,-33.27983856201172,14.765960693359375,-5.362262725830078
1776870291961769700,5.058769775390625,-32.95811462402344,15.396896362304688,-5.589115142822266
1776870291971806700,5.068806640625,-33.417083740234375,16.019195556640625,-6.244541168212891
1776870291981843700,5.07884375,-32.52276611328125,16.712905883789062,-5.989223480224609
1776870291991880700,5.088880615234375,-32.338890075683594,17.54169464111328,-6.389301300048828
1776870292001917700,5.098917724609375,-31.759788513183594,18.049453735351562,-6.379695892333984
1776870292011954700,5.10895458984375,-31.646820068359375,18.548500061035156,-6.740322113037109
1776870292021992700,5.11899267578125,-31.96424102783203,18.970016479492188,-7.395458221435547
1776870292032029700,5.12902978515625,-31.40093994140625,19.532310485839844,-7.379764556884766
1776870292042066700,5.139066650390625,-31.072525024414062,20.219825744628906,-7.882305145263672
1776870292052103700,5.149103759765625,-30.659629821777344,20.70677947998047,-7.924304962158203
1776870292062140700,5.159140625,-30.51598358154297,21.200637817382812,-8.400218963623047
1776870292072177700,5.169177734375,-30.430618286132812,21.522933959960938,-9.023426055908203
1776870292082215700,5.179215576171875,-29.773513793945312,21.9788818359375,-9.079875946044922
1776870292092252700,5.189252685546875,-29.60582733154297,22.51105499267578,-9.589977264404297
1776870292102289700,5.19928955078125,-29.361831665039062,23.025375366210938,-9.786174774169922
1776870292112326700,5.20932666015625,-29.226905822753906,23.31482696533203,-10.525028228759766
1776870292122364000,5.219364013671875,-29.11951446533203,23.55048370361328,-10.87380599975586
1776870292132400600,5.229400634765625,-28.683135986328125,24.084335327148438,-11.092723846435547
1776870292142438700,5.239438720703125,-28.418548583984375,24.35974884033203,-11.400875091552734
1776870292152475600,5.2494755859375,-28.07044219970703,24.68414306640625,-11.860118865966797
1776870292162513000,5.259512939453125,-27.897743225097656,24.838943481445312,-12.299602508544922
1776870292172549600,5.269549560546875,-27.976760864257812,25.05365753173828,-13.031742095947266
1776870292182586600,5.279586669921875,-27.180335998535156,25.2861328125,-13.06417465209961
1776870292192623600,5.28962353515625,-26.950279235839844,25.691062927246094,-13.577648162841797
1776870292202661600,5.29966162109375,-26.120849609375,25.979415893554688,-13.681941986083984
1776870292212698600,5.30969873046875,-26.06537628173828,26.37865447998047,-14.28824234008789
1776870292222735600,5.319735595703125,-26.142433166503906,26.47644805908203,-14.993968963623047
1776870292232772600,5.329772705078125,-25.35101318359375,26.99803924560547,-15.227039337158203
1776870292242809900,5.339809814453125,-24.90898895263672,27.25920867919922,-15.614315032958984
1776870292252846600,5.3498466796875,-24.368507385253906,27.519142150878906,-15.942943572998047
1776870292262884600,5.359884521484375,-24.606163024902344,27.58098602294922,-16.826412200927734
1776870292272921900,5.369921875,-24.39160919189453,27.92340087890625,-17.21402359008789
1776870292282958800,5.379958740234375,-23.666969299316406,28.140396118164062,-17.343334197998047
1776870292292995600,5.38999560546875,-23.12322998046875,28.59015655517578,-17.741886138916016
1776870292303032600,5.400032470703125,-22.53662109375,28.730636596679688,-17.94918441772461
1776870292313069800,5.41006982421875,-22.260986328125,29.033447265625,-18.441020965576172
1776870292323107800,5.42010791015625,-21.60040283203125,29.14453125,-18.73214340209961
1776870292333144600,5.43014453125,-21.001663208007812,29.46318817138672,-18.755741119384766
1776870292343181600,5.440181640625,-20.731529235839844,29.580596923828125,-19.033344268798828
1776870292353218800,5.45021875,-19.975669860839844,29.768417358398438,-19.15871810913086
1776870292363255800,5.460255859375,-19.47893524169922,29.878677368164062,-19.360034942626953
1776870292373292800,5.470292724609375,-19.162208557128906,30.031829833984375,-19.464466094970703
1776870292383330800,5.480330810546875,-18.616920471191406,30.257896423339844,-19.40744400024414
1776870292393367800,5.490367919921875,-18.441864013671875,30.24640655517578,-19.469776153564453
1776870292403404800,5.50040478515625,-18.463897705078125,30.268081665039062,-19.667301177978516
1776870292413441500,5.510441650390625,-17.915016174316406,30.51012420654297,-19.66165542602539
1776870292423478500,5.520478515625,-17.791763305664062,30.65593719482422,-19.671520233154297
1776870292433515800,5.530515869140625,-17.340164184570312,30.8033447265625,-19.399845123291016
1776870292443553800,5.5405537109375,-17.350433349609375,30.67176055908203,-19.623523712158203
1776870292453590500,5.550590576171875,-16.59247589111328,30.89142608642578,-19.005779266357422
1776870292463627800,5.560627685546875,-16.841262817382812,30.88232421875,-19.401302337646484
1776870292473664800,5.570664794921875,-16.3670654296875,31.03380584716797,-19.387432098388672
1776870292483701800,5.58070166015625,-15.694549560546875,31.158668518066406,-19.199604034423828
1776870292493739500,5.590739501953125,-15.627418518066406,31.018478393554688,-19.542072296142578
1776870292503776800,5.60077685546875,-14.569648742675781,31.191314697265625,-19.304439544677734
1776870292513813800,5.610813720703125,-15.123992919921875,31.220993041992188,-19.98934555053711
1776870292523850800,5.620850830078125,-14.239158630371094,31.108070373535156,-19.873409271240234
1776870292533887700,5.6308876953125,-13.958702087402344,30.921829223632812,-20.11709213256836
1776870292543924700,5.6409248046875,-13.948989868164062,30.78382110595703,-20.548839569091797
1776870292553962800,5.650962646484375,-14.158966064453125,30.976348876953125,-21.23898696899414
1776870292563999700,5.660999755859375,-13.689201354980469,30.960227966308594,-21.19284439086914
1776870292574036500,5.671036376953125,-13.577049255371094,31.04553985595703,-21.194026947021484
1776870292584073700,5.68107373046875,-14.750297546386719,30.881103515625,-21.724681854248047
1776870292594110700,5.69111083984375,-14.54266357421875,30.95404052734375,-20.82497787475586
1776870292604147700,5.701147705078125,-14.950782775878906,30.858551025390625,-20.615093231201172
1776870292614185700,5.711185791015625,-15.33941650390625,30.87456512451172,-20.161907196044922
1776870292624222700,5.72122265625,-15.665756225585938,30.80127716064453,-19.97500991821289
1776870292634259700,5.731259765625,-16.082046508789062,30.846969604492188,-19.397991180419922
1776870292644296700,5.741296630859375,-16.56341552734375,30.893470764160156,-19.356929779052734
1776870292654333700,5.751333740234375,-16.9554443359375,30.902755737304688,-19.332897186279297
1776870292664370700,5.76137060546875,-16.84656524658203,30.693374633789062,-18.985950469970703
1776870292674408700,5.77140869140625,-17.161468505859375,30.735183715820312,-19.269878387451172
1776870292684445700,5.78144580078125,-17.757118225097656,30.525497436523438,-19.734783172607422
1776870292694482700,5.791482666015625,-17.04987335205078,30.52100372314453,-19.403804779052734
1776870292704519700,5.801519775390625,-17.62836456298828,30.409523010253906,-20.286251068115234
1776870292714556700,5.811556640625,-18.835891723632812,30.14057159423828,-21.325870513916016
1776870292724594700,5.8215947265625,-18.24419403076172,30.350051879882812,-21.001697540283203
1776870292734631700,5.831631591796875,-17.527191162109375,30.35417938232422,-20.63449478149414
1776870292744668700,5.841668701171875,-17.837509155273438,30.24842071533203,-20.850650787353516
1776870292754705700,5.85170556640625,-16.990005493164062,30.42163848876953,-20.404666900634766
1776870292764742700,5.86174267578125,-16.355804443359375,30.617889404296875,-19.954524993896484
1776870292774780000,5.87177978515625,-16.37468719482422,30.45330810546875,-19.974040985107422
1776870292784817700,5.881817626953125,-17.19983673095703,30.291290283203125,-20.473125457763672
1776870292794854700,5.891854736328125,-16.478309631347656,30.43292236328125,-20.062496185302734
1776870292804891600,5.9018916015625,-16.237571716308594,30.708030700683594,-19.948383331298828
1776870292814929000,5.911928955078125,-16.1092529296875,30.559913635253906,-19.624591827392578
1776870292824965600,5.921965576171875,-16.316490173339844,30.719139099121094,-19.733806610107422
1776870292835002600,5.932002685546875,-16.565658569335938,30.834213256835938,-20.009342193603516
1776870292845041000,5.942041015625,-16.234962463378906,31.052169799804688,-19.959903717041016
1776870292855077600,5.95207763671875,-16.06151580810547,31.145301818847656,-19.93167495727539
1776870292865114600,5.962114501953125,-15.6328125,31.20818328857422,-19.681690216064453
1776870292875151600,5.972151611328125,-15.341133117675781,31.214553833007812,-19.712177276611328
1776870292885188900,5.98218896484375,-15.560989379882812,31.011154174804688,-19.79123306274414
1776870292895226600,5.9922265625,-15.705818176269531,30.78533172607422,-19.967174530029297
1776870292905263600,6.002263671875,-15.745857238769531,30.746566772460938,-19.726428985595703
1776870292915300600,6.012300537109375,-16.13001251220703,30.718597412109375,-19.875560760498047
1776870292925337900,6.022337890625,-16.4993896484375,30.688323974609375,-19.71603775024414
1776870292935374800,6.032374755859375,-16.633445739746094,30.520530700683594,-19.37253189086914
1776870292945411300,6.042411376953125,-16.712478637695312,30.75299072265625,-19.301395416259766
1776870292955449000,6.052448974609375,-16.691375732421875,30.693801879882812,-19.295108795166016
1776870292965486300,6.062486328125,-16.9208984375,30.591224670410156,-19.68752670288086
1776870292975523300,6.0725234375,-16.96307373046875,30.53191375732422,-19.642406463623047
1776870292985560000,6.08256005859375,-17.025794982910156,30.321495056152344,-19.650066375732422
1776870292995597000,6.09259716796875,-16.777366638183594,30.497291564941406,-19.62234878540039
1776870293005635300,6.10263525390625,-16.868820190429688,30.36695098876953,-19.634807586669922
1776870293015672300,6.11267236328125,-16.935882568359375,30.336837768554688,-19.862018585205078
1776870293025709000,6.122708984375,-16.923660278320312,30.35211181640625,-19.773906707763672
1776870293035746000,6.13274609375,-16.95679473876953,30.181732177734375,-19.74197006225586
1776870293045783300,6.142783203125,-16.694549560546875,30.310508728027344,-19.595813751220703
1776870293055820300,6.1528203125,-16.969886779785156,30.407302856445312,-19.703433990478516
1776870293065858000,6.162858154296875,-16.99517822265625,30.684249877929688,-19.589969635009766
1776870293075895300,6.172895263671875,-16.796913146972656,30.537452697753906,-19.42470932006836
1776870293085932300,6.182932373046875,-16.489456176757812,30.688446044921875,-19.300579071044922
1776870293095969300,6.19296923828125,-16.761085510253906,30.421356201171875,-19.388500213623047
1776870293106006300,6.20300634765625,-17.255615234375,30.528121948242188,-19.970630645751953
1776870293116044300,6.213044189453125,-16.94652557373047,30.44482421875,-19.84744644165039
1776870293126081300,6.223081298828125,-17.042648315429688,30.697364807128906,-19.864887237548828
1776870293136118300,6.2331181640625,-17.318695068359375,30.619338989257812,-20.114002227783203
1776870293146155000,6.243155029296875,-17.451141357421875,30.417320251464844,-20.16257095336914
1776870293156192300,6.253192138671875,-17.4844970703125,30.50727081298828,-20.177173614501953
1776870293166229200,6.263229248046875,-17.4840087890625,30.56573486328125,-20.069408416748047
1776870293176267300,6.273267333984375,-17.679283142089844,30.596343994140625,-20.222759246826172
1776870293186304000,6.283303955078125,-17.548500061035156,30.603492736816406,-20.230304718017578
1776870293196341200,6.29334130859375,-17.638702392578125,30.381484985351562,-20.079425811767578
1776870293206378200,6.303378173828125,-17.638267517089844,30.411895751953125,-20.025402069091797
1776870293216415200,6.313415283203125,-17.439544677734375,30.459228515625,-19.86501693725586
1776870293226453200,6.323453369140625,-17.16527557373047,30.59752655029297,-19.476573944091797
1776870293236490200,6.333490234375,-16.77123260498047,30.48578643798828,-19.346752166748047
1776870293246527200,6.34352734375,-17.005340576171875,30.48645782470703,-19.52627182006836
1776870293256564200,6.353564208984375,-17.146820068359375,30.568016052246094,-19.57369613647461
1776870293266601200,6.363601318359375,-16.943206787109375,30.53858184814453,-19.452892303466797
1776870293276638200,6.37363818359375,-17.156539916992188,30.453964233398438,-19.665607452392578
1776870293286676200,6.38367626953125,-17.206275939941406,30.511306762695312,-19.701435089111328
1776870293296713200,6.393713134765625,-17.041847229003906,30.421798706054688,-19.385089874267578
1776870293306750200,6.403750244140625,-17.356307983398438,30.35710906982422,-19.662151336669922
1776870293316787200,6.413787109375,-16.900497436523438,30.330459594726562,-19.399089813232422
1776870293326824200,6.42382421875,-16.811386108398438,30.312599182128906,-19.271472930908203
1776870293336862200,6.4338623046875,-16.656646728515625,30.301658630371094,-19.14596176147461
1776870293346899200,6.443899169921875,-16.700119018554688,30.31970977783203,-19.100963592529297
1776870293356936200,6.453936279296875,-16.702308654785156,30.279335021972656,-19.148746490478516
1776870293366973200,6.46397314453125,-16.95196533203125,30.06214141845703,-19.171772003173828
1776870293377010200,6.47401025390625,-16.855201721191406,30.1390380859375,-19.054141998291016
1776870293387048200,6.484048095703125,-16.89128875732422,30.259017944335938,-19.087642669677734
1776870293397085200,6.494085205078125,-17.1103515625,30.241668701171875,-19.17715072631836
1776870293407122200,6.5041220703125,-16.830230712890625,30.299209594726562,-18.757808685302734
1776870293417159400,6.514159423828125,-16.786170959472656,30.346664428710938,-18.74624252319336
1776870293427196200,6.524196044921875,-17.061187744140625,30.29560089111328,-18.68277359008789
1776870293437233200,6.534233154296875,-17.441192626953125,30.203369140625,-18.738666534423828
1776870293447271200,6.544271240234375,-17.76361083984375,30.133270263671875,-19.137943267822266
1776870293457308400,6.554308349609375,-17.319976806640625,30.204605102539062,-18.72042465209961
1776870293467345200,6.56434521484375,-17.368362426757812,30.100807189941406,-18.72488021850586
1776870293477382100,6.574382080078125,-17.310455322265625,30.07183837890625,-18.36124038696289
1776870293487419100,6.584419189453125,-17.31201934814453,30.080398559570312,-18.265460968017578
1776870293497457200,6.59445703125,-18.327728271484375,29.91936492919922,-19.02408218383789
1776870293507494100,6.604494140625,-18.80980682373047,29.725074768066406,-19.058666229248047
1776870293517531100,6.61453125,-18.63934326171875,29.707374572753906,-18.501155853271484
1776870293527569400,6.6245693359375,-18.977981567382812,29.408607482910156,-18.361370086669922
1776870293537606100,6.634606201171875,-19.222457885742188,29.34239959716797,-18.259517669677734
1776870293547643100,6.64464306640625,-19.81524658203125,29.024513244628906,-18.029666900634766
1776870293557680000,6.65468017578125,-20.149803161621094,28.759849548339844,-17.87948226928711
1776870293567718100,6.66471826171875,-20.41600799560547,28.659339904785156,-17.611698150634766
1776870293577755100,6.674755126953125,-20.642166137695312,28.456222534179688,-17.169818878173828
1776870293587792100,6.684792236328125,-21.111473083496094,28.07537078857422,-17.197513580322266
1776870293597829000,6.6948291015625,-21.962966918945312,27.818252563476562,-17.532527923583984
1776870293607866400,6.704866455078125,-21.909934997558594,27.80266571044922,-17.11319351196289
1776870293617904000,6.714904052734375,-22.344032287597656,27.386085510253906,-17.00387954711914
1776870293627941000,6.724941162109375,-22.579971313476562,26.92450714111328,-16.752056121826172
1776870293637978400,6.734978271484375,-23.01831817626953,26.653182983398438,-16.54207992553711
1776870293648015400,6.745015380859375,-23.653358459472656,26.507858276367188,-16.81307601928711
1776870293658052000,6.755052001953125,-23.70935821533203,25.959556579589844,-16.189159393310547
1776870293668090000,6.765090087890625,-24.195152282714844,25.918197631835938,-15.91202163696289
1776870293678127400,6.77512744140625,-24.625205993652344,25.64447784423828,-15.610698699951172
1776870293688164400,6.785164306640625,-25.160438537597656,25.60302734375,-15.29257583618164
1776870293698201000,6.795201171875,-25.54376220703125,25.539344787597656,-14.875247955322266
1776870293708238000,6.805238037109375,-25.58734130859375,25.129676818847656,-14.261791229248047
1776870293718275300,6.815275390625,-25.73047637939453,25.153884887695312,-13.725475311279297
1776870293728313000,6.82531298828125,-25.618682861328125,25.007522583007812,-12.98996353149414
1776870293738350000,6.83535009765625,-25.993202209472656,24.840362548828125,-12.579776763916016
1776870293748387000,6.845386962890625,-26.28447723388672,24.6083984375,-12.370349884033203
1776870293758424300,6.85542431640625,-26.498268127441406,24.57915496826172,-12.02181625366211
1776870293768461300,6.86546142578125,-26.726272583007812,24.364662170410156,-11.528553009033203
1776870293778499000,6.8754990234375,-27.144378662109375,24.10858917236328,-11.308528900146484
1776870293788536300,6.885536376953125,-27.56519317626953,23.795501708984375,-10.882457733154297
1776870293798573300,6.8955732421875,-27.558982849121094,23.538101196289062,-10.306316375732422
1776870293808610300,6.9056103515625,-28.0489501953125,23.117477416992188,-9.895816802978516
1776870293818647000,6.91564697265625,-28.406204223632812,22.558494567871094,-9.440967559814453
1776870293828685300,6.925685302734375,-28.679100036621094,22.090576171875,-9.168262481689453
1776870293838722300,6.935722412109375,-28.877662658691406,21.72205352783203,-8.329532623291016
1776870293848759300,6.94575927734375,-29.125595092773438,21.24610137939453,-7.862010955810547
1776870293858796000,6.955796142578125,-29.113540649414062,20.925003051757812,-7.472362518310547
1776870293868833300,6.965833251953125,-29.461090087890625,20.451675415039062,-6.971530914306641
1776870293878871300,6.975871337890625,-29.963638305664062,19.833663940429688,-6.876529693603516
1776870293888908000,6.985907958984375,-30.301658630371094,19.19378662109375,-6.550380706787109
1776870293898945000,6.995945068359375,-30.219512939453125,18.71265411376953,-6.226322174072266
1776870293908982300,7.005982177734375,-30.69678497314453,17.69683837890625,-5.909221649169922
1776870293919019300,7.016019287109375,-31.2110595703125,17.10907745361328,-5.721492767333984
1776870293929056300,7.02605615234375,-31.666702270507812,16.325531005859375,-5.477535247802734
1776870293939094300,7.03609423828125,-31.666702270507812,16.325531005859375,-5.477535247802734
1776870293949132300,7.04613232421875,-32.08820343017578,15.641586303710938,-5.155445098876953
1776870293959169000,7.0561689453125,-32.15247344970703,14.944808959960938,-4.912509918212891
1776870293969206000,7.0662060546875,-32.334068298339844,14.147109985351562,-4.539630889892578
1776870293979243300,7.0762431640625,-32.64630889892578,13.255729675292969,-3.8919944763183594
1776870293989281300,7.08628125,-33.53240203857422,12.2227783203125,-3.882099151611328
1776870293999318000,7.096318115234375,-33.56361389160156,11.201164245605469,-3.372974395751953
1776870294009355300,7.106355224609375,-33.70259094238281,10.310684204101562,-2.9826316833496094
1776870294019392300,7.116392333984375,-33.65955352783203,9.464584350585938,-2.620281219482422
1776870294029429200,7.12642919921875,-34.18683624267578,8.505874633789062,-2.401561737060547
1776870294039467000,7.136467041015625,-34.526954650878906,7.456695556640625,-2.506427764892578
1776870294049504300,7.146504150390625,-34.30876922607422,6.4083709716796875,-2.086467742919922
1776870294059541200,7.156541259765625,-34.530540466308594,5.210723876953125,-1.8826942443847656
1776870294069578200,7.166578125,-34.504615783691406,4.026374816894531,-1.5044364929199219
1776870294079615200,7.176615234375,-34.434165954589844,2.9686660766601562,-1.3947029113769531
1776870294089653200,7.1866533203125,-34.147216796875,2.0133438110351562,-1.2013053894042969
1776870294099690200,7.196690185546875,-34.19291687011719,0.9489974975585938,-1.1859169006347656
1776870294109727200,7.206727294921875,-34.17291259765625,-0.2439422607421875,-1.3019523620605469
1776870294119764000,7.216763916015625,-34.218238830566406,-1.132537841796875,-1.3030281066894531
1776870294129801200,7.22680126953125,-33.97913360595703,-2.118896484375,-1.1616554260253906
1776870294139838200,7.236838134765625,-33.655311584472656,-2.92291259765625,-0.9580078125
1776870294149876200,7.246876220703125,-33.820884704589844,-3.748149871826172,-1.0122871398925781
1776870294159913200,7.256913330078125,-33.761817932128906,-4.687431335449219,-1.0467948913574219
1776870294169950200,7.2669501953125,-33.708274841308594,-5.628231048583984,-1.0365409851074219
1776870294179987200,7.2769873046875,-33.1787109375,-6.359649658203125,-0.8157157897949219
1776870294190024200,7.287024169921875,-33.285888671875,-6.971412658691406,-0.9018592834472656
1776870294200062200,7.297062255859375,-32.97003936767578,-7.610439300537109,-1.0083045959472656
1776870294210099200,7.30709912109375,-32.63078308105469,-8.08145523071289,-0.9394569396972656
1776870294220136200,7.31713623046875,-33.244041442871094,-8.772171020507812,-1.5273475646972656
1776870294230173200,7.327173095703125,-32.89265441894531,-9.143608093261719,-1.2361946105957031
1776870294240210200,7.337210205078125,-32.71092224121094,-9.206707000732422,-1.1526145935058594
1776870294250248200,7.347248291015625,-32.53667449951172,-9.324012756347656,-1.2038078308105469
1776870294260285200,7.35728515625,-32.393798828125,-9.700042724609375,-1.1565666198730469
1776870294270322400,7.367322509765625,-32.91021728515625,-9.837059020996094,-1.4954185485839844
1776870294280359200,7.377359130859375,-32.65898895263672,-9.709053039550781,-1.3157386779785156
1776870294290396200,7.387396240234375,-32.96824645996094,-9.405223846435547,-1.7291679382324219
1776870294300433200,7.39743310546875,-33.003509521484375,-9.153045654296875,-1.4843177795410156
1776870294310471400,7.407471435546875,-32.94834899902344,-8.748184204101562,-1.4114418029785156
1776870294320508200,7.417508056640625,-33.322532653808594,-8.116310119628906,-1.5437889099121094
1776870294330545200,7.427545166015625,-33.35585021972656,-7.696552276611328,-1.4637565612792969
1776870294340582100,7.43758203125,-33.27472686767578,-7.161197662353516,-1.3247489929199219
1776870294350619400,7.447619384765625,-33.65654754638672,-6.471687316894531,-1.6975135803222656
1776870294360657200,7.4576572265625,-33.55290985107422,-5.689857482910156,-1.6069297790527344
1776870294370694100,7.467694091796875,-33.76432800292969,-5.075653076171875,-1.6596565246582031
1776870294380731100,7.477731201171875,-34.06958770751953,-4.363243103027344,-1.7556419372558594
1776870294390768400,7.487768310546875,-34.28346252441406,-3.563335418701172,-1.7718696594238281
1776870294400805000,7.49780517578125,-34.04688262939453,-2.5956573486328125,-1.8742942810058594
1776870294410843100,7.507843017578125,-34.21281433105469,-1.6831893920898438,-1.9490623474121094
1776870294420880400,7.51788037109375,-34.3681640625,-0.9399490356445312,-2.136219024658203
1776870294430917400,7.52791748046875,-34.391761779785156,-0.0381622314453125,-2.2959556579589844
1776870294440954000,7.5379541015625,-34.54175567626953,0.7831573486328125,-2.335346221923828
1776870294450991000,7.5479912109375,-34.604339599609375,1.7760772705078125,-2.669757843017578
1776870294461029400,7.558029296875,-34.46923065185547,2.6415939331054688,-2.672870635986328
1776870294471066000,7.568066162109375,-35.11534881591797,3.4573974609375,-3.4612770080566406
1776870294481103000,7.57810302734375,-34.77197265625,4.564659118652344,-3.464984893798828
1776870294491140000,7.58814013671875,-34.88774108886719,5.5386199951171875,-3.800304412841797
1776870294501177300,7.59817724609375,-34.72174835205078,6.407737731933594,-3.8938636779785156
1776870294511214300,7.60821435546875,-34.56596374511719,7.467552185058594,-4.054790496826172
1776870294521252000,7.618252197265625,-34.110260009765625,8.523124694824219,-4.167827606201172
1776870294531289000,7.6282890625,-33.76348876953125,9.528038024902344,-4.194515228271484
1776870294541326300,7.638326416015625,-33.589027404785156,10.459938049316406,-4.198604583740234
1776870294551363300,7.64836328125,-34.33192443847656,11.320701599121094,-5.107440948486328
1776870294561400000,7.658400146484375,-33.747825622558594,12.358291625976562,-5.063533782958984
1776870294571438300,7.668438232421875,-33.039520263671875,13.271827697753906,-4.862957000732422
1776870294581475300,7.678475341796875,-32.42243194580078,13.934791564941406,-4.813159942626953
1776870294591512300,7.68851220703125,-32.06561279296875,14.918502807617188,-4.962459564208984
1776870294601549000,7.698549072265625,-32.04484558105469,15.543266296386719,-5.462680816650391
1776870294611586000,7.7085859375,-31.503273010253906,16.274253845214844,-5.383358001708984
1776870294621624300,7.718624267578125,-31.263153076171875,16.81751251220703,-5.597789764404297
1776870294631661000,7.7286611328125,-30.922576904296875,17.658912658691406,-5.721515655517578
1776870294641698000,7.738697998046875,-30.60016632080078,18.11309814453125,-6.051670074462891
1776870294651735300,7.7487353515625,-30.50737762451172,18.755905151367188,-6.564861297607422
1776870294661772300,7.758772216796875,-30.17772674560547,19.244354248046875,-6.651714324951172
1776870294671810000,7.76881005859375,-30.13018035888672,19.840576171875,-7.282093048095703
1776870294681847000,7.778846923828125,-29.604446411132812,20.398292541503906,-7.548107147216797
1776870294691884300,7.78888427734375,-29.413414001464844,20.647377014160156,-7.910610198974609
1776870294701921300,7.79892138671875,-29.846961975097656,21.024322509765625,-8.993328094482422
1776870294711958300,7.808958251953125,-29.172935485839844,21.41954803466797,-9.13564682006836
1776870294721995000,7.8189951171875,-29.056800842285156,21.770240783691406,-9.814334869384766
1776870294732033300,7.829033203125,-28.707290649414062,22.108612060546875,-10.027706146240234
1776870294742070300,7.8390703125,-28.44591522216797,22.536598205566406,-10.565387725830078
1776870294752107300,7.849107177734375,-28.342269897460938,22.7425537109375,-11.046573638916016
1776870294762144000,7.85914404296875,-27.982406616210938,22.952972412109375,-11.290630340576172
1776870294772181200,7.86918115234375,-28.01019287109375,23.30712890625,-11.842952728271484
1776870294782219300,7.87921923828125,-27.440818786621094,23.66632843017578,-11.961223602294922
1776870294792256000,7.889256103515625,-27.245452880859375,24.020294189453125,-12.447277069091797
1776870294802293200,7.899293212890625,-27.040267944335938,24.23230743408203,-12.90383529663086
1776870294812330200,7.909330322265625,-26.676193237304688,24.532470703125,-13.065723419189453
1776870294822367200,7.9193671875,-26.22991180419922,24.944580078125,-13.394100189208984
1776870294832405000,7.929405029296875,-26.070945739746094,25.160202026367188,-13.87661361694336
1776870294842442200,7.939442138671875,-25.469482421875,25.47296905517578,-13.899280548095703
1776870294852479200,7.949479248046875,-25.27465057373047,25.761810302734375,-14.382076263427734
1776870294862516200,7.95951611328125,-24.979110717773438,26.045318603515625,-14.612857818603516
1776870294872553200,7.96955322265625,-24.78588104248047,26.303634643554688,-14.945369720458984
1776870294882591200,7.97959130859375,-24.54822540283203,26.5328369140625,-15.339725494384766
1776870294892628200,7.989628173828125,-24.57080078125,26.840003967285156,-16.060848236083984
1776870294902664200,7.999664306640625,-24.242942810058594,26.994850158691406,-16.38741683959961
1776870294912701200,8.009701171875,-23.474807739257812,27.30382537841797,-16.317676544189453
1776870294922739200,8.0197392578125,-22.97504425048828,27.623977661132812,-16.404674530029297
1776870294932776200,8.029776123046876,-23.007125854492188,27.921905517578125,-16.910404205322266
1776870294942813200,8.039813232421874,-22.333396911621094,28.08179473876953,-16.937419891357422
1776870294952850000,8.049849853515624,-21.838783264160156,28.398399353027344,-17.210262298583984
1776870294962887000,8.059886962890625,-21.81159210205078,28.465133666992188,-17.714130401611328
1776870294972925000,8.069925048828125,-21.438514709472656,28.69580841064453,-17.965045928955078
1776870294982962000,8.0799619140625,-21.366287231445312,29.03357696533203,-18.27328872680664
1776870294992999000,8.0899990234375,-21.461761474609375,29.134796142578125,-18.808116912841797
1776870295003036000,8.100035888671876,-20.082626342773438,29.59600830078125,-18.294506072998047
1776870295013072600,8.11007275390625,-19.344390869140625,29.787139892578125,-18.058475494384766
1776870295023111000,8.12011083984375,-19.21495819091797,30.043251037597656,-18.12295913696289
1776870295033148000,8.13014794921875,-19.463829040527344,30.005714416503906,-18.427539825439453
1776870295043184600,8.1401845703125,-19.142356872558594,30.017593383789062,-18.453205108642578
1776870295053222000,8.150221923828125,-18.408432006835938,30.238731384277344,-18.013378143310547
1776870295063259000,8.1602587890625,-17.99584197998047,30.285751342773438,-17.952648162841797
1776870295073296000,8.1702958984375,-17.664222717285156,30.27838134765625,-17.837772369384766
1776870295083333600,8.180333740234374,-17.474014282226562,30.34746551513672,-18.130451202392578
1776870295093371000,8.190370849609375,-17.187705993652344,30.468299865722656,-18.236949920654297
1776870295103407900,8.200407958984375,-16.93701934814453,30.64501190185547,-18.38675308227539
1776870295113444900,8.21044482421875,-16.346046447753906,30.75023651123047,-18.314075469970703
1776870295123481900,8.22048193359375,-15.957023620605469,30.957168579101562,-18.465961456298828
1776870295133520000,8.230519775390626,-15.400299072265625,31.024375915527344,-18.60184097290039
1776870295143556900,8.240556884765626,-14.878463745117188,31.276779174804688,-18.708606719970703
1776870295153593900,8.25059375,-13.741439819335938,31.389434814453125,-19.087459564208984
1776870295163630800,8.260630859375,-13.162200927734375,31.337799072265625,-19.714710235595703
1776870295173667800,8.270667724609375,-12.732368469238281,31.25360107421875,-20.697200775146484
1776870295183705900,8.280705810546875,-12.369735717773438,30.999916076660156,-21.510204315185547
1776870295193742800,8.290742919921875,-12.363334655761719,30.69536590576172,-21.97774887084961
1776870295203779800,8.30077978515625,-12.519615173339844,30.357452392578125,-22.098957061767578
1776870295213816800,8.31081689453125,-14.094314575195312,30.070594787597656,-22.439823150634766
1776870295223853800,8.320853759765624,-15.302894592285156,29.737709045410156,-22.325336456298828
1776870295233891800,8.330891845703125,-15.666374206542969,29.721099853515625,-21.419025421142578
1776870295243928800,8.3409287109375,-16.37609100341797,29.59252166748047,-20.83749008178711
1776870295253965800,8.3509658203125,-17.758209228515625,29.60987091064453,-20.702800750732422
1776870295264002800,8.3610029296875,-18.07122039794922,29.60284423828125,-20.297168731689453
1776870295274039800,8.371039794921876,-17.740196228027344,29.753089904785156,-19.822429656982422
1776870295284077000,8.3810771484375,-18.23163604736328,29.715545654296875,-20.089496612548828
1776870295294114800,8.39111474609375,-17.350051879882812,29.92718505859375,-19.740436553955078
1776870295304151800,8.40115185546875,-16.997146606445312,30.10350799560547,-19.926380157470703
1776870295314188800,8.411188720703125,-16.62248992919922,30.217620849609375,-19.992290496826172
1776870295324225800,8.421225830078125,-16.227462768554688,30.278404235839844,-20.325443267822266
1776870295334262800,8.4312626953125,-15.876564025878906,30.40868377685547,-20.264598846435547
1776870295344300800,8.44130078125,-15.972305297851562,30.41754150390625,-20.342029571533203
1776870295354338000,8.451338134765624,-15.926887512207031,30.3905029296875,-20.344440460205078
1776870295364374800,8.461374755859374,-16.2586669921875,30.203285217285156,-20.216922760009766
1776870295374411800,8.471411865234375,-16.73699188232422,30.136398315429688,-20.153057098388672
1776870295384448800,8.48144873046875,-16.745704650878906,30.156036376953125,-19.836727142333984
1776870295394486800,8.49148681640625,-17.43670654296875,29.97515869140625,-20.33713150024414
1776870295404523800,8.501523681640625,-17.23992919921875,29.97069549560547,-19.812664031982422
1776870295414560800,8.511560791015626,-16.965003967285156,30.088722229003906,-19.290477752685547
1776870295424597800,8.52159765625,-16.665611267089844,30.289100646972656,-19.026065826416016
1776870295434635000,8.531635009765624,-16.571380615234375,30.4373779296875,-18.95254898071289
1776870295444672800,8.5416728515625,-16.58153533935547,30.69451141357422,-19.167461395263672
1776870295454709800,8.551709716796875,-16.324203491210938,30.799530029296875,-19.281253814697266
1776870295464746800,8.561746826171875,-16.012123107910156,30.757591247558594,-19.605030059814453
1776870295474784000,8.571783935546875,-15.525947570800781,30.79705047607422,-19.617694854736328
1776870295484820700,8.58182080078125,-15.39794921875,30.794578552246094,-20.001728057861328
1776870295494858800,8.591858642578124,-15.161262512207031,30.754776000976562,-19.994754791259766
1776870295504896000,8.60189599609375,-15.091552734375,30.617050170898438,-20.049945831298828
1776870295514933000,8.61193310546875,-15.514862060546875,30.44835662841797,-20.12472152709961
1776870295524969700,8.6219697265625,-15.60516357421875,30.502296447753906,-20.089656829833984
1776870295535006700,8.6320068359375,-15.874465942382812,30.523826599121094,-20.194683074951172
1776870295545044000,8.6420439453125,-15.851692199707031,30.404464721679688,-19.980236053466797
1776870295555081700,8.652081787109376,-16.330596923828125,30.25440216064453,-19.99869155883789
1776870295565118700,8.66211865234375,-16.146133422851562,30.269195556640625,-19.74306869506836
1776870295575155700,8.67215576171875,-16.146133422851562,30.269195556640625,-19.74306869506836
1776870295585193000,8.68219287109375,-16.28966522216797,30.294204711914062,-19.61458969116211
1776870295595230000,8.69222998046875,-16.344955444335938,30.22473907470703,-19.708858489990234
1776870295605267700,8.702267822265625,-16.181289672851562,30.316917419433594,-19.590160369873047
1776870295615305000,8.712304931640626,-16.56574249267578,30.22679901123047,-19.554668426513672
1776870295625342000,8.722342041015626,-16.216651916503906,30.331398010253906,-19.24709701538086
1776870295635379000,8.73237890625,-16.274246215820312,30.297325134277344,-19.239246368408203
1776870295645415700,8.742415771484374,-16.235260009765625,30.424468994140625,-19.190006256103516
1776870295655454000,8.752453857421875,-16.57587432861328,30.390708923339844,-19.364849090576172
1776870295665491000,8.762490966796875,-16.224685668945312,30.303367614746094,-19.15920639038086
1776870295675528000,8.77252783203125,-16.127044677734375,30.40656280517578,-19.056568145751953
1776870295685564700,8.782564697265625,-16.342872619628906,30.564193725585938,-19.288829803466797
1776870295695602000,8.792601806640626,-16.153411865234375,30.427276611328125,-19.341861724853516
1776870295705640000,8.802639892578124,-16.13829803466797,30.278121948242188,-19.275150299072266
1776870295715676700,8.8126767578125,-16.004356384277344,30.544273376464844,-19.288227081298828
1776870295725713700,8.822713623046875,-17.48522186279297,30.147918701171875,-20.545772552490234
1776870295735751000,8.8327509765625,-16.855125427246094,30.135169982910156,-19.80318832397461
1776870295745788000,8.842787841796875,-16.177452087402344,30.34246826171875,-19.479557037353516
1776870295755825700,8.85282568359375,-16.00592041015625,30.388916015625,-19.565654754638672
1776870295765863000,8.86286279296875,-15.918212890625,30.30669403076172,-19.606090545654297
1776870295775900000,8.87289990234375,-15.607398986816406,30.415550231933594,-19.598834991455078
1776870295785937000,8.88293701171875,-15.867584228515625,30.44141387939453,-19.833965301513672
1776870295795974000,8.892973876953125,-16.119140625,30.436569213867188,-19.951732635498047
1776870295806012000,8.903011962890625,-16.24517059326172,30.184158325195312,-20.041622161865234
1776870295816049000,8.913048828125,-16.062515258789062,30.355606079101562,-19.913440704345703
1776870295826086000,8.9230859375,-15.970550537109375,30.37303924560547,-19.808353424072266
1776870295836122600,8.93312255859375,-16.14881134033203,30.405975341796875,-19.910518646240234
1776870295846160000,8.943159912109374,-16.23674774169922,30.506324768066406,-20.117565155029297
1776870295856198000,8.953197998046875,-16.663253784179688,30.161537170410156,-20.125133514404297
1776870295866235000,8.96323486328125,-16.613670349121094,30.02398681640625,-20.026248931884766
1776870295876271600,8.973271728515625,-16.528076171875,30.15662384033203,-19.964618682861328
1776870295886308900,8.983308837890625,-16.483802795410156,30.141639709472656,-19.925640106201172
1776870295896345900,8.993345947265626,-16.545272827148438,30.108261108398438,-19.81467056274414
1776870295906384000,9.0033837890625,-16.46209716796875,30.10620880126953,-19.816577911376953
1776870295916420900,9.0134208984375,-16.988059997558594,29.98229217529297,-20.124019622802734
1776870295926457900,9.023457763671875,-16.587615966796875,30.131134033203125,-19.997516632080078
1776870295936494800,9.033494873046875,-16.65094757080078,30.09477996826172,-19.91397476196289
1776870295946531800,9.04353173828125,-17.058135986328125,30.080596923828125,-20.16848373413086
1776870295956569300,9.0535693359375,-17.434371948242188,30.134475708007812,-20.360088348388672
1776870295966606300,9.0636064453125,-17.15686798095703,30.101425170898438,-20.20846939086914
1776870295976643600,9.0736435546875,-17.06700897216797,30.05150604248047,-20.081798553466797
1776870295986680600,9.0836806640625,-17.293800354003906,30.06633758544922,-20.110477447509766
1776870295996717600,9.093717529296875,-17.424880981445312,29.8968505859375,-20.202938079833984
1776870296006755600,9.103755615234375,-17.56114959716797,29.835372924804688,-19.985431671142578
1776870296016792600,9.11379248046875,-17.668190002441406,29.76451873779297,-20.040950775146484
1776870296026829600,9.12382958984375,-17.50885772705078,29.940155029296875,-19.906330108642578
1776870296036866300,9.1338662109375,-18.011322021484375,29.82006072998047,-20.138118743896484
1776870296046903600,9.143903564453124,-18.256248474121094,29.75609588623047,-20.084224700927734
1776870296056941600,9.153941650390625,-18.160140991210938,29.463150024414062,-20.000606536865234
1776870296066978600,9.163978515625,-18.367591857910156,29.410194396972656,-20.148250579833984
1776870296077015300,9.174015380859375,-18.35193634033203,29.437904357910156,-20.118030548095703
1776870296087052500,9.184052490234375,-18.719383239746094,29.327476501464844,-20.242015838623047
1776870296097089500,9.194089599609375,-18.53350830078125,29.33354949951172,-20.298358917236328
1776870296107127600,9.20412744140625,-18.60082244873047,29.108596801757812,-20.391643524169922
1776870296117164500,9.21416455078125,-18.99853515625,29.031936645507812,-20.47359848022461
1776870296127201500,9.224201416015624,-18.792556762695312,29.082115173339844,-20.361980438232422
1776870296137238500,9.234238525390625,-19.213546752929688,28.917434692382812,-20.659442901611328
1776870296147275500,9.244275634765625,-19.711212158203125,28.652000427246094,-20.90134048461914
1776870296157313500,9.2543134765625,-19.807968139648438,28.5595703125,-20.682842254638672
1776870296167350500,9.2643505859375,-19.705307006835938,28.37726593017578,-20.374500274658203
1776870296177387500,9.274387451171876,-20.004302978515625,28.465316772460938,-20.252079010009766
1776870296187424500,9.284424560546874,-20.547073364257812,27.906295776367188,-20.440044403076172
1776870296197461500,9.29446142578125,-20.535247802734375,27.998329162597656,-20.114513397216797
1776870296207499500,9.30449951171875,-20.82720184326172,27.773529052734375,-19.763851165771484
1776870296217536500,9.31453662109375,-21.190200805664062,27.75048828125,-19.684627532958984
1776870296227573500,9.324573486328125,-21.174484252929688,27.547264099121094,-19.408031463623047
1776870296237610500,9.334610595703126,-22.013229370117188,27.115890502929688,-19.63100814819336
1776870296247647500,9.3446474609375,-22.125778198242188,26.835479736328125,-19.321895599365234
1776870296257685500,9.354685546875,-22.30150604248047,26.540390014648438,-19.04806137084961
1776870296267722500,9.364722412109375,-22.864898681640625,26.145668029785156,-19.058353424072266
1776870296277759500,9.374759521484375,-23.06103515625,25.928359985351562,-18.761119842529297
1776870296287796500,9.38479638671875,-24.462142944335938,25.33099365234375,-19.45309066772461
1776870296297833500,9.39483349609375,-24.602012634277344,25.17522430419922,-18.85024642944336
1776870296307871500,9.40487158203125,-24.879074096679688,24.99268341064453,-18.374858856201172
1776870296317908500,9.414908447265624,-25.229209899902344,24.58026885986328,-17.804920196533203
1776870296327945500,9.424945556640624,-25.806480407714844,24.369956970214844,-17.195697784423828
1776870296337982500,9.434982421875,-26.422401428222656,24.091209411621094,-16.89358901977539
1776870296348019700,9.445019775390625,-26.857467651367188,23.89116668701172,-16.507083892822266
1776870296358057500,9.455057373046875,-26.741989135742188,23.688613891601562,-15.94863510131836
1776870296368094500,9.465094482421875,-27.152099609375,23.484024047851562,-15.69473648071289
1776870296378131500,9.47513134765625,-27.430755615234375,23.134323120117188,-15.323078155517578
1776870296388168400,9.48516845703125,-27.685646057128906,22.924957275390625,-15.04043197631836
1776870296398205400,9.495205322265624,-28.229698181152344,22.662559509277344,-14.680545806884766
1776870296408243500,9.505243408203125,-28.342361450195312,22.40947723388672,-13.884235382080078
1776870296418280700,9.51528076171875,-28.93773651123047,21.92511749267578,-13.530689239501953
1776870296428317400,9.5253173828125,-29.281478881835938,21.6156005859375,-13.059871673583984
1776870296438354400,9.5353544921875,-29.29846954345703,21.057662963867188,-12.572689056396484
1776870296448392400,9.545392333984376,-29.793960571289062,20.74011993408203,-12.306385040283203
1776870296458429700,9.5554296875,-29.67540740966797,20.332305908203125,-11.720294952392578
1776870296468466400,9.565466552734375,-30.381301879882812,19.782073974609375,-11.557720184326172
1776870296478503400,9.57550341796875,-30.304107666015625,19.195526123046875,-10.803058624267578
1776870296488540400,9.58554052734375,-30.88043212890625,18.599411010742188,-10.48409652709961
1776870296498578400,9.595578369140625,-32.210235595703125,17.837722778320312,-10.474552154541016
1776870296508615400,9.605615478515626,-32.288719177246094,17.35894012451172,-9.880970001220703
1776870296518652400,9.61565234375,-33.61103820800781,16.59380340576172,-10.422718048095703
1776870296528689400,9.625689453125,-32.68330383300781,16.1298828125,-8.902385711669922
1776870296538726700,9.6357265625,-32.881805419921875,15.410446166992188,-8.274532318115234
1776870296548764400,9.645764404296875,-33.178733825683594,14.539085388183594,-7.935062408447266
1776870296558801400,9.655801513671875,-33.596343994140625,13.65234375,-7.725070953369141
1776870296568838700,9.665838623046875,-34.13658142089844,12.858718872070312,-7.290966033935547
1776870296578875600,9.675875732421876,-34.293365478515625,12.047630310058594,-6.531024932861328
1776870296588912400,9.685912353515626,-34.66487121582031,11.152069091796875,-6.040996551513672
1776870296598950400,9.695950439453124,-34.91078186035156,10.233901977539062,-5.743640899658203
1776870296608987600,9.705987548828125,-34.7735595703125,9.219406127929688,-4.973484039306641
1776870296619024600,9.716024658203125,-35.372459411621094,8.506912231445312,-5.045116424560547
1776870296629061400,9.726061279296875,-35.271026611328125,7.3795013427734375,-4.494419097900391
1776870296639098400,9.736098388671875,-35.4608154296875,6.294395446777344,-4.239521026611328
1776870296649136600,9.74613671875,-35.51171112060547,5.154510498046875,-3.7525672912597656
1776870296659173400,9.75617333984375,-35.345306396484375,3.8790512084960938,-3.460041046142578
1776870296669210400,9.76621044921875,-36.10131072998047,2.6916046142578125,-3.725452423095703
1776870296679247400,9.776247314453125,-36.030517578125,1.3322219848632812,-3.475811004638672
1776870296689284600,9.78628466796875,-35.79704284667969,0.15106201171875,-3.400684356689453
1776870296699322400,9.796322265625,-36.11316680908203,-1.1598587036132812,-3.580059051513672
1776870296709359400,9.806359375,-35.76258087158203,-2.4435958862304688,-3.1592750549316406
1776870296719396600,9.816396728515626,-36.55785369873047,-3.6056861877441406,-3.9737815856933594
1776870296729433600,9.82643359375,-35.65216827392578,-4.623775482177734,-3.351184844970703
1776870296739470600,9.836470703125,-35.22120666503906,-5.61431884765625,-3.1851539611816406
1776870296749508400,9.84650830078125,-35.14451599121094,-6.537635803222656,-2.986896514892578
1776870296759545600,9.856545654296875,-34.86933898925781,-7.342838287353516,-2.758159637451172
1776870296769582600,9.86658251953125,-34.63951873779297,-8.290397644042969,-2.733318328857422
1776870296779619300,9.876619384765625,-34.312660217285156,-9.22003173828125,-2.548534393310547
1776870296789657600,9.88665771484375,-33.94586944580078,-9.889892578125,-2.2729454040527344
1776870296799694600,9.896694580078124,-33.82325744628906,-10.569751739501953,-2.4387550354003906
1776870296809731600,9.906731689453125,-33.37377166748047,-11.3355712890625,-1.8996162414550781
1776870296819768300,9.916768310546875,-33.15007781982422,-11.990596771240234,-2.001110076904297
1776870296829805600,9.9268056640625,-33.636383056640625,-12.574813842773438,-2.4876747131347656
1776870296839843600,9.936843505859375,-33.05170440673828,-12.907455444335938,-2.167682647705078
1776870296849880600,9.946880615234376,-32.651832580566406,-13.06655502319336,-1.9755744934082031
1776870296859917300,9.956917236328126,-32.396156311035156,-13.17434310913086,-1.5878028869628906
1776870296869954600,9.96695458984375,-32.22748565673828,-13.106513977050781,-1.5369529724121094
1776870296879991600,9.976991455078124,-32.22021484375,-13.050094604492188,-1.4869499206542969
1776870296890029300,9.987029296875,-32.19586944580078,-12.742786407470703,-1.3396568298339844
1776870296900066600,9.997066650390625,-32.607398986816406,-12.268810272216797,-1.7172431945800781
1776870296910103600,10.007103515625,-32.562477111816406,-11.876972198486328,-1.6968498229980469
1776870296920140500,10.017140625,-32.99363708496094,-11.404338836669922,-1.6731758117675781
1776870296930177500,10.027177490234376,-33.087257385253906,-10.684703826904297,-1.4459953308105469
1776870296940215600,10.037215576171874,-33.042335510253906,-10.02877426147461,-1.2175102233886719
1776870296950253000,10.047253173828125,-33.46556091308594,-9.238632202148438,-1.3810462951660156
1776870296960290300,10.057290283203125,-33.544456481933594,-8.462833404541016,-1.2978782653808594
1776870296970327000,10.0673271484375,-33.9442138671875,-7.629669189453125,-1.6194496154785156
1776870296980364000,10.077364013671875,-34.237205505371094,-6.774379730224609,-1.6566658020019531
1776870296990402000,10.087402099609376,-34.201316833496094,-5.6713104248046875,-1.5895957946777344
1776870297000439000,10.09743896484375,-34.63551330566406,-4.737415313720703,-2.0350685119628906
1776870297010476000,10.10747607421875,-34.831878662109375,-3.830249786376953,-2.067852020263672
1776870297020513000,10.117512939453125,-34.99217224121094,-2.9387283325195312,-2.418926239013672
1776870297030550000,10.127550048828125,-35.158660888671875,-1.77947998046875,-2.5982704162597656
1776870297040588000,10.137588134765625,-34.873046875,-0.71533203125,-2.4253196716308594
1776870297050625000,10.147625,-35.23084259033203,0.1363983154296875,-2.8963279724121094
1776870297060662000,10.157662109375,-35.34150695800781,1.1555709838867188,-2.9818458557128906
1776870297070699000,10.167698974609374,-35.06889343261719,2.4033432006835938,-3.242473602294922
1776870297080737000,10.177737060546875,-35.075347900390625,3.2864608764648438,-3.421619415283203
1776870297090774000,10.18777392578125,-34.97539520263672,4.311225891113281,-3.5670204162597656
1776870297100811000,10.19781103515625,-34.85516357421875,5.440284729003906,-3.784381866455078
1776870297110848300,10.20784814453125,-34.60851287841797,6.397941589355469,-3.8746681213378906
1776870297120885200,10.21788525390625,-34.47471618652344,7.5783843994140625,-4.269130706787109
1776870297130923000,10.227923095703124,-34.67565155029297,8.668212890625,-4.678760528564453
1776870297140960000,10.2379599609375,-34.42858123779297,9.594291687011719,-4.739551544189453
1776870297150997200,10.247997314453125,-33.965545654296875,10.518836975097656,-4.853816986083984
1776870297161034000,10.258033935546875,-33.35955810546875,11.58233642578125,-4.915058135986328
1776870297171071000,10.268071044921875,-33.444305419921875,12.557044982910156,-5.259471893310547
1776870297181109200,10.278109130859375,-33.61888122558594,13.439903259277344,-5.661663055419922
1776870297191146200,10.288146240234376,-33.20124053955078,14.232734680175781,-5.666439056396484
1776870297201183000,10.298182861328126,-32.883941650390625,14.913108825683594,-5.850017547607422
1776870297211220000,10.308219970703124,-32.36967468261719,15.715492248535156,-5.962818145751953
1776870297221258200,10.31825830078125,-32.23204803466797,16.502792358398438,-6.296108245849609
1776870297231295200,10.328295166015625,-31.892333984375,17.219932556152344,-6.663051605224609
1776870297241332000,10.33833203125,-31.213302612304688,17.86199188232422,-6.594142913818359
1776870297251369000,10.348368896484375,-31.13709259033203,18.48888397216797,-7.106861114501953
1776870297261406200,10.35840625,-30.67205047607422,18.94176483154297,-7.209911346435547
1776870297271444000,10.36844384765625,-30.734130859375,19.488037109375,-7.669155120849609
1776870297281481000,10.37848095703125,-30.32239532470703,19.931304931640625,-7.876621246337891
1776870297291518000,10.38851806640625,-30.017303466796875,20.347869873046875,-8.30099105834961
1776870297301555200,10.39855517578125,-29.405197143554688,20.732574462890625,-8.421749114990234
1776870297311594000,10.408593994140626,-29.334938049316406,21.143104553222656,-8.91787338256836
1776870297321632300,10.41863232421875,-29.07038116455078,21.38666534423828,-9.302143096923828
1776870297331669000,10.4286689453125,-28.681671142578125,21.846099853515625,-9.58468246459961
1776870297341706000,10.4387060546875,-28.254051208496094,22.29248809814453,-9.838138580322266
1776870297351743000,10.448742919921875,-28.282630920410156,22.5252685546875,-10.711658477783203
1776870297361780200,10.4587802734375,-27.788040161132812,22.927825927734375,-11.171207427978516
1776870297371818000,10.46881787109375,-27.583602905273438,23.293563842773438,-11.512134552001953
1776870297381855000,10.47885498046875,-27.681076049804688,23.48938751220703,-11.848201751708984
1776870297391892200,10.488892333984374,-27.350250244140625,23.72174835205078,-12.28243637084961
1776870297401929200,10.49892919921875,-26.900779724121094,23.959228515625,-12.632213592529297
1776870297411967000,10.508967041015625,-26.57147979736328,24.35100555419922,-12.937793731689453
1776870297422004000,10.51900390625,-26.14331817626953,24.72846221923828,-13.316730499267578
1776870297432041200,10.529041259765625,-26.016014099121094,24.940673828125,-13.926036834716797
1776870297442078200,10.539078125,-25.60968017578125,25.35124969482422,-14.21926498413086
1776870297452115000,10.549114990234376,-25.31200408935547,25.362770080566406,-14.548526763916016
1776870297462153200,10.5591533203125,-25.101104736328125,25.591346740722656,-14.99960708618164
1776870297472190200,10.569190185546875,-24.65984344482422,25.927719116210938,-15.412731170654297
1776870297482227200,10.579227294921875,-24.348800659179688,26.2376708984375,-15.60537338256836
1776870297492264000,10.589263916015625,-23.746231079101562,26.570480346679688,-15.90328598022461
1776870297502301000,10.599301025390625,-23.224830627441406,26.952842712402344,-16.206241607666016
1776870297512339200,10.609339111328126,-23.15026092529297,27.112167358398438,-16.890628814697266
1776870297522376000,10.6193759765625,-22.599411010742188,27.335899353027344,-17.161640167236328
1776870297532413000,10.629412841796874,-22.18958282470703,27.65937042236328,-17.40445327758789
1776870297542450200,10.6394501953125,-21.42816925048828,27.833343505859375,-17.527835845947266
1776870297552488200,10.64948828125,-21.014373779296875,28.106887817382812,-17.950946807861328
1776870297562525000,10.65952490234375,-20.621994018554688,28.48017120361328,-18.33523178100586
1776870297572562000,10.66956201171875,-19.746612548828125,28.69354248046875,-18.365825653076172
1776870297582599200,10.67959912109375,-19.275352478027344,29.044784545898438,-18.589977264404297
1776870297592636200,10.68963623046875,-19.21398162841797,29.198822021484375,-18.89004135131836
1776870297602674000,10.699673828125,-18.770431518554688,29.424957275390625,-18.99881362915039
1776870297612711200,10.709711181640625,-18.518714904785156,29.736000061035156,-19.31534194946289
1776870297622748200,10.719748046875,-18.313514709472656,29.909164428710938,-19.333133697509766
1776870297632785200,10.72978515625,-17.91358184814453,29.993751525878906,-19.424060821533203
1776870297642822100,10.739822265625,-17.60077667236328,30.108673095703125,-19.408977508544922
1776870297652860200,10.749860107421876,-16.853759765625,30.14404296875,-19.054943084716797
1776870297662897200,10.759897216796874,-16.87103271484375,30.206985473632812,-18.987476348876953
1776870297672934100,10.76993408203125,-16.485366821289062,30.144058227539062,-18.829326629638672
1776870297682971000,10.779970947265625,-16.438682556152344,30.112632751464844,-18.77285385131836
1776870297693009200,10.790009033203125,-16.476898193359375,30.202560424804688,-18.723270416259766
1776870297703046100,10.800046142578125,-16.080154418945312,30.481834411621094,-18.708553314208984
1776870297713083100,10.810083251953126,-15.737258911132812,30.652694702148438,-18.732532501220703
1776870297723119900,10.820119873046876,-15.233634948730469,30.798301696777344,-18.970172882080078
1776870297733157000,10.8301572265625,-15.018547058105469,31.119834899902344,-19.32657241821289
1776870297743195100,10.840195068359375,-14.344985961914062,31.102012634277344,-19.30251693725586
1776870297753232100,10.850232177734375,-14.106246948242188,31.14916229248047,-19.724979400634766
1776870297763269000,10.86026904296875,-13.800125122070312,30.978050231933594,-19.859111785888672
1776870297773306000,10.87030615234375,-13.581977844238281,30.83692169189453,-19.967647552490234
1776870297783344000,10.88034423828125,-14.041801452636719,30.67638397216797,-20.40859603881836
1776870297793380900,10.890380859375,-13.805412292480469,30.683067321777344,-20.24521255493164
1776870297803418000,10.900418212890624,-13.840911865234375,30.69689178466797,-19.880474090576172
1776870297813455000,10.910455078125,-14.202125549316406,30.563751220703125,-19.659320831298828
1776870297823492000,10.9204921875,-14.983360290527344,30.410140991210938,-19.77963638305664
1776870297833530000,10.930530029296875,-15.303558349609375,30.54814910888672,-19.341983795166016
1776870297843567000,10.940567138671875,-15.630500793457031,30.473106384277344,-19.094738006591797
1776870297853604000,10.95060400390625,-15.828933715820312,30.681167602539062,-18.871715545654297
1776870297863641000,10.96064111328125,-15.987350463867188,30.592910766601562,-18.638774871826172
1776870297873678000,10.970677978515624,-16.410003662109375,30.597442626953125,-18.712696075439453
1776870297883716000,10.980716064453125,-16.65906524658203,30.52277374267578,-18.753459930419922
1776870297893753000,10.990753173828125,-16.833831787109375,30.511505126953125,-18.822223663330078
1776870297903790000,11.0007900390625,-16.901527404785156,30.571937561035156,-18.63711929321289
1776870297913827000,11.0108271484375,-16.749534606933594,30.53026580810547,-18.60861587524414
1776870297923864000,11.020864013671876,-16.641616821289062,30.441200256347656,-18.506267547607422
1776870297933902000,11.030902099609374,-16.603538513183594,30.52576446533203,-18.442089080810547
1776870297943939000,11.04093896484375,-16.60132598876953,30.35472869873047,-18.439739227294922
1776870297953979100,11.050979248046875,-16.813499450683594,30.166648864746094,-18.68795394897461
1776870297964016400,11.061016357421876,-16.3968505859375,30.40533447265625,-18.55630874633789
1776870297974054400,11.071054443359374,-16.308731079101562,30.52533721923828,-18.492733001708984
1776870297984091400,11.08109130859375,-16.226646423339844,30.339324951171875,-18.544208526611328
1776870297994128400,11.09112841796875,-16.20891571044922,30.222763061523438,-18.681880950927734
1776870298004165400,11.101165283203125,-15.929237365722656,30.148971557617188,-18.559078216552734
1776870298014202400,11.111202392578125,-16.07909393310547,30.291793823242188,-18.75454330444336
1776870298024240000,11.121240234375,-16.381301879882812,30.335487365722656,-18.996761322021484
1776870298034277400,11.13127734375,-16.44104766845703,30.396591186523438,-18.910144805908203
1776870298044314400,11.141314453125,-16.239295959472656,30.536056518554688,-18.709178924560547
1776870298054351400,11.151351318359374,-16.146934509277344,30.62823486328125,-18.754146575927734
1776870298064388400,11.161388427734375,-15.781234741210938,30.720542907714844,-18.610355377197266
1776870298074426400,11.17142626953125,-15.449798583984375,30.711830139160156,-18.502094268798828
1776870298084463400,11.18146337890625,-15.346900939941406,30.71916961669922,-18.434795379638672
1776870298094500400,11.191500244140625,-15.28253173828125,30.866958618164062,-18.594928741455078
1776870298104537600,11.20153759765625,-15.031936645507812,30.9375,-18.648540496826172
1776870298114574300,11.21157421875,-15.162811279296875,30.880592346191406,-19.028278350830078
1776870298124612400,11.2216123046875,-15.099319458007812,30.761375427246094,-19.016925811767578
1776870298134649300,11.2316494140625,-15.099319458007812,30.761375427246094,-19.016925811767578
1776870298144686300,11.241686279296875,-15.114936828613281,30.64781951904297,-18.974018096923828
1776870298154723300,11.251723388671875,-15.410232543945312,30.697174072265625,-19.029430389404297
1776870298164761300,11.26176123046875,-15.543807983398438,30.557350158691406,-18.998828887939453
1776870298174798600,11.271798583984374,-15.537834167480469,30.431480407714844,-18.922306060791016
1776870298184835300,11.28183544921875,-15.77203369140625,30.287567138671875,-18.960872650146484
1776870298194872300,11.291872314453125,-15.750839233398438,30.312088012695312,-18.80593490600586
1776870298204909300,11.301909423828125,-15.723617553710938,30.351524353027344,-18.87900161743164
1776870298214947600,11.311947509765625,-15.748031616210938,30.302963256835938,-19.019237518310547
1776870298224984300,11.321984375,-16.030685424804688,30.20384979248047,-19.070682525634766
1776870298235021300,11.332021240234376,-16.144142150878906,30.183006286621094,-19.148548126220703
1776870298245058300,11.342058349609376,-16.1373291015625,30.176742553710938,-18.855419158935547
1776870298255095600,11.352095458984374,-16.194656372070312,30.194358825683594,-19.014598846435547
1776870298265133300,11.36213330078125,-16.181320190429688,30.163307189941406,-18.77352523803711
1776870298275170300,11.37217041015625,-16.06317138671875,30.392852783203125,-18.726863861083984
1776870298285207300,11.382207275390625,-16.391738891601562,30.578392028808594,-18.91751480102539
1776870298295244500,11.39224462890625,-16.31964111328125,30.423797607421875,-18.98111343383789
1776870298305281300,11.40228125,-16.128616333007812,30.416000366210938,-19.031116485595703
1776870298315319300,11.4123193359375,-15.688835144042969,30.399581909179688,-18.892017364501953
1776870298325356500,11.4223564453125,-15.647270202636719,30.328041076660156,-19.07059097290039
1776870298335393500,11.4323935546875,-15.390167236328125,30.415252685546875,-19.143512725830078
1776870298345430300,11.44243017578125,-14.887153625488281,30.551658630371094,-18.99721908569336
1776870298355468300,11.45246826171875,-15.49700927734375,30.590927124023438,-19.743427276611328
1776870298365505500,11.462505615234376,-15.102828979492188,30.64196014404297,-19.553028106689453
1776870298375542500,11.47254248046875,-14.694969177246094,30.73175811767578,-19.311580657958984
1776870298385579300,11.482579345703124,-15.085128784179688,30.749610900878906,-19.41318130493164
1776870298395616300,11.4926162109375,-15.124778747558594,30.684974670410156,-19.294635772705078
1776870298405654500,11.502654541015625,-15.247573852539062,30.55805206298828,-19.35806655883789
1776870298415691300,11.512691162109375,-15.155143737792969,30.56639862060547,-19.328678131103516
1776870298425728300,11.522728271484375,-15.082771301269531,30.51361083984375,-19.391399383544922
1776870298435765200,11.53276513671875,-15.130111694335938,30.614471435546875,-19.22629165649414
1776870298445802500,11.542802490234376,-15.446640014648438,30.537887573242188,-19.356487274169922
1776870298455840300,11.55284033203125,-15.684638977050781,30.53656768798828,-19.46804428100586
1776870298465877200,11.562877197265625,-15.800338745117188,30.43022918701172,-19.457584381103516
1776870298475914500,11.57291455078125,-15.977165222167969,30.49211883544922,-19.607715606689453
1776870298485951500,11.582951416015625,-17.08209991455078,30.44013214111328,-20.395038604736328
1776870298495988500,11.592988525390625,-16.3280029296875,30.477447509765625,-19.82473373413086
1776870298506026200,11.603026123046876,-16.214263916015625,30.57288360595703,-19.572261810302734
1776870298516063500,11.6130634765625,-16.1241455078125,30.518463134765625,-19.649311065673828
1776870298526100500,11.6231005859375,-16.268959045410156,30.55864715576172,-19.515918731689453
1776870298536137200,11.63313720703125,-16.386444091796875,30.603103637695312,-19.681896209716797
1776870298546174200,11.64317431640625,-16.503250122070312,30.44963836669922,-19.761600494384766
1776870298556212500,11.65321240234375,-16.495399475097656,30.60875701904297,-19.861492156982422
1776870298566249500,11.66324951171875,-16.5106201171875,30.488792419433594,-19.870853424072266
1776870298576286200,11.6732861328125,-16.473129272460938,30.569793701171875,-19.680904388427734
1776870298586323200,11.6833232421875,-16.511322021484375,30.622726440429688,-19.747989654541016
1776870298596360400,11.6933603515625,-16.650848388671875,30.544837951660156,-19.960636138916016
1776870298606398500,11.7033984375,-16.391700744628906,30.746986389160156,-19.751224517822266
1776870298616435200,11.713435302734375,-16.543991088867188,30.570144653320312,-19.67928695678711
1776870298626472400,11.723472412109375,-16.47845458984375,30.65204620361328,-19.636676788330078
1776870298636509400,11.733509521484375,-15.995437622070312,30.648757934570312,-19.374256134033203
1776870298646546400,11.74354638671875,-16.733078002929688,30.57398223876953,-19.869068145751953
1776870298656584200,11.753584228515624,-16.321701049804688,30.561172485351562,-19.31325912475586
1776870298666621400,11.763621337890624,-16.2318115234375,30.5147705078125,-19.18429946899414
1776870298676658400,11.773658447265625,-16.619369506835938,30.451087951660156,-19.479793548583984
1776870298686695400,11.7836953125,-16.887657165527344,30.515060424804688,-19.612865447998047
1776870298696732200,11.793732177734375,-16.720237731933594,30.439544677734375,-19.27170181274414
1776870298706770400,11.8037705078125,-16.617210388183594,30.35193634033203,-18.932849884033203
1776870298716807400,11.813807373046876,-17.009750366210938,30.25025177001953,-18.966556549072266
1776870298726844400,11.823844482421874,-16.91344451904297,30.21198272705078,-18.892841339111328
1776870298736881200,11.833881103515624,-16.74449920654297,30.199607849121094,-18.798274993896484
1776870298746919400,11.84391943359375,-16.891265869140625,30.271148681640625,-18.678714752197266
1776870298756956400,11.853956298828125,-17.005767822265625,30.263214111328125,-18.538455963134766
1776870298766993400,11.863993408203125,-17.45146942138672,30.09027099609375,-18.631107330322266
1776870298777030400,11.874030517578126,-17.201751708984375,30.11920928955078,-18.523555755615234
1776870298787067400,11.8840673828125,-17.516326904296875,30.024078369140625,-18.679737091064453
1776870298797105400,11.89410546875,-17.667869567871094,30.031723022460938,-18.75344467163086
1776870298807142100,11.90414208984375,-17.822654724121094,29.933837890625,-18.640789031982422
1776870298817179400,11.914179443359375,-18.32282257080078,29.729896545410156,-18.679500579833984
1776870298827216400,11.92421630859375,-18.75390625,29.616661071777344,-18.867816925048828
1776870298837253400,11.93425341796875,-18.813980102539062,29.43408203125,-18.51285171508789
1776870298847291400,11.94429150390625,-19.086349487304688,29.145858764648438,-18.04703140258789
1776870298857328400,11.954328369140624,-19.527023315429688,29.02111053466797,-17.943645477294922
1776870298867365400,11.964365478515624,-20.560028076171875,28.91545867919922,-18.130016326904297
1776870298877402400,11.97440234375,-20.960235595703125,28.614105224609375,-17.802867889404297
1776870298887439600,11.984439697265625,-21.359222412109375,28.43102264404297,-17.652965545654297
1776870298897477400,11.994477294921875,-22.582420349121094,28.207107543945312,-18.176090240478516
1776870298907512300,12.00451220703125,-22.446395874023438,27.807464599609375,-17.742855072021484
1776870298917549300,12.01454931640625,-22.607696533203125,27.58740997314453,-17.613758087158203
1776870298927586300,12.02458642578125,-22.478187561035156,27.39141082763672,-17.283344268798828
1776870298937623300,12.034623291015626,-23.042739868164062,27.170150756835938,-17.23666763305664
1776870298947661300,12.044661376953124,-23.85882568359375,26.813087463378906,-17.417926788330078
1776870298957694000,12.05469384765625,-24.39965057373047,26.522125244140625,-17.318828582763672
1776870298967731000,12.06473095703125,-24.48291778564453,26.18799591064453,-17.111255645751953
1776870298977768200,12.074768310546874,-25.158920288085938,25.83319091796875,-16.913043975830078
1776870298987805200,12.08480517578125,-25.315818786621094,25.451675415039062,-16.571407318115234
1776870298997843000,12.094843017578125,-25.6527099609375,25.432464599609375,-16.375659942626953
1776870299007880000,12.1048798828125,-25.983184814453125,25.24005889892578,-15.99435043334961
1776870299017917200,12.114917236328125,-25.925827026367188,24.76720428466797,-15.60391616821289
1776870299027954200,12.1249541015625,-26.27173614501953,24.622879028320312,-15.463634490966797
1776870299037991200,12.1349912109375,-26.510643005371094,24.376312255859375,-15.052547454833984
1776870299048029200,12.145029296875,-26.799697875976562,24.092079162597656,-14.838634490966797
1776870299058066200,12.155066162109375,-27.426414489746094,23.702392578125,-14.637493133544922
1776870299068103200,12.165103271484375,-27.7430419921875,23.484603881835938,-14.28499984741211
1776870299078140000,12.175139892578125,-27.9122314453125,23.133468627929688,-13.682003021240234
1776870299088177000,12.185177001953125,-28.1431884765625,22.625099182128906,-13.196834564208984
1776870299098215200,12.195215087890626,-28.688865661621094,22.360511779785156,-12.999950408935547
1776870299108252200,12.205252197265626,-28.987472534179688,21.99737548828125,-12.413066864013672
1776870299118289000,12.215288818359374,-29.38250732421875,21.60492706298828,-11.87906265258789
1776870299128326100,12.225326171875,-29.726211547851562,21.292015075683594,-11.195598602294922
1776870299138364200,12.2353642578125,-29.846099853515625,21.127464294433594,-10.532344818115234
1776870299148401000,12.24540087890625,-30.07080078125,20.78326416015625,-9.824512481689453
1776870299158438000,12.25543798828125,-30.394935607910156,20.267311096191406,-9.170642852783203
1776870299168475100,12.26547509765625,-31.14649200439453,19.951187133789062,-8.899837493896484
1776870299178512100,12.27551220703125,-31.474853515625,19.57518768310547,-8.229534149169922
1776870299188549000,12.285549072265624,-31.625633239746094,18.88886260986328,-7.820102691650391
1776870299198587100,12.295587158203125,-32.17858123779297,18.261329650878906,-7.508670806884766
1776870299208624000,12.3056240234375,-32.46730041503906,17.746604919433594,-7.025821685791016
1776870299218661000,12.3156611328125,-32.94976043701172,16.978683471679688,-6.752277374267578
1776870299228698000,12.325697998046875,-33.0606689453125,16.346221923828125,-6.365207672119141
1776870299238735000,12.335735107421876,-33.289398193359375,15.765701293945312,-5.768230438232422
1776870299248773000,12.345773193359374,-33.460350036621094,15.035926818847656,-5.452915191650391
1776870299258810000,12.35581005859375,-33.460350036621094,15.035926818847656,-5.452915191650391
1776870299268847000,12.36584716796875,-34.660911560058594,13.401535034179688,-5.508693695068359
1776870299278884000,12.375884033203125,-34.660911560058594,13.401535034179688,-5.508693695068359
1776870299288921000,12.385921142578125,-35.149879455566406,12.454139709472656,-5.270687103271484
1776870299298959000,12.395958984375,-35.916534423828125,11.174407958984375,-5.263195037841797
1776870299308995800,12.405995849609376,-36.167137145996094,10.318984985351562,-4.972606658935547
1776870299319033000,12.416033203125,-35.839996337890625,9.528480529785156,-4.217617034912109
1776870299329070000,12.426070068359374,-36.41502380371094,8.394966125488281,-4.106204986572266
1776870299339108000,12.436108154296875,-36.469032287597656,7.4297943115234375,-3.806987762451172
1776870299349145000,12.44614501953125,-36.4412841796875,6.2183074951171875,-3.512371063232422
1776870299359182000,12.45618212890625,-36.55928039550781,5.105552673339844,-3.436634063720703
1776870299369219000,12.466218994140625,-36.26689910888672,3.9428634643554688,-2.7835426330566406
1776870299379256000,12.476256103515626,-36.19511413574219,2.6054534912109375,-2.638896942138672
1776870299389293300,12.486293212890626,-36.335792541503906,1.3223114013671875,-2.861614227294922
1776870299399331000,12.4963310546875,-36.612579345703125,0.0837249755859375,-3.2032814025878906
1776870299409368000,12.5063681640625,-36.169471740722656,-1.0582656860351562,-3.016521453857422
1776870299419405000,12.516405029296875,-35.961578369140625,-2.2912750244140625,-2.783588409423828
1776870299429442000,12.526442138671875,-35.60625457763672,-3.3424072265625,-2.6750526428222656
1776870299439479000,12.53647900390625,-35.78778839111328,-4.540645599365234,-2.888599395751953
1776870299449517000,12.54651708984375,-35.45957946777344,-5.671119689941406,-2.597545623779297
1776870299459554300,12.55655419921875,-34.94587707519531,-6.5910797119140625,-2.389972686767578
1776870299469591000,12.566591064453124,-34.55058288574219,-7.558891296386719,-1.8894767761230469
1776870299479628000,12.5766279296875,-34.448509216308594,-8.395977020263672,-1.8559226989746094
1776870299489666000,12.586666015625,-34.21986389160156,-9.331764221191406,-1.9540824890136719
1776870299499703300,12.596703369140625,-33.978919982910156,-10.02676773071289,-2.0781288146972656
1776870299509740000,12.606739990234376,-33.64508819580078,-10.841556549072266,-1.9199256896972656
1776870299519777000,12.616777099609376,-33.378570556640625,-11.334980010986328,-1.9495964050292969
1776870299529814000,12.62681396484375,-33.19792938232422,-11.608367919921875,-1.9633140563964844
1776870299539852000,12.63685205078125,-33.11570739746094,-12.01116943359375,-1.8123970031738281
1776870299549889000,12.646888916015625,-33.06689453125,-12.18166732788086,-1.8775138854980469
1776870299559926000,12.656926025390625,-32.842994689941406,-12.317169189453125,-1.6799812316894531
1776870299569963000,12.666962890625,-32.572509765625,-12.26108169555664,-1.7773170471191406
1776870299580000300,12.677000244140626,-32.44591522216797,-12.245773315429688,-1.5421943664550781
1776870299590038000,12.6870380859375,-32.835472106933594,-12.116363525390625,-1.8272972106933594
1776870299600075000,12.697074951171874,-33.20709991455078,-11.752971649169922,-2.0523033142089844
1776870299610112300,12.7071123046875,-33.16850280761719,-11.241809844970703,-1.8987998962402344
1776870299620149200,12.717149169921875,-33.508811950683594,-10.815189361572266,-2.041728973388672
1776870299630186000,12.72718603515625,-33.57145690917969,-10.160552978515625,-2.001728057861328
1776870299640224000,12.73722412109375,-33.74005889892578,-9.605300903320312,-2.071918487548828
1776870299650261200,12.74726123046875,-34.19574737548828,-9.02907943725586,-2.180248260498047
1776870299660298000,12.757298095703124,-34.16956329345703,-8.11478042602539,-2.1745262145996094
1776870299670335000,12.7673349609375,-34.208160400390625,-7.36737060546875,-2.1305503845214844
1776870299680372000,12.7773720703125,-34.50067138671875,-6.580940246582031,-2.350635528564453
1776870299690410200,12.78741015625,-35.100807189941406,-5.657169342041016,-2.9406776428222656
1776870299700447000,12.797447021484375,-35.27189636230469,-4.890415191650391,-2.9700889587402344
