time,seconds_elapsed,z,y,x
1773522678791962600,0.079962646484375,0.009703309275209904,-0.1422625184059143,0.4427444338798523
1773522678802000600,0.090000732421875,0.15777188539505005,-0.0343606173992157,0.4409327507019043
1773522678812038700,0.10003857421875,0.3058122396469116,0.01942218467593193,0.3833746612071991
1773522678822076700,0.11007666015625,0.41876721382141113,0.08546629548072815,0.22545941174030304
1773522678832114700,0.12011474609375,0.465998113155365,0.13727863132953644,-0.011460723355412483
1773522678842152700,0.130152587890625,0.5124000906944275,0.21934901177883148,-0.22930705547332764
1773522678852190700,0.140190673828125,0.6117346882820129,0.2813500761985779,-0.3410589098930359
1773522678862228700,0.150228759765625,0.7062313556671143,0.2685708999633789,-0.34095636010169983
1773522678872266500,0.1602666015625,0.7133369445800781,0.18414922058582306,-0.2908114492893219
1773522678882304800,0.1703046875,0.5975516438484192,0.27586162090301514,-0.19336463510990143
1773522678892341500,0.180341552734375,0.4486330449581146,0.5896163582801819,-0.1254042237997055
1773522678902379500,0.190379638671875,0.27402642369270325,0.7357646226882935,-0.1402980238199234
1773522678912417500,0.20041748046875,0.2147071659564972,0.7625051140785217,-0.20898866653442383
1773522678922455600,0.21045556640625,0.22791102528572083,0.9582724571228027,-0.31232476234436035
1773522678932493600,0.22049365234375,0.3400684893131256,1.3868001699447632,-0.41164150834083557
1773522678942531600,0.230531494140625,0.5240967869758606,1.4558578729629517,-0.5167128443717957
1773522678952569600,0.240569580078125,0.7715787291526794,1.2353262901306152,-0.6052458882331848
1773522678962607600,0.250607666015625,1.0194978713989258,1.2925910949707031,-0.6147101521492004
1773522678972645600,0.260645751953125,1.0879749059677124,1.7507990598678589,-0.5136219263076782
1773522678982683600,0.27068359375,0.9561301469802856,2.114927053451538,-0.4072628915309906
1773522678992721700,0.2807216796875,0.653272807598114,2.4078705310821533,-0.341928631067276
1773522679002759700,0.290759765625,0.5141737461090088,2.4576303958892822,-0.2785744071006775
1773522679012797700,0.300797607421875,0.5335602164268494,1.873630166053772,-0.25767603516578674
1773522679022835700,0.310835693359375,0.2869381606578827,1.3945159912109375,-0.07850506156682968
1773522679032873700,0.320873779296875,-0.10128147155046463,1.634156346321106,0.421787291765213
1773522679042911500,0.330911376953125,-0.4858924150466919,2.480205535888672,1.0209239721298218
1773522679052948700,0.34094873046875,-0.8232142925262451,3.5979549884796143,1.1146509647369385
1773522679062986500,0.350986572265625,-0.9860040545463562,4.721921920776367,0.7053629755973816
1773522679073024500,0.3610244140625,-1.1307697296142578,5.451357364654541,0.16043917834758759
1773522679083062500,0.3710625,-1.304726243019104,5.548269271850586,-0.06089439243078232
1773522679093100500,0.3811005859375,-1.336054801940918,2.385265588760376,0.47589579224586487
1773522679103138600,0.391138671875,-1.4390785694122314,-0.25292032957077026,0.6955652832984924
1773522679113176600,0.401176513671875,-0.8876219987869263,-0.46930989623069763,-0.014318141154944897
1773522679123214800,0.41121484375,-0.19192180037498474,-0.22675655782222748,-0.5661623477935791
1773522679133252600,0.421252685546875,0.29858773946762085,-0.2530566155910492,-0.7390134930610657
1773522679143290600,0.43129052734375,0.6520171165466309,0.13441202044487,-0.956190288066864
1773522679153328600,0.44132861328125,0.7845343947410583,0.44726234674453735,-1.3445953130722046
1773522679163366700,0.45136669921875,0.5944756865501404,0.6356127262115479,-1.660813570022583
1773522679173404700,0.46140478515625,0.23619237542152405,0.8242657780647278,-1.819671630859375
1773522679183442700,0.471442626953125,-0.17554913461208344,1.0047264099121094,-1.8641518354415894
1773522679193480700,0.481480712890625,-0.7599446773529053,-0.10880491137504578,-1.7682527303695679
1773522679203517700,0.491517578125,-0.5326382517814636,1.0981030464172363,-2.1866116523742676
1773522679213555500,0.501555419921875,-0.7707371115684509,0.7675912380218506,-2.3489179611206055
1773522679223593700,0.51159375,-0.48596054315567017,0.5957096219062805,-2.5326836109161377
1773522679233631500,0.521631591796875,-0.3978562355041504,-0.29086869955062866,-2.934093475341797
1773522679243669500,0.53166943359375,-0.2654053568840027,-0.8874633312225342,-3.4129819869995117
1773522679253707500,0.54170751953125,-0.07489774376153946,-1.2102237939834595,-4.168343544006348
1773522679263745500,0.55174560546875,0.0006307782605290413,-1.0708667039871216,-5.067432880401611
1773522679273783800,0.56178369140625,-0.3461466133594513,-0.4779520332813263,-5.884209632873535
1773522679283821600,0.571821533203125,-1.0855159759521484,0.15081191062927246,-6.405864715576172
1773522679293859800,0.58185986328125,-1.7556437253952026,0.654525101184845,-6.412126541137695
1773522679303897600,0.591897705078125,-2.432220935821533,0.7114934921264648,-5.953309059143066
1773522679313935600,0.601935546875,-2.861147880554199,0.20910336077213287,-5.202556133270264
1773522679323973600,0.6119736328125,-2.650437593460083,-0.37356293201446533,-4.516058444976807
1773522679334011600,0.62201171875,-2.1395599842071533,-0.8930063843727112,-4.360630035400391
1773522679344049700,0.632049560546875,-1.542861819267273,-1.1416631937026978,-4.7016215324401855
1773522679354087700,0.642087646484375,-1.3268696069717407,-0.9422342777252197,-5.345760345458984
1773522679364125700,0.652125732421875,-1.6764353513717651,-0.37801414728164673,-5.938032150268555
1773522679374162700,0.66216259765625,-2.4360992908477783,-0.038851797580718994,-6.041699409484863
1773522679384200400,0.672200439453125,-3.1870577335357666,0.07653802633285522,-5.524879455566406
1773522679394238700,0.68223876953125,-3.4459469318389893,-0.14779016375541687,-4.818124294281006
1773522679404276700,0.69227685546875,-3.2359910011291504,-0.4138728678226471,-4.298206806182861
1773522679414314500,0.702314453125,-3.030648708343506,-0.867082953453064,-4.314035892486572
1773522679424352800,0.712352783203125,-2.7511277198791504,-0.8732229471206665,-4.838667392730713
1773522679434390500,0.722390625,-2.3342270851135254,-0.11841116845607758,-5.719113826751709
1773522679444428800,0.7324287109375,-1.889668583869934,0.8771886825561523,-6.576181888580322
1773522679454466600,0.742466552734375,-1.3643382787704468,1.5060861110687256,-7.102011680603027
1773522679464504800,0.7525048828125,-0.8257192969322205,1.1625827550888062,-7.167970180511475
1773522679474542600,0.76254248046875,-0.3268304169178009,0.25429919362068176,-6.977079391479492
1773522679484580600,0.77258056640625,0.09154956787824631,-0.547126829624176,-6.569429874420166
1773522679494618600,0.78261865234375,0.3918702304363251,-0.6272150278091431,-5.961714267730713
1773522679504656600,0.79265673828125,0.6764970421791077,-0.010500842705368996,-5.4414191246032715
1773522679514694700,0.802694580078125,1.1749476194381714,0.9011287689208984,-5.1084794998168945
1773522679524732700,0.812732666015625,1.8556407690048218,1.4917290210723877,-4.812610626220703
1773522679534769400,0.822769287109375,2.597064256668091,1.732669711112976,-4.470135688781738
1773522679544807700,0.8328076171875,3.2747442722320557,1.8711503744125366,-4.067918300628662
1773522679554845700,0.842845703125,3.6948904991149902,2.3677237033843994,-3.34185791015625
1773522679564883700,0.8528837890625,3.6482231616973877,2.9247937202453613,-2.355135202407837
1773522679574921700,0.862921630859375,3.3012614250183105,3.352783679962158,-1.5151575803756714
1773522679584959500,0.87295947265625,2.833275556564331,3.6010305881500244,-0.7860336899757385
1773522679594997800,0.882997802734375,2.3222365379333496,3.609731912612915,-0.1356910914182663
1773522679605035500,0.893035400390625,1.8705925941467285,3.334669351577759,0.443987101316452
1773522679615073800,0.90307373046875,1.605942726135254,2.8420958518981934,0.8738088011741638
1773522679625111600,0.913111572265625,1.5227075815200806,2.2308812141418457,1.0780545473098755
1773522679635149800,0.92314990234375,1.542555809020996,1.686552882194519,1.0809911489486694
1773522679645187600,0.9331875,1.5690898895263672,1.269875168800354,0.9635745882987976
1773522679655225600,0.9432255859375,1.5258878469467163,0.8748666048049927,0.8208065032958984
1773522679665263600,0.953263671875,1.406816005706787,0.3984304368495941,0.7529030442237854
1773522679675301600,0.963301513671875,1.3370847702026367,-0.10164651274681091,0.7475194334983826
1773522679685339600,0.973339599609375,1.2447564601898193,-0.5295557379722595,0.6780040860176086
1773522679695376600,0.983376708984375,1.208770513534546,-0.8390270471572876,0.5187510251998901
1773522679705414700,0.99341455078125,1.2404437065124512,-0.876207172870636,0.3152005672454834
1773522679715452700,1.00345263671875,1.2496387958526611,-0.7722304463386536,0.06484664231538773
1773522679725490700,1.01349072265625,1.1322474479675293,-0.6291423439979553,-0.1395649015903473
1773522679735528700,1.02352880859375,1.0610555410385132,-0.6307817697525024,-0.24514564871788025
1773522679745566700,1.033566650390625,1.3849866390228271,-0.7935068011283875,-0.11596988886594772
1773522679755604500,1.0436044921875,1.742810845375061,-0.9718728065490723,0.10985524952411652
1773522679765642800,1.053642822265625,2.1737749576568604,-1.0337626934051514,0.18459446728229523
1773522679775676200,1.06367626953125,2.053095817565918,-0.6788790225982666,0.2354520559310913
1773522679785714400,1.07371435546875,1.7858448028564453,-0.10905556380748749,0.1995650976896286
1773522679795752200,1.083752197265625,1.7124793529510498,0.08365289866924286,0.13180309534072876
1773522679805790200,1.093790283203125,1.7569330930709839,-0.2788061201572418,0.10113546997308731
1773522679815828200,1.103828125,1.5240775346755981,-0.7856773734092712,0.13913556933403015
1773522679825866200,1.1138662109375,1.3382335901260376,-0.9766207337379456,0.3186543881893158
1773522679835904300,1.123904296875,1.0819660425186157,-1.184958815574646,0.3311808407306671
1773522679845942300,1.1339423828125,0.8376086354255676,-1.4547104835510254,0.29423171281814575
1773522679855980300,1.143980224609375,0.3394893705844879,-1.6836118698120117,0.30408328771591187
1773522679866018300,1.154018310546875,-0.12114480137825012,-1.764889121055603,0.3425480127334595
1773522679876055300,1.16405517578125,-0.5018649697303772,-1.7282096147537231,0.46113646030426025
1773522679886093300,1.17409326171875,-0.7870268225669861,-1.80471670627594,0.5355567336082458
1773522679896131300,1.18413134765625,-0.8934051990509033,-1.8239953517913818,0.654273509979248
1773522679906169000,1.194169189453125,-0.7615907788276672,-1.8439244031906128,0.7615315914154053
1773522679916207400,1.204207275390625,-0.54544597864151,-1.7332534790039062,0.7614586353302002
1773522679926245000,1.2142451171875,-0.4192717373371124,-1.5374253988265991,0.4768589437007904
1773522679936283400,1.224283447265625,-0.35625311732292175,-1.2917234897613525,0.0178694985806942
1773522679946321200,1.234321044921875,-0.3547593057155609,-0.9734084606170654,-0.27295026183128357
1773522679956359400,1.244359375,-0.3042042553424835,-0.7409879565238953,-0.3466588258743286
1773522679966397200,1.254397216796875,-0.09673169255256653,-0.6573795080184937,-0.20582100749015808
1773522679976435200,1.264435302734375,0.026397429406642914,-0.7464723587036133,-0.006863969378173351
1773522679986473200,1.27447314453125,-0.0023434339091181755,-0.8896135091781616,0.10443823039531708
1773522679996511200,1.28451123046875,-0.13377176225185394,-1.0444637537002563,0.113618403673172
1773522680006549200,1.29454931640625,-0.36018165946006775,-1.2284178733825684,0.17361624538898468
1773522680016587300,1.304587158203125,-0.6049216389656067,-1.335006594657898,0.2034101039171219
1773522680026625300,1.314625244140625,-0.6989614367485046,-1.3710688352584839,0.12296111136674881
1773522680036663300,1.324663330078125,-0.5882506370544434,-1.2256299257278442,0.012531002052128315
1773522680046701300,1.334701416015625,-0.438554972410202,-1.06136953830719,-0.06886961311101913
1773522680056738300,1.34473828125,-0.28503385186195374,-0.8568577170372009,-0.10460950434207916
1773522680066776300,1.3547763671875,-0.18963882327079773,-0.5712286233901978,-0.08623658865690231
1773522680076814000,1.36481396484375,-0.08677848428487778,-0.29226812720298767,-0.04073940962553024
1773522680086852400,1.374852294921875,-0.022067485377192497,0.09954752773046494,0.03809857368469238
1773522680096890000,1.38489013671875,-0.07278019934892654,0.6452625393867493,0.07125626504421234
1773522680106928400,1.394928466796875,-0.20328955352306366,0.9713519811630249,0.11625077575445175
1773522680116966100,1.404966064453125,-0.40977802872657776,1.2205181121826172,0.035256318747997284
1773522680127004400,1.41500439453125,-0.6496893763542175,1.3900913000106812,-0.13729768991470337
1773522680137042200,1.425042236328125,-0.6544591188430786,1.635027527809143,-0.2583961486816406
1773522680147080200,1.435080078125,-0.5343127250671387,1.8658969402313232,-0.33122631907463074
1773522680157118200,1.4451181640625,-0.3112402558326721,1.9578313827514648,-0.3881727159023285
1773522680167156200,1.45515625,0.04854057729244232,2.002919912338257,-0.4095251262187958
1773522680177194200,1.4651943359375,0.5673390030860901,2.0625407695770264,-0.3758776783943176
1773522680187232300,1.475232177734375,0.9810678362846375,1.7092840671539307,-0.2656485438346863
1773522680197270300,1.485270263671875,1.4282532930374146,1.4605748653411865,-0.3116040527820587
1773522680207308300,1.495308349609375,1.851967215538025,1.5380977392196655,-0.446754515171051
1773522680217346300,1.50534619140625,2.2766716480255127,1.690775990486145,-0.6393125057220459
1773522680227384300,1.51538427734375,2.523902177810669,1.7823700904846191,-0.8291120529174805
1773522680237422300,1.52542236328125,2.5761313438415527,1.937291145324707,-1.018414855003357
1773522680247459000,1.535458984375,2.6674065589904785,1.8221185207366943,-1.1331390142440796
1773522680257497300,1.545497314453125,2.7081475257873535,1.3824684619903564,-1.1971380710601807
1773522680267535000,1.55553515625,2.7603626251220703,0.9905920028686523,-1.1287685632705688
1773522680277573400,1.565573486328125,2.7522902488708496,0.8282744884490967,-1.1740206480026245
1773522680287611100,1.575611083984375,2.527590274810791,0.5858621597290039,-1.2126563787460327
1773522680297649400,1.5856494140625,2.296495199203491,0.3385554254055023,-1.1369134187698364
1773522680307687200,1.595687255859375,2.0926806926727295,0.03692421317100525,-1.05454421043396
1773522680317725200,1.60572509765625,1.913938283920288,-0.38047248125076294,-0.9501900672912598
1773522680327763200,1.61576318359375,1.6635626554489136,-0.8723078966140747,-0.8703135848045349
1773522680337801200,1.62580126953125,1.445455551147461,-1.272260308265686,-0.8474119901657104
1773522680347839200,1.635839111328125,1.2509915828704834,-1.642594575881958,-0.7730114459991455
1773522680357877200,1.645877197265625,0.9190424680709839,-2.04628849029541,-0.6089926958084106
1773522680367915300,1.655915283203125,0.5532174706459045,-2.3166491985321045,-0.37464439868927
1773522680377953300,1.665953369140625,0.03110557049512863,-2.5993263721466064,-0.12790092825889587
1773522680387991300,1.6759912109375,-0.48983505368232727,-2.6124091148376465,0.11938415467739105
1773522680398029300,1.686029296875,-1.0269222259521484,-2.304445743560791,0.41217634081840515
1773522680408067300,1.6960673828125,-1.7080267667770386,-2.0131916999816895,0.694243311882019
1773522680418105300,1.706105224609375,-2.562453508377075,-1.430990219116211,1.0854454040527344
1773522680428143400,1.716143310546875,-3.3686227798461914,-0.8216509222984314,1.491513967514038
1773522680438180000,1.72618017578125,-4.030915260314941,-0.4035312235355377,1.7130080461502075
1773522680448218400,1.73621826171875,-4.301641464233398,-0.16063201427459717,1.7861021757125854
1773522680458256100,1.746256103515625,-4.177213668823242,0.14677241444587708,1.8591161966323853
1773522680468294400,1.75629443359375,-3.9484689235687256,-0.09170770645141602,2.0031816959381104
1773522680478332200,1.766332275390625,-3.591294288635254,-0.8826470971107483,2.048326253890991
1773522680488370200,1.7763701171875,-3.6423757076263428,-2.219207286834717,1.866045355796814
1773522680498408200,1.786408203125,-3.757025718688965,-3.013805389404297,1.2597415447235107
1773522680508446200,1.7964462890625,-3.8293676376342773,-3.3335585594177246,0.4419897198677063
1773522680518484500,1.806484375,-3.768782138824463,-3.496621608734131,-0.4070169925689697
1773522680528522200,1.816522216796875,-3.420194149017334,-3.3215084075927734,-1.1318000555038452
1773522680538560500,1.826560546875,-2.686894178390503,-2.837268352508545,-1.8454023599624634
1773522680548598300,1.836598388671875,-1.780936360359192,-1.309431552886963,-2.184103012084961
1773522680558636300,1.84663623046875,-0.8209447860717773,0.3780228793621063,-1.710422158241272
1773522680568674300,1.85667431640625,0.12057967483997345,1.3231701850891113,-0.6296666860580444
1773522680578712300,1.86671240234375,0.824053943157196,1.5797252655029297,0.39099830389022827
1773522680588750300,1.876750244140625,0.958142101764679,1.5359658002853394,0.8986344337463379
1773522680598788400,1.886788330078125,0.7166708707809448,1.0344792604446411,0.9863251447677612
1773522680608826400,1.896826416015625,0.30537480115890503,0.3662610650062561,0.8268644213676453
1773522680618864400,1.906864501953125,-0.1727835237979889,-0.07630596309900284,0.6371259093284607
1773522680628902100,1.916902099609375,-0.6408768892288208,-0.26284343004226685,0.5095652937889099
1773522680638940400,1.9269404296875,-1.0011184215545654,-0.32612544298171997,0.43697237968444824
1773522680648977200,1.93697705078125,-1.1500847339630127,-0.3955882489681244,0.3433283865451813
1773522680659015200,1.94701513671875,-1.3471119403839111,-0.2661133408546448,0.21132533252239227
1773522680669053400,1.957053466796875,-1.5280462503433228,-0.19346942007541656,0.03522339463233948
1773522680679091200,1.96709130859375,-1.6554375886917114,-0.2806421220302582,-0.18874020874500275
1773522680689129500,1.97712939453125,-1.6722694635391235,-0.5384432673454285,-0.4377381205558777
1773522680699167200,1.987167236328125,-1.6599414348602295,-0.8973047733306885,-0.693850576877594
1773522680709205500,1.99720556640625,-1.654632568359375,-1.1753770112991333,-0.9167697429656982
1773522680719243300,2.0072431640625,-1.5487087965011597,-1.2037376165390015,-1.0526561737060547
1773522680729281300,2.01728125,-1.4255925416946411,-0.8685221076011658,-1.1091359853744507
1773522680739319300,2.0273193359375,-1.302420735359192,-0.2856687903404236,-1.0630133152008057
1773522680749357300,2.037357421875,-1.0813121795654297,0.22759296000003815,-0.8849061727523804
1773522680759395300,2.047395263671875,-1.0086315870285034,0.6645172834396362,-0.650100827217102
1773522680769433300,2.057433349609375,-0.8190663456916809,0.8368450999259949,-0.34051477909088135
1773522680779475500,2.067475341796875,-0.7768014669418335,0.8545982837677002,-0.08265872299671173
1773522680789513500,2.077513427734375,-0.8926013112068176,0.6736655831336975,0.06229807436466217
1773522680799551500,2.087551513671875,-1.1805338859558105,0.4946710765361786,0.013007755391299725
1773522680809589500,2.097589599609375,-1.457600712776184,0.29720211029052734,-0.1063067689538002
1773522680819627500,2.10762744140625,-1.5536673069000244,0.47913888096809387,-0.22206158936023712
1773522680829665500,2.11766552734375,-1.4972455501556396,1.2961735725402832,-0.20903220772743225
1773522680839703600,2.12770361328125,-1.4727871417999268,2.078932762145996,-0.2024478018283844
1773522680849740500,2.137740478515625,-1.366341471672058,2.605185031890869,-0.34209004044532776
1773522680859778300,2.1477783203125,-1.340124249458313,2.788548231124878,-0.4757849872112274
1773522680869816600,2.157816650390625,-1.3356424570083618,2.825500249862671,-0.6152858734130859
1773522680879854300,2.167854248046875,-1.4603338241577148,2.427760601043701,-0.8811550736427307
1773522680889892600,2.177892578125,-1.9794591665267944,1.462872862815857,-1.3319458961486816
1773522680899930400,2.187930419921875,-2.3594048023223877,1.3313616514205933,-1.316668152809143
1773522680909968400,2.197968505859375,-2.7021889686584473,1.6465508937835693,-0.9884416460990906
1773522680920006400,2.20800634765625,-3.0050580501556396,1.9072797298431396,-0.5640736222267151
1773522680930044400,2.21804443359375,-3.121321201324463,1.927166223526001,-0.15360252559185028
1773522680940082400,2.22808251953125,-3.021365165710449,1.7081036567687988,0.0997498407959938
1773522680950120400,2.238120361328125,-2.8273773193359375,1.2992956638336182,0.06294406205415726
1773522680960158500,2.248158447265625,-2.3282957077026367,0.7333782315254211,-0.7415937185287476
1773522680970196500,2.258196533203125,-1.5511664152145386,-0.1249101385474205,-1.8988889455795288
1773522680980234500,2.268234375,-0.8481787443161011,-1.2358709573745728,-2.6639702320098877
1773522680990272500,2.2782724609375,-0.2664586007595062,-2.1781959533691406,-2.7842588424682617
1773522681000310500,2.288310546875,0.1404399424791336,-2.81017804145813,-2.4018771648406982
1773522681010348500,2.2983486328125,0.3813890814781189,-3.223465919494629,-1.737231969833374
1773522681020386600,2.308386474609375,0.46061867475509644,-3.492274761199951,-0.9516298770904541
1773522681030424600,2.318424560546875,0.387003093957901,-3.6207380294799805,-0.15491297841072083
1773522681040462600,2.328462646484375,0.1951947808265686,-3.4903674125671387,0.5413201451301575
1773522681050499300,2.338499267578125,-0.09339959919452667,-3.071554660797119,1.0718836784362793
1773522681060537600,2.34853759765625,-0.4553530216217041,-2.445554733276367,1.435359001159668
1773522681070575400,2.358575439453125,-0.8488366603851318,-1.761053442955017,1.6295537948608398
1773522681080613400,2.36861328125,-1.194683313369751,-1.1653753519058228,1.5961942672729492
1773522681090651400,2.3786513671875,-1.3723781108856201,-0.826816976070404,1.3168617486953735
1773522681100689400,2.388689453125,-1.365087628364563,-0.738427460193634,0.9335412979125977
1773522681110727400,2.3987275390625,-1.2052481174468994,-0.795289933681488,0.6073815226554871
1773522681120765400,2.408765380859375,-0.9365450143814087,-0.8764644265174866,0.42242494225502014
1773522681130803700,2.4188037109375,-0.6351385116577148,-0.9106841683387756,0.37729406356811523
1773522681140841500,2.428841552734375,-0.36983203887939453,-0.9186432957649231,0.41833657026290894
1773522681150879500,2.43887939453125,-0.19391949474811554,-0.9854541420936584,0.46521589159965515
1773522681160917500,2.44891748046875,-0.11093778908252716,-1.1104892492294312,0.4556828439235687
1773522681170955500,2.45895556640625,-0.10938472300767899,-1.24148428440094,0.3671087920665741
1773522681180993500,2.46899365234375,-0.16166497766971588,-1.3262172937393188,0.22681640088558197
1773522681191031600,2.479031494140625,-0.2498723268508911,-1.4443786144256592,0.0337064228951931
1773522681201069600,2.489069580078125,-0.3686407804489136,-1.648091435432434,-0.17447182536125183
1773522681211107600,2.499107666015625,-0.4736497402191162,-1.814936876296997,-0.3741982579231262
1773522681221145300,2.509145263671875,-0.545988917350769,-1.9917430877685547,-0.5348705053329468
1773522681231183600,2.51918359375,-0.5638833045959473,-2.158881187438965,-0.6427084803581238
1773522681241221400,2.529221435546875,-0.5300062894821167,-2.311566114425659,-0.696872353553772
1773522681251259600,2.539259765625,-0.4919132590293884,-2.408611536026001,-0.7121166586875916
1773522681261296400,2.54929638671875,-0.4687557518482208,-2.4088687896728516,-0.7070824503898621
1773522681271334400,2.55933447265625,-0.4922814965248108,-2.264402151107788,-0.6953221559524536
1773522681281372700,2.56937255859375,-0.7047911286354065,-2.026322841644287,-0.7268403768539429
1773522681291410400,2.579410400390625,-1.6664338111877441,-1.9087636470794678,-0.8547011613845825
1773522681301448700,2.58944873046875,-2.0965466499328613,-1.62139093875885,-0.6983746886253357
1773522681311486500,2.599486572265625,-2.006920337677002,-1.5896533727645874,-0.4034618139266968
1773522681321524500,2.6095244140625,-1.560246467590332,-1.5409516096115112,0.056481558829545975
1773522681331562500,2.6195625,-0.9388986229896545,-1.3717238903045654,0.57386314868927
1773522681341600500,2.6296005859375,-0.3571534752845764,-1.0332989692687988,1.0498906373977661
1773522681351638500,2.639638427734375,0.12361922860145569,-0.6319060325622559,1.3433994054794312
1773522681361676500,2.649676513671875,0.45997354388237,-0.2602139711380005,1.3960291147232056
1773522681371714600,2.659714599609375,0.6465421319007874,0.1160905659198761,1.2625254392623901
1773522681381752600,2.669752685546875,0.6543547511100769,0.4931291937828064,1.0100101232528687
1773522681391790300,2.679790283203125,0.5376657843589783,0.8809518814086914,0.7488394975662231
1773522681401828600,2.68982861328125,0.33762264251708984,1.210011601448059,0.530600368976593
1773522681411866400,2.699866455078125,0.15127071738243103,1.4456344842910767,0.3733409643173218
1773522681421904600,2.709904541015625,0.03703681007027626,1.5636109113693237,0.296617716550827
1773522681431942400,2.7199423828125,-0.007048115599900484,1.5573327541351318,0.27006208896636963
1773522681441980700,2.729980712890625,-0.008850010111927986,1.441585659980774,0.26448169350624084
1773522681452018400,2.740018310546875,0.007741361856460571,1.2025338411331177,0.24573592841625214
1773522681462055400,2.750055419921875,0.018397735431790352,0.8727269768714905,0.2270655781030655
1773522681472093700,2.76009375,0.015880722552537918,0.5062828063964844,0.20752781629562378
1773522681482131500,2.77013134765625,0.004657630808651447,0.16679765284061432,0.17871960997581482
1773522681492169500,2.78016943359375,-0.030560100451111794,-0.11808573454618454,0.14419329166412354
1773522681502207500,2.79020751953125,-0.09327621757984161,-0.3957687318325043,0.10150574147701263
1773522681512245500,2.80024560546875,-0.17204980552196503,-0.672447919845581,0.049846649169921875
1773522681522283500,2.810283447265625,-0.2640420198440552,-0.9460361003875732,-0.0027550405357033014
1773522681532321500,2.820321533203125,-0.35768795013427734,-1.1840405464172363,-0.04814218357205391
1773522681542359600,2.830359619140625,-0.4380919933319092,-1.3778477907180786,-0.08775936812162399
1773522681552397600,2.8403974609375,-0.4808080792427063,-1.507628083229065,-0.11936435103416443
1773522681562435300,2.850435302734375,-0.4867844581604004,-1.5750521421432495,-0.14126193523406982
1773522681572473600,2.8604736328125,-0.45874279737472534,-1.569267988204956,-0.1382904052734375
1773522681582511400,2.870511474609375,-0.4260900318622589,-1.5028711557388306,-0.11057382076978683
1773522681592549600,2.880549560546875,-0.39150986075401306,-1.3837833404541016,-0.05380558222532272
1773522681602587400,2.89058740234375,-0.37436309456825256,-1.222946286201477,0.016543680801987648
1773522681612625700,2.900625732421875,-0.3805697560310364,-1.0350878238677979,0.08857309073209763
1773522681622663400,2.910663330078125,-0.3902492821216583,-0.8373537063598633,0.15492388606071472
1773522681632701400,2.920701416015625,-0.34914320707321167,-0.6712923645973206,0.21876177191734314
1773522681642739500,2.930739501953125,-0.26941829919815063,-0.5519566535949707,0.2834467887878418
1773522681652776400,2.9407763671875,-0.1951112151145935,-0.4570436477661133,0.35148781538009644
1773522681662814500,2.950814453125,-0.15670336782932281,-0.3723630905151367,0.4200791120529175
1773522681672852500,2.9608525390625,-0.15150471031665802,-0.3025416433811188,0.4841262400150299
1773522681682890500,2.970890380859375,-0.1403101086616516,-0.2656683325767517,0.5268723964691162
1773522681692928500,2.980928466796875,-0.13610726594924927,-0.293391615152359,0.5601087212562561
1773522681702966500,2.990966552734375,-0.13798320293426514,-0.3556502163410187,0.5794840455055237
1773522681713004500,3.001004638671875,-0.14123275876045227,-0.4145585000514984,0.5683000087738037
1773522681723042600,3.01104248046875,-0.14973783493041992,-0.45308831334114075,0.5343289971351624
1773522681733080300,3.021080322265625,-0.1532999873161316,-0.45440617203712463,0.480349600315094
1773522681743118600,3.03111865234375,-0.13610050082206726,-0.44751548767089844,0.4139157235622406
1773522681753156400,3.04115625,-0.1013253852725029,-0.42603057622909546,0.3520040810108185
1773522681763194600,3.051194580078125,-0.05414189398288727,-0.396369069814682,0.30092570185661316
1773522681773232400,3.061232421875,-0.0046149929985404015,-0.35809609293937683,0.26276451349258423
1773522681783270400,3.0712705078125,0.04730306565761566,-0.3176421523094177,0.22006206214427948
1773522681793308200,3.08130810546875,0.10092418640851974,-0.28627321124076843,0.16645322740077972
1773522681803346200,3.09134619140625,0.13599267601966858,-0.2753388285636902,0.09122080355882645
1773522681813384200,3.10138427734375,0.17141003906726837,-0.3006708025932312,-0.001101404195651412
1773522681823422200,3.111422119140625,0.1859506368637085,-0.3328889012336731,-0.09273838251829147
1773522681833460200,3.121460205078125,0.16845904290676117,-0.3645220398902893,-0.16622012853622437
1773522681843497200,3.131497314453125,0.11334679275751114,-0.3579650819301605,-0.20662082731723785
1773522681853535200,3.14153515625,0.0506463386118412,-0.3335719108581543,-0.17552462220191956
1773522681863573200,3.1515732421875,-0.021551162004470825,-0.2808825969696045,-0.045912835747003555
1773522681873611300,3.161611328125,-0.10857976973056793,-0.18734802305698395,0.17673179507255554
1773522681883649300,3.171649169921875,-0.19754160940647125,-0.06230888143181801,0.45128560066223145
1773522681893687300,3.181687255859375,-0.25276613235473633,0.040178727358579636,0.7209272384643555
1773522681903725000,3.19172509765625,-0.27362507581710815,0.075738325715065,0.9269038438796997
1773522681913763300,3.201763427734375,-0.27215367555618286,0.08902977406978607,1.050437569618225
1773522681923801000,3.211801025390625,-0.24461978673934937,0.10450141131877899,1.110115885734558
1773522681933839400,3.22183935546875,-0.18027755618095398,0.14321419596672058,1.1288557052612305
1773522681943877000,3.231877197265625,-0.07576444745063782,0.22139741480350494,1.1470848321914673
1773522681953915400,3.241915283203125,0.052551887929439545,0.3177103102207184,1.1893826723098755
1773522681963953200,3.251953125,0.1780027449131012,0.4335937798023224,1.2786686420440674
1773522681973991200,3.2619912109375,0.2760765850543976,0.5571061372756958,1.395552396774292
1773522681984029200,3.272029296875,0.34142816066741943,0.6698468327522278,1.5107139348983765
1773522681994067200,3.282067138671875,0.3750971257686615,0.7580071091651917,1.5875710248947144
1773522682004105200,3.292105224609375,0.36462610960006714,0.7931547164916992,1.6215132474899292
1773522682014143200,3.302143310546875,0.3137209713459015,0.7959524989128113,1.5950967073440552
1773522682024180200,3.31218017578125,0.2256326824426651,0.8176194429397583,1.50690495967865
1773522682034218200,3.32221826171875,0.13269613683223724,0.8834547996520996,1.372309923171997
1773522682044256300,3.33225634765625,0.07718068361282349,0.9778516292572021,1.1990553140640259
1773522682054294300,3.342294189453125,0.08586226403713226,1.0652084350585938,1.0045311450958252
1773522682064332300,3.352332275390625,0.15846429765224457,1.1278443336486816,0.8129801154136658
1773522682074370000,3.3623701171875,0.2498313933610916,1.1606013774871826,0.6300860643386841
1773522682084408300,3.372408203125,0.3326413333415985,1.1464855670928955,0.4647868573665619
1773522682094446000,3.382446044921875,0.3665848970413208,1.087803840637207,0.317564994096756
1773522682104484400,3.392484375,0.3795805871486664,0.9644260406494141,0.1832660287618637
1773522682114522000,3.402522216796875,0.3801034986972809,0.8484494686126709,0.11140041798353195
1773522682124560400,3.412560302734375,0.3240290582180023,0.7674382328987122,0.087337426841259
1773522682134598100,3.42259814453125,0.24158813059329987,0.6650195121765137,0.058101385831832886
1773522682144636200,3.43263623046875,0.1960243582725525,0.5002683997154236,-0.007391603663563728
1773522682154674200,3.442674072265625,0.17518699169158936,0.2980257272720337,-0.10939794033765793
1773522682164712200,3.452712158203125,0.1678697019815445,0.136610209941864,-0.2375926673412323
1773522682174750200,3.462750244140625,0.16343215107917786,0.05054854229092598,-0.3848678171634674
1773522682184788200,3.472788330078125,0.14208984375,0.015290423296391964,-0.5344565510749817
1773522682194826200,3.482826171875,0.115808866918087,-0.03125748783349991,-0.6652987599372864
1773522682204864300,3.4928642578125,0.09061083197593689,-0.09489798545837402,-0.7706014513969421
1773522682214901200,3.5029013671875,0.07760345190763474,-0.16833657026290894,-0.8648421168327332
1773522682224939300,3.512939208984375,0.08513007313013077,-0.22871282696723938,-0.9468123316764832
1773522682234977300,3.522977294921875,0.09960245341062546,-0.24220773577690125,-1.0072253942489624
1773522682245015000,3.53301513671875,0.1235370859503746,-0.23243899643421173,-1.0777618885040283
1773522682255053300,3.54305322265625,0.14687517285346985,-0.26855942606925964,-1.189265489578247
1773522682265091000,3.553091064453125,0.17614464461803436,-0.3687153458595276,-1.3285584449768066
1773522682275129300,3.56312939453125,0.19058535993099213,-0.49440237879753113,-1.4649763107299805
1773522682285167000,3.5731669921875,0.2013450711965561,-0.6383896470069885,-1.5695983171463013
1773522682295205400,3.583205322265625,0.21956589818000793,-0.7837741374969482,-1.634572148323059
1773522682305243100,3.5932431640625,0.20809301733970642,-0.8728505373001099,-1.669816493988037
1773522682315281200,3.60328125,0.19739198684692383,-0.8493859171867371,-1.6723517179489136
1773522682325319200,3.613319091796875,0.19517730176448822,-0.6367889642715454,-1.6189225912094116
1773522682335357200,3.623357177734375,0.24886000156402588,-0.3471721112728119,-1.4948805570602417
1773522682345395200,3.633395263671875,0.43018263578414917,-0.04449371621012688,-1.276978850364685
1773522682355433200,3.64343310546875,0.577522873878479,0.23859496414661407,-0.9781423211097717
1773522682365471200,3.65347119140625,0.5523970127105713,0.4074271321296692,-0.6209277510643005
1773522682375509200,3.66350927734375,0.3607843518257141,0.4104085862636566,-0.2481430321931839
1773522682385546200,3.673546142578125,0.09761237353086472,0.15086328983306885,0.08770821988582611
1773522682395584300,3.683584228515625,-0.1728018820285797,-0.4503607451915741,0.3934728801250458
1773522682405622300,3.693622314453125,-0.45191898941993713,-1.3185451030731201,0.7313396334648132
1773522682415660000,3.703659912109375,-0.6926838159561157,-2.130692481994629,1.0731145143508911
1773522682425698300,3.7136982421875,-0.8167943358421326,-2.59562611579895,1.3545520305633545
1773522682435736000,3.723736083984375,-0.8398123383522034,-2.5839035511016846,1.5370477437973022
1773522682445774300,3.7337744140625,-0.7793766856193542,-2.242593765258789,1.576676607131958
1773522682455812000,3.74381201171875,-0.7129627466201782,-1.7453793287277222,1.4691802263259888
1773522682465850400,3.753850341796875,-0.6268073916435242,-1.2984577417373657,1.2525185346603394
1773522682475888000,3.76388818359375,-0.5027151107788086,-0.9453785419464111,0.9435667395591736
1773522682485926100,3.773926025390625,-0.34864407777786255,-0.6484313011169434,0.5672567486763
1773522682495964400,3.78396435546875,-0.20643523335456848,-0.3101198971271515,0.19347216188907623
1773522682506002200,3.794002197265625,-0.08871418982744217,-0.005158400163054466,-0.09648589789867401
1773522682516040400,3.80404052734375,0.00031060725450515747,0.23428449034690857,-0.27717113494873047
1773522682526078200,3.814078125,0.048308491706848145,0.378011018037796,-0.3934210240840912
1773522682536116200,3.8241162109375,0.07200177758932114,0.32869479060173035,-0.5133432745933533
1773522682546154200,3.834154296875,0.05072258412837982,0.01276718731969595,-0.7441253662109375
1773522682556191200,3.844191162109375,-0.05052792280912399,-0.5679426789283752,-1.1501082181930542
1773522682566229200,3.854229248046875,-0.25848352909088135,-1.1929442882537842,-1.6093841791152954
1773522682576267300,3.864267333984375,-0.5113416314125061,-1.3563082218170166,-1.8641109466552734
1773522682586305000,3.874304931640625,-0.5973233580589294,-0.7378036379814148,-1.5419936180114746
1773522682596343300,3.88434326171875,-0.3453669250011444,0.07689274847507477,-0.5643200874328613
1773522682606381000,3.894381103515625,0.029282841831445694,0.20519478619098663,0.5648764371871948
1773522682616419300,3.90441943359375,0.28620272874832153,-0.34133946895599365,1.3051443099975586
1773522682626457000,3.91445703125,0.3866017460823059,-1.17585027217865,1.5158259868621826
1773522682636495400,3.924495361328125,0.42966428399086,-1.8406312465667725,1.3638449907302856
1773522682646533400,3.934533447265625,0.461190789937973,-2.0254688262939453,1.0843931436538696
1773522682656571100,3.944571044921875,0.4351595938205719,-1.6982183456420898,0.764910876750946
1773522682666609400,3.954609375,0.32420510053634644,-0.9393536448478699,0.3942076563835144
1773522682676647200,3.964647216796875,0.16144748032093048,0.021738369017839432,0.016070660203695297
1773522682686685400,3.974685546875,0.012989562004804611,0.9084053635597229,-0.3223510682582855
1773522682696723200,3.98472314453125,-0.041100066155195236,1.6024280786514282,-0.6172761917114258
1773522682706761200,3.99476123046875,0.06945627182722092,1.9683245420455933,-0.8327107429504395
1773522682716799200,4.00479931640625,0.27240440249443054,1.934966802597046,-0.9029335975646973
1773522682726837200,4.014837158203125,0.39477744698524475,1.6752699613571167,-0.841084361076355
1773522682736874200,4.024874267578125,0.3232339322566986,1.349092960357666,-0.6851064562797546
1773522682746912300,4.034912353515625,0.046877458691596985,1.0526328086853027,-0.45814868807792664
1773522682756950000,4.044949951171875,-0.30108582973480225,0.7707406282424927,-0.2199697345495224
1773522682766988300,4.05498828125,-0.5946159958839417,0.4757436513900757,-0.03172100707888603
1773522682777022700,4.065022705078125,-0.7530913352966309,0.2519213855266571,0.043600037693977356
1773522682787061000,4.07506103515625,-0.7829411029815674,0.17942480742931366,-0.01002377737313509
1773522682797098800,4.0850986328125,-0.7464756369590759,0.3200458884239197,-0.11949153989553452
1773522682807136800,4.09513671875,-0.6889699697494507,0.657160222530365,-0.19918636977672577
1773522682817174800,4.1051748046875,-0.6088848114013672,1.0549489259719849,-0.19885385036468506
1773522682827212800,4.115212890625,-0.52799391746521,1.3866312503814697,-0.11242815107107162
1773522682837251000,4.1252509765625,-0.4849194884300232,1.566185712814331,-0.016523834317922592
1773522682847288800,4.135288818359375,-0.47911009192466736,1.6004738807678223,0.050613924860954285
1773522682857327000,4.1453271484375,-0.49913984537124634,1.5277358293533325,0.07912036031484604
1773522682867364900,4.15536474609375,-0.5255464315414429,1.4401775598526,0.10880980640649796
1773522682877403000,4.16540283203125,-0.5343436002731323,1.373671293258667,0.1600838303565979
1773522682887441000,4.17544091796875,-0.5252265334129333,1.3119986057281494,0.21920014917850494
1773522682897479000,4.18547900390625,-0.5011818408966064,1.2488778829574585,0.27768611907958984
1773522682907515600,4.195515625,-0.47078293561935425,1.1912353038787842,0.3273349106311798
1773522682917554000,4.205553955078125,-0.44036707282066345,1.1673818826675415,0.37327316403388977
1773522682927591700,4.215591796875,-0.40625038743019104,1.23467218875885,0.40818241238594055
1773522682937630000,4.2256298828125,-0.36901721358299255,1.4247581958770752,0.4158281981945038
1773522682947667700,4.235667724609375,-0.3405038118362427,1.7248612642288208,0.40115123987197876
1773522682957706000,4.2457060546875,-0.32228773832321167,2.0482122898101807,0.38643550872802734
1773522682967744000,4.255743896484375,-0.3250797688961029,2.302823305130005,0.37055134773254395
1773522682977781800,4.26578173828125,-0.32056668400764465,2.4146931171417236,0.3496432602405548
1773522682987820000,4.275820068359375,-0.29839852452278137,2.368529796600342,0.30285099148750305
1773522682997857800,4.28585791015625,-0.27702054381370544,2.200100898742676,0.22136864066123962
1773522683007896000,4.29589599609375,-0.23634105920791626,1.9760864973068237,0.09268868714570999
1773522683017933800,4.305933837890625,-0.1820635199546814,1.7922155857086182,-0.04377127066254616
1773522683027972000,4.31597216796875,-0.10535836219787598,1.6969305276870728,-0.14574158191680908
1773522683038009900,4.326009765625,-0.05327858403325081,1.7060604095458984,-0.17776136100292206
1773522683048047900,4.3360478515625,-0.06823356449604034,1.8226897716522217,-0.10734259337186813
1773522683058086000,4.3460859375,-0.15812274813652039,1.9838324785232544,0.07409998774528503
1773522683068124000,4.3561240234375,-0.31503379344940186,2.115506649017334,0.28715604543685913
1773522683078162000,4.366161865234375,-0.4786333739757538,2.0826661586761475,0.46259605884552
1773522683088199000,4.376198974609375,-0.5856690406799316,1.8140485286712646,0.5788190364837646
1773522683098236700,4.386236572265625,-0.5783821940422058,1.5079587697982788,0.6163885593414307
1773522683108275000,4.39627490234375,-0.5304676294326782,1.4024723768234253,0.5979198217391968
1773522683118313000,4.40631298828125,-0.4904950261116028,1.436828374862671,0.5285260081291199
1773522683128351000,4.41635107421875,-0.4361817240715027,1.408127784729004,0.4228230118751526
1773522683138389000,4.426388916015625,-0.3686683475971222,1.2777628898620605,0.34591585397720337
1773522683148426800,4.4364267578125,-0.29747992753982544,1.2453322410583496,0.2917042672634125
1773522683158465000,4.446465087890625,-0.35376814007759094,1.3219325542449951,0.3161303699016571
1773522683168502800,4.456502685546875,-0.5117439031600952,1.3209682703018188,0.3858215808868408
1773522683178541000,4.466541015625,-0.6961744427680969,1.1739935874938965,0.45632317662239075
1773522683188578800,4.476578857421875,-0.8671792149543762,0.9409663677215576,0.5077080726623535
1773522683198617000,4.4866171875,-0.9964309930801392,0.7241242527961731,0.5199552774429321
1773522683208654800,4.49665478515625,-1.0562703609466553,0.5877107381820679,0.48690512776374817
1773522683218692900,4.50669287109375,-1.0330005884170532,0.5403752326965332,0.41362661123275757
1773522683228731000,4.51673095703125,-0.935143232345581,0.545555591583252,0.3090173900127411
1773522683238769000,4.526768798828125,-0.77310711145401,0.5521515011787415,0.1512877196073532
1773522683248807000,4.536806884765625,-0.5313258767127991,0.5663924813270569,-0.053001776337623596
1773522683258845000,4.546844970703125,-0.1841144561767578,0.564060389995575,-0.2786273658275604
1773522683268882000,4.5568818359375,0.22699132561683655,0.5111082196235657,-0.558508038520813
1773522683278920000,4.566919921875,0.5801228880882263,0.3991783857345581,-0.857224702835083
1773522683288958000,4.5769580078125,0.796528160572052,0.2549929916858673,-1.08668053150177
1773522683298996000,4.586995849609375,0.898747980594635,-0.021486593410372734,-1.1293314695358276
1773522683309034000,4.597033935546875,0.9675936102867126,-0.4673517048358917,-0.9623826742172241
1773522683319071700,4.60707177734375,1.0116924047470093,-0.9388182163238525,-0.6606338620185852
1773522683329110000,4.617110107421875,0.9743626117706299,-1.0688904523849487,-0.1044020876288414
1773522683339147800,4.627147705078125,0.8174983859062195,-0.8438190817832947,0.814384400844574
1773522683349186000,4.63718603515625,0.4697372317314148,-0.7597721219062805,1.5586739778518677
1773522683359223800,4.647223876953125,-0.06642400473356247,-1.079638123512268,1.9622210264205933
1773522683369262000,4.657261962890625,-0.657001793384552,-1.445400357246399,2.2031776905059814
1773522683379299800,4.6672998046875,-1.0922026634216309,-1.6110315322875977,2.3067893981933594
1773522683389337900,4.677337890625,-1.2597746849060059,-1.5793689489364624,2.2804150581359863
1773522683399376000,4.6873759765625,-1.272928237915039,-1.4058523178100586,2.144791841506958
1773522683409414000,4.697413818359375,-1.2103242874145508,-1.132427453994751,1.925433874130249
1773522683419452000,4.707451904296875,-1.074837327003479,-0.7791157364845276,1.708088755607605
1773522683429490000,4.717489990234375,-0.8658632636070251,-0.3411114811897278,1.5135231018066406
1773522683439527700,4.727527587890625,-0.5558404922485352,0.10644080489873886,1.2872247695922852
1773522683449566000,4.73756591796875,-0.1206786036491394,0.36745455861091614,0.9580801129341125
1773522683459603000,4.74760302734375,0.4950256943702698,0.5543115139007568,0.5543050765991211
1773522683469641000,4.757640869140625,1.0849491357803345,1.143614411354065,0.1673256754875183
1773522683479679000,4.767678955078125,1.268974781036377,1.661048173904419,-0.009381549432873726
1773522683489716700,4.777716796875,1.1519677639007568,1.6076414585113525,0.10513970255851746
1773522683499755000,4.787755126953125,0.8576673269271851,1.028753399848938,0.4421730637550354
1773522683509792800,4.797792724609375,0.4875824749469757,0.1615845263004303,0.9225838780403137
1773522683519831000,4.8078310546875,0.2504116892814636,-0.5342053771018982,1.3359988927841187
1773522683529868800,4.817868896484375,0.17269667983055115,-0.825696587562561,1.5259041786193848
1773522683539907000,4.827906982421875,0.16071011126041412,-0.7938555479049683,1.5077568292617798
1773522683549944800,4.83794482421875,0.11464647948741913,-0.6946948766708374,1.4446707963943481
1773522683559982800,4.84798291015625,0.015886344015598297,-0.670906126499176,1.485892415046692
1773522683570020900,4.858020751953125,-0.07129063457250595,-0.7410907745361328,1.6183286905288696
1773522683580059000,4.868058837890625,-0.0893474891781807,-0.8550609946250916,1.6928904056549072
1773522683590097000,4.878096923828125,-0.05844496935606003,-0.8675687909126282,1.605464220046997
1773522683600135000,4.888135009765625,0.01771194115281105,-0.7311380505561829,1.3920588493347168
1773522683610172700,4.898172607421875,0.11740337312221527,-0.5484278798103333,1.1295387744903564
1773522683620211000,4.9082109375,0.22876454889774323,-0.33838072419166565,0.9045332670211792
1773522683630248000,4.918248046875,0.29206231236457825,-0.19922974705696106,0.7393139600753784
1773522683640286000,4.928285888671875,0.33850347995758057,-0.09191126376390457,0.6574345231056213
1773522683650324000,4.938323974609375,0.3736606538295746,0.015445282682776451,0.6328535676002502
1773522683660361700,4.94836181640625,0.36396482586860657,0.057895492762327194,0.6024381518363953
1773522683670400000,4.95839990234375,0.29617780447006226,0.02706647291779518,0.573901355266571
1773522683680437800,4.968437744140625,0.2523873746395111,0.019688792526721954,0.5428011417388916
1773522683690476000,4.97847607421875,0.20217855274677277,-0.053477026522159576,0.5466387271881104
1773522683700513800,4.988513671875,0.1404389888048172,-0.1926283985376358,0.5884633660316467
1773522683710552000,4.998552001953125,0.056151002645492554,-0.3109070956707001,0.6639506816864014
1773522683720589800,5.00858984375,0.003956921398639679,-0.41484537720680237,0.7171292901039124
1773522683730627800,5.0186279296875,-0.005190504714846611,-0.4518928825855255,0.7211660742759705
1773522683740665900,5.028665771484375,0.010952661745250225,-0.44336429238319397,0.7037749290466309
1773522683750703900,5.038703857421875,0.025597915053367615,-0.4381101429462433,0.6550084948539734
1773522683760742000,5.048741943359375,0.042080990970134735,-0.4079625606536865,0.5781998038291931
1773522683770780000,5.05877978515625,0.06626328825950623,-0.36720553040504456,0.4881519377231598
1773522683780817700,5.068817626953125,0.14063520729541779,-0.254912406206131,0.42593252658843994
1773522683790856000,5.07885595703125,0.18140234053134918,-0.05832503363490105,0.316769003868103
1773522683800893700,5.088893798828125,0.178578183054924,-0.03895779699087143,0.2946494519710541
1773522683810932000,5.098931884765625,0.17880800366401672,-0.20445887744426727,0.40750622749328613
1773522683820969000,5.108968994140625,0.20086710155010223,-0.1836317479610443,0.38785791397094727
1773522683831006700,5.1190068359375,0.15484076738357544,-0.27257707715034485,0.4225200116634369
1773522683841045000,5.129044921875,0.10277777165174484,-0.3987284004688263,0.5011047124862671
1773522683851082800,5.139082763671875,0.09342741221189499,-0.4803316593170166,0.5302527546882629
1773522683861121000,5.14912109375,0.059130728244781494,-0.35638242959976196,0.42839938402175903
1773522683871158800,5.15915869140625,-0.015088911168277264,-0.3845461308956146,0.376354843378067
1773522683881197000,5.169197021484375,-0.05948031321167946,-0.4821098744869232,0.4093532860279083
1773522683891234800,5.17923486328125,-0.037554509937763214,-0.4222998023033142,0.39336153864860535
1773522683901272800,5.18927294921875,-0.005096435081213713,-0.3040067255496979,0.3377757668495178
1773522683911310800,5.199310791015625,0.02811051905155182,-0.18655917048454285,0.29515108466148376
1773522683921348900,5.209348876953125,0.0727480873465538,0.013303729705512524,0.20229676365852356
1773522683931387000,5.219386962890625,0.0029940418899059296,-0.24505779147148132,0.329954594373703
1773522683941425000,5.2294248046875,-0.027210405096411705,-0.4349198043346405,0.42558252811431885
1773522683951463000,5.239462890625,-0.013824292458593845,-0.2578614056110382,0.37529751658439636
1773522683961501000,5.2495009765625,-0.004361255094408989,-0.17025329172611237,0.30161425471305847
1773522683971538700,5.25953857421875,0.01963675394654274,-0.1063251793384552,0.25035879015922546
1773522683981577000,5.269576904296875,0.02007114887237549,-0.052301786839962006,0.18720094859600067
1773522683991614700,5.27961474609375,0.013805530034005642,0.0166876632720232,0.09659009426832199
1773522684001653000,5.289653076171875,-0.016520656645298004,0.12702560424804688,-0.009629019536077976
1773522684011690000,5.29968994140625,-0.029770947992801666,0.17132090032100677,-0.10234084725379944
1773522684021727700,5.309727783203125,-0.02721540629863739,0.19637086987495422,-0.16512326896190643
1773522684031766000,5.31976611328125,-0.06381123512983322,0.20372626185417175,-0.20738950371742249
1773522684041803800,5.3298037109375,-0.12852808833122253,0.19908887147903442,-0.23621872067451477
1773522684051842000,5.339842041015625,-0.1820211410522461,0.18071679770946503,-0.25781136751174927
1773522684061879800,5.3498798828125,-0.20426912605762482,0.155390664935112,-0.2591943144798279
1773522684071917800,5.359917724609375,-0.22924798727035522,0.1452552080154419,-0.23284125328063965
1773522684081955800,5.369955810546875,-0.2924787402153015,0.14295709133148193,-0.1936471313238144
1773522684091993900,5.379993896484375,-0.3695271909236908,0.11767783761024475,-0.12676529586315155
1773522684102032000,5.390031982421875,-0.4150097370147705,0.10114715248346329,-0.06658231467008591
1773522684112070000,5.40006982421875,-0.37759605050086975,0.11799430847167969,-0.0378529354929924
1773522684122108000,5.41010791015625,-0.25029805302619934,0.21260377764701843,-0.09265254437923431
1773522684132146000,5.42014599609375,-0.14851336181163788,0.2825290560722351,-0.16029071807861328
1773522684142183700,5.43018359375,-0.13715004920959473,0.28521180152893066,-0.18281710147857666
1773522684152222000,5.440221923828125,-0.14870630204677582,0.250628799200058,-0.14799147844314575
1773522684162259700,5.450259765625,-0.15237723290920258,0.1827956587076187,-0.10477281361818314
1773522684172298000,5.460298095703125,-0.11370466649532318,0.11009030044078827,-0.07231020927429199
1773522684182335700,5.470335693359375,-0.07771438360214233,0.05809033662080765,-0.06440354138612747
1773522684192373800,5.480373779296875,-0.06049598380923271,0.05854174494743347,-0.0607648640871048
1773522684202411000,5.490410888671875,-0.05674572288990021,0.033023104071617126,-0.04855542629957199
1773522684212448800,5.50044873046875,-0.05864056199789047,-0.007763738743960857,-0.03778586909174919
1773522684222487000,5.510487060546875,-0.052030712366104126,-0.033491674810647964,-0.04507719725370407
1773522684232524800,5.52052490234375,-0.024989239871501923,-0.035658419132232666,-0.07391177862882614
1773522684242562800,5.530562744140625,0.012109127826988697,-0.027273761108517647,-0.10710611939430237
1773522684252600800,5.540600830078125,0.05020351707935333,-0.039887554943561554,-0.11723119020462036
1773522684262638800,5.550638916015625,0.06852301955223083,-0.07683675736188889,-0.10537642240524292
1773522684272676900,5.5606767578125,0.058111656457185745,-0.13168349862098694,-0.10035716742277145
1773522684282715000,5.57071484375,0.027544278651475906,-0.162379652261734,-0.10863584280014038
1773522684292753000,5.5807529296875,-0.0012098737061023712,-0.18610921502113342,-0.127831369638443
1773522684302791000,5.590791015625,-0.04209877923130989,-0.2060699164867401,-0.15335796773433685
1773522684312828700,5.60082861328125,-0.07251900434494019,-0.19619064033031464,-0.183717742562294
1773522684322867000,5.610866943359375,-0.12136732041835785,-0.18246901035308838,-0.2175062596797943
1773522684332904700,5.62090478515625,-0.18704406917095184,-0.15421020984649658,-0.24890784919261932
1773522684342943000,5.63094287109375,-0.2581236958503723,-0.07843092083930969,-0.2678588628768921
1773522684352980700,5.640980712890625,-0.29588252305984497,0.03122980147600174,-0.2995084226131439
1773522684363018800,5.651018798828125,-0.29077038168907166,0.13587863743305206,-0.34947076439857483
1773522684373056800,5.661056884765625,-0.24868763983249664,0.24187058210372925,-0.3921860158443451
1773522684383094800,5.6710947265625,-0.1516413688659668,0.36273786425590515,-0.3800213932991028
1773522684393132800,5.6811328125,-0.038870878517627716,0.39718320965766907,-0.3028104901313782
1773522684403170800,5.6911708984375,0.03626633808016777,0.3343321979045868,-0.22142808139324188
1773522684413207800,5.701207763671875,0.06036900728940964,0.2244291603565216,-0.17364537715911865
1773522684423245800,5.711245849609375,0.036294713616371155,0.14152052998542786,-0.14934799075126648
1773522684433283800,5.721283935546875,-0.013416917063295841,0.12747076153755188,-0.10963120311498642
1773522684443321900,5.73132177734375,-0.08102451264858246,0.13436219096183777,-0.03636464849114418
1773522684453359900,5.74135986328125,-0.13774052262306213,0.08846046775579453,0.02664068154990673
1773522684463398000,5.75139794921875,-0.14748992025852203,0.033551160246133804,0.01560770533978939
1773522684473436000,5.761435791015625,-0.10911482572555542,0.10605838149785995,-0.07356211543083191
1773522684483473700,5.7714736328125,-0.03309785574674606,0.25728678703308105,-0.183611661195755
1773522684493512000,5.781511962890625,0.06334879249334335,0.39769530296325684,-0.2550775706768036
1773522684503549700,5.7915498046875,0.15651218593120575,0.4951995015144348,-0.266320139169693
1773522684513588000,5.801587890625,0.2281791865825653,0.5147632956504822,-0.25175026059150696
1773522684523625700,5.811625732421875,0.24111907184123993,0.43980491161346436,-0.22407376766204834
1773522684533663700,5.821663818359375,0.2202603965997696,0.3212715983390808,-0.17134611308574677
1773522684543701800,5.83170166015625,0.2194618582725525,0.2394564151763916,-0.09922623634338379
1773522684553739800,5.84173974609375,0.22347284853458405,0.2164967656135559,-0.025847088545560837
1773522684563778000,5.851778076171875,0.21224039793014526,0.19168637692928314,0.024123653769493103
1773522684573815800,5.86181591796875,0.14238247275352478,0.1497863233089447,0.04560284689068794
1773522684583854000,5.87185400390625,0.04747694358229637,0.13756762444972992,0.07745636999607086
1773522684593891800,5.881891845703125,-0.010634832084178925,0.13734763860702515,0.09773740917444229
1773522684603929900,5.891929931640625,0.0038260137662291527,0.13292565941810608,0.0867285504937172
1773522684613968000,5.9019677734375,0.03462600335478783,0.14412957429885864,0.05199826881289482
1773522684624006000,5.912005859375,0.04628381133079529,0.15425170958042145,-0.013330107554793358
1773522684634044000,5.9220439453125,0.03382101655006409,0.16053436696529388,-0.07922390103340149
1773522684644081000,5.932080810546875,0.014193492941558361,0.17229703068733215,-0.11802615225315094
1773522684654118700,5.94211865234375,0.0021331021562218666,0.20134040713310242,-0.12211277335882187
1773522684664157000,5.952156982421875,0.00405625905841589,0.21792100369930267,-0.10008823126554489
1773522684674194700,5.962194580078125,0.0028162915259599686,0.17824602127075195,-0.0761120617389679
1773522684684233000,5.97223291015625,-0.003932216204702854,0.10219885408878326,-0.036117348819971085
1773522684694271000,5.98227099609375,0.01652512326836586,0.012273753061890602,0.031328536570072174
1773522684704308700,5.992308837890625,0.0436498299241066,-0.07361011952161789,0.10536303371191025
1773522684714347000,6.002346923828125,0.03329279646277428,-0.15253102779388428,0.15872693061828613
1773522684724384800,6.012384765625,0.014988979324698448,-0.1997222900390625,0.18197084963321686
1773522684734423000,6.022423095703125,0.014892039820551872,-0.2127709835767746,0.17916575074195862
1773522684744460800,6.032460693359375,0.031516849994659424,-0.17918911576271057,0.1414693295955658
1773522684754499000,6.0424990234375,0.07140940427780151,-0.09293518215417862,0.08923168480396271
1773522684764536800,6.052536865234375,0.10474653542041779,-0.021749315783381462,0.05594279244542122
1773522684774574800,6.062574951171875,0.11430008709430695,-0.003953541163355112,0.043109018355607986
1773522684784616700,6.07261669921875,0.09902242571115494,-0.013599174097180367,0.03979082405567169
1773522684794654700,6.08265478515625,0.06818541139364243,0.00435505760833621,0.057256635278463364
1773522684804692500,6.0926923828125,0.033344756811857224,0.01244926918298006,0.08076929301023483
1773522684814730800,6.102730712890625,0.016049392521381378,0.025943506509065628,0.1012045294046402
1773522684824768500,6.1127685546875,0.014624778181314468,0.0683961734175682,0.11662925779819489
1773522684834806800,6.122806884765625,-0.0008654976263642311,0.09327036142349243,0.13267506659030914
1773522684844844500,6.132844482421875,-0.05205914378166199,0.09372752904891968,0.15076051652431488
1773522684854882800,6.1428828125,-0.1309201419353485,0.10714400559663773,0.19218918681144714
1773522684864920600,6.152920654296875,-0.2123612016439438,0.14022761583328247,0.2530457079410553
1773522684874958600,6.16295849609375,-0.27979031205177307,0.15756772458553314,0.31751522421836853
1773522684884995600,6.17299560546875,-0.34311577677726746,0.1546628475189209,0.3764612078666687
1773522684895033600,6.18303369140625,-0.3975377380847931,0.1422083079814911,0.4386393427848816
1773522684905071600,6.193071533203125,-0.44043686985969543,0.12707287073135376,0.48185452818870544
1773522684915109600,6.203109619140625,-0.45417237281799316,0.13282635807991028,0.5076909065246582
1773522684925147600,6.213147705078125,-0.45100635290145874,0.1454649567604065,0.5324201583862305
1773522684935185700,6.223185546875,-0.44518494606018066,0.14406253397464752,0.5474302768707275
1773522684945223700,6.2332236328125,-0.44466662406921387,0.10864248126745224,0.5557017922401428
1773522684955261700,6.24326171875,-0.4312317669391632,0.11737525463104248,0.5538631677627563
1773522684965299700,6.2532998046875,-0.3968292474746704,0.1717139482498169,0.5504370927810669
1773522684975337500,6.26333740234375,-0.34562838077545166,0.19213426113128662,0.5392006635665894
1773522684985375700,6.273375732421875,-0.27217429876327515,0.21014904975891113,0.4926292300224304
1773522684995413500,6.28341357421875,-0.18775984644889832,0.1759149134159088,0.45697295665740967
1773522685005451800,6.29345166015625,-0.12692081928253174,0.15162812173366547,0.42815327644348145
1773522685015489500,6.303489501953125,-0.08726342022418976,0.1370031088590622,0.3986912667751312
1773522685025527800,6.31352783203125,-0.0500904843211174,0.11274027824401855,0.3759630024433136
1773522685035565600,6.323565673828125,-0.020749639719724655,0.11600824445486069,0.37129154801368713
1773522685045603600,6.333603515625,-0.022935234010219574,0.11428698897361755,0.3961450159549713
1773522685055641600,6.3436416015625,-0.054465726017951965,0.04303411394357681,0.4213062822818756
1773522685065679600,6.3536796875,-0.07804262638092041,-0.03152894973754883,0.43091046810150146
1773522685075717600,6.363717529296875,-0.07288409024477005,-0.037525855004787445,0.4218895435333252
1773522685085755600,6.373755615234375,-0.018336396664381027,0.17925775051116943,0.32048270106315613
1773522685095793700,6.383793701171875,0.013064668513834476,0.19995132088661194,0.2759069800376892
1773522685105831700,6.393831787109375,-0.017807286232709885,-0.07665398716926575,0.41017651557922363
1773522685115869400,6.403869384765625,-0.06896847486495972,-0.1504451185464859,0.4879453480243683
1773522685125907700,6.41390771484375,-0.11458063870668411,-0.13421711325645447,0.4865969121456146
1773522685135945500,6.423945556640625,-0.1531275063753128,-0.1542360931634903,0.4709987938404083
1773522685145983700,6.433983642578125,-0.1807646006345749,-0.1410149335861206,0.4671124219894409
1773522685156021500,6.444021484375,-0.1829875409603119,-0.0852866992354393,0.47938692569732666
1773522685166059800,6.454059814453125,-0.16468799114227295,-0.08292316645383835,0.4988544285297394
1773522685176096800,6.4640966796875,-0.12348169088363647,0.08085031807422638,0.37049806118011475
1773522685186134500,6.474134521484375,-0.13694095611572266,0.06270911544561386,0.3201041519641876
1773522685196172800,6.4841728515625,-0.1903783529996872,-0.1652422994375229,0.5282056927680969
1773522685206210600,6.49421044921875,-0.24584181606769562,-0.1533004641532898,0.635767936706543
1773522685216248600,6.50424853515625,-0.30821117758750916,-0.195963516831398,0.6542132496833801
1773522685226286600,6.51428662109375,-0.3629610538482666,-0.2584594488143921,0.6376184225082397
1773522685236324600,6.52432470703125,-0.41376087069511414,-0.21574926376342773,0.6184300780296326
1773522685246362600,6.534362548828125,-0.3703966736793518,0.012760256417095661,0.4812479019165039
1773522685256400600,6.544400634765625,-0.36841049790382385,0.16676074266433716,0.32476454973220825
1773522685266438700,6.554438720703125,-0.44889122247695923,-0.17631091177463531,0.5261824131011963
1773522685276476700,6.5644765625,-0.45818352699279785,-0.1901542842388153,0.5971623063087463
1773522685286514400,6.574514404296875,-0.42431142926216125,-0.15944628417491913,0.5825734734535217
1773522685296552700,6.584552734375,-0.4128550589084625,-0.15787768363952637,0.576872706413269
1773522685306590500,6.594590576171875,-0.4248001277446747,-0.08782438933849335,0.565384566783905
1773522685316628700,6.604628662109375,-0.43388521671295166,-0.029428455978631973,0.5995569229125977
1773522685326666500,6.61466650390625,-0.4467013478279114,-0.0028664960991591215,0.611993670463562
1773522685336704800,6.624704833984375,-0.4874895215034485,0.0524180643260479,0.6063535809516907
1773522685346742500,6.634742431640625,-0.38142359256744385,0.49454614520072937,0.3330497741699219
1773522685356780500,6.644780517578125,-0.41536638140678406,0.39789682626724243,0.26781269907951355
1773522685366818600,6.654818603515625,-0.4694967567920685,0.21864287555217743,0.4212875962257385
1773522685376856600,6.664856689453125,-0.47826388478279114,0.07382415980100632,0.5517950057983398
1773522685386894600,6.67489453125,-0.4412268400192261,0.07118334621191025,0.4960782825946808
1773522685396932600,6.6849326171875,-0.402751088142395,0.14340348541736603,0.4213060438632965
1773522685406970600,6.694970703125,-0.3755774199962616,0.18575872480869293,0.40469440817832947
1773522685417008600,6.705008544921875,-0.34167060256004333,0.09685628861188889,0.4432297945022583
1773522685427046700,6.715046630859375,-0.27209874987602234,0.0886940211057663,0.4386458992958069
1773522685437084700,6.725084716796875,-0.19592568278312683,0.0856686681509018,0.4464428424835205
1773522685447122700,6.735122802734375,-0.1430610865354538,0.11701393127441406,0.4361222982406616
1773522685457160700,6.74516064453125,-0.08783404529094696,0.1586226224899292,0.38022229075431824
1773522685467198700,6.75519873046875,-0.015171851962804794,0.16547109186649323,0.32781070470809937
1773522685477236500,6.765236572265625,0.045956484973430634,0.17085519433021545,0.3143995404243469
1773522685487273700,6.775273681640625,0.05884677171707153,0.10193368792533875,0.29419463872909546
1773522685497311500,6.7853115234375,0.0716770812869072,0.07499927282333374,0.2772497534751892
1773522685507349800,6.795349853515625,0.13824188709259033,0.06795785576105118,0.2505396604537964
1773522685517387500,6.805387451171875,0.22134634852409363,0.11310189217329025,0.22833366692066193
1773522685527425500,6.815425537109375,0.2798764109611511,0.156879261136055,0.18697677552700043
1773522685537463600,6.825463623046875,0.29997265338897705,0.16205669939517975,0.13408906757831573
1773522685547501600,6.83550146484375,0.3171313405036926,0.18012209236621857,0.08693361282348633
1773522685557539600,6.84553955078125,0.34717288613319397,0.2109106332063675,0.04796384647488594
1773522685567577600,6.85557763671875,0.37274524569511414,0.19304589927196503,0.014223161153495312
1773522685577615600,6.86561572265625,0.397260457277298,0.1600797027349472,0.010265969671308994
1773522685587653600,6.875653564453125,0.4006521999835968,0.14951178431510925,-0.027124367654323578
1773522685597691600,6.885691650390625,0.3789362609386444,0.1372937262058258,-0.047678377479314804
1773522685607729700,6.895729736328125,0.330965518951416,0.1260923147201538,-0.06734015047550201
1773522685617767700,6.905767578125,0.28460147976875305,0.10417582094669342,-0.09902112185955048
1773522685627805700,6.9158056640625,0.24169328808784485,0.0505170114338398,-0.10840294510126114
1773522685637843700,6.92584375,0.2041025012731552,0.03686751052737236,-0.10871719568967819
1773522685647881500,6.935881591796875,0.15779921412467957,0.04665706306695938,-0.0784028097987175
1773522685657919700,6.945919677734375,0.11520835012197495,0.021170612424612045,-0.06248855963349342
1773522685667957500,6.95595751953125,0.06756225228309631,-0.044332943856716156,-0.055286705493927
1773522685677995800,6.965995849609375,0.055228091776371,-0.0831248089671135,-0.04499438777565956
1773522685688033500,6.976033447265625,0.08062124252319336,-0.08066168427467346,-0.08009984344244003
1773522685698071800,6.98607177734375,0.15510053932666779,-0.053314484655857086,-0.0919804722070694
1773522685708109600,6.996109619140625,0.2305142879486084,-0.0741761177778244,-0.11840297281742096
1773522685718147600,7.006147705078125,0.28138837218284607,-0.10025272518396378,-0.1517380326986313
1773522685728185600,7.016185546875,0.3157946467399597,-0.11393868923187256,-0.17076531052589417
1773522685738223600,7.0262236328125,0.3295213580131531,-0.1715889275074005,-0.20061348378658295
1773522685748261600,7.03626171875,0.35445576906204224,-0.24046823382377625,-0.24822181463241577
1773522685758299600,7.046299560546875,0.4401051700115204,-0.28142550587654114,-0.3008174002170563
1773522685768337700,7.056337646484375,0.5452143549919128,-0.3087488114833832,-0.35210201144218445
1773522685778371800,7.066371826171875,0.6298938393592834,-0.2980216145515442,-0.39765194058418274
1773522685788409600,7.07640966796875,0.6875793933868408,-0.3017343282699585,-0.41782084107398987
1773522685798447900,7.08644775390625,0.7142701148986816,-0.31533241271972656,-0.4277743995189667
1773522685808485600,7.096485595703125,0.720400333404541,-0.29400208592414856,-0.4403373599052429
1773522685818523600,7.106523681640625,0.811851441860199,-0.29653528332710266,-0.4513702988624573
1773522685828561700,7.116561767578125,0.8190791010856628,-0.15201860666275024,-0.4617137312889099
1773522685838599700,7.126599609375,0.7637529969215393,-0.0796450674533844,-0.456329345703125
1773522685848637700,7.1366376953125,0.6643152236938477,-0.04951396584510803,-0.4668945372104645
1773522685858675700,7.14667578125,0.5474125742912292,-0.04654773697257042,-0.47113746404647827
1773522685868713700,7.156713623046875,0.44449490308761597,0.031929776072502136,-0.4192838966846466
1773522685878751700,7.166751708984375,0.264460951089859,0.07151473313570023,-0.35901764035224915
1773522685888789800,7.176789794921875,0.10773308575153351,0.09083291888237,-0.2850571274757385
1773522685898827800,7.186827880859375,-0.007265678606927395,0.16201788187026978,-0.2012234926223755
1773522685908865800,7.19686572265625,-0.08469425141811371,0.17679844796657562,-0.15162640810012817
1773522685918903800,7.20690380859375,-0.15040135383605957,0.1447981595993042,-0.10003698617219925
1773522685928941800,7.21694189453125,-0.23572513461112976,0.11593127995729446,-0.031126458197832108
1773522685938978600,7.226978515625,-0.3341558277606964,0.04566057771444321,0.032250117510557175
1773522685949016800,7.237016845703125,-0.42305293679237366,0.0029071324970573187,0.08759988844394684
1773522685959054600,7.2470546875,-0.45146965980529785,0.000047962646931409836,0.08566217124462128
1773522685969092900,7.2570927734375,-0.42411646246910095,0.09632444381713867,0.050270866602659225
1773522685979130600,7.267130615234375,-0.3696862459182739,0.17559956014156342,0.0238786768168211
1773522685989168600,7.277168701171875,-0.3131687045097351,0.2548406422138214,-0.0061286259442567825
1773522685999206700,7.28720654296875,-0.26891523599624634,0.28129062056541443,0.013937493786215782
1773522686009244700,7.29724462890625,-0.2303839474916458,0.30022332072257996,0.09784888476133347
1773522686019283000,7.307282958984375,-0.22771281003952026,0.24111339449882507,0.14469416439533234
1773522686029320700,7.31732080078125,-0.24301201105117798,0.23142720758914948,0.15042395889759064
1773522686039359000,7.32735888671875,-0.25502845644950867,0.25958532094955444,0.13077355921268463
1773522686049396700,7.337396728515625,-0.25462669134140015,0.22409605979919434,0.055549368262290955
1773522686059434800,7.347434814453125,-0.22354841232299805,0.2508009076118469,-0.040728431195020676
1773522686069472800,7.35747265625,-0.14597700536251068,0.2950613498687744,-0.1597142368555069
1773522686079510800,7.3675107421875,-0.05430168658494949,0.3286975920200348,-0.31254613399505615
1773522686089548800,7.377548828125,0.05811439827084541,0.3720042109489441,-0.4344976842403412
1773522686099586800,7.3875869140625,0.14389188587665558,0.3629729151725769,-0.5425407886505127
1773522686109624600,7.39762451171875,0.2528436779975891,0.32555684447288513,-0.5804285407066345
1773522686119662800,7.407662841796875,0.3498589098453522,0.34833192825317383,-0.6451188325881958
1773522686129700600,7.41770068359375,0.34500616788864136,0.4000416100025177,-0.6952499151229858
1773522686139739000,7.42773876953125,0.23456861078739166,0.3334870934486389,-0.6925492286682129
1773522686149776600,7.437776611328125,0.12500904500484467,0.16428524255752563,-0.6642813086509705
1773522686159815000,7.44781494140625,0.2807248532772064,0.222874253988266,-0.7056660652160645
1773522686169852700,7.457852783203125,0.21735669672489166,0.4325966536998749,-0.8182544708251953
1773522686179890700,7.467890625,-0.17614638805389404,0.48953691124916077,-0.9090307950973511
1773522686189928700,7.4779287109375,-0.3730396628379822,0.39386868476867676,-0.9570552110671997
1773522686199966700,7.487966796875,-0.45503225922584534,0.4143281579017639,-1.0168371200561523
1773522686210004700,7.498004638671875,-0.5141919255256653,0.4505752921104431,-1.0451768636703491
1773522686220042800,7.508042724609375,-0.5519148111343384,0.4194152355194092,-1.0547679662704468
1773522686230080800,7.518080810546875,-0.5798304677009583,0.3448638916015625,-1.045674443244934
1773522686240118800,7.528118896484375,-0.5894021391868591,0.30859777331352234,-1.0191926956176758
1773522686250156500,7.538156494140625,-0.6137784123420715,0.25880759954452515,-1.050146460533142
1773522686260194800,7.54819482421875,-0.678152322769165,0.21933741867542267,-1.1238579750061035
1773522686270232600,7.558232666015625,-0.7370409965515137,0.19617681205272675,-1.1896991729736328
1773522686280270800,7.568270751953125,-0.6511383652687073,0.17184804379940033,-1.30337655544281
1773522686290308600,7.57830859375,-0.4593418836593628,0.3479241132736206,-1.4883955717086792
1773522686300347000,7.588346923828125,-0.30864477157592773,0.4826614260673523,-1.6378244161605835
1773522686310384600,7.598384521484375,-0.18107157945632935,0.39008763432502747,-1.7233173847198486
1773522686320422700,7.608422607421875,-0.09830160439014435,0.2859703004360199,-1.7844678163528442
1773522686330460700,7.618460693359375,-0.09936634451150894,0.27511438727378845,-1.8025461435317993
1773522686340498700,7.628498779296875,-0.12744565308094025,0.2974202334880829,-1.8009333610534668
1773522686350536700,7.63853662109375,-0.14693105220794678,0.34538257122039795,-1.8184624910354614
1773522686360574700,7.64857470703125,-0.17483218014240265,0.5341432094573975,-1.8218913078308105
1773522686370612700,7.65861279296875,-0.22632712125778198,0.7564089298248291,-1.8118647336959839
1773522686380650800,7.668650634765625,-0.27459609508514404,0.7403897643089294,-1.8124923706054688
1773522686390688800,7.678688720703125,-0.33220022916793823,0.6371162533760071,-1.7629213333129883
1773522686400726800,7.688726806640625,-0.39008644223213196,0.4779137969017029,-1.6995940208435059
1773522686410764800,7.698764892578125,-0.41817137598991394,0.3553156852722168,-1.6572937965393066
1773522686420802800,7.708802734375,-0.41453057527542114,0.3613203167915344,-1.6410306692123413
1773522686430840800,7.7188408203125,-0.4110449552536011,0.46764710545539856,-1.6461338996887207
1773522686440878600,7.728878662109375,-0.43473219871520996,0.6631755828857422,-1.6279091835021973
1773522686450916900,7.738916748046875,-0.4642736613750458,0.8504976034164429,-1.6133602857589722
1773522686460954600,7.74895458984375,-0.46550190448760986,1.0047576427459717,-1.633800745010376
1773522686470993000,7.758992919921875,-0.4392516314983368,1.0297698974609375,-1.7230582237243652
1773522686481030700,7.76903076171875,-0.3714076280593872,0.8737715482711792,-1.8213728666305542
1773522686491069000,7.77906884765625,-0.29285579919815063,0.7106615304946899,-1.8231511116027832
1773522686501106700,7.789106689453125,-0.25949037075042725,0.6415040493011475,-1.6712785959243774
1773522686511144700,7.799144775390625,-0.268649160861969,0.625252902507782,-1.4537670612335205
1773522686521182700,7.8091826171875,-0.35601308941841125,0.5815866589546204,-1.1395076513290405
1773522686531220700,7.819220703125,-0.44585520029067993,0.5093353390693665,-0.9038153290748596
1773522686541258800,7.8292587890625,4.193653583526611,0.45637938380241394,-0.6970924735069275
1773522686551296800,7.839296875,7.751395225524902,0.5697258710861206,-0.3434848189353943
1773522686561334800,7.849334716796875,5.629283428192139,2.0900728702545166,-0.9533721208572388
1773522686571372800,7.859372802734375,3.631180763244629,3.3313372135162354,-1.4512275457382202
1773522686581410600,7.86941064453125,1.963587999343872,3.878728151321411,-1.6323622465133667
1773522686591448800,7.87944873046875,0.7411598563194275,3.884201765060425,-1.5354772806167603
1773522686601486600,7.889486572265625,-0.0835559144616127,3.6303563117980957,-1.3011713027954102
1773522686611524900,7.89952490234375,-0.5912804007530212,3.1447558403015137,-1.0643984079360962
1773522686621562600,7.909562744140625,-0.8167479038238525,2.3154137134552,-0.8890587687492371
1773522686631601000,7.919600830078125,-0.7961905002593994,1.1829220056533813,-0.7574652433395386
1773522686641638700,7.929638671875,-0.43650662899017334,-0.13430041074752808,-0.6841905117034912
1773522686651676700,7.9396767578125,0.059130363166332245,-1.3406394720077515,-0.6200150847434998
1773522686661714700,7.949714599609375,0.47304391860961914,-2.2808735370635986,-0.5324596762657166
1773522686671752700,7.959752685546875,0.5936264991760254,-2.8967082500457764,-0.43424898386001587
1773522686681790700,7.969790771484375,0.4926956295967102,-3.1162545680999756,-0.4276001453399658
1773522686691828700,7.979828857421875,0.2292609065771103,-2.9248178005218506,-0.42780059576034546
1773522686701866800,7.98986669921875,-0.02185441553592682,-2.5379180908203125,-0.4678976833820343
1773522686711904800,7.99990478515625,-0.1462576538324356,-2.155595541000366,-0.4616619050502777
1773522686721942800,8.00994287109375,-0.0807524174451828,-1.9170459508895874,-0.3745611011981964
1773522686731980800,8.019980712890625,0.1306908279657364,-1.8278861045837402,-0.25288650393486023
1773522686742018800,8.030018798828126,0.3915913999080658,-1.7054390907287598,-0.15972833335399628
1773522686752056800,8.040056884765624,0.614302396774292,-1.5155985355377197,-0.16765670478343964
1773522686762094800,8.0500947265625,0.75737464427948,-1.3851523399353027,-0.29480797052383423
1773522686772132600,8.060132568359375,0.8056275248527527,-1.3783907890319824,-0.4775955080986023
1773522686782170600,8.070170654296875,0.820923924446106,-1.4654109477996826,-0.6570172309875488
1773522686792208600,8.080208740234376,0.7803519368171692,-1.6298949718475342,-0.7905977964401245
1773522686802246700,8.09024658203125,0.7232745885848999,-1.8386942148208618,-0.8430673480033875
1773522686812284700,8.10028466796875,0.5926491618156433,-1.97146737575531,-0.8562174439430237
1773522686822322700,8.11032275390625,0.43555116653442383,-1.9929611682891846,-0.8653613924980164
1773522686832359700,8.120359619140626,0.32990238070487976,-1.8960331678390503,-0.8872048258781433
1773522686842397700,8.130397705078124,0.2728566825389862,-1.6759759187698364,-0.8957139253616333
1773522686852435700,8.140435791015625,0.20296435058116913,-1.3604762554168701,-0.8656488060951233
1773522686862473700,8.1504736328125,0.07611265033483505,-1.012521743774414,-0.771666944026947
1773522686872511700,8.16051171875,-0.06411214917898178,-0.6910437941551208,-0.6454753875732422
1773522686882549500,8.170549560546876,-0.17373478412628174,-0.42381739616394043,-0.5714786648750305
1773522686892587800,8.180587890625,-0.22757478058338165,-0.2755930423736572,-0.5708131790161133
1773522686902625500,8.19062548828125,-0.24249088764190674,-0.25427815318107605,-0.6461979746818542
1773522686912663800,8.200663818359375,-0.24792179465293884,-0.3264586329460144,-0.7259356379508972
1773522686922701600,8.21070166015625,-0.2899629771709442,-0.3658590316772461,-0.7338241934776306
1773522686932739800,8.22073974609375,-0.3982073962688446,-0.27004608511924744,-0.6358819007873535
1773522686942777600,8.230777587890625,-0.5851948857307434,0.019995583221316338,-0.39997512102127075
1773522686952815600,8.240815673828125,-0.7724961638450623,0.4696318209171295,-0.0636199563741684
1773522686962853600,8.250853515625,-0.8398714661598206,1.0151920318603516,0.3099914491176605
1773522686972891600,8.2608916015625,-0.772226095199585,1.4022955894470215,0.6345625519752502
1773522686982929700,8.2709296875,-0.6961084008216858,1.393437147140503,0.7821037769317627
1773522686992967700,8.2809677734375,-0.6287950277328491,0.9164332151412964,0.7095113396644592
1773522687003005400,8.29100537109375,-0.537729799747467,0.2013731300830841,0.4980962574481964
1773522687013043700,8.301043701171874,-0.3672522306442261,-0.44761255383491516,0.27966079115867615
1773522687023081500,8.31108154296875,-0.11725597828626633,-0.8472191095352173,0.1641291379928589
1773522687033119700,8.32111962890625,0.1365438848733902,-0.8267484307289124,0.156919464468956
1773522687043157500,8.331157470703126,0.33513447642326355,-0.5295454859733582,0.16486448049545288
1773522687053195800,8.34119580078125,0.4965665936470032,-0.23695623874664307,0.09215586632490158
1773522687063233500,8.351233642578125,0.6059812307357788,-0.2655181288719177,-0.040442127734422684
1773522687073271600,8.361271484375,0.6700721383094788,-0.4427526295185089,-0.12447560578584671
1773522687083309600,8.3713095703125,0.7210045456886292,-0.7069032788276672,-0.17021913826465607
1773522687093347600,8.38134765625,0.7312244772911072,-1.0707727670669556,-0.1508001983165741
1773522687103385600,8.391385498046875,0.5839378237724304,-1.7778888940811157,-0.09083140641450882
1773522687113423600,8.401423583984375,0.5520044565200806,-2.8614792823791504,-0.07095889747142792
1773522687123461600,8.411461669921875,0.7510771155357361,-3.8333580493927,-0.07697870582342148
1773522687133499600,8.421499755859376,0.9010866284370422,-4.366587162017822,-0.04485729709267616
1773522687143537400,8.431537353515624,0.8975433111190796,-4.436566352844238,0.05289323255419731
1773522687153575700,8.44157568359375,0.7661964893341064,-4.091647148132324,0.20699971914291382
1773522687163613400,8.451613525390625,0.5332172513008118,-3.36586332321167,0.39840906858444214
1773522687173651700,8.461651611328126,0.217994824051857,-2.438366413116455,0.5096695423126221
1773522687183689500,8.471689453125,-0.11908572912216187,-1.4517853260040283,0.43663424253463745
1773522687193727700,8.481727783203125,-0.3966720700263977,-0.5863223671913147,0.1885710507631302
1773522687203765500,8.491765625,-0.5004719495773315,-0.16017583012580872,-0.1678677648305893
1773522687213803500,8.501803466796876,-0.4562227129936218,-0.06411734968423843,-0.3979576528072357
1773522687223841800,8.511841796875,-0.34885019063949585,-0.039094023406505585,-0.44625434279441833
1773522687233879600,8.521879638671875,-0.2543110251426697,0.028863709419965744,-0.3497203290462494
1773522687243917800,8.531917724609375,-0.21329514682292938,0.05452512949705124,-0.22733156383037567
1773522687253955600,8.54195556640625,-0.20786619186401367,-0.11400039494037628,-0.18740911781787872
1773522687263993600,8.55199365234375,-0.13060389459133148,-0.6112508773803711,-0.2690888047218323
1773522687274031600,8.562031494140625,-0.0073387511074543,-1.1331299543380737,-0.3854213058948517
1773522687284069600,8.572069580078125,-0.083597831428051,-1.2929811477661133,-0.43943899869918823
1773522687294107600,8.582107666015625,-0.20783904194831848,-1.1580374240875244,-0.3977281451225281
1773522687304145700,8.592145751953124,-0.2872520983219147,-0.9022985100746155,-0.28620854020118713
1773522687314183700,8.60218359375,-0.3190026879310608,-0.6276871562004089,-0.21775467693805695
1773522687324221700,8.6122216796875,-0.3032631278038025,-0.409228652715683,-0.18914219737052917
1773522687334259500,8.622259521484375,-0.24517667293548584,-0.2957962155342102,-0.218023881316185
1773522687344297700,8.632297607421876,-0.13266849517822266,-0.2842434346675873,-0.26731446385383606
1773522687354335500,8.64233544921875,-0.023368369787931442,-0.28379306197166443,-0.3318618834018707
1773522687364373800,8.652373779296875,0.03210900351405144,-0.262347936630249,-0.41202542185783386
1773522687374411500,8.66241162109375,0.07071276754140854,-0.1684826761484146,-0.46021535992622375
1773522687384449800,8.67244970703125,0.13352955877780914,0.015782762318849564,-0.40388044714927673
1773522687394487600,8.682487548828124,0.22689682245254517,0.258209228515625,-0.24985121190547943
1773522687404525600,8.692525634765625,0.2647605538368225,0.5054507255554199,-0.10445672273635864
1773522687414563600,8.7025634765625,0.19695426523685455,0.6569695472717285,-0.10888183116912842
1773522687424601600,8.7126015625,0.05574227496981621,0.6788399815559387,-0.285694420337677
1773522687434639600,8.7226396484375,-0.06483021378517151,0.6531833410263062,-0.5003491640090942
1773522687444677600,8.732677734375,-0.06532929092645645,0.6453235745429993,-0.5989450216293335
1773522687454715600,8.742715576171875,0.015169903635978699,0.6385772228240967,-0.5866246819496155
1773522687464753700,8.752753662109376,0.0835055485367775,0.621816873550415,-0.5312080383300781
1773522687474791400,8.76279150390625,0.05798787623643875,0.5970578789710999,-0.48084524273872375
1773522687484829700,8.77282958984375,-0.05385609716176987,0.5340091586112976,-0.47631147503852844
1773522687494867500,8.782867431640625,-0.22323442995548248,0.4006929099559784,-0.5427837371826172
1773522687504905700,8.79290576171875,-0.433211088180542,0.1770358383655548,-0.6967506408691406
1773522687514943500,8.802943603515626,-0.5821422934532166,-0.05465519055724144,-0.8442572355270386
1773522687524981500,8.8129814453125,-0.5284004807472229,-0.09016444534063339,-0.7939807772636414
1773522687535019500,8.82301953125,-0.15891627967357635,0.13079409301280975,-0.39129552245140076
1773522687545057500,8.8330576171875,0.37886565923690796,0.5148211121559143,0.24672728776931763
1773522687555095600,8.843095458984376,0.7559459209442139,0.9335134029388428,0.752210795879364
1773522687565133600,8.853133544921874,0.8412400484085083,1.2780619859695435,0.9487035870552063
1773522687575171600,8.863171630859375,0.7364638447761536,1.5363503694534302,0.8954482078552246
1773522687585209600,8.873209716796875,0.5883212685585022,1.729156494140625,0.7094016671180725
1773522687595247600,8.88324755859375,0.4355010390281677,1.8876739740371704,0.4758058786392212
1773522687605285600,8.89328564453125,0.27484771609306335,2.0263915061950684,0.2309947907924652
1773522687615323600,8.90332373046875,0.08155776560306549,2.0857062339782715,-0.04577727988362312
1773522687625361700,8.913361572265625,-0.15338364243507385,2.0359926223754883,-0.31168192625045776
1773522687635399700,8.923399658203126,-0.37805625796318054,1.8818053007125854,-0.526953399181366
1773522687645437700,8.933437744140624,-0.550727903842926,1.663582682609558,-0.6381547451019287
1773522687655475700,8.943475830078125,-0.6735209226608276,1.4430644512176514,-0.6571231484413147
1773522687665513500,8.953513427734375,-0.7169549465179443,1.1841773986816406,-0.6520562171936035
1773522687675551700,8.9635517578125,-0.7165801525115967,0.9303222298622131,-0.6837802529335022
1773522687685589500,8.973589599609374,-0.6841817498207092,0.7634522914886475,-0.7324516177177429
1773522687695627800,8.983627685546875,-0.608512818813324,0.7901767492294312,-0.719524621963501
1773522687705665500,8.99366552734375,-0.4510672986507416,1.0333610773086548,-0.5581911206245422
1773522687715703800,9.003703857421876,-0.24817200005054474,1.4365861415863037,-0.286113440990448
1773522687725741600,9.013741455078126,-0.06271585822105408,1.7889602184295654,-0.005462855100631714
1773522687735779600,9.023779541015625,0.06749430298805237,1.9306788444519043,0.19880230724811554
1773522687745817600,9.033817626953125,0.13728564977645874,1.8421766757965088,0.33581849932670593
1773522687755855600,9.043855712890625,0.1626373678445816,1.6185353994369507,0.43894869089126587
1773522687765893600,9.0538935546875,0.2202197015285492,1.317690134048462,0.5121145248413086
1773522687775931600,9.063931640625,0.4031372666358948,0.9444447755813599,0.5160465240478516
1773522687785970000,9.073969970703125,0.6200815439224243,0.594011664390564,0.40690216422080994
1773522687796008000,9.084008056640625,0.7840343713760376,0.35673072934150696,0.23068994283676147
1773522687806045700,9.094045654296876,0.8604639172554016,0.26030856370925903,0.04707750678062439
1773522687816084000,9.104083984375,0.8486641049385071,0.32750412821769714,-0.08691972494125366
1773522687826121700,9.114121826171875,0.7386603355407715,0.5598925948143005,-0.16872431337833405
1773522687836160000,9.124159912109375,0.5764105916023254,0.8598102331161499,-0.18513791263103485
1773522687846197800,9.13419775390625,0.4110431671142578,1.1468359231948853,-0.13210931420326233
1773522687856236000,9.144236083984374,0.3130626976490021,1.2898433208465576,-0.014726248569786549
1773522687866273800,9.154273681640625,0.27103883028030396,1.274634838104248,0.16327570378780365
1773522687876311800,9.164311767578125,0.2448287308216095,1.1652820110321045,0.3796413540840149
1773522687886349800,9.174349853515626,0.1137831062078476,1.038758635520935,0.604841411113739
1773522687896387800,9.184387939453124,-0.15495464205741882,0.910530149936676,0.7934057116508484
1773522687906425900,9.19442578125,-0.4949023723602295,0.7361027002334595,0.8996261358261108
1773522687916463900,9.2044638671875,-0.7548953890800476,0.47302892804145813,0.9309003353118896
1773522687926501600,9.214501708984375,-0.8426726460456848,0.09852322936058044,0.8954507112503052
1773522687936540000,9.224539794921874,-0.7572793960571289,-0.3286624252796173,0.8432034254074097
1773522687946577700,9.23457763671875,-0.5692943334579468,-0.7421858310699463,0.7763623595237732
1773522687956616000,9.244615966796875,-0.35746923089027405,-1.0551228523254395,0.6391454935073853
1773522687966653700,9.25465380859375,-0.16791768372058868,-1.1931343078613281,0.4178197681903839
1773522687976692000,9.26469189453125,-0.060797106474637985,-1.1348066329956055,0.1248532310128212
1773522687986730000,9.27472998046875,0.0981491357088089,-0.9293848872184753,-0.18157488107681274
1773522687996767700,9.284767822265625,0.3604137599468231,-0.6655258536338806,-0.3716774880886078
1773522688006806000,9.294805908203125,0.5703542232513428,-0.32064250111579895,-0.3710993230342865
1773522688016843800,9.30484375,0.6632824540138245,0.08492191880941391,-0.2654816210269928
1773522688026882000,9.314882080078124,0.6659530997276306,0.47892090678215027,-0.14944875240325928
1773522688036919800,9.324919921875,0.6164258718490601,0.7519407272338867,-0.09702657163143158
1773522688046958000,9.3349580078125,0.5278693437576294,0.8311785459518433,-0.12518471479415894
1773522688056995800,9.344995849609376,0.40462833642959595,0.7464972138404846,-0.150373637676239
1773522688067033900,9.355033935546874,0.25145822763442993,0.5989692807197571,-0.06889688223600388
1773522688077072000,9.36507177734375,0.08599523454904556,0.5070120096206665,0.13996824622154236
1773522688087110000,9.37510986328125,-0.017797203734517097,0.44690418243408203,0.34525266289711
1773522688097148000,9.38514794921875,-0.04024785757064819,0.37846875190734863,0.4407082200050354
1773522688107186000,9.39518603515625,-0.010879850015044212,0.3093796968460083,0.39806434512138367
1773522688117224000,9.405223876953125,-0.06433266401290894,0.3344014883041382,0.2896639406681061
1773522688127262000,9.415261962890625,-0.29139217734336853,0.515458345413208,0.17849962413311005
1773522688137299700,9.4252998046875,-0.511796772480011,0.703178882598877,0.1158767119050026
1773522688147338000,9.435337890625,-0.5947545170783997,0.7748461365699768,0.10521768033504486
1773522688157375700,9.445375732421875,-0.5521031618118286,0.7001794576644897,0.11438056081533432
1773522688167414000,9.4554140625,-0.43187445402145386,0.5345292687416077,0.12992623448371887
1773522688177451800,9.46545166015625,-0.24097397923469543,0.3268335461616516,0.1877451390028
1773522688187489800,9.47548974609375,0.0008532935753464699,0.12617740035057068,0.29852598905563354
1773522688197527800,9.48552783203125,0.1934119015932083,0.026102717965841293,0.41813525557518005
1773522688207565800,9.49556591796875,0.27487292885780334,0.005390780046582222,0.4828402101993561
1773522688217603800,9.505603759765625,0.3196229338645935,-0.004943898878991604,0.463111013174057
1773522688227641900,9.515641845703126,0.32289010286331177,-0.00395746435970068,0.38813769817352295
1773522688237679900,9.525679931640624,0.2920277416706085,0.03202592954039574,0.31232261657714844
1773522688247716900,9.535716796875,0.23463530838489532,0.0858452171087265,0.24299177527427673
1773522688257755000,9.5457548828125,0.15108555555343628,0.11200714111328125,0.1387684941291809
1773522688267793000,9.55579296875,0.06029386818408966,0.06641089171171188,-0.041975997388362885
1773522688277831000,9.565830810546874,-0.002491334453225136,-0.008879220113158226,-0.1939537674188614
1773522688287869000,9.575868896484375,-0.020289238542318344,-0.047381870448589325,-0.21073593199253082
1773522688297907000,9.585906982421875,-0.0033774636685848236,-0.017678648233413696,-0.08717548102140427
1773522688307944700,9.59594482421875,0.025898132473230362,0.04341905936598778,0.1346045881509781
1773522688317983000,9.60598291015625,0.04457997530698776,0.046595364809036255,0.31587672233581543
1773522688328020700,9.616020751953124,0.03601471334695816,-0.019129319116473198,0.4052601158618927
1773522688338059000,9.62605908203125,-0.005973774939775467,-0.11403363198041916,0.42525842785835266
1773522688348096800,9.6360966796875,-0.05341479554772377,-0.20576514303684235,0.3816683292388916
1773522688358135000,9.646135009765626,-0.07974118739366531,-0.28970158100128174,0.2631261944770813
1773522688368172800,9.6561728515625,-0.08933895826339722,-0.36043646931648254,0.07125689834356308
1773522688378210800,9.6662109375,-0.10349562019109726,-0.38867947459220886,-0.13477636873722076
1773522688388248800,9.676248779296875,-0.12937729060649872,-0.3447495698928833,-0.2749236226081848
1773522688398286800,9.686286865234376,-0.1546000838279724,-0.23465780913829803,-0.32037147879600525
1773522688408324900,9.696324951171874,-0.18150867521762848,-0.10098896920681,-0.28986817598342896
1773522688418363000,9.70636279296875,-0.19635339081287384,0.0032602050341665745,-0.24485355615615845
1773522688428400600,9.716400634765625,-0.1807701736688614,0.040847260504961014,-0.22723515331745148
1773522688438439000,9.72643896484375,-0.147141695022583,0.019695650786161423,-0.2249552607536316
1773522688448476700,9.7364765625,-0.11599043756723404,-0.02207736112177372,-0.2084284871816635
1773522688458515000,9.746514892578125,-0.10116755217313766,-0.05662872642278671,-0.16770333051681519
1773522688468552700,9.756552734375,-0.08757290989160538,-0.09158937633037567,-0.12031557410955429
1773522688478591000,9.766591064453126,-0.0674724355340004,-0.1261044293642044,-0.09281560778617859
1773522688488629000,9.77662890625,-0.05058346688747406,-0.16925854980945587,-0.08925389498472214
1773522688498666800,9.786666748046875,-0.05426942929625511,-0.2008107751607895,-0.08840854465961456
1773522688508705000,9.796705078125,-0.0801798552274704,-0.221766397356987,-0.08576003462076187
1773522688518742800,9.80674267578125,-0.11566189676523209,-0.2404649555683136,-0.08852791786193848
1773522688528781000,9.816781005859376,-0.1410420835018158,-0.25991854071617126,-0.09829186648130417
1773522688538818800,9.82681884765625,-0.13398683071136475,-0.26909568905830383,-0.10842353105545044
1773522688548857000,9.836857177734375,-0.10574481636285782,-0.22716502845287323,-0.10535343736410141
1773522688558894800,9.846894775390625,-0.07482578605413437,-0.12039824575185776,-0.08610992133617401
1773522688568932900,9.856932861328126,-0.04282417893409729,0.0398862324655056,-0.03890007361769676
1773522688578971000,9.866970947265624,-0.03454618155956268,0.24075177311897278,0.03694579005241394
1773522688589009000,9.8770087890625,-0.04988119751214981,0.42901673913002014,0.09910183399915695
1773522688599047000,9.887046875,-0.07716740667819977,0.5451634526252747,0.10849832743406296
1773522688609085000,9.8970849609375,-0.09871317446231842,0.5692735910415649,0.07361704111099243
1773522688619123000,9.907123046875,-0.10582751780748367,0.5191260576248169,-0.0007024353835731745
1773522688629161000,9.917160888671875,-0.10975515097379684,0.4507611393928528,-0.06869347393512726
1773522688639198700,9.92719873046875,-0.10100290179252625,0.3963652551174164,-0.07681415975093842
1773522688649237000,9.937237060546876,-0.08451207727193832,0.3681029975414276,-0.04195444658398628
1773522688659274800,9.947274658203124,-0.057091936469078064,0.335513174533844,0.008459802716970444
1773522688669313000,9.95731298828125,-0.013082132674753666,0.2784307301044464,0.04632462561130524
1773522688679350800,9.967350830078125,0.03931878134608269,0.23143479228019714,0.06294527649879456
1773522688689388800,9.977388916015625,0.08044065535068512,0.225898876786232,0.06662629544734955
1773522688699426800,9.9874267578125,0.08243612945079803,0.2813854217529297,0.06358547508716583
1773522688709464800,9.99746484375,0.06522944569587708,0.36757171154022217,0.057524651288986206
1773522688719502800,10.0075029296875,0.04920467734336853,0.425697386264801,0.04864078015089035
1773522688729540900,10.017540771484375,0.04867204278707504,0.44539040327072144,0.022870434448122978
1773522688739579000,10.027578857421876,0.06891118735074997,0.418820321559906,-0.010259589180350304
1773522688749617000,10.037616943359374,0.09348789602518082,0.3767160177230835,-0.025786351412534714
1773522688759654700,10.047654541015625,0.12051253020763397,0.3423454463481903,-0.013701570220291615
1773522688769693000,10.05769287109375,0.15220308303833008,0.30905964970588684,0.010864227078855038
1773522688779730700,10.067730712890626,0.18728484213352203,0.28062331676483154,0.056042980402708054
1773522688789768400,10.0777685546875,0.21942147612571716,0.26890993118286133,0.1279994696378708
1773522688799806500,10.087806396484375,0.2341528683900833,0.30454882979393005,0.22547394037246704
1773522688809844200,10.09784423828125,0.24244487285614014,0.3565971255302429,0.3171684443950653
1773522688819882500,10.107882568359376,0.25680413842201233,0.397674560546875,0.37559837102890015
1773522688829920300,10.117920166015624,0.2734350264072418,0.41494542360305786,0.4186377227306366
1773522688839958500,10.12795849609375,0.28499338030815125,0.4468144178390503,0.5112611651420593
1773522688849996300,10.137996337890625,0.3006245195865631,0.5300469398498535,0.7072290778160095
1773522688860034600,10.14803466796875,0.3152891993522644,0.6763390898704529,1.037620186805725
1773522688870072300,10.158072265625,0.313932329416275,0.8345057964324951,1.441455602645874
1773522688880110300,10.1681103515625,0.2920350134372711,0.9640781879425049,1.811691164970398
1773522688890147300,10.178147216796875,0.24398067593574524,1.0316897630691528,2.1082403659820557
1773522688900185300,10.188185302734375,0.19495823979377747,1.0231178998947144,2.330880641937256
1773522688910223400,10.198223388671876,0.11871939152479172,1.008854627609253,2.4451467990875244
1773522688920261400,10.208261474609374,0.0583399161696434,0.9981343746185303,2.475409507751465
1773522688930299400,10.21829931640625,0.00046676211059093475,1.019426941871643,2.3940539360046387
1773522688940337400,10.22833740234375,-0.05655895173549652,1.026214361190796,2.187345504760742
1773522688950375400,10.23837548828125,-0.14847822487354279,1.0372440814971924,1.9035440683364868
1773522688960413400,10.248413330078124,-0.2670566439628601,1.1175616979599,1.605726718902588
1773522688970451500,10.258451416015625,-0.3870299160480499,1.2981042861938477,1.3245635032653809
1773522688980489200,10.2684892578125,-0.5071486234664917,1.5662665367126465,1.1123266220092773
1773522688990527500,10.278527587890625,-0.5924222469329834,1.8272813558578491,0.9249545931816101
1773522689000565200,10.288565185546876,-0.6526073813438416,1.94137442111969,0.7099992036819458
1773522689010603500,10.298603515625,-0.7015480399131775,1.831986904144287,0.46287891268730164
1773522689020641300,10.308641357421875,-0.7441902756690979,1.51654052734375,0.22271473705768585
1773522689030679600,10.318679443359375,-0.7813631892204285,1.0407798290252686,0.014458742924034595
1773522689040717300,10.32871728515625,-0.8024808764457703,0.43390801548957825,-0.1499396115541458
1773522689050755300,10.33875537109375,-0.8135218620300293,-0.1370798498392105,-0.2967548966407776
1773522689060793300,10.34879345703125,-0.8042044639587402,-0.5636910796165466,-0.484668493270874
1773522689070831400,10.358831298828125,-0.7939678430557251,-0.783477246761322,-0.7335022687911987
1773522689080869400,10.368869384765626,-0.79827880859375,-0.7900454998016357,-1.0234850645065308
1773522689090907400,10.378907470703124,-0.8180674314498901,-0.7234417200088501,-1.2935423851013184
1773522689100945400,10.3889453125,-0.838446855545044,-0.7376525402069092,-1.5253902673721313
1773522689110983400,10.3989833984375,-0.8492323756217957,-0.8546438813209534,-1.7087619304656982
1773522689121021200,10.409021240234376,-0.8392078280448914,-1.0897964239120483,-1.8600382804870605
1773522689131059500,10.4190595703125,-0.8106585144996643,-1.4300453662872314,-1.9851154088974
1773522689141097200,10.42909716796875,-0.7799012660980225,-1.8228249549865723,-2.10941481590271
1773522689151135500,10.439135498046875,-0.7439145445823669,-2.277130603790283,-2.2505993843078613
1773522689161173200,10.44917333984375,-0.7017641663551331,-2.7864186763763428,-2.4498746395111084
1773522689171211500,10.45921142578125,-0.6460303068161011,-3.27756404876709,-2.695523738861084
1773522689181249300,10.469249267578125,-0.5077872276306152,-3.5171701908111572,-2.882688283920288
1773522689191287300,10.479287353515625,-0.2560279667377472,-3.244682550430298,-2.859036445617676
1773522689201325300,10.4893251953125,0.12935255467891693,-2.209367036819458,-2.4862945079803467
1773522689211363300,10.49936328125,0.6069536805152893,-0.5501319766044617,-1.8457090854644775
1773522689221401300,10.5094013671875,1.071006417274475,0.8542594313621521,-1.3187044858932495
1773522689231439400,10.519439453125,1.3662865161895752,1.4222882986068726,-1.103712797164917
1773522689241477400,10.529477294921875,1.2389320135116577,1.5246440172195435,-0.9788663387298584
1773522689251515400,10.539515380859376,0.6687167882919312,1.5834254026412964,-0.5713605880737305
1773522689261553400,10.549553466796874,0.13267716765403748,1.505022644996643,0.11255458742380142
1773522689271591400,10.55959130859375,-0.06657521426677704,1.1433517932891846,0.7799044251441956
1773522689281629400,10.56962939453125,0.01564130373299122,0.4736332297325134,1.2735899686813354
1773522689291667500,10.57966748046875,0.20031367242336273,-0.2379458248615265,1.5926028490066528
1773522689301705500,10.58970556640625,0.32799872756004333,-0.6981942653656006,1.7499830722808838
1773522689311743200,10.5997431640625,0.36596500873565674,-0.8109983205795288,1.7826393842697144
1773522689321781500,10.609781494140625,0.42033421993255615,-0.7590925097465515,1.7168214321136475
1773522689331818200,10.619818359375,0.511049211025238,-0.6474307179450989,1.529321551322937
1773522689341856500,10.6298564453125,0.6189485192298889,-0.4623272716999054,1.215946912765503
1773522689351894300,10.639894287109374,0.664674699306488,-0.11640500277280807,0.8771941065788269
1773522689361932300,10.649932373046875,0.5692555904388428,0.36280879378318787,0.5621675252914429
1773522689371970300,10.65997021484375,0.33087363839149475,0.891830325126648,0.2943102717399597
1773522689382008300,10.67000830078125,0.040224529802799225,1.3803467750549316,0.07833883911371231
1773522689392046300,10.68004638671875,-0.22109122574329376,1.6958677768707275,-0.13106338679790497
1773522689402084400,10.69008447265625,-0.4761553406715393,1.743753433227539,-0.37904927134513855
1773522689412122400,10.700122314453125,-0.7488797903060913,1.4796403646469116,-0.6590369939804077
1773522689422160400,10.710160400390626,-0.9826191067695618,0.919613242149353,-0.8872739672660828
1773522689432198400,10.720198486328124,-1.0207486152648926,0.13592351973056793,-1.0163254737854004
1773522689442236400,10.730236328125,-0.8267849087715149,-0.7633163332939148,-1.0205434560775757
1773522689452274400,10.7402744140625,-0.5429753065109253,-1.6314836740493774,-0.9738966226577759
1773522689462312400,10.7503125,-0.31867241859436035,-2.3816704750061035,-0.9578167200088501
1773522689472350500,10.7603505859375,-0.2103978991508484,-2.914719343185425,-1.0120080709457397
1773522689482388200,10.77038818359375,-0.17563346028327942,-3.202723503112793,-1.126366376876831
1773522689492426500,10.780426513671875,-0.20325469970703125,-3.2445180416107178,-1.2724404335021973
1773522689502464300,10.79046435546875,-0.2496260106563568,-3.0017759799957275,-1.4111483097076416
1773522689512502500,10.80050244140625,-0.157130166888237,-2.5216476917266846,-1.4301297664642334
1773522689522540300,10.810540283203125,0.13322585821151733,-1.8915208578109741,-1.256079912185669
1773522689532578600,10.82057861328125,0.44213417172431946,-1.1730351448059082,-0.9301089644432068
1773522689542616300,10.8306162109375,0.6165181994438171,-0.42443859577178955,-0.5802916288375854
1773522689552654300,10.840654296875,0.6408507227897644,0.2820279896259308,-0.3396545350551605
1773522689562692400,10.8506923828125,0.5592479109764099,0.8509464859962463,-0.2838587462902069
1773522689572730400,10.86073046875,0.4068717062473297,1.2249224185943604,-0.38032349944114685
1773522689582768400,10.870768310546875,0.22997960448265076,1.375613808631897,-0.5292345881462097
1773522689592806400,10.880806396484376,0.0840945690870285,1.2752741575241089,-0.6685024499893188
1773522689602844400,10.890844482421874,0.025303402915596962,0.961844265460968,-0.7436014413833618
1773522689612882400,10.90088232421875,-0.03938371688127518,0.5416533946990967,-0.74254310131073
1773522689622920200,10.910920166015625,-0.18761864304542542,0.09407118707895279,-0.7061498165130615
1773522689632958500,10.92095849609375,-0.29467931389808655,-0.39610278606414795,-0.6583101153373718
1773522689642996200,10.930996337890624,-0.29169926047325134,-0.8995856642723083,-0.6217380166053772
1773522689653034500,10.941034423828125,-0.2061324268579483,-1.305337905883789,-0.5629053115844727
1773522689663072300,10.951072265625,-0.07260961085557938,-1.4917014837265015,-0.47724682092666626
1773522689673110500,10.961110595703126,0.08768792450428009,-1.4276878833770752,-0.34431859850883484
1773522689683148300,10.971148193359374,0.2487620860338211,-1.0734765529632568,-0.1587037891149521
1773522689693186300,10.981186279296875,0.3659403920173645,-0.47652849555015564,0.12133239209651947
1773522689703223600,10.9912236328125,0.4044126272201538,0.16145427525043488,0.472517728805542
1773522689713261300,11.00126123046875,0.3912201225757599,0.6124297380447388,0.7897298336029053
1773522689723299300,11.01129931640625,0.34347349405288696,0.8388727903366089,0.9732168316841125
1773522689733337300,11.02133740234375,0.26231181621551514,0.8994096517562866,1.0209640264511108
1773522689743375400,11.031375244140625,0.14152857661247253,0.8654269576072693,0.9822960495948792
1773522689753413400,11.041413330078125,-0.0037718946114182472,0.7879483699798584,0.9182544350624084
1773522689763451400,11.051451416015626,-0.1510598212480545,0.6447260975837708,0.8380511403083801
1773522689773489400,11.061489501953124,-0.28630420565605164,0.46086063981056213,0.7779627442359924
1773522689783528200,11.071528076171875,-0.37342992424964905,0.2635897696018219,0.7391152381896973
1773522689793566000,11.08156591796875,-0.41519680619239807,0.050385601818561554,0.7349364757537842
1773522689803604200,11.091604248046876,-0.4192436635494232,-0.17203141748905182,0.7115281820297241
1773522689813642000,11.10164208984375,-0.4096919894218445,-0.3822357952594757,0.6509135961532593
1773522689823680000,11.111679931640625,-0.3897237777709961,-0.5597070455551147,0.5265965461730957
1773522689833718000,11.121718017578125,-0.31404340267181396,-0.7094776034355164,0.35006070137023926
1773522689843756000,11.131756103515626,-0.15999732911586761,-0.8297886252403259,0.13638868927955627
1773522689853794000,11.1417939453125,0.020760197192430496,-0.8836894035339355,-0.10216342657804489
1773522689863832000,11.15183203125,0.15215516090393066,-0.8394161462783813,-0.349029004573822
1773522689873870000,11.1618701171875,0.22225913405418396,-0.7224956750869751,-0.5862879157066345
1773522689883908000,11.171908203125,0.23883657157421112,-0.5587419271469116,-0.818609893321991
1773522689893945900,11.18194580078125,0.24194927513599396,-0.36559221148490906,-1.0593754053115845
1773522689903984000,11.191984130859375,0.27169573307037354,-0.16751977801322937,-1.3177396059036255
1773522689914022000,11.20202197265625,0.350235253572464,0.026783131062984467,-1.591552495956421
1773522689924060200,11.21206005859375,0.4513340890407562,0.1965956687927246,-1.840614914894104
1773522689934098000,11.222097900390626,0.5361767411231995,0.3640645444393158,-2.016758918762207
1773522689944136200,11.23213623046875,0.5864446759223938,0.5179861783981323,-2.1318447589874268
1773522689954174000,11.242174072265625,0.49067798256874084,0.7069251537322998,-2.204928398132324
1773522689964212000,11.2522119140625,0.20541851222515106,0.9770885109901428,-2.1805260181427
1773522689974250000,11.26225,-0.11594459414482117,1.464401125907898,-1.728648066520691
1773522689984288000,11.2722880859375,-0.290884405374527,1.9992778301239014,-0.6513588428497314
1773522689994326000,11.282325927734375,-0.2571219205856323,2.022449493408203,0.508226215839386
1773522690004364000,11.292364013671875,-0.1684025377035141,1.5439342260360718,1.2646429538726807
1773522690014401000,11.302401123046875,-0.11963632702827454,0.9049100875854492,1.6050500869750977
1773522690024439000,11.31243896484375,-0.10690300911664963,0.3008451461791992,1.6801517009735107
1773522690034477000,11.32247705078125,-0.10010955482721329,-0.12167947739362717,1.6374223232269287
1773522690044515000,11.33251513671875,-0.08432680368423462,-0.3146035671234131,1.533515453338623
1773522690054553000,11.342552978515625,-0.08077628165483475,-0.3080314099788666,1.413283348083496
1773522690064590800,11.3525908203125,-0.0807020366191864,-0.23448783159255981,1.2820680141448975
1773522690074629000,11.362629150390624,-0.0670727789402008,-0.11123619973659515,1.1208977699279785
1773522690084667000,11.3726669921875,-0.06292493641376495,0.04380388930439949,0.8944624066352844
1773522690094705200,11.382705078125,-0.06839613616466522,0.19049052894115448,0.590911328792572
1773522690104743000,11.392742919921876,-0.06770282238721848,0.268402099609375,0.21807174384593964
1773522690114781200,11.40278125,-0.08306179940700531,0.28061535954475403,-0.17859598994255066
1773522690124819000,11.41281884765625,-0.14463378489017487,0.24903571605682373,-0.5268194675445557
1773522690134857000,11.42285693359375,-0.2222026139497757,0.16653232276439667,-0.7619526386260986
1773522690144895000,11.43289501953125,-0.27131256461143494,0.033014021813869476,-0.8777214288711548
1773522690154933000,11.44293310546875,-0.2926753759384155,-0.1194562092423439,-0.9080731868743896
1773522690164971000,11.452970947265625,-0.2788221836090088,-0.2666713297367096,-0.9364868402481079
1773522690175009000,11.463009033203125,-0.22659170627593994,-0.3652852475643158,-1.079268455505371
1773522690185047000,11.473047119140626,-0.11226170510053635,-0.3319571018218994,-1.4125045537948608
1773522690195085000,11.4830849609375,0.11513390392065048,0.2472657859325409,-1.6981759071350098
1773522690205123000,11.493123046875,0.43326815962791443,1.6868016719818115,-1.1440216302871704
1773522690215161000,11.5031611328125,0.7390099763870239,2.778024196624756,0.31748008728027344
1773522690225199000,11.51319921875,0.91046541929245,2.5272786617279053,1.7368510961532593
1773522690235237000,11.523237060546874,0.8665032982826233,1.3928111791610718,2.4762587547302246
1773522690245275100,11.533275146484375,0.6692740321159363,0.2122533768415451,2.6448311805725098
1773522690255313000,11.54331298828125,0.4338655471801758,-0.5590451955795288,2.5593981742858887
1773522690265351200,11.55335107421875,0.2286049723625183,-0.8923968076705933,2.417433500289917
1773522690275389000,11.563388916015626,0.03652981296181679,-0.9616429805755615,2.2420568466186523
1773522690285427200,11.57342724609375,-0.18300461769104004,-0.8238442540168762,2.074237108230591
1773522690295464000,11.5834638671875,-0.42778053879737854,-0.509904146194458,1.9709378480911255
1773522690305502000,11.593501953125,-0.6336727738380432,-0.04361823573708534,1.9633817672729492
1773522690315540000,11.6035400390625,-0.7431702613830566,0.41753607988357544,2.032085418701172
1773522690325578000,11.613577880859374,-0.6884794235229492,0.839266300201416,2.113525629043579
1773522690335616000,11.623615966796875,-0.5631555914878845,1.2196794748306274,2.164652109146118
1773522690345654000,11.633654052734375,-0.4807758629322052,1.5110293626785278,2.1432535648345947
1773522690355692000,11.643692138671875,-0.44579845666885376,1.647398829460144,2.0233850479125977
1773522690365730000,11.65372998046875,-0.41202738881111145,1.598778486251831,1.8281292915344238
1773522690375768000,11.66376806640625,-0.3390173614025116,1.3969342708587646,1.5974255800247192
1773522690385806000,11.67380615234375,-0.2361443042755127,1.159868597984314,1.3562965393066406
1773522690395844000,11.683843994140625,-0.14739951491355896,0.955365002155304,1.1406280994415283
1773522690405882000,11.693882080078126,-0.07943990081548691,0.8613656163215637,0.9800176620483398
1773522690415920000,11.703920166015624,-0.05931252986192703,0.894209623336792,0.900507926940918
1773522690425958000,11.7139580078125,-0.07018189877271652,0.9724404811859131,0.900715172290802
1773522690435996200,11.72399609375,-0.10312972962856293,0.9422346949577332,0.9209932684898376
1773522690446034000,11.734033935546876,-0.1468842774629593,0.7495184540748596,0.8965197205543518
1773522690456072200,11.744072265625,-0.21025259792804718,0.3889716565608978,0.7933169007301331
1773522690466110000,11.75410986328125,-0.24799326062202454,-0.09384147077798843,0.6111204624176025
1773522690476148200,11.764148193359375,-0.2530418336391449,-0.5556045174598694,0.38438665866851807
1773522690486186000,11.77418603515625,-0.22832229733467102,-0.8366191387176514,0.1751597821712494
1773522690496224000,11.78422412109375,-0.16570205986499786,-0.9222307205200195,0.012803101912140846
1773522690506262000,11.794261962890625,-0.10993653535842896,-0.9258076548576355,-0.07946387678384781
1773522690516300000,11.804300048828125,-0.08139970153570175,-0.9296761751174927,-0.11450096219778061
1773522690526338000,11.814338134765626,-0.0893774926662445,-1.0103247165679932,-0.11983431875705719
1773522690536376000,11.8243759765625,-0.11322502791881561,-1.1083471775054932,-0.12856309115886688
1773522690546413000,11.8344130859375,-0.13640649616718292,-1.2457770109176636,-0.13452944159507751
1773522690556451000,11.844451171875,-0.1339169591665268,-1.2929754257202148,-0.13991624116897583
1773522690566489000,11.854489013671875,-0.12283644080162048,-1.25719153881073,-0.16173705458641052
1773522690576527000,11.864527099609376,-0.1296623945236206,-1.219749093055725,-0.19623030722141266
1773522690586565000,11.874565185546874,-0.12421110272407532,-1.1315275430679321,-0.2276228368282318
1773522690596603000,11.884602783203125,-0.0930451974272728,-0.9688805937767029,-0.2577594518661499
1773522690606641200,11.89464111328125,-0.0532790832221508,-0.7788804769515991,-0.29877254366874695
1773522690616679000,11.904678955078126,-0.0291987806558609,-0.5840449929237366,-0.36770471930503845
1773522690626717200,11.91471728515625,-0.046026140451431274,-0.43317535519599915,-0.47167226672172546
1773522690636755000,11.9247548828125,-0.0933704823255539,-0.3714462220668793,-0.5992225408554077
1773522690646793200,11.934793212890625,-0.1444842517375946,-0.4093824028968811,-0.7057121992111206
1773522690656831000,11.9448310546875,-0.17348766326904297,-0.4952602982521057,-0.7486333250999451
1773522690666869000,11.954868896484374,-0.1849527806043625,-0.5985660552978516,-0.727178692817688
1773522690676907000,11.964906982421875,-0.1914261281490326,-0.7688744068145752,-0.6867034435272217
1773522690686945000,11.974945068359375,-0.17359541356563568,-0.9908036589622498,-0.6773908138275146
1773522690696983000,11.984983154296875,-0.12616769969463348,-1.159944772720337,-0.6886732578277588
1773522690707021000,11.99502099609375,-0.058023951947689056,-1.1769967079162598,-0.6867625713348389
1773522690717059000,12.00505908203125,0.05118243396282196,-1.103360652923584,-0.6309360265731812
1773522690727097000,12.01509716796875,0.18528471887111664,-1.0533040761947632,-0.4882993996143341
1773522690737134800,12.025134765625,0.3448149859905243,-1.0065346956253052,-0.23069263994693756
1773522690747173000,12.035173095703126,0.4040588438510895,-0.81024169921875,0.01981412246823311
1773522690757211000,12.0452109375,0.3713914453983307,-0.5043760538101196,0.18173564970493317
1773522690767249200,12.055249267578125,0.35376885533332825,-0.20486311614513397,0.22987206280231476
1773522690777287000,12.065286865234375,0.3718778192996979,0.07310830801725388,0.17000633478164673
1773522690787328000,12.075327880859374,0.44438087940216064,0.21270723640918732,-0.04320748522877693
1773522690797366000,12.085365966796875,0.577721118927002,-0.1674635410308838,-0.4906776547431946
1773522690807404000,12.095404052734375,0.7246547341346741,-1.5617141723632812,-1.1607321500778198
1773522690817442000,12.105442138671876,0.7040418982505798,-3.484539031982422,-1.6436104774475098
1773522690827480000,12.11547998046875,0.39148250222206116,-5.031585216522217,-1.558899164199829
1773522690837518000,12.12551806640625,-0.25714877247810364,-5.381503105163574,-0.9288886189460754
1773522690847556000,12.13555615234375,-0.9335827827453613,-4.066898822784424,-0.24808086454868317
1773522690857594000,12.145593994140626,-1.2785673141479492,-1.7781533002853394,0.19857890903949738
1773522690867632000,12.155632080078124,-1.1942040920257568,0.30330178141593933,0.3635481894016266
1773522690877670100,12.165670166015625,-0.7571801543235779,1.4276412725448608,0.2780705690383911
1773522690887708000,12.1757080078125,-0.2946547865867615,1.6897307634353638,-0.00595988892018795
1773522690897746200,12.18574609375,-0.05778207629919052,1.4458693265914917,-0.33155688643455505
1773522690907784000,12.195783935546874,-0.006566646043211222,1.0239195823669434,-0.5401095151901245
1773522690917822200,12.205822265625,-0.04483227804303169,0.5848373174667358,-0.6062568426132202
1773522690927860000,12.21585986328125,-0.10333514958620071,0.0925619974732399,-0.6102803349494934
1773522690937898000,12.22589794921875,-0.12303508073091507,-0.39123183488845825,-0.6273091435432434
1773522690947936000,12.23593603515625,0.022497260943055153,-0.8182281851768494,-0.670913815498352
1773522690957974000,12.24597412109375,0.3092169165611267,-1.1530903577804565,-0.6619530916213989
1773522690968012000,12.256011962890625,0.5580172538757324,-1.3104511499404907,-0.5758882164955139
1773522690978050000,12.266050048828125,0.6788326501846313,-1.3028608560562134,-0.4529745280742645
1773522690988088000,12.276088134765626,0.6880630254745483,-1.212339162826538,-0.3504303991794586
1773522690998126000,12.2861259765625,0.6472213268280029,-1.1340779066085815,-0.29952752590179443
1773522691008163000,12.2961630859375,0.6098954677581787,-1.0668984651565552,-0.2951665222644806
1773522691018201000,12.306201171875,0.5742714405059814,-0.9988030791282654,-0.32706451416015625
1773522691028239000,12.316239013671876,0.5357003808021545,-0.9608738422393799,-0.3680747151374817
1773522691038277000,12.326277099609374,0.4816124141216278,-0.9153955578804016,-0.36385199427604675
1773522691048315100,12.336315185546875,0.4157027006149292,-0.850766122341156,-0.29319271445274353
1773522691058353000,12.346352783203125,0.35024458169937134,-0.7882526516914368,-0.20131632685661316
1773522691068391200,12.35639111328125,0.2881830036640167,-0.747874915599823,-0.1484946757555008
1773522691078429000,12.366428955078124,0.23920856416225433,-0.7231525182723999,-0.1390170156955719
1773522691088467200,12.37646728515625,0.20013727247714996,-0.6927729249000549,-0.13091027736663818
1773522691098505000,12.3865048828125,0.15987028181552887,-0.543552041053772,-0.057215023785829544
1773522691108543000,12.39654296875,0.13143661618232727,-0.29110097885131836,0.05835786461830139
1773522691118581000,12.4065810546875,0.12876492738723755,-0.0680532455444336,0.1254895031452179
1773522691128619000,12.416618896484374,0.14737702906131744,0.04794827476143837,0.10250572860240936
1773522691138657000,12.426656982421875,0.17037102580070496,0.0439591258764267,0.0017855087062343955
1773522691148695000,12.436695068359375,0.1800728291273117,-0.012988072820007801,-0.13139085471630096
1773522691158733000,12.446733154296876,0.13695918023586273,-0.047338325530290604,-0.23621074855327606
1773522691168771000,12.45677099609375,0.0806230828166008,-0.056892991065979004,-0.3215988576412201
1773522691178808800,12.466808837890625,0.05483409762382507,-0.06862901151180267,-0.40326201915740967
1773522691188847000,12.47684716796875,0.061002932488918304,-0.06351974606513977,-0.4678705036640167
1773522691198884900,12.486884765625,0.05754907429218292,-0.012874675914645195,-0.43086403608322144
1773522691208922000,12.496922119140624,0.028544586151838303,0.06590117514133453,-0.2796371281147003
1773522691218960100,12.506960205078125,-0.008647522889077663,0.08887599408626556,-0.08080288022756577
1773522691228998000,12.516997802734375,-0.029222987592220306,0.003345772158354521,0.0666167140007019
1773522691239036200,12.5270361328125,-0.03220759332180023,-0.15915872156620026,0.10053393244743347
