time,seconds_elapsed,z,y,x
1773522678791962600,0.079962646484375,0.021747106686234474,-0.14506743848323822,0.4399574100971222
1773522678802000600,0.090000732421875,0.16981805860996246,-0.03716627508401871,0.43814724683761597
1773522678812038700,0.10003857421875,0.31785839796066284,0.01661652699112892,0.38058915734291077
1773522678822076700,0.11007666015625,0.4308086335659027,0.08266212046146393,0.22267089784145355
1773522678832114700,0.12011474609375,0.47803953289985657,0.13447445631027222,-0.014249242842197418
1773522678842152700,0.130152587890625,0.5244424343109131,0.21654455363750458,-0.23209501802921295
1773522678852190700,0.140190673828125,0.6237770318984985,0.278545618057251,-0.34384685754776
1773522678862228700,0.150228759765625,0.7182736992835999,0.265766441822052,-0.34374430775642395
1773522678872266500,0.1602666015625,0.7253792881965637,0.18134476244449615,-0.293599396944046
1773522678882304800,0.1703046875,0.6095924973487854,0.27305763959884644,-0.19615353643894196
1773522678892341500,0.180341552734375,0.46067386865615845,0.5868123769760132,-0.12819312512874603
1773522678902379500,0.190379638671875,0.28607702255249023,0.7329576015472412,-0.1430807262659073
1773522678912417500,0.20041748046875,0.22675777971744537,0.7596980929374695,-0.21177136898040771
1773522678922455600,0.21045556640625,0.23995719850063324,0.9554668068885803,-0.3151102662086487
1773522678932493600,0.22049365234375,0.35211464762687683,1.383994460105896,-0.4144270122051239
1773522678942531600,0.230531494140625,0.5361417531967163,1.4530526399612427,-0.5194991230964661
1773522678952569600,0.240569580078125,0.7836236953735352,1.2325210571289062,-0.6080321669578552
1773522678962607600,0.250607666015625,1.031538963317871,1.2897870540618896,-0.6174988746643066
1773522678972645600,0.260645751953125,1.1000159978866577,1.7479950189590454,-0.5164106488227844
1773522678982683600,0.27068359375,0.9681757092475891,2.11212158203125,-0.41004878282546997
1773522678992721700,0.2807216796875,0.6653183698654175,2.4050650596618652,-0.34471452236175537
1773522679002759700,0.290759765625,0.5262163877487183,2.4548258781433105,-0.2813621759414673
1773522679012797700,0.300797607421875,0.5456028580665588,1.8708256483078003,-0.26046380400657654
1773522679022835700,0.310835693359375,0.29898136854171753,1.3917112350463867,-0.08129245787858963
1773522679032873700,0.320873779296875,-0.08923826366662979,1.6313515901565552,0.41899991035461426
1773522679042911500,0.330911376953125,-0.47384241223335266,2.477398633956909,1.0181409120559692
1773522679052948700,0.34094873046875,-0.8111642599105835,3.5951480865478516,1.111867904663086
1773522679062986500,0.350986572265625,-0.9739614129066467,4.719117164611816,0.7025752067565918
1773522679073024500,0.3610244140625,-1.1187270879745483,5.44855260848999,0.1576514095067978
1773522679083062500,0.3710625,-1.292680025100708,5.545463562011719,-0.06367991119623184
1773522679093100500,0.3811005859375,-1.324008584022522,2.382459878921509,0.47311028838157654
1773522679103138600,0.391138671875,-1.4270415306091309,-0.25572311878204346,0.6927739381790161
1773522679113176600,0.401176513671875,-0.8755850195884705,-0.4721126854419708,-0.017109477892518044
1773522679123214800,0.41121484375,-0.17987948656082153,-0.22956101596355438,-0.5689502954483032
1773522679133252600,0.421252685546875,0.31063005328178406,-0.2558610737323761,-0.7418014407157898
1773522679143290600,0.43129052734375,0.6640602946281433,0.1316072940826416,-0.9589776992797852
1773522679153328600,0.44132861328125,0.7965775728225708,0.44445762038230896,-1.347382664680481
1773522679163366700,0.45136669921875,0.6065194606781006,0.6328077912330627,-1.6636005640029907
1773522679173404700,0.46140478515625,0.24823617935180664,0.8214608430862427,-1.8224586248397827
1773522679183442700,0.471442626953125,-0.16350769996643066,1.0019222497940063,-1.8669403791427612
1773522679193480700,0.481480712890625,-0.7479032278060913,-0.11160908639431,-1.7710412740707397
1773522679203517700,0.491517578125,-0.5205997824668884,1.0952998399734497,-2.1894021034240723
1773522679213555500,0.501555419921875,-0.7586986422538757,0.7647879719734192,-2.35170841217041
1773522679223593700,0.51159375,-0.4739164412021637,0.5929046273231506,-2.535470485687256
1773522679233631500,0.521631591796875,-0.3858121335506439,-0.29367369413375854,-2.936880350112915
1773522679243669500,0.53166943359375,-0.2533627450466156,-0.8902678489685059,-3.4157698154449463
1773522679253707500,0.54170751953125,-0.06285513192415237,-1.2130283117294312,-4.171131134033203
1773522679263745500,0.55174560546875,0.012673983350396156,-1.0736714601516724,-5.070220470428467
1773522679273783800,0.56178369140625,-0.33410340547561646,-0.4807567596435547,-5.886997222900391
1773522679283821600,0.571821533203125,-1.07347571849823,0.14800810813903809,-6.40865421295166
1773522679293859800,0.58185986328125,-1.7436034679412842,0.6517212986946106,-6.414916038513184
1773522679303897600,0.591897705078125,-2.420180082321167,0.7086895108222961,-5.9560980796813965
1773522679313935600,0.601935546875,-2.849107027053833,0.20629937946796417,-5.205345153808594
1773522679323973600,0.6119736328125,-2.6383931636810303,-0.37636804580688477,-4.518845081329346
1773522679334011600,0.62201171875,-2.1275155544281006,-0.8958114981651306,-4.36341667175293
1773522679344049700,0.632049560546875,-1.53081214427948,-1.144469976425171,-4.704404830932617
1773522679354087700,0.642087646484375,-1.3148199319839478,-0.9450410604476929,-5.348543643951416
1773522679364125700,0.652125732421875,-1.6643909215927124,-0.38081926107406616,-5.940818786621094
1773522679374162700,0.66216259765625,-2.4240548610687256,-0.04165690019726753,-6.044486045837402
1773522679384200400,0.672200439453125,-3.175018072128296,0.07373441010713577,-5.5276689529418945
1773522679394238700,0.68223876953125,-3.4339072704315186,-0.15059377253055573,-4.820913791656494
1773522679404276700,0.69227685546875,-3.223950147628784,-0.4166768491268158,-4.300995826721191
1773522679414314500,0.702314453125,-3.0186078548431396,-0.8698869347572327,-4.316824913024902
1773522679424352800,0.712352783203125,-2.7390904426574707,-0.8760257959365845,-4.841458320617676
1773522679434390500,0.722390625,-2.3221898078918457,-0.12121403962373734,-5.721904754638672
1773522679444428800,0.7324287109375,-1.8776313066482544,0.8743858337402344,-6.578972816467285
1773522679454466600,0.742466552734375,-1.352301001548767,1.5032832622528076,-7.10480260848999
1773522679464504800,0.7525048828125,-0.8136764168739319,1.159778118133545,-7.17075777053833
1773522679474542600,0.76254248046875,-0.31478750705718994,0.25149455666542053,-6.979866981506348
1773522679484580600,0.77258056640625,0.1035895124077797,-0.5499305129051208,-6.572219371795654
1773522679494618600,0.78261865234375,0.40391018986701965,-0.6300187110900879,-5.964503765106201
1773522679504656600,0.79265673828125,0.6885355114936829,-0.013304087333381176,-5.444209575653076
1773522679514694700,0.802694580078125,1.1869860887527466,0.898325502872467,-5.111269950866699
1773522679524732700,0.812732666015625,1.8676804304122925,1.4889254570007324,-4.815400123596191
1773522679534769400,0.822769287109375,2.6091039180755615,1.7298661470413208,-4.472925186157227
1773522679544807700,0.8328076171875,3.28678560256958,1.8683462142944336,-4.070706844329834
1773522679554845700,0.842845703125,3.7069318294525146,2.364919424057007,-3.344646453857422
1773522679564883700,0.8528837890625,3.660261869430542,2.921990394592285,-2.3579254150390625
1773522679574921700,0.862921630859375,3.313300132751465,3.349980354309082,-1.517947793006897
1773522679584959500,0.87295947265625,2.8453128337860107,3.5982277393341064,-0.7888248562812805
1773522679594997800,0.882997802734375,2.3342738151550293,3.606929063796997,-0.1384822428226471
1773522679605035500,0.893035400390625,1.8826274871826172,3.331867218017578,0.44119444489479065
1773522679615073800,0.90307373046875,1.6179776191711426,2.8392937183380127,0.8710161447525024
1773522679625111600,0.913111572265625,1.5347440242767334,2.228078603744507,1.0752627849578857
1773522679635149800,0.92314990234375,1.554592251777649,1.6837502717971802,1.0781993865966797
1773522679645187600,0.9331875,1.5811277627944946,1.267072081565857,0.960783839225769
1773522679655225600,0.9432255859375,1.5379257202148438,0.8720635175704956,0.8180157542228699
1773522679665263600,0.953263671875,1.4188576936721802,0.39562615752220154,0.7501147389411926
1773522679675301600,0.963301513671875,1.3491264581680298,-0.1044507771730423,0.7447311282157898
1773522679685339600,0.973339599609375,1.2567923069000244,-0.5323581695556641,0.675212025642395
1773522679695376600,0.983376708984375,1.220806360244751,-0.8418294787406921,0.5159589648246765
1773522679705414700,0.99341455078125,1.252480387687683,-0.8790098428726196,0.31240904331207275
1773522679715452700,1.00345263671875,1.261675477027893,-0.7750331163406372,0.06205511465668678
1773522679725490700,1.01349072265625,1.1442838907241821,-0.6319449543952942,-0.14235661923885345
1773522679735528700,1.02352880859375,1.073091983795166,-0.6335843801498413,-0.2479373663663864
1773522679745566700,1.033566650390625,1.3970247507095337,-0.7963099479675293,-0.11876047402620316
1773522679755604500,1.0436044921875,1.7548489570617676,-0.9746759533882141,0.10706466436386108
1773522679765642800,1.053642822265625,2.1858131885528564,-1.036565899848938,0.1818038821220398
1773522679775676200,1.06367626953125,2.065134048461914,-0.6816821694374084,0.23266147077083588
1773522679785714400,1.07371435546875,1.7978826761245728,-0.11185862123966217,0.19677431881427765
1773522679795752200,1.083752197265625,1.7245172262191772,0.08084984123706818,0.1290123164653778
1773522679805790200,1.093790283203125,1.7689729928970337,-0.28160983324050903,0.09834600985050201
1773522679815828200,1.103828125,1.536117434501648,-0.7884810566902161,0.13634611666202545
1773522679825866200,1.1138662109375,1.3502682447433472,-0.9794227480888367,0.3158615529537201
1773522679835904300,1.123904296875,1.0940006971359253,-1.187760829925537,0.3283880054950714
1773522679845942300,1.1339423828125,0.8496426343917847,-1.457512378692627,0.291438490152359
1773522679855980300,1.143980224609375,0.35152339935302734,-1.6864137649536133,0.3012900650501251
1773522679866018300,1.154018310546875,-0.10910811275243759,-1.7676918506622314,0.33975648880004883
1773522679876055300,1.16405517578125,-0.48982828855514526,-1.7310123443603516,0.4583449363708496
1773522679886093300,1.17409326171875,-0.7749886512756348,-1.8075199127197266,0.5327661633491516
1773522679896131300,1.18413134765625,-0.881367027759552,-1.8267985582351685,0.6514829397201538
1773522679906169000,1.194169189453125,-0.7495543956756592,-1.8467270135879517,0.7587398886680603
1773522679916207400,1.204207275390625,-0.533409595489502,-1.7360560894012451,0.7586669325828552
1773522679926245000,1.2142451171875,-0.40724125504493713,-1.5402261018753052,0.4740634560585022
1773522679936283400,1.224283447265625,-0.34422263503074646,-1.2945241928100586,0.015074023976922035
1773522679946321200,1.234321044921875,-0.342726469039917,-0.9762099385261536,-0.27574422955513
1773522679956359400,1.244359375,-0.2921714186668396,-0.7437894344329834,-0.34945279359817505
1773522679966397200,1.254397216796875,-0.08469677716493607,-0.6601816415786743,-0.20861366391181946
1773522679976435200,1.264435302734375,0.038432344794273376,-0.749274492263794,-0.00965662207454443
1773522679986473200,1.27447314453125,0.009689112193882465,-0.8924148678779602,0.10164406895637512
1773522679996511200,1.28451123046875,-0.1217392161488533,-1.0472651720046997,0.11082424968481064
1773522680006549200,1.29454931640625,-0.34814199805259705,-1.2312214374542236,0.17082659900188446
1773522680016587300,1.304587158203125,-0.592881977558136,-1.3378101587295532,0.20062045753002167
1773522680026625300,1.314625244140625,-0.6869256496429443,-1.3738712072372437,0.1201690211892128
1773522680036663300,1.324663330078125,-0.5762148499488831,-1.228432297706604,0.009738913737237453
1773522680046701300,1.334701416015625,-0.4265182912349701,-1.0641722679138184,-0.07166113704442978
1773522680056738300,1.34473828125,-0.2729971706867218,-0.8596603870391846,-0.10740102827548981
1773522680066776300,1.3547763671875,-0.17760302126407623,-0.5740310549736023,-0.08902867883443832
1773522680076814000,1.36481396484375,-0.07474268227815628,-0.2950705289840698,-0.043531499803066254
1773522680086852400,1.374852294921875,-0.010036122053861618,0.0967465192079544,0.035303663462400436
1773522680096890000,1.38489013671875,-0.060748834162950516,0.6424615383148193,0.0684613510966301
1773522680106928400,1.394928466796875,-0.1912546455860138,0.9685498476028442,0.11345811933279037
1773522680116966100,1.404966064453125,-0.3977431058883667,1.2177159786224365,0.032463666051626205
1773522680127004400,1.41500439453125,-0.6376497149467468,1.3872877359390259,-0.1400873363018036
1773522680137042200,1.425042236328125,-0.6424194574356079,1.6322239637374878,-0.26118579506874084
1773522680147080200,1.435080078125,-0.52227783203125,1.8630948066711426,-0.3340189754962921
1773522680157118200,1.4451181640625,-0.29920533299446106,1.9550292491912842,-0.39096537232398987
1773522680167156200,1.45515625,0.060572534799575806,2.0001187324523926,-0.4123196601867676
1773522680177194200,1.4651943359375,0.5793709754943848,2.059739589691162,-0.37867221236228943
1773522680187232300,1.475232177734375,0.9931042194366455,1.7064814567565918,-0.26844024658203125
1773522680197270300,1.485270263671875,1.4402897357940674,1.4577722549438477,-0.3143957555294037
1773522680207308300,1.495308349609375,1.8640042543411255,1.535295009613037,-0.44954586029052734
1773522680217346300,1.50534619140625,2.2887086868286133,1.6879732608795166,-0.6421038508415222
1773522680227384300,1.51538427734375,2.535933017730713,1.7795692682266235,-0.831907331943512
1773522680237422300,1.52542236328125,2.5881621837615967,1.9344903230667114,-1.0212101936340332
1773522680247459000,1.535458984375,2.679443597793579,1.819315791130066,-1.1359302997589111
1773522680257497300,1.545497314453125,2.720184564590454,1.379665732383728,-1.1999293565750122
1773522680267535000,1.55553515625,2.772392511367798,0.9877914786338806,-1.1315643787384033
1773522680277573400,1.565573486328125,2.764320135116577,0.825473964214325,-1.176816463470459
1773522680287611100,1.575611083984375,2.539623737335205,0.5830605030059814,-1.2154499292373657
1773522680297649400,1.5856494140625,2.3085286617279053,0.33575376868247986,-1.1397069692611694
1773522680307687200,1.595687255859375,2.1047141551971436,0.03412254899740219,-1.057337760925293
1773522680317725200,1.60572509765625,1.9259717464447021,-0.3832741379737854,-0.9529836773872375
1773522680327763200,1.61576318359375,1.67559814453125,-0.8751102089881897,-0.8731058835983276
1773522680337801200,1.62580126953125,1.4574910402297974,-1.2750626802444458,-0.8502042889595032
1773522680347839200,1.635839111328125,1.263028621673584,-1.6453973054885864,-0.7758027911186218
1773522680357877200,1.645877197265625,0.9310794472694397,-2.049091339111328,-0.611784040927887
1773522680367915300,1.655915283203125,0.5652503371238708,-2.319450616836548,-0.37743836641311646
1773522680377953300,1.665953369140625,0.04313841462135315,-2.60212779045105,-0.1306948959827423
1773522680387991300,1.6759912109375,-0.4778025150299072,-2.61521053314209,0.1165899932384491
1773522680398029300,1.686029296875,-1.0148897171020508,-2.3072471618652344,0.4093821942806244
1773522680408067300,1.6960673828125,-1.6959906816482544,-2.0159943103790283,0.6914514303207397
1773522680418105300,1.706105224609375,-2.550417423248291,-1.4337927103042603,1.082653522491455
1773522680428143400,1.716143310546875,-3.356584310531616,-0.8244541883468628,1.4887235164642334
1773522680438180000,1.72618017578125,-4.018877029418945,-0.40633445978164673,1.7102175951004028
1773522680448218400,1.73621826171875,-4.289608001708984,-0.16343367099761963,1.7833086252212524
1773522680458256100,1.746256103515625,-4.165180206298828,0.14397075772285461,1.8563226461410522
1773522680468294400,1.75629443359375,-3.9364352226257324,-0.09450946003198624,2.0003883838653564
1773522680478332200,1.766332275390625,-3.5792605876922607,-0.8854488730430603,2.0455329418182373
1773522680488370200,1.7763701171875,-3.6303417682647705,-2.2220091819763184,1.8632521629333496
1773522680498408200,1.786408203125,-3.7449917793273926,-3.0166072845458984,1.2569483518600464
1773522680508446200,1.7964462890625,-3.8173348903656006,-3.336359977722168,0.43919575214385986
1773522680518484500,1.806484375,-3.756749391555786,-3.499423027038574,-0.40981096029281616
1773522680528522200,1.816522216796875,-3.4081592559814453,-3.324310541152954,-1.1345926523208618
1773522680538560500,1.826560546875,-2.6748592853546143,-2.8400704860687256,-1.84819495677948
1773522680548598300,1.836598388671875,-1.7689014673233032,-1.3122336864471436,-2.1868956089019775
1773522680558636300,1.84663623046875,-0.8089098930358887,0.37522074580192566,-1.7132147550582886
1773522680568674300,1.85667431640625,0.13261103630065918,1.3203691244125366,-0.6324616074562073
1773522680578712300,1.86671240234375,0.836085319519043,1.576924204826355,0.38820338249206543
1773522680588750300,1.876750244140625,0.9701778888702393,1.5331634283065796,0.8958423733711243
1773522680598788400,1.886788330078125,0.7287066578865051,1.0316768884658813,0.9835330843925476
1773522680608826400,1.896826416015625,0.31740644574165344,0.363459974527359,0.8240696787834167
1773522680618864400,1.906864501953125,-0.16075186431407928,-0.07910706847906113,0.6343311667442322
1773522680628902100,1.916902099609375,-0.6288428902626038,-0.26564526557922363,0.5067721009254456
1773522680638940400,1.9269404296875,-0.9890844225883484,-0.32892727851867676,0.4341791570186615
1773522680648977200,1.93697705078125,-1.1380518674850464,-0.3983897268772125,0.34053441882133484
1773522680659015200,1.94701513671875,-1.3350790739059448,-0.2689148187637329,0.20853136479854584
1773522680669053400,1.957053466796875,-1.5160139799118042,-0.19627070426940918,0.0324290469288826
1773522680679091200,1.96709130859375,-1.6434053182601929,-0.283443421125412,-0.19153454899787903
1773522680689129500,1.97712939453125,-1.6602345705032349,-0.5412454009056091,-0.44053077697753906
1773522680699167200,1.987167236328125,-1.6479065418243408,-0.9001069068908691,-0.6966432332992554
1773522680709205500,1.99720556640625,-1.6425997018814087,-1.1781784296035767,-0.9195637106895447
1773522680719243300,2.0072431640625,-1.5366759300231934,-1.2065390348434448,-1.055450201034546
1773522680729281300,2.01728125,-1.4135558605194092,-0.8713247776031494,-1.1119275093078613
1773522680739319300,2.0273193359375,-1.29038405418396,-0.2884714901447296,-1.0658048391342163
1773522680749357300,2.037357421875,-1.069279670715332,0.22479157149791718,-0.8877003192901611
1773522680759395300,2.047395263671875,-0.9965990781784058,0.6617159247398376,-0.6528949737548828
1773522680769433300,2.057433349609375,-0.8070328831672668,0.8340434432029724,-0.34330835938453674
1773522680779475500,2.067475341796875,-0.7647680044174194,0.8517966270446777,-0.08545231819152832
1773522680789513500,2.077513427734375,-0.8805643320083618,0.6708627939224243,0.05950673669576645
1773522680799551500,2.087551513671875,-1.16849684715271,0.4918682873249054,0.010216418653726578
1773522680809589500,2.097589599609375,-1.4455630779266357,0.2943991422653198,-0.10909772664308548
1773522680819627500,2.10762744140625,-1.541629672050476,0.47633591294288635,-0.2248525470495224
1773522680829665500,2.11766552734375,-1.4852094650268555,1.2933710813522339,-0.21182410418987274
1773522680839703600,2.12770361328125,-1.4607510566711426,2.0761301517486572,-0.2052396982908249
1773522680849740500,2.137740478515625,-1.3543050289154053,2.6023824214935303,-0.34488174319267273
1773522680859778300,2.1477783203125,-1.3280878067016602,2.785745620727539,-0.4785766899585724
1773522680869816600,2.157816650390625,-1.3236099481582642,2.8226988315582275,-0.6180800199508667
1773522680879854300,2.167854248046875,-1.4483013153076172,2.424959182739258,-0.8839492201805115
1773522680889892600,2.177892578125,-1.9674272537231445,1.4600716829299927,-1.334740400314331
1773522680899930400,2.187930419921875,-2.3473727703094482,1.328560471534729,-1.3194626569747925
1773522680909968400,2.197968505859375,-2.6901607513427734,1.6437509059906006,-0.9912386536598206
1773522680920006400,2.20800634765625,-2.993029832839966,1.904479742050171,-0.5668706297874451
1773522680930044400,2.21804443359375,-3.1092891693115234,1.9243650436401367,-0.15639705955982208
1773522680940082400,2.22808251953125,-3.0093331336975098,1.7053024768829346,0.096955306828022
1773522680950120400,2.238120361328125,-2.815342664718628,1.296493649482727,0.06015121936798096
1773522680960158500,2.248158447265625,-2.316261053085327,0.73057621717453,-0.7443865537643433
1773522680970196500,2.258196533203125,-1.5391327142715454,-0.12771189212799072,-1.9016823768615723
1773522680980234500,2.268234375,-0.8361449837684631,-1.2386727333068848,-2.6667635440826416
1773522680990272500,2.2782724609375,-0.2544272243976593,-2.180996894836426,-2.7870538234710693
1773522681000310500,2.288310546875,0.15247130393981934,-2.812978982925415,-2.404672145843506
1773522681010348500,2.2983486328125,0.39342132210731506,-3.226267099380493,-1.7400263547897339
1773522681020386600,2.308386474609375,0.4726509153842926,-3.4950759410858154,-0.9544242024421692
1773522681030424600,2.318424560546875,0.3990424573421478,-3.6235415935516357,-0.15770281851291656
1773522681040462600,2.328462646484375,0.20723414421081543,-3.493170976638794,0.5385302901268005
1773522681050499300,2.338499267578125,-0.08136409521102905,-3.074357032775879,1.0690914392471313
1773522681060537600,2.34853759765625,-0.4433175027370453,-2.448357105255127,1.43256676197052
1773522681070575400,2.358575439453125,-0.8368011713027954,-1.7638558149337769,1.626761555671692
1773522681080613400,2.36861328125,-1.1826478242874146,-1.1681777238845825,1.5934020280838013
1773522681090651400,2.3786513671875,-1.3603464365005493,-0.8296180963516235,1.314067006111145
1773522681100689400,2.388689453125,-1.3530559539794922,-0.7412285804748535,0.9307465553283691
1773522681110727400,2.3987275390625,-1.1932146549224854,-0.7980915904045105,0.6045879125595093
1773522681120765400,2.408765380859375,-0.9245115518569946,-0.879266083240509,0.41963136196136475
1773522681130803700,2.4188037109375,-0.6231027245521545,-0.9134865999221802,0.3745019733905792
1773522681140841500,2.428841552734375,-0.35779622197151184,-0.9214457273483276,0.4155444800853729
1773522681150879500,2.43887939453125,-0.18188990652561188,-0.9882546067237854,0.4624198377132416
1773522681160917500,2.44891748046875,-0.0989082008600235,-1.113289713859558,0.45288679003715515
1773522681170955500,2.45895556640625,-0.09734892100095749,-1.2442866563796997,0.3643167018890381
1773522681180993500,2.46899365234375,-0.14962917566299438,-1.3290196657180786,0.22402431070804596
1773522681191031600,2.479031494140625,-0.23783919215202332,-1.447180151939392,0.030912641435861588
1773522681201069600,2.489069580078125,-0.3566076457500458,-1.650892972946167,-0.17726559937000275
1773522681211107600,2.499107666015625,-0.4616115689277649,-1.8177400827407837,-0.37698882818222046
1773522681221145300,2.509145263671875,-0.5339507460594177,-1.9945462942123413,-0.537661075592041
1773522681231183600,2.51918359375,-0.5518469214439392,-2.1616837978363037,-0.6455001831054688
1773522681241221400,2.529221435546875,-0.5179699063301086,-2.314368724822998,-0.6996640563011169
1773522681251259600,2.539259765625,-0.4798741936683655,-2.411414861679077,-0.7149066925048828
1773522681261296400,2.54929638671875,-0.4567166864871979,-2.4116721153259277,-0.7098724842071533
1773522681271334400,2.55933447265625,-0.4802430272102356,-2.2672054767608643,-0.6981125473976135
1773522681281372700,2.56937255859375,-0.6927526593208313,-2.0291261672973633,-0.7296307682991028
1773522681291410400,2.579410400390625,-1.6543985605239868,-1.911565899848938,-0.8574936389923096
1773522681301448700,2.58944873046875,-2.0845115184783936,-1.6241931915283203,-0.7011671662330627
1773522681311486500,2.599486572265625,-1.994886040687561,-1.592455267906189,-0.4062548279762268
1773522681321524500,2.6095244140625,-1.5482121706008911,-1.5437535047531128,0.05368852987885475
1773522681331562500,2.6195625,-0.926863431930542,-1.3745261430740356,0.571070671081543
1773522681341600500,2.6296005859375,-0.3451182544231415,-1.036101222038269,1.047098159790039
1773522681351638500,2.639638427734375,0.13566036522388458,-0.6347101330757141,1.3406107425689697
1773522681361676500,2.649676513671875,0.4720146656036377,-0.26301804184913635,1.3932404518127441
1773522681371714600,2.659714599609375,0.6585803031921387,0.11328741163015366,1.259734869003296
1773522681381752600,2.669752685546875,0.6663929224014282,0.49032604694366455,1.0072195529937744
1773522681391790300,2.679790283203125,0.5497009754180908,0.878149688243866,0.7460470199584961
1773522681401828600,2.68982861328125,0.3496578633785248,1.2072093486785889,0.527807891368866
1773522681411866400,2.699866455078125,0.16331303119659424,1.4428300857543945,0.37055301666259766
1773522681421904600,2.709904541015625,0.04907912760972977,1.5608065128326416,0.2938297688961029
1773522681431942400,2.7199423828125,0.004986502695828676,1.5545307397842407,0.2672692537307739
1773522681441980700,2.729980712890625,0.0031846079509705305,1.4387836456298828,0.26168885827064514
1773522681452018400,2.740018310546875,0.019779829308390617,1.199730634689331,0.24294553697109222
1773522681462055400,2.750055419921875,0.030436202883720398,0.8699237108230591,0.22427518665790558
1773522681472093700,2.76009375,0.02791711874306202,0.5034801959991455,0.20473609864711761
1773522681482131500,2.77013134765625,0.016694026067852974,0.16399505734443665,0.17592789232730865
1773522681492169500,2.78016943359375,-0.01852281764149666,-0.1208886057138443,0.14140214025974274
1773522681502207500,2.79020751953125,-0.08123893290758133,-0.39857161045074463,0.09871459007263184
1773522681512245500,2.80024560546875,-0.1600131094455719,-0.6752505898475647,0.04705512523651123
1773522681522283500,2.810283447265625,-0.25200533866882324,-0.9488387703895569,-0.005546565633267164
1773522681532321500,2.820321533203125,-0.3456500768661499,-1.1868436336517334,-0.050932954996824265
1773522681542359600,2.830359619140625,-0.42605412006378174,-1.3806508779525757,-0.09055013954639435
1773522681552397600,2.8403974609375,-0.4687749445438385,-1.5104296207427979,-0.12215813249349594
1773522681562435300,2.850435302734375,-0.4747513234615326,-1.5778536796569824,-0.14405570924282074
1773522681572473600,2.8604736328125,-0.4467037320137024,-1.5720714330673218,-0.14108042418956757
1773522681582511400,2.870511474609375,-0.41405096650123596,-1.5056746006011963,-0.1133638396859169
1773522681592549600,2.880549560546875,-0.37947168946266174,-1.3865865468978882,-0.056596167385578156
1773522681602587400,2.89058740234375,-0.36232492327690125,-1.2257494926452637,0.01375309657305479
1773522681612625700,2.900625732421875,-0.3685378134250641,-1.037889003753662,0.08577855676412582
1773522681622663400,2.910663330078125,-0.37821733951568604,-0.8401548862457275,0.15212935209274292
1773522681632701400,2.920701416015625,-0.33710798621177673,-0.674094557762146,0.21596930921077728
1773522681642739500,2.930739501953125,-0.2573830783367157,-0.5547588467597961,0.28065431118011475
1773522681652776400,2.9407763671875,-0.1830742210149765,-0.4598464369773865,0.3486964702606201
1773522681662814500,2.950814453125,-0.1446663737297058,-0.3751658797264099,0.41728776693344116
1773522681672852500,2.9608525390625,-0.1394718736410141,-0.3053431212902069,0.48133227229118347
1773522681682890500,2.970890380859375,-0.1282772719860077,-0.26846981048583984,0.5240784287452698
1773522681692928500,2.980928466796875,-0.12407294660806656,-0.29619356989860535,0.5573157072067261
1773522681702966500,2.990966552734375,-0.12594887614250183,-0.358452171087265,0.5766910314559937
1773522681713004500,3.001004638671875,-0.12919074296951294,-0.41736286878585815,0.5655118823051453
1773522681723042600,3.01104248046875,-0.1376958191394806,-0.4558926820755005,0.5315408706665039
1773522681733080300,3.021080322265625,-0.1412641853094101,-0.4572085738182068,0.477557510137558
1773522681743118600,3.03111865234375,-0.12406469136476517,-0.4503178894519806,0.4111236333847046
1773522681753156400,3.04115625,-0.08927980810403824,-0.42883604764938354,0.3492181897163391
1773522681763194600,3.051194580078125,-0.042096320539712906,-0.3991745412349701,0.2981398105621338
1773522681773232400,3.061232421875,0.007421697489917278,-0.36089879274368286,0.2599729895591736
1773522681783270400,3.0712705078125,0.05933975428342819,-0.32044485211372375,0.21727053821086884
1773522681793308200,3.08130810546875,0.11296117305755615,-0.2890760004520416,0.1636618971824646
1773522681803346200,3.09134619140625,0.14802967011928558,-0.2781416177749634,0.08842946588993073
1773522681813384200,3.10138427734375,0.18344199657440186,-0.30347201228141785,-0.0038959383964538574
1773522681823422200,3.111422119140625,0.19798259437084198,-0.33569011092185974,-0.09553291648626328
1773522681833460200,3.121460205078125,0.1804957389831543,-0.36732473969459534,-0.169011652469635
1773522681843497200,3.131497314453125,0.12538348138332367,-0.36076778173446655,-0.2094123512506485
1773522681853535200,3.14153515625,0.06268628686666489,-0.3363756239414215,-0.17831407487392426
1773522681863573200,3.1515732421875,-0.00951121374964714,-0.2836863100528717,-0.04870229214429855
1773522681873611300,3.161611328125,-0.09654545038938522,-0.1901499629020691,0.17393876612186432
1773522681883649300,3.171649169921875,-0.18550728261470795,-0.06511082500219345,0.44849255681037903
1773522681893687300,3.181687255859375,-0.24073565006256104,0.03737799823284149,0.7181317806243896
1773522681903725000,3.19172509765625,-0.26159459352493286,0.07293759286403656,0.9241083860397339
1773522681913763300,3.201763427734375,-0.26011255383491516,0.08622569590806961,1.0476489067077637
1773522681923801000,3.211801025390625,-0.23257865011692047,0.10169733315706253,1.1073272228240967
1773522681933839400,3.22183935546875,-0.16823641955852509,0.14041011035442352,1.126067042350769
1773522681943877000,3.231877197265625,-0.06372331827878952,0.21859332919120789,1.1442961692810059
1773522681953915400,3.241915283203125,0.06458857655525208,0.31490761041641235,1.1865911483764648
1773522681963953200,3.251953125,0.19003944098949432,0.43079107999801636,1.2758771181106567
1773522681973991200,3.2619912109375,0.2881186008453369,0.5543017983436584,1.3927642107009888
1773522681984029200,3.272029296875,0.35347017645835876,0.6670424938201904,1.5079257488250732
1773522681994067200,3.282067138671875,0.3871317505836487,0.7552050948143005,1.5847781896591187
1773522682004105200,3.292105224609375,0.3766607344150543,0.7903527021408081,1.6187204122543335
1773522682014143200,3.302143310546875,0.3257567882537842,0.7931500673294067,1.5923045873641968
1773522682024180200,3.31218017578125,0.2376684844493866,0.8148170113563538,1.5041128396987915
1773522682034218200,3.32221826171875,0.14473401010036469,0.8806517124176025,1.3695191144943237
1773522682044256300,3.33225634765625,0.08921855688095093,0.9750485420227051,1.1962645053863525
1773522682054294300,3.342294189453125,0.09789540618658066,1.0624068975448608,1.001737356185913
1773522682064332300,3.352332275390625,0.17049743235111237,1.1250427961349487,0.8101863265037537
1773522682074370000,3.3623701171875,0.26186808943748474,1.1577986478805542,0.6272945404052734
1773522682084408300,3.372408203125,0.34467801451683044,1.143682837486267,0.46199533343315125
1773522682094446000,3.382446044921875,0.3786218762397766,1.0850011110305786,0.31477364897727966
1773522682104484400,3.392484375,0.3916175663471222,0.9616232514381409,0.18047469854354858
1773522682114522000,3.402522216796875,0.3921416699886322,0.845646321773529,0.10860983282327652
1773522682124560400,3.412560302734375,0.33606722950935364,0.7646350860595703,0.08454684168100357
1773522682134598100,3.42259814453125,0.253624826669693,0.66221684217453,0.05530986189842224
1773522682144636200,3.43263623046875,0.20806105434894562,0.49746569991111755,-0.010183128528296947
1773522682154674200,3.442674072265625,0.18721835315227509,0.29522472620010376,-0.11219285428524017
1773522682164712200,3.452712158203125,0.17990106344223022,0.1338091939687729,-0.24038757383823395
1773522682174750200,3.462750244140625,0.17546263337135315,0.047747813165187836,-0.3876633048057556
1773522682184788200,3.472788330078125,0.1541203260421753,0.012489693239331245,-0.5372520089149475
1773522682194826200,3.482826171875,0.12784318625926971,-0.03405943140387535,-0.6680917739868164
1773522682204864300,3.4928642578125,0.1026451513171196,-0.09769992530345917,-0.7733944654464722
1773522682214901200,3.5029013671875,0.08964014053344727,-0.17113925516605377,-0.8676336407661438
1773522682224939300,3.512939208984375,0.0971667617559433,-0.23151551187038422,-0.9496038556098938
1773522682234977300,3.522977294921875,0.11164210736751556,-0.2450113445520401,-1.0100150108337402
1773522682245015000,3.53301513671875,0.1355767399072647,-0.23524260520935059,-1.0805515050888062
1773522682255053300,3.54305322265625,0.15891481935977936,-0.2713630497455597,-1.192055106163025
1773522682265091000,3.553091064453125,0.18818429112434387,-0.37151896953582764,-1.3313480615615845
1773522682275129300,3.56312939453125,0.20262767374515533,-0.49720683693885803,-1.4677642583847046
1773522682285167000,3.5731669921875,0.2133873850107193,-0.6411941051483154,-1.5723862648010254
1773522682295205400,3.583205322265625,0.23160526156425476,-0.7865776419639587,-1.637362003326416
1773522682305243100,3.5932431640625,0.22013236582279205,-0.8756540417671204,-1.672606348991394
1773522682315281200,3.60328125,0.20943045616149902,-0.8521891832351685,-1.6751421689987183
1773522682325319200,3.613319091796875,0.20721577107906342,-0.6395922303199768,-1.6217130422592163
1773522682335357200,3.623357177734375,0.2609035074710846,-0.34997692704200745,-1.4976677894592285
1773522682345395200,3.633395263671875,0.4422261416912079,-0.04729853942990303,-1.2797660827636719
1773522682355433200,3.64343310546875,0.5895655155181885,0.23579041659832,-0.9809300899505615
1773522682365471200,3.65347119140625,0.5644396543502808,0.4046225845813751,-0.6237155199050903
1773522682375509200,3.66350927734375,0.3728177845478058,0.40760692954063416,-0.2509366273880005
1773522682385546200,3.673546142578125,0.10964580625295639,0.1480616331100464,0.08491462469100952
1773522682395584300,3.683584228515625,-0.16076251864433289,-0.453164279460907,0.39068305492401123
1773522682405622300,3.693622314453125,-0.4398796260356903,-1.3213486671447754,0.7285497784614563
1773522682415660000,3.703659912109375,-0.6806456446647644,-2.133495569229126,1.0703239440917969
1773522682425698300,3.7136982421875,-0.8047561645507812,-2.5984292030334473,1.3517614603042603
1773522682435736000,3.723736083984375,-0.8277735710144043,-2.5867068767547607,1.5342575311660767
1773522682445774300,3.7337744140625,-0.7673379182815552,-2.2453970909118652,1.5738863945007324
1773522682455812000,3.74381201171875,-0.7009215950965881,-1.7481833696365356,1.4663915634155273
1773522682465850400,3.753850341796875,-0.6147662401199341,-1.3012617826461792,1.249729871749878
1773522682475888000,3.76388818359375,-0.4906724989414215,-0.9481830596923828,0.9407789707183838
1773522682485926100,3.773926025390625,-0.33660146594047546,-0.651235818862915,0.5644689798355103
1773522682495964400,3.78396435546875,-0.19439291954040527,-0.3129243552684784,0.19068419933319092
1773522682506002200,3.794002197265625,-0.07667187601327896,-0.007962851785123348,-0.09927385300397873
1773522682516040400,3.80404052734375,0.012354404665529728,0.23147957026958466,-0.27995815873146057
1773522682526078200,3.814078125,0.06035228818655014,0.3752061128616333,-0.3962080478668213
1773522682536116200,3.8241162109375,0.08404617011547089,0.3258896768093109,-0.5161299109458923
1773522682546154200,3.834154296875,0.06276697665452957,0.00996208656579256,-0.7469120025634766
1773522682556191200,3.844191162109375,-0.03848826885223389,-0.5707463026046753,-1.152897834777832
1773522682566229200,3.854229248046875,-0.24644386768341064,-1.1957478523254395,-1.6121737957000732
1773522682576267300,3.864267333984375,-0.4993046224117279,-1.359110951423645,-1.866902232170105
1773522682586305000,3.874304931640625,-0.5852863788604736,-0.740606427192688,-1.5447849035263062
1773522682596343300,3.88434326171875,-0.33332815766334534,0.0740894079208374,-0.5671103000640869
1773522682606381000,3.894381103515625,0.04132160544395447,0.20239144563674927,0.5620862245559692
1773522682616419300,3.90441943359375,0.29824209213256836,-0.34414300322532654,1.3023544549942017
1773522682626457000,3.91445703125,0.39864110946655273,-1.1786538362503052,1.5130361318588257
1773522682636495400,3.924495361328125,0.4417009651660919,-1.8434339761734009,1.361053466796875
1773522682646533400,3.934533447265625,0.47322747111320496,-2.028271436691284,1.081601619720459
1773522682656571100,3.944571044921875,0.44719481468200684,-1.70102059841156,0.762118399143219
1773522682666609400,3.954609375,0.33624032139778137,-0.9421558380126953,0.39141517877578735
1773522682676647200,3.964647216796875,0.1734894961118698,0.018934009596705437,0.013282516039907932
1773522682686685400,3.974685546875,0.02503158338367939,0.9056010246276855,-0.32513922452926636
1773522682696723200,3.98472314453125,-0.02906307764351368,1.5996253490447998,-0.6200675368309021
1773522682706761200,3.99476123046875,0.08149325847625732,1.9655218124389648,-0.8355020880699158
1773522682716799200,4.00479931640625,0.284446120262146,1.9321625232696533,-0.90572190284729
1773522682726837200,4.014837158203125,0.4068191647529602,1.6724656820297241,-0.8438726663589478
1773522682736874200,4.024874267578125,0.3352735936641693,1.3462893962860107,-0.6878960728645325
1773522682746912300,4.034912353515625,0.05891711264848709,1.0498292446136475,-0.46093833446502686
1773522682756950000,4.044949951171875,-0.2890464663505554,0.7679371237754822,-0.22275957465171814
1773522682766988300,4.05498828125,-0.5825766324996948,0.4729401171207428,-0.034510839730501175
1773522682777022700,4.065022705078125,-0.7410522699356079,0.24911794066429138,0.04081001505255699
1773522682787061000,4.07506103515625,-0.7709020376205444,0.17662137746810913,-0.01281379908323288
1773522682797098800,4.0850986328125,-0.7344329953193665,0.3172413408756256,-0.12227930873632431
1773522682807136800,4.09513671875,-0.6769273281097412,0.6543557047843933,-0.20197413861751556
1773522682817174800,4.1051748046875,-0.5968466401100159,1.0521457195281982,-0.2016444355249405
1773522682827212800,4.115212890625,-0.5159557461738586,1.383828043937683,-0.11521873623132706
1773522682837251000,4.1252509765625,-0.4728807210922241,1.5633823871612549,-0.01931404322385788
1773522682847288800,4.135288818359375,-0.4670713245868683,1.597670555114746,0.047823715955019
1773522682857327000,4.1453271484375,-0.48709723353385925,1.5249313116073608,0.07633259147405624
1773522682867364900,4.15536474609375,-0.5135037899017334,1.4373730421066284,0.10602203756570816
1773522682877403000,4.16540283203125,-0.5222983360290527,1.3708659410476685,0.157297745347023
1773522682887441000,4.17544091796875,-0.5131812691688538,1.3091932535171509,0.21641406416893005
1773522682897479000,4.18547900390625,-0.4891454577445984,1.2460752725601196,0.2748944163322449
1773522682907515600,4.195515625,-0.4587465524673462,1.1884326934814453,0.32454320788383484
1773522682917554000,4.205553955078125,-0.42833244800567627,1.1645798683166504,0.37048032879829407
1773522682927591700,4.215591796875,-0.39421576261520386,1.231870174407959,0.40538957715034485
1773522682937630000,4.2256298828125,-0.35698023438453674,1.4219554662704468,0.41303685307502747
1773522682947667700,4.235667724609375,-0.32846683263778687,1.7220585346221924,0.39835989475250244
1773522682957706000,4.2457060546875,-0.3102513551712036,2.045409679412842,0.3836438059806824
1773522682967744000,4.255743896484375,-0.31304338574409485,2.300020694732666,0.367759644985199
1773522682977781800,4.26578173828125,-0.3085288107395172,2.4118900299072266,0.34685248136520386
1773522682987820000,4.275820068359375,-0.28636065125465393,2.3657267093658447,0.3000602126121521
1773522682997857800,4.28585791015625,-0.2649797201156616,2.1972968578338623,0.2185797393321991
1773522683007896000,4.29589599609375,-0.22430022060871124,1.9732824563980103,0.08989979326725006
1773522683017933800,4.305933837890625,-0.17001913487911224,1.7894104719161987,-0.04655791446566582
1773522683027972000,4.31597216796875,-0.09331396967172623,1.6941254138946533,-0.14852821826934814
1773522683038009900,4.326009765625,-0.04123745113611221,1.703256368637085,-0.18055006861686707
1773522683048047900,4.3360478515625,-0.05619243159890175,1.8198857307434082,-0.11013130098581314
1773522683058086000,4.3460859375,-0.14608131349086761,1.9810283184051514,0.07131146639585495
1773522683068124000,4.3561240234375,-0.3029923737049103,2.1127023696899414,0.28436753153800964
1773522683078162000,4.366161865234375,-0.4665969908237457,2.0798635482788086,0.45980435609817505
1773522683088199000,4.376198974609375,-0.5736326575279236,1.8112459182739258,0.5760273337364197
1773522683098236700,4.386236572265625,-0.5663425326347351,1.5051552057266235,0.6135989427566528
1773522683108275000,4.39627490234375,-0.5184279680252075,1.39966881275177,0.595130205154419
1773522683118313000,4.40631298828125,-0.47845685482025146,1.4340251684188843,0.5257354378700256
1773522683128351000,4.41635107421875,-0.42414355278015137,1.4053245782852173,0.42003244161605835
1773522683138389000,4.426388916015625,-0.3566286861896515,1.2749593257904053,0.34312620759010315
1773522683148426800,4.4364267578125,-0.28544026613235474,1.2425286769866943,0.28891462087631226
1773522683158465000,4.446465087890625,-0.3417240381240845,1.3191275596618652,0.31334352493286133
1773522683168502800,4.456502685546875,-0.49969983100891113,1.318163275718689,0.38303473591804504
1773522683178541000,4.466541015625,-0.6841362714767456,1.1711903810501099,0.4535326063632965
1773522683188578800,4.476578857421875,-0.8551410436630249,0.9381632208824158,0.5049175024032593
1773522683198617000,4.4866171875,-0.9843895435333252,0.7213200926780701,0.5171667337417603
1773522683208654800,4.49665478515625,-1.0442289113998413,0.5849065780639648,0.4841166138648987
1773522683218692900,4.50669287109375,-1.0209633111953735,0.5375723838806152,0.41083547472953796
1773522683228731000,4.51673095703125,-0.9231059551239014,0.542752742767334,0.3062262535095215
1773522683238769000,4.526768798828125,-0.761070728302002,0.5493488907814026,0.14849600195884705
1773522683248807000,4.536806884765625,-0.519289493560791,0.563589870929718,-0.05579349026083946
1773522683258845000,4.546844970703125,-0.17207776010036469,0.5612577199935913,-0.28141888976097107
1773522683268882000,4.5568818359375,0.23902802169322968,0.508305549621582,-0.5612995624542236
1773522683278920000,4.566919921875,0.5921634435653687,0.39637449383735657,-0.8600137829780579
1773522683288958000,4.5769580078125,0.8085687160491943,0.25218909978866577,-1.0894696712493896
1773522683298996000,4.586995849609375,0.9107840657234192,-0.024289093911647797,-1.132123351097107
1773522683309034000,4.597033935546875,0.9796296954154968,-0.47015419602394104,-0.9651745557785034
1773522683319071700,4.60707177734375,1.0237278938293457,-0.9416205286979675,-0.6634261608123779
1773522683329110000,4.617110107421875,0.9863981008529663,-1.0716928243637085,-0.10719436407089233
1773522683339147800,4.627147705078125,0.8295395374298096,-0.8466231822967529,0.8115956783294678
1773522683349186000,4.63718603515625,0.4817783534526825,-0.7625762224197388,1.5558853149414062
1773522683359223800,4.647223876953125,-0.05438760668039322,-1.082440733909607,1.9594292640686035
1773522683369262000,4.657261962890625,-0.644965410232544,-1.4482029676437378,2.2003860473632812
1773522683379299800,4.6672998046875,-1.0801624059677124,-1.613835334777832,2.30400013923645
1773522683389337900,4.677337890625,-1.2477344274520874,-1.5821727514266968,2.277625799179077
1773522683399376000,4.6873759765625,-1.2608871459960938,-1.408656358718872,2.142003059387207
1773522683409414000,4.697413818359375,-1.1982831954956055,-1.1352314949035645,1.9226452112197876
1773522683419452000,4.707451904296875,-1.0628020763397217,-0.781917929649353,1.705296277999878
1773522683429490000,4.717489990234375,-0.8538280725479126,-0.3439137041568756,1.5107306241989136
1773522683439527700,4.727527587890625,-0.5437999367713928,0.10363691300153732,1.2844356298446655
1773522683449566000,4.73756591796875,-0.10863806307315826,0.3646506667137146,0.9552910327911377
1773522683459603000,4.74760302734375,0.5070626735687256,0.5515087246894836,0.5515137314796448
1773522683469641000,4.757640869140625,1.096986174583435,1.1408116817474365,0.16453434526920319
1773522683479679000,4.767678955078125,1.2810124158859253,1.6582452058792114,-0.012172509916126728
1773522683489716700,4.777716796875,1.1640053987503052,1.604838490486145,0.10234874486923218
1773522683499755000,4.787755126953125,0.8697037100791931,1.0259507894515991,0.43938136100769043
1773522683509792800,4.797792724609375,0.49961885809898376,0.15878193080425262,0.9197921752929688
1773522683519831000,4.8078310546875,0.26245105266571045,-0.5370088815689087,1.3332090377807617
1773522683529868800,4.817868896484375,0.18473602831363678,-0.8285000920295715,1.5231143236160278
1773522683539907000,4.827906982421875,0.1727435439825058,-0.7966572046279907,1.5049632787704468
1773522683549944800,4.83794482421875,0.1266799122095108,-0.6974965333938599,1.4418772459030151
1773522683559982800,4.84798291015625,0.02792510762810707,-0.6737094521522522,1.4831022024154663
1773522683570020900,4.858020751953125,-0.05925187095999718,-0.743894100189209,1.615538477897644
1773522683580059000,4.868058837890625,-0.07730517536401749,-0.8578654527664185,1.690102458000183
1773522683590097000,4.878096923828125,-0.04640265181660652,-0.8703732490539551,1.602676272392273
1773522683600135000,4.888135009765625,0.029750704765319824,-0.733941376209259,1.3892686367034912
1773522683610172700,4.898172607421875,0.12944214046001434,-0.5512312054634094,1.1267485618591309
1773522683620211000,4.9082109375,0.24080301821231842,-0.34118396043777466,0.9017428755760193
1773522683630248000,4.918248046875,0.30410078167915344,-0.20203299820423126,0.7365235686302185
1773522683640286000,4.928285888671875,0.3505428433418274,-0.09471479058265686,0.6546446681022644
1773522683650324000,4.938323974609375,0.3857000172138214,0.01264175958931446,0.6300637125968933
1773522683660361700,4.94836181640625,0.37600743770599365,0.055090948939323425,0.5996503829956055
1773522683670400000,4.95839990234375,0.30822041630744934,0.024261929094791412,0.5711135864257812
1773522683680437800,4.968437744140625,0.26442259550094604,0.016886571422219276,0.5400086641311646
1773522683690476000,4.97847607421875,0.2142137587070465,-0.056279249489307404,0.5438462495803833
1773522683700513800,4.988513671875,0.15247716009616852,-0.19543154537677765,0.5856727957725525
1773522683710552000,4.998552001953125,0.06818917393684387,-0.3137102425098419,0.6611601114273071
1773522683720589800,5.00858984375,0.015996277332305908,-0.41764891147613525,0.7143394351005554
1773522683730627800,5.0186279296875,0.006848851218819618,-0.4546964168548584,0.7183762192726135
1773522683740665900,5.028665771484375,0.02299053780734539,-0.44616734981536865,0.7009841799736023
1773522683750703900,5.038703857421875,0.037635792046785355,-0.44091320037841797,0.6522177457809448
1773522683760742000,5.048741943359375,0.05411916226148605,-0.41076570749282837,0.5754092335700989
1773522683770780000,5.05877978515625,0.07830145955085754,-0.3700086772441864,0.48536136746406555
1773522683780817700,5.068817626953125,0.15267130732536316,-0.2577148973941803,0.42314061522483826
1773522683790856000,5.07885595703125,0.19343844056129456,-0.06112753599882126,0.31397709250450134
1773522683800893700,5.088893798828125,0.19061575829982758,-0.04176076129078865,0.2918584942817688
1773522683810932000,5.098931884765625,0.1908455789089203,-0.2072618454694748,0.40471526980400085
1773522683820969000,5.108968994140625,0.212908536195755,-0.18643592298030853,0.3850694000720978
1773522683831006700,5.1190068359375,0.1668822020292282,-0.2753812372684479,0.4197314977645874
1773522683841045000,5.129044921875,0.11481979489326477,-0.40153276920318604,0.49831658601760864
1773522683851082800,5.139082763671875,0.10546943545341492,-0.48313602805137634,0.5274646282196045
1773522683861121000,5.14912109375,0.07116978615522385,-0.3591858744621277,0.4256093502044678
1773522683871158800,5.15915869140625,-0.003049852093681693,-0.38734957575798035,0.37356480956077576
1773522683881197000,5.169197021484375,-0.047444213181734085,-0.48491236567497253,0.40656137466430664
1773522683891234800,5.17923486328125,-0.02551840990781784,-0.4251022934913635,0.39056962728500366
1773522683901272800,5.18927294921875,0.006939664948731661,-0.3068092167377472,0.33498385548591614
1773522683911310800,5.199310791015625,0.04014661908149719,-0.18936167657375336,0.2923591732978821
1773522683921348900,5.209348876953125,0.08478625863790512,0.010500578209757805,0.19950617849826813
1773522683931387000,5.219386962890625,0.015032212249934673,-0.24786093831062317,0.32716402411460876
1773522683941425000,5.2294248046875,-0.015175490640103817,-0.43772193789482117,0.42278987169265747
1773522683951463000,5.239462890625,-0.0017893778858706355,-0.26066353917121887,0.372504860162735
1773522683961501000,5.2495009765625,0.007678692229092121,-0.17305700480937958,0.2988247871398926
1773522683971538700,5.25953857421875,0.031676702201366425,-0.10912888497114182,0.24756932258605957
1773522683981577000,5.269576904296875,0.032105471938848495,-0.05510373041033745,0.18440791964530945
1773522683991614700,5.27961474609375,0.025839852169156075,0.013885721564292908,0.09379706531763077
1773522684001653000,5.289653076171875,-0.004481301177293062,0.12422208487987518,-0.012418853119015694
1773522684011690000,5.29968994140625,-0.017731592059135437,0.16851738095283508,-0.10513067990541458
1773522684021727700,5.309727783203125,-0.015181083232164383,0.19356893002986908,-0.16791629791259766
1773522684031766000,5.31976611328125,-0.051776912063360214,0.2009243220090866,-0.2101825326681137
1773522684041803800,5.3298037109375,-0.11649465560913086,0.19628721475601196,-0.23901231586933136
1773522684051842000,5.339842041015625,-0.16998770833015442,0.17791514098644257,-0.26060494780540466
1773522684061879800,5.3498798828125,-0.1922416090965271,0.15259087085723877,-0.2619916796684265
1773522684071917800,5.359917724609375,-0.2172204703092575,0.14245541393756866,-0.23563861846923828
1773522684081955800,5.369955810546875,-0.2804447114467621,0.14015524089336395,-0.19644035398960114
1773522684091993900,5.379993896484375,-0.35749316215515137,0.11487598717212677,-0.1295585185289383
1773522684102032000,5.390031982421875,-0.4029754102230072,0.09834521263837814,-0.06937534362077713
1773522684112070000,5.40006982421875,-0.36556172370910645,0.11519236862659454,-0.040645964443683624
1773522684122108000,5.41010791015625,-0.23826077580451965,0.20980089902877808,-0.09544369578361511
1773522684132146000,5.42014599609375,-0.1364760845899582,0.27972617745399475,-0.16308186948299408
1773522684142183700,5.43018359375,-0.12510891258716583,0.2824077308177948,-0.18560580909252167
1773522684152222000,5.440221923828125,-0.13666516542434692,0.24782471358776093,-0.15078018605709076
1773522684162259700,5.450259765625,-0.1403438001871109,0.17999400198459625,-0.10756640881299973
1773522684172298000,5.460298095703125,-0.1016712337732315,0.10728863626718521,-0.07510380446910858
1773522684182335700,5.470335693359375,-0.06567887961864471,0.05528802424669266,-0.0671958178281784
1773522684192373800,5.480373779296875,-0.048460476100444794,0.05573942884802818,-0.06355714052915573
1773522684202411000,5.490410888671875,-0.04470755159854889,0.030219953507184982,-0.05134601145982742
1773522684212448800,5.50044873046875,-0.046602390706539154,-0.010566890239715576,-0.04057645425200462
1773522684222487000,5.510487060546875,-0.0399940200150013,-0.0362943597137928,-0.047868721187114716
1773522684232524800,5.52052490234375,-0.012952550314366817,-0.0384611040353775,-0.07670330256223679
1773522684242562800,5.530562744140625,0.024143153801560402,-0.03007560968399048,-0.10989933460950851
1773522684252600800,5.540600830078125,0.06223754212260246,-0.042689405381679535,-0.12002440541982651
1773522684262638800,5.550638916015625,0.08055289834737778,-0.0796373039484024,-0.10817227512598038
1773522684272676900,5.5606767578125,0.07014153897762299,-0.13448403775691986,-0.10315302014350891
1773522684282715000,5.57071484375,0.03957830369472504,-0.165181502699852,-0.11142905801534653
1773522684292753000,5.5807529296875,0.010824152268469334,-0.1889110654592514,-0.13062459230422974
1773522684302791000,5.590791015625,-0.030061496421694756,-0.20887279510498047,-0.15614911913871765
1773522684312828700,5.60082861328125,-0.0604817196726799,-0.198993518948555,-0.1865088939666748
1773522684322867000,5.610866943359375,-0.10933181643486023,-0.18527132272720337,-0.22029854357242584
1773522684332904700,5.62090478515625,-0.17500856518745422,-0.15701252222061157,-0.25170013308525085
1773522684342943000,5.63094287109375,-0.2460869997739792,-0.08123360574245453,-0.27065038681030273
1773522684352980700,5.640980712890625,-0.28384584188461304,0.028427114710211754,-0.30229994654655457
1773522684363018800,5.651018798828125,-0.27873310446739197,0.1330757588148117,-0.35226190090179443
1773522684373056800,5.661056884765625,-0.23665036261081696,0.2390677034854889,-0.3949771523475647
1773522684383094800,5.6710947265625,-0.1396108865737915,0.3599371314048767,-0.382816880941391
1773522684393132800,5.6811328125,-0.02684040181338787,0.3943824768066406,-0.3056059777736664
1773522684403170800,5.6911708984375,0.048295628279447556,0.3315318524837494,-0.22422431409358978
1773522684413207800,5.701207763671875,0.07239829748868942,0.221628800034523,-0.17644160985946655
1773522684423245800,5.711245849609375,0.04832518845796585,0.13871979713439941,-0.1521434634923935
1773522684433283800,5.721283935546875,-0.001386441639624536,0.12467002868652344,-0.11242667585611343
1773522684443321900,5.73132177734375,-0.0689907819032669,0.13156042993068695,-0.03915805369615555
1773522684453359900,5.74135986328125,-0.12570679187774658,0.0856587141752243,0.023847276344895363
1773522684463398000,5.75139794921875,-0.13545529544353485,0.0307491235435009,0.01281486451625824
1773522684473436000,5.761435791015625,-0.09708020836114883,0.10325634479522705,-0.07635495811700821
1773522684483473700,5.7714736328125,-0.0210682675242424,0.2544863522052765,-0.18640770018100739
1773522684493512000,5.781511962890625,0.07537838071584702,0.39489486813545227,-0.25787362456321716
1773522684503549700,5.7915498046875,0.16854266822338104,0.49239876866340637,-0.2691156268119812
1773522684513588000,5.801587890625,0.2402096688747406,0.5119625926017761,-0.25454574823379517
1773522684523625700,5.811625732421875,0.2531510293483734,0.4370037019252777,-0.22686830163002014
1773522684533663700,5.821663818359375,0.23229235410690308,0.31847038865089417,-0.17414064705371857
1773522684543701800,5.83170166015625,0.23149234056472778,0.23665568232536316,-0.1020217090845108
1773522684553739800,5.84173974609375,0.23550333082675934,0.21369603276252747,-0.028642563149333
1773522684563778000,5.851778076171875,0.22426879405975342,0.18888629972934723,0.021326860412955284
1773522684573815800,5.86181591796875,0.15441088378429413,0.1469862461090088,0.042806051671504974
1773522684583854000,5.87185400390625,0.05950327590107918,0.13476820290088654,0.07465825974941254
1773522684593891800,5.881891845703125,0.0013915016315877438,0.13454821705818176,0.09493929892778397
1773522684603929900,5.891929931640625,0.015858856961131096,0.13012418150901794,0.08393458276987076
1773522684613968000,5.9019677734375,0.046658847481012344,0.1413280963897705,0.04920429736375809
1773522684624006000,5.912005859375,0.05831576883792877,0.151450514793396,-0.01612464152276516
1773522684634044000,5.9220439453125,0.04585297405719757,0.15773317217826843,-0.08201843500137329
1773522684644081000,5.932080810546875,0.026220418512821198,0.16949741542339325,-0.12082388997077942
1773522684654118700,5.94211865234375,0.014160027727484703,0.1985407918691635,-0.12491051107645035
1773522684664157000,5.952156982421875,0.016084959730505943,0.2151208370923996,-0.10288483649492264
1773522684674194700,5.962194580078125,0.014844992198050022,0.17544585466384888,-0.07890866696834564
1773522684684233000,5.97223291015625,0.008097074925899506,0.09939849376678467,-0.038913577795028687
1773522684694271000,5.98227099609375,0.028554413467645645,0.009473396465182304,0.02853230945765972
1773522684704308700,5.992308837890625,0.055682968348264694,-0.07641168683767319,0.10256925225257874
1773522684714347000,6.002346923828125,0.04532593488693237,-0.15533259510993958,0.15593314170837402
1773522684724384800,6.012384765625,0.02701856754720211,-0.20252273976802826,0.17917481064796448
1773522684734423000,6.022423095703125,0.026921628043055534,-0.21557143330574036,0.17636971175670624
1773522684744460800,6.032460693359375,0.04354880750179291,-0.18199031054973602,0.138674795627594
1773522684754499000,6.0424990234375,0.083441361784935,-0.09573637694120407,0.0864371508359909
1773522684764536800,6.052536865234375,0.11677375435829163,-0.02454901859164238,0.05314524471759796
1773522684774574800,6.062574951171875,0.1263273060321808,-0.00675324397161603,0.04031147062778473
1773522684784616700,6.07261669921875,0.11105408519506454,-0.016400277614593506,0.03699610009789467
1773522684794654700,6.08265478515625,0.08021707087755203,0.0015539544401690364,0.05446191132068634
1773522684804692500,6.0926923828125,0.04537493735551834,0.009648632258176804,0.0779736265540123
1773522684814730800,6.102730712890625,0.028079571202397346,0.023142870515584946,0.09840886294841766
1773522684824768500,6.1127685546875,0.02665584534406662,0.06559525430202484,0.11383415758609772
1773522684834806800,6.122806884765625,0.01116556953638792,0.09046944230794907,0.12987996637821198
1773522684844844500,6.132844482421875,-0.04002837464213371,0.09092670679092407,0.1479652225971222
1773522684854882800,6.1428828125,-0.11888936907052994,0.10434318333864212,0.18939389288425446
1773522684864920600,6.152920654296875,-0.20033308863639832,0.13742762804031372,0.2502487301826477
1773522684874958600,6.16295849609375,-0.2677622139453888,0.1547677367925644,0.31471824645996094
1773522684884995600,6.17299560546875,-0.3310873806476593,0.15186277031898499,0.37366440892219543
1773522684895033600,6.18303369140625,-0.38550934195518494,0.13940823078155518,0.4358425438404083
1773522684905071600,6.193071533203125,-0.4284072816371918,0.1242724135518074,0.47905847430229187
1773522684915109600,6.203109619140625,-0.4421427845954895,0.13002590835094452,0.5048948526382446
1773522684925147600,6.213147705078125,-0.43898001313209534,0.1426655352115631,0.5296220183372498
1773522684935185700,6.223185546875,-0.43315860629081726,0.14126311242580414,0.5446321368217468
1773522684945223700,6.2332236328125,-0.4326411783695221,0.10584334284067154,0.5529031157493591
1773522684955261700,6.24326171875,-0.41920632123947144,0.11457611620426178,0.5510644912719727
1773522684965299700,6.2532998046875,-0.3848043978214264,0.16891498863697052,0.5476380586624146
1773522684975337500,6.26333740234375,-0.33360353112220764,0.18933530151844025,0.536401629447937
1773522684985375700,6.273375732421875,-0.26014235615730286,0.20734785497188568,0.4898346960544586
1773522684995413500,6.28341357421875,-0.17572788894176483,0.17311371862888336,0.45417842268943787
1773522685005451800,6.29345166015625,-0.11489596217870712,0.1488291621208191,0.4253542125225067
1773522685015489500,6.303489501953125,-0.07523856312036514,0.13420414924621582,0.3958922028541565
1773522685025527800,6.31352783203125,-0.038070954382419586,0.10994300991296768,0.37316054105758667
1773522685035565600,6.323565673828125,-0.008730107918381691,0.11321097612380981,0.3684890866279602
1773522685045603600,6.333603515625,-0.010908307507634163,0.11148738116025925,0.39334729313850403
1773522685055641600,6.3436416015625,-0.042438801378011703,0.040234506130218506,0.4185085594654083
1773522685065679600,6.3536796875,-0.0660136342048645,-0.034329213201999664,0.42811405658721924
1773522685075717600,6.363717529296875,-0.06085509434342384,-0.04032611846923828,0.41909313201904297
1773522685085755600,6.373755615234375,-0.006307696923613548,0.17645758390426636,0.3176860809326172
1773522685095793700,6.383793701171875,0.02509336918592453,0.19715115427970886,0.27311035990715027
1773522685105831700,6.393831787109375,-0.00577799417078495,-0.07945434749126434,0.40738028287887573
1773522685115869400,6.403869384765625,-0.05693918094038963,-0.1532454788684845,0.4851491153240204
1773522685125907700,6.41390771484375,-0.10255460441112518,-0.1370164453983307,0.483798623085022
1773522685135945500,6.423945556640625,-0.14110146462917328,-0.15703542530536652,0.4682005047798157
1773522685145983700,6.433983642578125,-0.16873975098133087,-0.14381389319896698,0.4643133580684662
1773522685156021500,6.444021484375,-0.17096269130706787,-0.08808565139770508,0.47658786177635193
1773522685166059800,6.454059814453125,-0.152664914727211,-0.08572155982255936,0.4960542321205139
1773522685176096800,6.4640966796875,-0.11145861446857452,0.07805192470550537,0.3676978647708893
1773522685186134500,6.474134521484375,-0.12491876631975174,0.059911005198955536,0.3173033893108368
1773522685196172800,6.4841728515625,-0.17835615575313568,-0.1680404096841812,0.5254049301147461
1773522685206210600,6.49421044921875,-0.23381222784519196,-0.15610091388225555,0.6329718828201294
1773522685216248600,6.50424853515625,-0.2961815893650055,-0.19876396656036377,0.6514171957969666
1773522685226286600,6.51428662109375,-0.3509359061717987,-0.26125848293304443,0.6348195672035217
1773522685236324600,6.52432470703125,-0.40173572301864624,-0.21854831278324127,0.6156312227249146
1773522685246362600,6.534362548828125,-0.35837092995643616,0.0099610211327672,0.47844940423965454
1773522685256400600,6.544400634765625,-0.3563847541809082,0.1639614999294281,0.3219660520553589
1773522685266438700,6.554438720703125,-0.4368681311607361,-0.17910930514335632,0.5233822464942932
1773522685276476700,6.5644765625,-0.4461604356765747,-0.19295267760753632,0.5943621397018433
1773522685286514400,6.574514404296875,-0.4122844934463501,-0.16224589943885803,0.5797757506370544
1773522685296552700,6.584552734375,-0.40082812309265137,-0.16067729890346527,0.5740749835968018
1773522685306590500,6.594590576171875,-0.4127785265445709,-0.09062231332063675,0.5625834465026855
1773522685316628700,6.604628662109375,-0.4218636155128479,-0.032226379960775375,0.5967558026313782
1773522685326666500,6.61466650390625,-0.43467769026756287,-0.005665076430886984,0.6091938614845276
1773522685336704800,6.624704833984375,-0.4754658639431,0.049619484692811966,0.6035537719726562
1773522685346742500,6.634742431640625,-0.3693993389606476,0.4917473793029785,0.3302503526210785
1773522685356780500,6.644780517578125,-0.4033421277999878,0.3950980603694916,0.26501327753067017
1773522685366818600,6.654818603515625,-0.4574751555919647,0.21584494411945343,0.41848647594451904
1773522685376856600,6.664856689453125,-0.4662422835826874,0.07102623581886292,0.5489938855171204
1773522685386894600,6.67489453125,-0.4292070269584656,0.06838598102331161,0.49327602982521057
1773522685396932600,6.6849326171875,-0.3907312750816345,0.1406061202287674,0.4185037910938263
1773522685406970600,6.694970703125,-0.36355316638946533,0.18295995891094208,0.4018949866294861
1773522685417008600,6.705008544921875,-0.32964634895324707,0.09405752271413803,0.4404303729534149
1773522685427046700,6.715046630859375,-0.2600768506526947,0.08589600026607513,0.43584495782852173
1773522685437084700,6.725084716796875,-0.1839037835597992,0.08287064731121063,0.44364190101623535
1773522685447122700,6.735122802734375,-0.13103711605072021,0.11421525478363037,0.4333226680755615
1773522685457160700,6.74516064453125,-0.07581007480621338,0.1558239459991455,0.37742266058921814
1773522685467198700,6.75519873046875,-0.003144926857203245,0.16267147660255432,0.3250129818916321
1773522685477236500,6.765236572265625,0.057983409613370895,0.16805557906627655,0.31160181760787964
1773522685487273700,6.775273681640625,0.07087044417858124,0.09913510829210281,0.29139482975006104
1773522685497311500,6.7853115234375,0.0837007537484169,0.07220069319009781,0.2744499444961548
1773522685507349800,6.795349853515625,0.15025874972343445,0.06516142934560776,0.24773550033569336
1773522685517387500,6.805387451171875,0.23336321115493774,0.11030546575784683,0.2255295217037201
1773522685527425500,6.815425537109375,0.2918968200683594,0.15408171713352203,0.18417489528656006
1773522685537463600,6.825463623046875,0.3119930624961853,0.1592591553926468,0.13128718733787537
1773522685547501600,6.83550146484375,0.32915204763412476,0.17732444405555725,0.08413191884756088
1773522685557539600,6.84553955078125,0.3591935932636261,0.20811298489570618,0.045162152498960495
1773522685567577600,6.85557763671875,0.3847668468952179,0.19024796783924103,0.011422031559050083
1773522685577615600,6.86561572265625,0.40928205847740173,0.1572817713022232,0.007464840542525053
1773522685587653600,6.875653564453125,0.41267144680023193,0.14671461284160614,-0.029927005991339684
1773522685597691600,6.885691650390625,0.39095550775527954,0.1344965547323227,-0.05048101767897606
1773522685607729700,6.895729736328125,0.342985063791275,0.12329503893852234,-0.07014260441064835
1773522685617767700,6.905767578125,0.29662102460861206,0.10137855261564255,-0.10182356834411621
1773522685627805700,6.9158056640625,0.25371164083480835,0.04772011935710907,-0.11120615154504776
1773522685637843700,6.92584375,0.2161208540201187,0.03407061845064163,-0.11152040213346481
1773522685647881500,6.935881591796875,0.1698252558708191,0.04385773465037346,-0.08120111376047134
1773522685657919700,6.945919677734375,0.12723438441753387,0.018371284008026123,-0.06528685986995697
1773522685667957500,6.95595751953125,0.07957764714956284,-0.04712889716029167,-0.058091796934604645
1773522685677995800,6.965995849609375,0.06724348664283752,-0.08592076599597931,-0.047799479216337204
1773522685688033500,6.976033447265625,0.09263486415147781,-0.08345707505941391,-0.08290606737136841
1773522685698071800,6.98607177734375,0.16711415350437164,-0.056109875440597534,-0.09478669613599777
1773522685708109600,6.996109619140625,0.24253115057945251,-0.07697254419326782,-0.12120711803436279
1773522685718147600,7.006147705078125,0.2934052348136902,-0.1030491515994072,-0.15454217791557312
1773522685728185600,7.016185546875,0.3278132975101471,-0.11673567444086075,-0.17356832325458527
1773522685738223600,7.0262236328125,0.34154000878334045,-0.1743859201669693,-0.20341649651527405
1773522685748261600,7.03626171875,0.36647412180900574,-0.24326512217521667,-0.2510250210762024
1773522685758299600,7.046299560546875,0.4521235227584839,-0.28422239422798157,-0.3036206066608429
1773522685768337700,7.056337646484375,0.5572291612625122,-0.3115445673465729,-0.35490748286247253
1773522685778375700,7.066375732421875,0.6419086456298828,-0.3008173704147339,-0.4004574120044708
1773522685788409600,7.07640966796875,0.6996033787727356,-0.3045330047607422,-0.42062047123908997
1773522685798447900,7.08644775390625,0.7262941002845764,-0.31813108921051025,-0.4305740296840668
1773522685808485600,7.096485595703125,0.7324201464653015,-0.2967994511127472,-0.44313961267471313
1773522685818523600,7.106523681640625,0.8238712549209595,-0.2993326485157013,-0.4541725516319275
1773522685828561700,7.116561767578125,0.8311030864715576,-0.15481728315353394,-0.46451336145401
1773522685838599700,7.126599609375,0.7757769823074341,-0.08244374394416809,-0.4591289758682251
1773522685848637700,7.1366376953125,0.6763294339179993,-0.0523095428943634,-0.4697003960609436
1773522685858675700,7.14667578125,0.5594267845153809,-0.04934331402182579,-0.4739433228969574
1773522685868713700,7.156713623046875,0.4565100073814392,0.02913391776382923,-0.42208918929100037
1773522685878751700,7.166751708984375,0.27647605538368225,0.06871887296438217,-0.3618229329586029
1773522685888789800,7.176789794921875,0.11974611133337021,0.08803771436214447,-0.28786373138427734
1773522685898827800,7.186827880859375,0.004747350700199604,0.15922267735004425,-0.2040300965309143
1773522685908865800,7.19686572265625,-0.07268033176660538,0.17400296032428741,-0.15443244576454163
1773522685918903800,7.20690380859375,-0.13838744163513184,0.142002671957016,-0.1028430238366127
1773522685928941800,7.21694189453125,-0.2237156480550766,0.11313720792531967,-0.03393533080816269
1773522685938978600,7.226978515625,-0.32214635610580444,0.042866505682468414,0.029441244900226593
1773522685949016800,7.237016845703125,-0.4110354781150818,0.00011052118497900665,0.08479611575603485
1773522685959054600,7.2470546875,-0.439452201128006,-0.0027486486360430717,0.08285839855670929
1773522685969092900,7.2570927734375,-0.41210314631462097,0.09352914988994598,0.04746445268392563
1773522685979130600,7.267130615234375,-0.35767292976379395,0.17280426621437073,0.021072261035442352
1773522685989168600,7.277168701171875,-0.301151841878891,0.2520442306995392,-0.008932774886488914
1773522685999206700,7.28720654296875,-0.2568983733654022,0.2784942090511322,0.01113334484398365
1773522686009244700,7.29724462890625,-0.2183712124824524,0.2974282205104828,0.09504209458827972
1773522686019283000,7.307282958984375,-0.21570007503032684,0.2383182942867279,0.141887366771698
1773522686029320700,7.31732080078125,-0.23099513351917267,0.22863078117370605,0.1476198136806488
1773522686039359000,7.32735888671875,-0.24301157891750336,0.2567889094352722,0.1279694139957428
1773522686049396700,7.337396728515625,-0.24261397123336792,0.22130095958709717,0.052742574363946915
1773522686059434800,7.347434814453125,-0.21153567731380463,0.24800580739974976,-0.043535225093364716
1773522686069472800,7.35747265625,-0.13396339118480682,0.29226595163345337,-0.16252046823501587
1773522686079510800,7.3675107421875,-0.04228806868195534,0.32590219378471375,-0.31535235047340393
1773522686089548800,7.377548828125,0.07013274729251862,0.36920732259750366,-0.4373008906841278
1773522686099586800,7.3875869140625,0.15591023862361908,0.3601760268211365,-0.5453439950942993
1773522686109624600,7.39762451171875,0.2648620307445526,0.3227599561214447,-0.5832317471504211
1773522686119662800,7.407662841796875,0.3618772625923157,0.3455350399017334,-0.6479220390319824
1773522686129700600,7.41770068359375,0.3570183217525482,0.39724668860435486,-0.6980571150779724
1773522686139739000,7.42773876953125,0.24658074975013733,0.3306921720504761,-0.6953564286231995
1773522686149776600,7.437776611328125,0.1370244324207306,0.16148929297924042,-0.6670864224433899
1773522686159815000,7.44781494140625,0.29274025559425354,0.22007830440998077,-0.7084711790084839
1773522686169852700,7.457852783203125,0.2293706089258194,0.42980116605758667,-0.8210605382919312
1773522686179890700,7.467890625,-0.1641324758529663,0.48674142360687256,-0.9118368029594421
1773522686189928700,7.4779287109375,-0.3610266447067261,0.3910734951496124,-0.9598618149757385
1773522686199966700,7.487966796875,-0.44301924109458923,0.4115329682826996,-1.0196436643600464
1773522686210004700,7.498004638671875,-0.5021824240684509,0.4477812349796295,-1.0479857921600342
1773522686220042800,7.508042724609375,-0.539905309677124,0.4166211783885956,-1.0575768947601318
1773522686230080800,7.518080810546875,-0.5678197741508484,0.34206944704055786,-1.0484825372695923
1773522686240118800,7.528118896484375,-0.5773914456367493,0.3058033287525177,-1.022000789642334
1773522686250156500,7.538156494140625,-0.601771891117096,0.25601446628570557,-1.0529571771621704
1773522686260194800,7.54819482421875,-0.6661458015441895,0.2165442854166031,-1.1266686916351318
1773522686270232600,7.558232666015625,-0.7250282764434814,0.19338171184062958,-1.192505955696106
1773522686280270800,7.568270751953125,-0.639125645160675,0.16905294358730316,-1.3061833381652832
1773522686290308600,7.57830859375,-0.44732797145843506,0.3451286256313324,-1.491201639175415
1773522686300347000,7.588346923828125,-0.296630859375,0.4798659384250641,-1.6406304836273193
1773522686310384600,7.598384521484375,-0.16905826330184937,0.3872923254966736,-1.7261238098144531
1773522686320422700,7.608422607421875,-0.08628828078508377,0.283174991607666,-1.7872742414474487
1773522686330460700,7.618460693359375,-0.08735568076372147,0.2723199427127838,-1.8053542375564575
1773522686340498700,7.628498779296875,-0.11543498188257217,0.29462578892707825,-1.803741455078125
1773522686350536700,7.63853662109375,-0.1349165439605713,0.3425869047641754,-1.8212682008743286
1773522686360574700,7.64857470703125,-0.16281767189502716,0.5313475131988525,-1.8246970176696777
1773522686370612700,7.65861279296875,-0.21432028710842133,0.7536157369613647,-1.8146753311157227
1773522686380650800,7.668650634765625,-0.2625892758369446,0.7375965714454651,-1.8153029680252075
1773522686390688800,7.678688720703125,-0.32019132375717163,0.6343223452568054,-1.765730619430542
1773522686400726800,7.688726806640625,-0.37807753682136536,0.4751199185848236,-1.7024033069610596
1773522686410764800,7.698764892578125,-0.4061592221260071,0.35252076387405396,-1.6601009368896484
1773522686420802800,7.708802734375,-0.4025184214115143,0.3585253953933716,-1.643837809562683
1773522686430840800,7.7188408203125,-0.39903339743614197,0.46485236287117004,-1.6489413976669312
1773522686440878600,7.728878662109375,-0.42272064089775085,0.6603808403015137,-1.6307166814804077
1773522686450916900,7.738916748046875,-0.45226120948791504,0.8477025628089905,-1.6161673069000244
1773522686460954600,7.74895458984375,-0.4534894526004791,1.001962661743164,-1.6366077661514282
1773522686470993000,7.758992919921875,-0.42723387479782104,1.0269732475280762,-1.7258617877960205
1773522686481030700,7.76903076171875,-0.35938987135887146,0.8709748387336731,-1.8241764307022095
1773522686491069000,7.77906884765625,-0.2808436453342438,0.7078666090965271,-1.825958251953125
1773522686501106700,7.789106689453125,-0.24747823178768158,0.6387091279029846,-1.6740857362747192
1773522686511144700,7.799144775390625,-0.25663524866104126,0.6224574446678162,-1.4565731287002563
1773522686521182700,7.8091826171875,-0.3439991772174835,0.5787912011146545,-1.1423137187957764
1773522686531220700,7.819220703125,-0.43384572863578796,0.5065412521362305,-0.9066241979598999
1773522686541258800,7.8292587890625,4.205663204193115,0.45358532667160034,-0.6999013423919678
1773522686551296800,7.839296875,7.763407230377197,0.5669310688972473,-0.3462921679019928
1773522686561334800,7.849334716796875,5.641295433044434,2.087278127670288,-0.9561794996261597
1773522686571372800,7.859372802734375,3.643188953399658,3.3285434246063232,-1.4540371894836426
1773522686581410600,7.86941064453125,1.975596308708191,3.875934362411499,-1.635171890258789
1773522686591448800,7.87944873046875,0.7531781792640686,3.8814048767089844,-1.5382804870605469
1773522686601486600,7.889486572265625,-0.0715375691652298,3.6275594234466553,-1.3039745092391968
1773522686611524900,7.89952490234375,-0.5792670845985413,3.141960620880127,-1.0672048330307007
1773522686621562600,7.909562744140625,-0.8047345876693726,2.3126184940338135,-0.8918651938438416
1773522686631601000,7.919600830078125,-0.7841818928718567,1.1801282167434692,-0.7602747082710266
1773522686641638700,7.929638671875,-0.4244980216026306,-0.13709419965744019,-0.6869999766349792
1773522686651676700,7.9396767578125,0.07114368677139282,-1.3434348106384277,-0.6228215098381042
1773522686661714700,7.949714599609375,0.4850572347640991,-2.2836687564849854,-0.535266101360321
1773522686671752700,7.959752685546875,0.6056345105171204,-2.8995018005371094,-0.43705880641937256
1773522686681790700,7.969790771484375,0.5047036409378052,-3.1190481185913086,-0.4304099678993225
1773522686691828700,7.979828857421875,0.24127334356307983,-2.927612781524658,-0.4306075870990753
1773522686701866800,7.98986669921875,-0.0098419776186347,-2.54071307182312,-0.47070467472076416
1773522686711904800,7.99990478515625,-0.134247288107872,-2.1583898067474365,-0.4644702076911926
1773522686721942800,8.00994287109375,-0.0687420442700386,-1.9198403358459473,-0.37736940383911133
1773522686731980800,8.019980712890625,0.14270149171352386,-1.8306806087493896,-0.2556946277618408
1773522686742018800,8.030018798828126,0.40360206365585327,-1.7082335948944092,-0.16253644227981567
1773522686752056800,8.040056884765624,0.6263166069984436,-1.518394112586975,-0.17046254873275757
1773522686762094800,8.0500947265625,0.7693888545036316,-1.387947916984558,-0.29761382937431335
1773522686772132600,8.060132568359375,0.8176402449607849,-1.3811858892440796,-0.48040229082107544
1773522686782170600,8.070170654296875,0.8329366445541382,-1.4682060480117798,-0.659824013710022
1773522686792208600,8.080208740234376,0.7923620343208313,-1.6326892375946045,-0.7934063076972961
1773522686802246700,8.09024658203125,0.735284686088562,-1.8414884805679321,-0.8458758592605591
1773522686812284700,8.10028466796875,0.6046595573425293,-1.97426176071167,-0.859025776386261
1773522686822322700,8.11032275390625,0.4475615322589874,-1.9957555532455444,-0.8681697249412537
1773522686832359700,8.120359619140626,0.3419109880924225,-1.8988269567489624,-0.8900142908096313
1773522686842397700,8.130397705078124,0.28486528992652893,-1.6787697076797485,-0.8985233902931213
1773522686852435700,8.140435791015625,0.2149764895439148,-1.3632711172103882,-0.8684560060501099
1773522686862473700,8.1504736328125,0.08812479674816132,-1.0153166055679321,-0.7744741439819336
1773522686872511700,8.16051171875,-0.05209675803780556,-0.6938397288322449,-0.6482805013656616
1773522686882549500,8.170549560546876,-0.1617193967103958,-0.42661336064338684,-0.57428377866745
1773522686892587800,8.180587890625,-0.215562641620636,-0.27838796377182007,-0.5736203789710999
1773522686902625500,8.19062548828125,-0.23047874867916107,-0.2570730745792389,-0.6490051746368408
1773522686912663800,8.200663818359375,-0.2359105348587036,-0.32925325632095337,-0.7287433743476868
1773522686922701600,8.21070166015625,-0.277951717376709,-0.36865365505218506,-0.7366319298744202
1773522686932739800,8.22073974609375,-0.38619908690452576,-0.2728397846221924,-0.6386915445327759
1773522686942777600,8.230777587890625,-0.5731865763664246,0.01720188930630684,-0.4027847349643707
1773522686952815600,8.240815673828125,-0.7604866623878479,0.4668377637863159,-0.06642882525920868
1773522686962853600,8.250853515625,-0.8278619647026062,1.0123980045318604,0.30718258023262024
1773522686972891600,8.2608916015625,-0.7602139711380005,1.3995007276535034,0.6317553520202637
1773522686982929700,8.2709296875,-0.6840962767601013,1.3906422853469849,0.7792965769767761
1773522686992967700,8.2809677734375,-0.616784930229187,0.9136389493942261,0.7067028284072876
1773522687003005400,8.29100537109375,-0.5257197022438049,0.1985788643360138,0.49528777599334717
1773522687013043700,8.301043701171874,-0.3552403748035431,-0.45040738582611084,0.27685344219207764
1773522687023081500,8.31108154296875,-0.10524412989616394,-0.8500139117240906,0.16132177412509918
1773522687033119700,8.32111962890625,0.14855484664440155,-0.8295429944992065,0.15411153435707092
1773522687043157500,8.331157470703126,0.3471454381942749,-0.5323400497436523,0.1620565503835678
1773522687053195800,8.34119580078125,0.5085743069648743,-0.2397497445344925,0.08934585750102997
1773522687063233500,8.351233642578125,0.6179889440536499,-0.26831161975860596,-0.043252132833004
1773522687073271600,8.361271484375,0.6820845603942871,-0.4455476403236389,-0.12728258967399597
1773522687083309600,8.3713095703125,0.7330169677734375,-0.7096983194351196,-0.17302611470222473
1773522687093347600,8.38134765625,0.7432336807250977,-1.0735667943954468,-0.1536092609167099
1773522687103385600,8.391385498046875,0.5959470272064209,-1.780682921409607,-0.09364046901464462
1773522687113423600,8.401423583984375,0.5640156865119934,-2.864274024963379,-0.07376663386821747
1773522687123461600,8.411461669921875,0.7630883455276489,-3.8361527919769287,-0.07978644222021103
1773522687133499600,8.421499755859376,0.9130967259407043,-4.369381427764893,-0.0476657897233963
1773522687143537400,8.431537353515624,0.9095534086227417,-4.439360618591309,0.05008473992347717
1773522687153575700,8.44157568359375,0.7782065868377686,-4.0944414138793945,0.20419122278690338
1773522687163613400,8.451613525390625,0.5452273488044739,-3.3686575889587402,0.3956005871295929
1773522687173651700,8.461651611328126,0.23000283539295197,-2.441159963607788,0.5068597197532654
1773522687183689500,8.471689453125,-0.1070777177810669,-1.4545788764953613,0.43382441997528076
1773522687193727700,8.481727783203125,-0.38466140627861023,-0.5891168117523193,0.1857629418373108
1773522687203765500,8.491765625,-0.48846128582954407,-0.16297027468681335,-0.1706758737564087
1773522687213803500,8.501803466796876,-0.44421499967575073,-0.06691085547208786,-0.40076765418052673
1773522687223841800,8.511841796875,-0.33684247732162476,-0.04188752919435501,-0.44906434416770935
1773522687233879600,8.521879638671875,-0.2422991842031479,0.026068884879350662,-0.3525276780128479
1773522687243917800,8.531917724609375,-0.2012833058834076,0.05173030495643616,-0.23013892769813538
1773522687253955600,8.54195556640625,-0.1958581805229187,-0.11679399758577347,-0.1902189403772354
1773522687263993600,8.55199365234375,-0.11859589070081711,-0.6140444874763489,-0.27189862728118896
1773522687274031600,8.562031494140625,0.004667189903557301,-1.135922908782959,-0.38823243975639343
1773522687284069600,8.572069580078125,-0.07159189134836197,-1.2957741022109985,-0.44225013256073
1773522687294107600,8.582107666015625,-0.19582542777061462,-1.1608327627182007,-0.40053436160087585
1773522687304145700,8.592145751953124,-0.2752384841442108,-0.9050939083099365,-0.2890147566795349
1773522687314183700,8.60218359375,-0.3069881796836853,-0.6304828524589539,-0.22056034207344055
1773522687324221700,8.6122216796875,-0.291248619556427,-0.4120243191719055,-0.19194786250591278
1773522687334259500,8.622259521484375,-0.23317013680934906,-0.2985893487930298,-0.2208346426486969
1773522687344297700,8.632297607421876,-0.12066196650266647,-0.28703656792640686,-0.27012524008750916
1773522687354335500,8.64233544921875,-0.011359181255102158,-0.28658702969551086,-0.33467093110084534
1773522687364373800,8.652373779296875,0.04411819204688072,-0.26514190435409546,-0.41483446955680847
1773522687374411500,8.66241162109375,0.08272284269332886,-0.17127694189548492,-0.463023841381073
1773522687384449800,8.67244970703125,0.14553962647914886,0.012988503091037273,-0.406688928604126
1773522687394487600,8.682487548828124,0.23891191184520721,0.25541338324546814,-0.252656489610672
1773522687404525600,8.692525634765625,0.27677565813064575,0.5026548504829407,-0.1072620078921318
1773522687414563600,8.7025634765625,0.20896227657794952,0.6541759371757507,-0.11169164627790451
1773522687424601600,8.7126015625,0.06775028258562088,0.6760463714599609,-0.2885042428970337
1773522687434639600,8.7226396484375,-0.05282220244407654,0.6503897309303284,-0.5031589865684509
1773522687444677600,8.732677734375,-0.05332127958536148,0.6425299644470215,-0.6017548441886902
1773522687454715600,8.742715576171875,0.027177026495337486,0.6357839107513428,-0.5894350409507751
1773522687464753700,8.752753662109376,0.09551267325878143,0.6190235614776611,-0.5340183973312378
1773522687474791400,8.76279150390625,0.06999292969703674,0.5942652225494385,-0.48365694284439087
1773522687484829700,8.77282958984375,-0.041851043701171875,0.5312165021896362,-0.47912317514419556
1773522687494867500,8.782867431640625,-0.21122436225414276,0.3978986442089081,-0.5455922484397888
1773522687504905700,8.79290576171875,-0.42120102047920227,0.1742415726184845,-0.6995591521263123
1773522687514943500,8.802943603515626,-0.5701372623443604,-0.05744784697890282,-0.8470689654350281
1773522687524981500,8.8129814453125,-0.5163954496383667,-0.09295710176229477,-0.7967925071716309
1773522687535019500,8.82301953125,-0.14690768718719482,0.12800030410289764,-0.3941049575805664
1773522687545057500,8.8330576171875,0.3908742666244507,0.5120273232460022,0.24391785264015198
1773522687555095600,8.843095458984376,0.7679568529129028,0.9307188391685486,0.7494028806686401
1773522687565133600,8.853133544921874,0.8532509803771973,1.275267481803894,0.9458956718444824
1773522687575171600,8.863171630859375,0.7484691739082336,1.533557653427124,0.8926367163658142
1773522687585209600,8.873209716796875,0.6003265976905823,1.7263637781143188,0.7065901756286621
1773522687595247600,8.88324755859375,0.4475090503692627,1.8848804235458374,0.4729960560798645
1773522687605285600,8.89328564453125,0.2868557274341583,2.0235979557037354,0.22818496823310852
1773522687615323600,8.90332373046875,0.09356430172920227,2.0829131603240967,-0.048588041216135025
1773522687625361700,8.913361572265625,-0.14137710630893707,2.0331995487213135,-0.31449270248413086
1773522687635399700,8.923399658203126,-0.36604323983192444,1.8790100812911987,-0.5297600030899048
1773522687645437700,8.933437744140624,-0.5387148857116699,1.6607874631881714,-0.6409613490104675
1773522687655475700,8.943475830078125,-0.6615111231803894,1.4402703046798706,-0.6599318385124207
1773522687665513500,8.953513427734375,-0.7049451470375061,1.1813832521438599,-0.6548649072647095
1773522687675551700,8.9635517578125,-0.7045680284500122,0.9275273084640503,-0.6865874528884888
1773522687685589500,8.973589599609374,-0.6721696257591248,0.7606573700904846,-0.7352588176727295
1773522687695627800,8.983627685546875,-0.5965003967285156,0.7873817086219788,-0.7223315834999084
1773522687705665500,8.99366552734375,-0.43905484676361084,1.0305660963058472,-0.5609980821609497
1773522687715703800,9.003703857421876,-0.23615926504135132,1.4337910413742065,-0.28892022371292114
1773522687725741600,9.013741455078126,-0.05070312321186066,1.7861651182174683,-0.00826964806765318
1773522687735779600,9.023779541015625,0.07950467616319656,1.9278844594955444,0.19599400460720062
1773522687745817600,9.033817626953125,0.14929601550102234,1.839382290840149,0.333010196685791
1773522687755855600,9.043855712890625,0.17465010285377502,1.6157402992248535,0.4361419081687927
1773522687765893600,9.0538935546875,0.23223243653774261,1.3148950338363647,0.5093077421188354
1773522687775931600,9.063931640625,0.41514527797698975,0.9416511654853821,0.5132367014884949
1773522687785970000,9.073969970703125,0.6320895552635193,0.5912180542945862,0.40409234166145325
1773522687796008000,9.084008056640625,0.796046793460846,0.35393571853637695,0.2278829663991928
1773522687806045700,9.094045654296876,0.87247633934021,0.25751355290412903,0.04427052661776543
1773522687816084000,9.104083984375,0.8606724143028259,0.3247104287147522,-0.08972935378551483
1773522687826121700,9.114121826171875,0.7506686449050903,0.557098925113678,-0.17153394222259521
1773522687836160000,9.124159912109375,0.5884259939193726,0.8570142984390259,-0.1879430115222931
1773522687846197800,9.13419775390625,0.42305856943130493,1.1440399885177612,-0.13491441309452057
1773522687856236000,9.144236083984374,0.3250739574432373,1.2870486974716187,-0.017533985897898674
1773522687866273800,9.154273681640625,0.2830500900745392,1.271840214729309,0.1604679673910141
1773522687876311800,9.164311767578125,0.256843239068985,1.1624863147735596,0.3768357038497925
1773522687886349800,9.174349853515626,0.12579761445522308,1.0359629392623901,0.6020357608795166
1773522687896387800,9.184387939453124,-0.14294250309467316,0.9077352285385132,0.7905985116958618
1773522687906425900,9.19442578125,-0.48289021849632263,0.7333077788352966,0.8968189358711243
1773522687916463900,9.2044638671875,-0.7428826689720154,0.47023382782936096,0.9280935525894165
1773522687926501600,9.214501708984375,-0.8306599259376526,0.09572812169790268,0.892643928527832
1773522687936540000,9.224539794921874,-0.7452698945999146,-0.3314564824104309,0.8403945565223694
1773522687946577700,9.23457763671875,-0.5572848320007324,-0.7449799180030823,0.7735534906387329
1773522687956616000,9.244615966796875,-0.34545621275901794,-1.0579180717468262,0.6363388895988464
1773522687966653700,9.25465380859375,-0.1559046506881714,-1.1959295272827148,0.4150131642818451
1773522687976692000,9.26469189453125,-0.04878378286957741,-1.1376019716262817,0.1220468133687973
1773522687986730000,9.27472998046875,0.11016245931386948,-0.9321801662445068,-0.18438129127025604
1773522687996767700,9.284767822265625,0.3724217712879181,-0.6683194637298584,-0.3744873106479645
1773522688006806000,9.294805908203125,0.5823622345924377,-0.32343611121177673,-0.3739091455936432
1773522688016843800,9.30484375,0.6752942800521851,0.08212709426879883,-0.2682889699935913
1773522688026882000,9.314882080078124,0.6779649257659912,0.4761260747909546,-0.15225611627101898
1773522688036919800,9.324919921875,0.6284335851669312,0.7491472363471985,-0.09983658045530319
1773522688046958000,9.3349580078125,0.5398770570755005,0.828385055065155,-0.12799471616744995
1773522688056995800,9.344995849609376,0.4166392982006073,0.7437026500701904,-0.15318156778812408
1773522688067033900,9.355033935546874,0.2634691894054413,0.5961747169494629,-0.07170481234788895
1773522688077072000,9.36507177734375,0.09801151603460312,0.5042157769203186,0.13716371357440948
1773522688087110000,9.37510986328125,-0.005780923645943403,0.44410794973373413,0.3424481451511383
1773522688097148000,9.38514794921875,-0.028232170268893242,0.37567269802093506,0.4379033148288727
1773522688107186000,9.39518603515625,0.0011358382180333138,0.3065836429595947,0.39525943994522095
1773522688117224000,9.405223876953125,-0.052322592586278915,0.33160722255706787,0.28685545921325684
1773522688127262000,9.415261962890625,-0.2793821096420288,0.5126640796661377,0.1756911277770996
1773522688137299700,9.4252998046875,-0.4997887909412384,0.7003852725028992,0.1130668967962265
1773522688147338000,9.435337890625,-0.5827465057373047,0.772052526473999,0.10240786522626877
1773522688157375700,9.445375732421875,-0.5400930643081665,0.6973851919174194,0.11157206445932388
1773522688167414000,9.4554140625,-0.41986438632011414,0.5317350029945374,0.12711773812770844
1773522688177451800,9.46545166015625,-0.2289615422487259,0.3240385353565216,0.18493816256523132
1773522688187489800,9.47548974609375,0.012865731492638588,0.12338238954544067,0.2957189977169037
1773522688197527800,9.48552783203125,0.20542345941066742,0.023307986557483673,0.41532769799232483
1773522688207565800,9.49556591796875,0.28688448667526245,0.0025960493367165327,0.48003265261650085
1773522688217603800,9.505603759765625,0.331633597612381,-0.007738347165286541,0.4603028893470764
1773522688227641900,9.515641845703126,0.33490076661109924,-0.00675191218033433,0.38532957434654236
1773522688237679900,9.525679931640624,0.3040387034416199,0.029231388121843338,0.30951470136642456
1773522688247716900,9.535716796875,0.24664627015590668,0.0830506756901741,0.24018384516239166
1773522688257755000,9.5457548828125,0.16310183703899384,0.10921090841293335,0.13596396148204803
1773522688267793000,9.55579296875,0.07231014966964722,0.06361465901136398,-0.04478052258491516
1773522688277831000,9.565830810546874,0.009526127018034458,-0.01167583093047142,-0.19675754010677338
1773522688287869000,9.575868896484375,-0.008271778002381325,-0.05017848312854767,-0.2135397046804428
1773522688297907000,9.585906982421875,0.008635565638542175,-0.020473849028348923,-0.08998208492994308
1773522688307944700,9.59594482421875,0.03791116178035736,0.04062385857105255,0.13179798424243927
1773522688317983000,9.60598291015625,0.056595370173454285,0.04379941150546074,0.3130716383457184
1773522688328020700,9.616020751953124,0.04803010821342468,-0.021925272420048714,0.40245503187179565
1773522688338059000,9.62605908203125,0.006041913293302059,-0.11682967841625214,0.42245352268218994
1773522688348096800,9.6360966796875,-0.04139910638332367,-0.20856119692325592,0.3788634240627289
1773522688358135000,9.646135009765626,-0.0677337720990181,-0.2924949824810028,0.26031601428985596
1773522688368172800,9.6561728515625,-0.07733154296875,-0.3632298707962036,0.06844670325517654
1773522688378210800,9.6662109375,-0.09147372096776962,-0.3914774954319,-0.13757731020450592
1773522688388248800,9.676248779296875,-0.11735539138317108,-0.34754759073257446,-0.27772456407546997
1773522688398286800,9.686286865234376,-0.14258617162704468,-0.23745329678058624,-0.3231775164604187
1773522688408324900,9.696324951171874,-0.16949476301670074,-0.10378444939851761,-0.2926742136478424
1773522688418363000,9.70636279296875,-0.1843394786119461,0.0004647216119337827,-0.2476595938205719
1773522688428400600,9.716400634765625,-0.16875626146793365,0.038051776587963104,-0.23004119098186493
1773522688438439000,9.72643896484375,-0.13512186706066132,0.01689828932285309,-0.227757528424263
1773522688448476700,9.7364765625,-0.10397060960531235,-0.024874722585082054,-0.21123075485229492
1773522688458515000,9.746514892578125,-0.08915038406848907,-0.059425242245197296,-0.1705072969198227
1773522688468552700,9.756552734375,-0.07555574178695679,-0.09438589215278625,-0.1231195330619812
1773522688478591000,9.766591064453126,-0.055452607572078705,-0.12890179455280304,-0.0956178680062294
1773522688488629000,9.77662890625,-0.03856363892555237,-0.1720559149980545,-0.09205615520477295
1773522688498666800,9.786666748046875,-0.04225344583392143,-0.20360691845417023,-0.09121326357126236
1773522688508705000,9.796705078125,-0.06816387176513672,-0.22456254065036774,-0.08856475353240967
1773522688518742800,9.80674267578125,-0.10364916175603867,-0.24326005578041077,-0.09133470803499222
1773522688528781000,9.816781005859376,-0.12902934849262238,-0.26271364092826843,-0.10109865665435791
1773522688538818800,9.82681884765625,-0.12196878343820572,-0.2718924880027771,-0.11122692376375198
1773522688548857000,9.836857177734375,-0.0937267616391182,-0.2299618273973465,-0.10815683007240295
1773522688558894800,9.846894775390625,-0.06281571090221405,-0.12319250404834747,-0.08891841769218445
1773522688568932900,9.856932861328126,-0.03081410564482212,0.037091974169015884,-0.0417085662484169
1773522688578971000,9.866970947265624,-0.022531673312187195,0.23795610666275024,0.03414012864232063
1773522688589009000,9.8770087890625,-0.03786668926477432,0.4262210726737976,0.09629617631435394
1773522688599047000,9.887046875,-0.06514757871627808,0.542366087436676,0.10569606721401215
1773522688609085000,9.8970849609375,-0.08669334650039673,0.5664762258529663,0.07081478089094162
1773522688619123000,9.907123046875,-0.09381064772605896,0.5163296461105347,-0.0035065840929746628
1773522688629161000,9.917160888671875,-0.09773828089237213,0.44796472787857056,-0.07149761915206909
1773522688639198700,9.92719873046875,-0.08898366987705231,0.3935680687427521,-0.07961679995059967
1773522688649237000,9.937237060546876,-0.07249284535646439,0.3653058111667633,-0.04475708678364754
1773522688659274800,9.947274658203124,-0.04507240280508995,0.3327158987522125,0.005657352972775698
1773522688669313000,9.95731298828125,-0.0010626012226566672,0.27563345432281494,0.043522175401449203
1773522688679350800,9.967350830078125,0.05133269727230072,0.22863930463790894,0.060139235109090805
1773522688689388800,9.977388916015625,0.09245456755161285,0.2231033891439438,0.0638202577829361
1773522688699426800,9.9874267578125,0.09445299953222275,0.27858901023864746,0.0607813261449337
1773522688709464800,9.99746484375,0.07724631577730179,0.36477530002593994,0.054720502346754074
1773522688719502800,10.0075029296875,0.061224207282066345,0.42290011048316956,0.04583832994103432
1773522688729540900,10.017540771484375,0.060691576451063156,0.44259312748908997,0.020067984238266945
1773522688739579000,10.027578857421876,0.08093160390853882,0.41602277755737305,-0.01306147314608097
1773522688749617000,10.037616943359374,0.10550831258296967,0.37391847372055054,-0.02858823537826538
1773522688759654700,10.047654541015625,0.13253353536128998,0.339547723531723,-0.016503077000379562
1773522688769693000,10.05769287109375,0.16422408819198608,0.30626192688941956,0.00806272029876709
1773522688779730700,10.067730712890626,0.1993011236190796,0.27782708406448364,0.05323845520615578
1773522688789768400,10.0777685546875,0.23143775761127472,0.2661136984825134,0.12519493699073792
1773522688799806500,10.087806396484375,0.24617062509059906,0.30175212025642395,0.22267036139965057
1773522688809844200,10.09784423828125,0.2544626295566559,0.3538004159927368,0.31436485052108765
1773522688819882500,10.107882568359376,0.2688245475292206,0.39487701654434204,0.3727964758872986
1773522688829920300,10.117920166015624,0.2854554355144501,0.4121478796005249,0.41583582758903503
1773522688839958500,10.12795849609375,0.29700878262519836,0.4440184533596039,0.5084560513496399
1773522688849996300,10.137996337890625,0.31263992190361023,0.5272510051727295,0.7044239640235901
1773522688860034600,10.14803466796875,0.3273075520992279,0.6735422015190125,1.0348169803619385
1773522688870072300,10.158072265625,0.3259506821632385,0.8317089080810547,1.4386523962020874
1773522688880110300,10.1681103515625,0.3040533661842346,0.9612812995910645,1.8088879585266113
1773522688890147300,10.178147216796875,0.25599902868270874,1.0288928747177124,2.1054372787475586
1773522688900185300,10.188185302734375,0.20697689056396484,1.0203208923339844,2.328077554702759
1773522688910223400,10.198223388671876,0.1307380348443985,1.006057620048523,2.4423437118530273
1773522688920261400,10.208261474609374,0.07036151736974716,0.9953364729881287,2.4726083278656006
1773522688930299400,10.21829931640625,0.012488361448049545,1.0166289806365967,2.3912527561187744
1773522688940337400,10.22833740234375,-0.04454296827316284,1.0234181880950928,2.1845407485961914
1773522688950375400,10.23837548828125,-0.1364622414112091,1.0344479084014893,1.900739312171936
1773522688960413400,10.248413330078124,-0.2550368309020996,1.1147643327713013,1.6029244661331177
1773522688970451500,10.258451416015625,-0.37501010298728943,1.295306921005249,1.3217612504959106
1773522688980489200,10.2684892578125,-0.4951234459877014,1.5634675025939941,1.1095277070999146
1773522688990527500,10.278527587890625,-0.5803970694541931,1.8244823217391968,0.9221557378768921
1773522689000565200,10.288565185546876,-0.6405839920043945,1.9385759830474854,0.707199215888977
1773522689010603500,10.298603515625,-0.6895246505737305,1.8291884660720825,0.4600789248943329
1773522689020641300,10.308641357421875,-0.7321751713752747,1.5137447118759155,0.2199094593524933
1773522689030679600,10.318679443359375,-0.7693480849266052,1.037984013557434,0.011653460562229156
1773522689040717300,10.32871728515625,-0.7904610633850098,0.4311106503009796,-0.15274187922477722
1773522689050755300,10.33875537109375,-0.8015020489692688,-0.13987721502780914,-0.2995571494102478
1773522689060793300,10.34879345703125,-0.7921822667121887,-0.5664892196655273,-0.48746925592422485
1773522689070831400,10.358831298828125,-0.7819456458091736,-0.7862753868103027,-0.7363030314445496
1773522689080869400,10.368869384765626,-0.7862634062767029,-0.7928414344787598,-1.0262901782989502
1773522689090907400,10.378907470703124,-0.806052029132843,-0.7262376546859741,-1.2963474988937378
1773522689100945400,10.3889453125,-0.8264305591583252,-0.7404487729072571,-1.528194785118103
1773522689110983400,10.3989833984375,-0.8372160792350769,-0.8574401140213013,-1.71156644821167
1773522689121021200,10.409021240234376,-0.8271871209144592,-1.092594027519226,-1.862839937210083
1773522689131059500,10.4190595703125,-0.7986378073692322,-1.4328429698944092,-1.9879170656204224
1773522689141097200,10.42909716796875,-0.767879068851471,-1.8256230354309082,-2.112215518951416
1773522689151135500,10.439135498046875,-0.7318923473358154,-2.279928684234619,-2.2534000873565674
1773522689161173200,10.44917333984375,-0.6897392868995667,-2.789217710494995,-2.4526736736297607
1773522689171211500,10.45921142578125,-0.6340054273605347,-3.280363082885742,-2.6983227729797363
1773522689181249300,10.469249267578125,-0.49576473236083984,-3.5199685096740723,-2.885488748550415
1773522689191287300,10.479287353515625,-0.2440054714679718,-3.247480869293213,-2.8618369102478027
1773522689201325300,10.4893251953125,0.14137710630893707,-2.2121658325195312,-2.489093780517578
1773522689211363300,10.49936328125,0.6189782619476318,-0.5529308319091797,-1.848508358001709
1773522689221401300,10.5094013671875,1.0830268859863281,0.8514618873596191,-1.321506381034851
1773522689231439400,10.519439453125,1.3783069849014282,1.4194906949996948,-1.1065146923065186
1773522689241477400,10.529477294921875,1.2509530782699585,1.5218462944030762,-0.9816678166389465
1773522689251515400,10.539515380859376,0.6807377934455872,1.580627679824829,-0.5741620659828186
1773522689261553400,10.549553466796874,0.14469699561595917,1.5022252798080444,0.10975232720375061
1773522689271591400,10.55959130859375,-0.05455538630485535,1.140554428100586,0.7771021723747253
1773522689281629400,10.56962939453125,0.027661722153425217,0.47083568572998047,1.2707880735397339
1773522689291667500,10.57966748046875,0.21233409643173218,-0.24074336886405945,1.5898009538650513
1773522689301705500,10.58970556640625,0.3400212228298187,-0.7009924650192261,1.7471824884414673
1773522689311743200,10.5997431640625,0.37798750400543213,-0.8137965202331543,1.7798388004302979
1773522689321781500,10.609781494140625,0.432351678609848,-0.7618891000747681,1.714017629623413
1773522689331818200,10.619818359375,0.5230666995048523,-0.6502273082733154,1.5265177488327026
1773522689341856500,10.6298564453125,0.6309689283370972,-0.46512481570243835,1.2131450176239014
1773522689351894300,10.639894287109374,0.6766951084136963,-0.11920255422592163,0.8743922114372253
1773522689361932300,10.649932373046875,0.5812754034996033,0.36001142859458923,0.5593652725219727
1773522689371970300,10.65997021484375,0.34289345145225525,0.8890329599380493,0.2915080189704895
1773522689382008300,10.67000830078125,0.05224642530083656,1.3775488138198853,0.07553789764642715
1773522689392046300,10.68004638671875,-0.20906932651996613,1.6930698156356812,-0.13386432826519012
1773522689402084400,10.69008447265625,-0.46412959694862366,1.7409541606903076,-0.3818477690219879
1773522689412122400,10.700122314453125,-0.736854076385498,1.4768410921096802,-0.6618354916572571
1773522689422160400,10.710160400390626,-0.9706007838249207,0.9168163537979126,-0.8900771737098694
1773522689432198400,10.720198486328124,-1.0087302923202515,0.1331266313791275,-1.019128680229187
1773522689442236400,10.730236328125,-0.8147650957107544,-0.7661136984825134,-1.023345708847046
1773522689452274400,10.7402744140625,-0.5309554934501648,-1.634281039237976,-0.9766988754272461
1773522689462312400,10.7503125,-0.30665260553359985,-2.384467840194702,-0.9606189727783203
1773522689472350500,10.7603505859375,-0.1983780711889267,-2.9175167083740234,-1.01481032371521
1773522689482388200,10.77038818359375,-0.16360890865325928,-3.205522298812866,-1.1291656494140625
1773522689492426500,10.780426513671875,-0.1912301480770111,-3.247316837310791,-1.2752397060394287
1773522689502464300,10.79046435546875,-0.23760323226451874,-3.0045742988586426,-1.413948655128479
1773522689512502500,10.80050244140625,-0.14510738849639893,-2.5244460105895996,-1.4329301118850708
1773522689522540300,10.810540283203125,0.14525040984153748,-1.894319772720337,-1.2588791847229004
1773522689532578600,10.82057861328125,0.4541587233543396,-1.175834059715271,-0.9329082369804382
1773522689542616300,10.8306162109375,0.6285457015037537,-0.427238404750824,-0.5830889940261841
1773522689552654300,10.840654296875,0.6528782248497009,0.27922818064689636,-0.34245190024375916
1773522689562692400,10.8506923828125,0.5712760090827942,0.8481464982032776,-0.2866557240486145
1773522689572730400,10.86073046875,0.418899804353714,1.2221224308013916,-0.38312047719955444
1773522689582768400,10.870768310546875,0.24199292063713074,1.3728184700012207,-0.5320410132408142
1773522689592806400,10.880806396484376,0.09610789269208908,1.2724788188934326,-0.6713088750839233
1773522689602844400,10.890844482421874,0.03732500225305557,0.9590463638305664,-0.7464025616645813
1773522689612882400,10.90088232421875,-0.027362115681171417,0.5388554930686951,-0.7453442215919495
1773522689622920200,10.910920166015625,-0.1755926012992859,0.09127185493707657,-0.7089481353759766
1773522689632958500,10.92095849609375,-0.282653272151947,-0.39890211820602417,-0.6611084342002869
1773522689642996200,10.930996337890624,-0.27967825531959534,-0.9023833870887756,-0.6245394945144653
1773522689653034500,10.941034423828125,-0.1941114217042923,-1.3081356287002563,-0.5657067894935608
1773522689663072300,10.951072265625,-0.06058238819241524,-1.4945012331008911,-0.4800443649291992
1773522689673110500,10.961110595703126,0.09971514344215393,-1.4304876327514648,-0.3471161425113678
1773522689683148300,10.971148193359374,0.2607860565185547,-1.0762752294540405,-0.161503404378891
1773522689693186300,10.981186279296875,0.3779643476009369,-0.47932717204093933,0.11853276938199997
1773522689703223600,10.9912236328125,0.41643717885017395,0.15865541994571686,0.46971848607063293
1773522689713261300,11.00126123046875,0.40324467420578003,0.6096308827400208,0.7869305610656738
1773522689723299300,11.01129931640625,0.3554992377758026,0.8360735774040222,0.9704183340072632
1773522689733337300,11.02133740234375,0.2743375599384308,0.8966104388237,1.0181655883789062
1773522689743375400,11.031375244140625,0.15355519950389862,0.8626274466514587,0.9794981479644775
1773522689753413400,11.041413330078125,0.008254733867943287,0.7851488590240479,0.9154565334320068
1773522689763451400,11.051451416015626,-0.13903377950191498,0.6419267654418945,0.8352528214454651
1773522689773489400,11.061489501953124,-0.2742781639099121,0.4580613076686859,0.7751644253730774
1773522689783528200,11.071528076171875,-0.36140772700309753,0.2607916593551636,0.7363144755363464
1773522689793566000,11.08156591796875,-0.40317460894584656,0.04758749157190323,0.7321357131004333
1773522689803604200,11.091604248046876,-0.40721702575683594,-0.17483092844486237,0.7087302803993225
1773522689813642000,11.10164208984375,-0.3976653516292572,-0.38503530621528625,0.6481156945228577
1773522689823680000,11.111679931640625,-0.37770068645477295,-0.5625054240226746,0.5237963795661926
1773522689833718000,11.121718017578125,-0.3020203113555908,-0.7122759819030762,0.3472605049610138
1773522689843756000,11.131756103515626,-0.14797188341617584,-0.8325877785682678,0.13359001278877258
1773522689853794000,11.1417939453125,0.03278564289212227,-0.8864885568618774,-0.10496210306882858
1773522689863832000,11.15183203125,0.16418415307998657,-0.842216432094574,-0.35182541608810425
1773522689873870000,11.1618701171875,0.23428812623023987,-0.7252959609031677,-0.5890843272209167
1773522689883908000,11.171908203125,0.25085699558258057,-0.5615394711494446,-0.8214117884635925
1773522689893945900,11.18194580078125,0.2539696991443634,-0.368389755487442,-1.062177300453186
1773522689903984000,11.191984130859375,0.2837214767932892,-0.17031900584697723,-1.32053804397583
1773522689914022000,11.20202197265625,0.36226099729537964,0.023983895778656006,-1.5943509340286255
1773522689924060200,11.21206005859375,0.4633583426475525,0.19379690289497375,-1.843414306640625
1773522689934098000,11.222097900390626,0.5482010245323181,0.36126577854156494,-2.0195584297180176
1773522689944136200,11.23213623046875,0.5984695553779602,0.5151872038841248,-2.134643793106079
1773522689954174000,11.242174072265625,0.5027028322219849,0.7041261792182922,-2.2077274322509766
1773522689964212000,11.2522119140625,0.21744602918624878,0.9742887020111084,-2.183323383331299
1773522689974250000,11.26225,-0.10391707718372345,1.4616013765335083,-1.7314454317092896
1773522689984288000,11.2722880859375,-0.27885985374450684,1.9964789152145386,-0.6541581153869629
1773522689994326000,11.282325927734375,-0.24509736895561218,2.01965069770813,0.5054269433021545
1773522690004364000,11.292364013671875,-0.15637709200382233,1.5411350727081299,1.261844277381897
1773522690014401000,11.302401123046875,-0.10761088132858276,0.9021109342575073,1.602251410484314
1773522690024439000,11.31243896484375,-0.0948769748210907,0.298045814037323,1.6773533821105957
1773522690034477000,11.32247705078125,-0.08808352053165436,-0.12447880953550339,1.6346240043640137
1773522690044515000,11.33251513671875,-0.07230135798454285,-0.317402720451355,1.5307167768478394
1773522690054553000,11.342552978515625,-0.06875083595514297,-0.31083056330680847,1.4104846715927124
1773522690064590800,11.3525908203125,-0.06867866218090057,-0.23728631436824799,1.2792680263519287
1773522690074629000,11.362629150390624,-0.05504940450191498,-0.11403468996286392,1.1180977821350098
1773522690084667000,11.3726669921875,-0.05089593678712845,0.041003625839948654,0.8916659951210022
1773522690094705200,11.382705078125,-0.05636713653802872,0.18769027292728424,0.5881149172782898
1773522690104743000,11.392742919921876,-0.0556747131049633,0.26560211181640625,0.21527476608753204
1773522690114781200,11.40278125,-0.07103369385004044,0.2778153717517853,-0.18139296770095825
1773522690124819000,11.41281884765625,-0.13260863721370697,0.2462366670370102,-0.5296183228492737
1773522690134857000,11.42285693359375,-0.2101774662733078,0.16373327374458313,-0.7647514939308167
1773522690144895000,11.43289501953125,-0.2592880129814148,0.03021516092121601,-0.8805207014083862
1773522690154933000,11.44293310546875,-0.2806508243083954,-0.12225507199764252,-0.9108724594116211
1773522690164971000,11.452970947265625,-0.26678696274757385,-0.2694735527038574,-0.939279317855835
1773522690175009000,11.463009033203125,-0.2145565003156662,-0.3680874705314636,-1.0820609331130981
1773522690185047000,11.473047119140626,-0.10023152828216553,-0.3347577452659607,-1.4153002500534058
1773522690195085000,11.4830849609375,0.1271640807390213,0.24446514248847961,-1.7009716033935547
1773522690205123000,11.493123046875,0.4452962577342987,1.6840016841888428,-1.1468186378479004
1773522690215161000,11.5031611328125,0.7510380744934082,2.775224208831787,0.31468310952186584
1773522690225199000,11.51319921875,0.9224953055381775,2.5244781970977783,1.7340552806854248
1773522690235237000,11.523237060546874,0.8785331845283508,1.3900105953216553,2.4734628200531006
1773522690245275100,11.533275146484375,0.6812989115715027,0.20945441722869873,2.6420321464538574
1773522690255313000,11.54331298828125,0.4458903968334198,-0.5618441700935364,2.5565991401672363
1773522690265351200,11.55335107421875,0.24063071608543396,-0.8951960206031799,2.414634943008423
1773522690275389000,11.563388916015626,0.04855555295944214,-0.9644421935081482,2.239258289337158
1773522690285427200,11.57342724609375,-0.17097413539886475,-0.8266449570655823,2.071441650390625
1773522690295464000,11.5834638671875,-0.41575005650520325,-0.5127048492431641,1.9681423902511597
1773522690305502000,11.593501953125,-0.6216467618942261,-0.046417564153671265,1.9605834484100342
1773522690315540000,11.6035400390625,-0.7311442494392395,0.4147367477416992,2.029287099838257
1773522690325578000,11.613577880859374,-0.6764525175094604,0.8364666700363159,2.1107277870178223
1773522690335616000,11.623615966796875,-0.5511286854743958,1.2168798446655273,2.1618542671203613
1773522690345654000,11.633654052734375,-0.4687477648258209,1.508229374885559,2.1404566764831543
1773522690355692000,11.643692138671875,-0.4337703585624695,1.6445988416671753,2.0205881595611572
1773522690365730000,11.65372998046875,-0.39999958872795105,1.5959786176681519,1.8253321647644043
1773522690375768000,11.66376806640625,-0.3269895613193512,1.3941344022750854,1.5946284532546997
1773522690385806000,11.67380615234375,-0.22411885857582092,1.157069444656372,1.353497862815857
1773522690395844000,11.683843994140625,-0.1353740692138672,0.9525658488273621,1.1378294229507446
1773522690405882000,11.693882080078126,-0.06740646809339523,0.8585639595985413,0.9772240519523621
1773522690415920000,11.703920166015624,-0.04727909713983536,0.8914079666137695,0.8977143168449402
1773522690425958000,11.7139580078125,-0.058154381811618805,0.9696406722068787,0.8979178071022034
1773522690435996200,11.72399609375,-0.09110221266746521,0.9394348859786987,0.918195903301239
1773522690446034000,11.734033935546876,-0.13485528528690338,0.746718168258667,0.8937233090400696
1773522690456072200,11.744072265625,-0.19822360575199127,0.3861714005470276,0.7905204892158508
1773522690466110000,11.75410986328125,-0.23596219718456268,-0.0966423898935318,0.6083253622055054
1773522690476148200,11.764148193359375,-0.24101075530052185,-0.5584054589271545,0.3815915584564209
1773522690486186000,11.77418603515625,-0.21629181504249573,-0.8394198417663574,0.17236430943012238
1773522690496224000,11.78422412109375,-0.15367157757282257,-0.9250314235687256,0.010007626377046108
1773522690506262000,11.794261962890625,-0.09790872037410736,-0.9286075234413147,-0.08226104825735092
1773522690516300000,11.804300048828125,-0.06937188655138016,-0.9324760437011719,-0.11729813367128372
1773522690526338000,11.814338134765626,-0.07734405994415283,-1.0131263732910156,-0.12262791395187378
1773522690536376000,11.8243759765625,-0.10119159519672394,-1.1111488342285156,-0.13135668635368347
1773522690546413000,11.8344130859375,-0.12437335401773453,-1.2485785484313965,-0.13732323050498962
1773522690556451000,11.844451171875,-0.121883824467659,-1.2957769632339478,-0.14271001517772675
1773522690566489000,11.854489013671875,-0.11080507934093475,-1.2599925994873047,-0.16453196108341217
1773522690576527000,11.864527099609376,-0.11763102561235428,-1.2225501537322998,-0.1990252137184143
1773522690586565000,11.874565185546874,-0.11217767000198364,-1.1343291997909546,-0.2304164320230484
1773522690596603000,11.884602783203125,-0.08101176470518112,-0.9716822504997253,-0.2605530321598053
1773522690606641200,11.89464111328125,-0.041246239095926285,-0.7816819548606873,-0.3015665113925934
1773522690616679000,11.904678955078126,-0.017165936529636383,-0.5868464708328247,-0.3704986870288849
1773522690626717200,11.91471728515625,-0.03399685025215149,-0.43597570061683655,-0.47446849942207336
1773522690636755000,11.9247548828125,-0.08134119212627411,-0.3742465674877167,-0.6020187735557556
1773522690646793200,11.934793212890625,-0.1324499249458313,-0.41218435764312744,-0.7085052132606506
1773522690656831000,11.9448310546875,-0.16145333647727966,-0.49806225299835205,-0.7514263391494751
1773522690666869000,11.954868896484374,-0.17292970418930054,-0.6013644337654114,-0.7299788594245911
1773522690676907000,11.964906982421875,-0.17940305173397064,-0.771672785282135,-0.6895036101341248
1773522690686945000,11.974945068359375,-0.1615649312734604,-0.9936043620109558,-0.6801862716674805
1773522690696983000,11.984983154296875,-0.11413722485303879,-1.162745475769043,-0.6914687156677246
1773522690707021000,11.99502099609375,-0.04599199444055557,-1.179797887802124,-0.6895571351051331
1773522690717059000,12.00505908203125,0.06321439146995544,-1.1061618328094482,-0.6337305903434753
1773522690727097000,12.01509716796875,0.19731520116329193,-1.0561047792434692,-0.4910948872566223
1773522690737134800,12.025134765625,0.3568454682826996,-1.0093353986740112,-0.23348811268806458
1773522690747173000,12.035173095703126,0.41609227657318115,-0.8130433559417725,0.01702052913606167
1773522690757211000,12.0452109375,0.38342487812042236,-0.5071777105331421,0.17894205451011658
1773522690767249200,12.055249267578125,0.36579635739326477,-0.2076629102230072,0.22707469761371613
1773522690777287000,12.065286865234375,0.3839053213596344,0.07030851393938065,0.1672089695930481
1773522690787328000,12.075327880859374,0.45641520619392395,0.20990529656410217,-0.046000514179468155
1773522690797366000,12.085365966796875,0.5897554159164429,-0.17026548087596893,-0.493470698595047
1773522690807404000,12.095404052734375,0.7366849184036255,-1.5645147562026978,-1.1635278463363647
1773522690817442000,12.105442138671876,0.7160720825195312,-3.487339735031128,-1.6464061737060547
1773522690827480000,12.11547998046875,0.40351444482803345,-5.03438663482666,-1.5616936683654785
1773522690837518000,12.12551806640625,-0.24511681497097015,-5.384304523468018,-0.9316831827163696
1773522690847556000,12.13555615234375,-0.9215520024299622,-4.069699764251709,-0.25087615847587585
1773522690857594000,12.145593994140626,-1.2665365934371948,-1.780954122543335,0.1957836151123047
1773522690867632000,12.155632080078124,-1.1821691989898682,0.30049964785575867,0.3607555329799652
1773522690877670100,12.165670166015625,-0.7451452612876892,1.4248391389846802,0.27527791261672974
1773522690887708000,12.1757080078125,-0.28261810541152954,1.6869280338287354,-0.00875141378492117
1773522690897746200,12.18574609375,-0.04574538394808769,1.4430665969848633,-0.3343484103679657
1773522690907784000,12.195783935546874,0.005468268413096666,1.0211174488067627,-0.5429021716117859
1773522690917822200,12.205822265625,-0.03279736265540123,0.5820351839065552,-0.6090494990348816
1773522690927860000,12.21585986328125,-0.09130141884088516,0.08976024389266968,-0.6130737662315369
1773522690937898000,12.22589794921875,-0.11100134998559952,-0.3940335810184479,-0.6301025748252869
1773522690947936000,12.23593603515625,0.03452921658754349,-0.8210293650627136,-0.6737083792686462
1773522690957974000,12.24597412109375,0.321248859167099,-1.1558915376663208,-0.6647476553916931
1773522690968012000,12.256011962890625,0.5700504183769226,-1.3132526874542236,-0.578682005405426
1773522690978050000,12.266050048828125,0.6908658146858215,-1.3056623935699463,-0.45576831698417664
1773522690988088000,12.276088134765626,0.700097918510437,-1.2151412963867188,-0.35322305560112
1773522690998126000,12.2861259765625,0.6592562198638916,-1.1368800401687622,-0.3023201823234558
1773522691008163000,12.2961630859375,0.6219306588172913,-1.0697007179260254,-0.29795899987220764
1773522691018201000,12.306201171875,0.586306631565094,-1.0016052722930908,-0.3298569917678833
1773522691028239000,12.316239013671876,0.5477320551872253,-0.9636749625205994,-0.3708694279193878
1773522691038277000,12.326277099609374,0.4936440587043762,-0.9181966781616211,-0.3666467070579529
1773522691048315100,12.336315185546875,0.42773643136024475,-0.853567898273468,-0.2959861159324646
1773522691058353000,12.346352783203125,0.3622783124446869,-0.7910544276237488,-0.20410972833633423
1773522691068391200,12.35639111328125,0.3002226650714874,-0.750678539276123,-0.151284322142601
1773522691078429000,12.366428955078124,0.25124821066856384,-0.7259561419487,-0.14180666208267212
1773522691088467200,12.37646728515625,0.21217218041419983,-0.6955750584602356,-0.13370293378829956
1773522691098505000,12.3865048828125,0.17190518975257874,-0.5463541746139526,-0.06000767648220062
1773522691108543000,12.39654296875,0.14347034692764282,-0.293902724981308,0.055564459413290024
1773522691118581000,12.4065810546875,0.1407986581325531,-0.07085499912500381,0.12269609421491623
1773522691128619000,12.416618896484374,0.15941016376018524,0.04514670372009277,0.09971194714307785
1773522691138657000,12.426656982421875,0.18240416049957275,0.0411575548350811,-0.001008272753097117
1773522691148695000,12.436695068359375,0.19210419058799744,-0.015789082273840904,-0.1341857612133026
1773522691158733000,12.446733154296876,0.14899054169654846,-0.05013933405280113,-0.2390056550502777
1773522691168771000,12.45677099609375,0.09266362339258194,-0.05969688668847084,-0.32438793778419495
1773522691178808800,12.466808837890625,0.06687463819980621,-0.07143290340900421,-0.4060510993003845
1773522691188847000,12.47684716796875,0.07303666323423386,-0.06632149964570999,-0.4706639051437378
1773522691198884900,12.486884765625,0.06958280503749847,-0.015676431357860565,-0.4336574375629425
1773522691208922000,12.496922119140624,0.040583644062280655,0.06309774518013,-0.2824271619319916
1773522691218960100,12.506960205078125,0.00339153571985662,0.08607256412506104,-0.08359289914369583
1773522691228998000,12.516997802734375,-0.017187776044011116,0.0005435511702671647,0.06382425129413605
