time,seconds_elapsed,roll,rotationRateZ,quaternionY,rotationRateY,quaternionZ,quaternionW,yaw,devicelocation,accelerationZ,pitch,gravityX,gravityZ,quaternionX,rotationRateX,accelerationX,gravityY,accelerationY
1773522679050132000,0.338132080078125,0.09907980835735106,0.3838304281234741,0.04901933411650931,0.18859127163887024,7.869480822428855e-17,0.9954242986915863,0.00815078576398669,right,-0.007836878299713135,-0.16402723858741344,0.9570316986344755,-9.62757178222239,-0.08202165846795692,0.65826815366745,0.007812082767486572,1.6013544154196977,-0.04441528022289276
1773522679090132000,0.378132080078125,0.1076736279653189,0.5873878002166748,0.05295132861333952,0.24310500919818878,0.006890163102289389,0.9961738879630386,0.021256564848939886,right,-0.01665574312210083,-0.13753966153755032,1.043925992102921,-9.657783380612731,-0.06918275840279302,0.847585916519165,0.00980367511510849,1.3445546600580214,-0.02402053028345108
1773522679130132000,0.418132080078125,0.11782334190317698,0.775986909866333,0.05769578744943093,0.16480118036270142,0.018251518882292494,0.9967915385205437,0.042668190859615394,right,-0.03341561555862427,-0.10251737049740696,1.1467283410601317,-9.687527946013212,-0.05239007318680813,0.9581239223480225,0.00024055689573287964,1.0035918628226965,-0.03179803490638733
1773522679170132200,0.45813232421875,0.12137001539381484,0.8603485822677612,0.0594204442338616,0.11227905750274658,0.0257093000858916,0.9969976201889612,0.05653073360656467,right,-0.04283052682876587,-0.0817311606251185,1.1833498795580117,-9.702014152005315,-0.042475283577638294,0.9921604990959167,0.000116690993309021,0.8006167827595024,-0.02281002700328827
1773522679210132200,0.49813232421875,0.12462240341534214,0.9447103142738342,0.06113577332537107,0.05975693091750145,0.0331630205412781,0.9970470921588845,0.07029868746782326,right,-0.052647292613983154,-0.060898142694700806,1.216707740084827,-9.71255834237337,-0.032553829713822306,1.026197075843811,0.00032561272382736206,0.5968376563044264,-0.013740044087171555
1773522679250132000,0.538132080078125,0.12370139569163453,0.9356977939605713,0.06284045700984905,-0.01827950030565262,0.07374651787212459,0.9952235108526786,0.14588354513921462,right,0.007583916187286377,0.03305076306827846,1.2093440794490278,-9.726399820721149,0.011945164167983609,0.8248529434204102,0.0297866091132164,-0.3240583145877346,0.037240467965602875
1773522679290132000,0.578132080078125,0.12175129876663913,0.8306406736373901,0.06301628974127232,-0.03735481947660446,0.08498962790559583,0.9941026041886599,0.16703460987312924,right,0.015752434730529785,0.05803464447761105,1.1890196688227355,-9.717668232733011,0.023785578448447274,0.8004461526870728,0.03543727099895477,-0.568806105366908,0.02767457813024521
1773522679330132000,0.618132080078125,0.11962676632490758,0.7416971325874329,0.06414245401613551,0.030061893165111542,0.10069429442524896,0.9919572008073373,0.19654677978763202,right,0.020151972770690918,0.09647107013236846,1.1649000306319444,-9.691291682460903,0.042040092062675574,0.769486129283905,0.029575251042842865,-0.9445913192562758,0.013607189059257507
1773522679370132000,0.658132080078125,0.11707584743321002,0.7221674919128418,0.06565105640252934,0.011193878017365932,0.11886782189694187,0.9889658611544206,0.231426824561006,right,0.009882211685180664,0.13313065676812066,1.1353645048722625,-9.653335169032216,0.059218498166252236,0.644957959651947,0.009392037987709045,-1.301712712675333,-0.024461492896080017
1773522679410132200,0.69813232421875,0.11532383132197342,0.7508143782615662,0.06618790432360194,-0.0002317158505320549,0.12722151984729882,0.9874288483166881,0.24767364989776444,right,0.004728734493255615,0.14865302511587788,1.1159903076428919,-9.634075757288933,0.06646812889809826,0.6242135167121887,-0.00506523996591568,-1.452425252190232,-0.03952185809612274
1773522679450132200,0.73813232421875,0.11616749320725547,0.8095186352729797,0.06914897801994287,-0.037217408418655396,0.14294709067388126,0.984328483751632,0.2784269913466643,right,0.0078043341636657715,0.17159499529428637,1.1199601611219345,-9.597501638129353,0.07669433948896515,0.5861628651618958,-0.020434215664863586,-1.674526180744916,-0.06325709819793701
1773522679489681400,0.777681396484375,0.10916518463269458,0.8132541179656982,0.06906604157061676,-0.054069336503744125,0.16083481680735542,0.9805324573989761,0.3143064626057061,right,0.01418978814035654,0.1980107607854985,1.0475426482301204,-9.557792143553495,0.08898374680664513,0.4609714448451996,-0.03721436858177185,-1.9291579444177447,-0.043735239654779434
1773522679529681400,0.817681396484375,0.09866399512887515,0.7641167044639587,0.06719144370687853,0.01118495687842369,0.176478002371441,0.9769437765654421,0.34651997113945504,right,0.017281711101531982,0.22011075743649072,0.9426879698529839,-9.523505258548258,0.09960761856859864,0.38043296337127686,-0.03774242848157883,-2.1411615495890377,-0.028627648949623108
1773522679569681400,0.857681396484375,0.0880338160286342,0.6870048642158508,0.06508133826728212,0.017301782965660095,0.19101479331852314,0.9734567490368171,0.377021043278075,right,0.004972696304321289,0.23731266708302717,0.8380374357458203,-9.494889989438652,0.10798038340824496,0.2729542851448059,-0.0336703360080719,-2.3054598391249774,-0.01197989284992218
1773522679609681700,0.897681640625,0.0781576492395882,0.6009454727172852,0.06302360990299162,0.038400426506996155,0.2038470734450499,0.9702473828447582,0.40433230771857737,right,0.0019176006317138672,0.2503549420172939,0.7418140267875045,-9.471919448217749,0.11443138030839177,0.21186795830726624,-0.030095558613538742,-2.429576486528665,-0.01020723581314087
1773522679649681700,0.937681640625,0.07172614415722589,0.5284972786903381,0.06145409884923741,0.046332947909832,0.2115369860724509,0.9683385409635826,0.42090434469624555,right,0.005708456039428711,0.25626941158960437,0.6798387051939964,-9.46199602009654,0.1174557908956843,0.18886853754520416,-0.01944071054458618,-2.485726682165265,0.0005964040756225586
1773522679689681400,0.977681396484375,0.06518404227331613,0.4560491442680359,0.0598800163257272,0.05426546931266785,0.2192112630359026,0.9663578750235139,0.43754150260570673,right,0.00945824384689331,0.2620797715162741,0.6169720607839524,-9.451669271871447,0.12047147480154224,0.1658691167831421,-0.008694995194673538,-2.540803841742873,0.011290684342384338
1773522679729681400,1.017681396484375,0.05664469072156291,0.2429078221321106,0.05837124009791685,0.07885566353797913,0.23163010247881366,0.9629821002766894,0.4643769864031864,right,0.0013933777809143066,0.2709410042096209,0.5349437293840572,-9.433743154558538,0.12492296492904645,0.10270143300294876,0.0011740997433662415,-2.6246345098569988,0.02509292960166931
1773522679769681400,1.057681396484375,0.056915858924956826,0.12676814198493958,0.058908970552037344,0.0638856515288353,0.23394934313610175,0.9623508433286156,0.4691640033110303,right,-0.0010772943496704102,0.2718983558114774,0.5373586815712973,-9.431084749004244,0.1252127053218292,0.0720120221376419,0.009004812687635422,-2.633679109317064,0.030760914087295532
1773522679809681400,1.097681396484375,0.058528449474512266,0.008179515600204468,0.059563425648009996,0.06808686256408691,0.23443606325315464,0.9623140497549236,0.4699608302919868,right,0.005285203456878662,0.27038764792397757,0.5527985350264236,-9.434167517450451,0.12427200373982995,0.03803855553269386,0.015319082885980606,-2.6194056692928074,0.02283354103565216
1773522679849681400,1.137681396484375,0.06303806919892041,-0.1690634787082672,0.06076774207280377,0.02710629627108574,0.2324342909592326,0.9631411434652938,0.46521808962578876,right,-0.004461169242858887,0.2643968350175099,0.5963151668002828,-9.447070253643393,0.1209989304468494,-0.035215672105550766,0.030237849801778793,-2.562743578611314,-0.009311974048614502
1773522679889681700,1.177681640625,0.06609806618392254,-0.18967506289482117,0.06142736977477159,-0.020002424716949463,0.22961530232367253,0.9640335589724143,0.45899108857162635,right,-0.008067786693572998,0.2604367989954107,0.625885727340728,-9.455253560099004,0.11892392916620555,-0.08614401519298553,0.023229897022247314,-2.525238316081464,-0.027159184217453003
1773522679929681700,1.217681640625,0.06817142684834615,-0.18135052919387817,0.06165343078544155,-0.04874327406287193,0.2266904643195184,0.9649323958212999,0.45268480836341074,right,-0.006052613258361816,0.25678064046982174,0.6461131073333323,-9.463083815333247,0.11711472198989993,-0.12678463757038116,0.015823565423488617,-2.4905761680230496,-0.032795876264572144
1773522679969681400,1.257681396484375,0.06884646215780901,-0.149013489484787,0.061380538769079444,-0.06929193437099457,0.2242470451256453,0.9656719823841045,0.447554342612927,right,0.0025701522827148438,0.2540163285062961,0.6529720333173871,-9.469477900284527,0.11585953571111458,-0.13383075594902039,0.01117243617773056,-2.4643466250061987,-0.044281214475631714
1773522680009681400,1.297681396484375,0.06921578151192202,-0.0725044310092926,0.060928828989078615,-0.05492903292179108,0.22129208998720787,0.9665131149380243,0.4414079331090576,right,0.01461869478225708,0.25144280194423285,0.6569057195045054,-9.475531208974122,0.11476073668543056,-0.090680792927742,0.0020818114280700684,-2.4399108335383235,-0.05421768128871918
1773522680049681400,1.337681396484375,0.06929758910087759,-0.020199164748191833,0.060947857098500494,0.00029046833515167236,0.21967752532460172,0.9667748212676246,0.4380473222169862,right,0.029364943504333496,0.2530756088736251,0.6574040974806994,-9.47149040915072,0.11564483595095645,-0.0132056325674057,0.0004179328680038452,-2.455416299575567,-0.05450758337974548
1773522680089681400,1.377681396484375,0.0701828222585261,0.024126190692186356,0.06173882429867782,0.009229997172951698,0.21977834328966556,0.9665156359916165,0.4381276424503936,right,0.01029747724533081,0.25647182398154705,0.665199719792977,-9.462532026669383,0.11718985367221939,-0.010691404342651367,-0.00707085058093071,-2.4876468365728854,-0.04440486431121826
1773522680129681700,1.417681640625,0.06987498893567662,0.04417259618639946,0.061916328858550876,-0.0061695873737335205,0.22048647035031033,0.966211294397387,0.43961681678764053,right,0.007700800895690918,0.2587294884520962,0.6618930063977837,-9.45710941709876,0.11827077100886414,-0.04694852605462074,-0.0006674155592918396,-2.509056412087381,-0.028620481491088867
1773522680169681700,1.457681640625,0.0697090876193808,0.06012652814388275,0.06229487319636882,0.03409412503242493,0.22211419391882758,0.965679972825923,0.44299379440496983,right,-0.0020612478256225586,0.2611583593400335,0.6598975947968662,-9.451111637988687,0.11935975759084519,-0.059495892375707626,-0.0001654699444770813,-2.532075176364183,-0.022783905267715454
1773522680209681400,1.497681396484375,0.06945505621783662,0.06674165278673172,0.06229867998370836,0.04281345009803772,0.22348034191057764,0.9653967213504838,0.4458571158264718,right,0.03136801719665527,0.2607447475829189,0.6575693710450082,-9.452323351866006,0.1190987764092016,-0.03685014694929123,0.010530948638916016,-2.5281562493547796,-0.009254395961761475
1773522680249681400,1.537681396484375,0.0709869103933531,0.08811867237091064,0.06321044259719641,0.06444566696882248,0.22445072504858865,0.9651048433936109,0.44767550066877637,right,0.01557689905166626,0.26134118325943045,0.6719410838119685,-9.44979880182445,0.11915864301216149,-0.005802880972623825,0.005431674420833588,-2.5338074069842693,-0.019746363162994385
1773522680289681400,1.577681396484375,0.07344791451404896,0.2043851613998413,0.065225746896307,0.05231735110282898,0.22843476163073248,0.9639064320174813,0.45561276875255474,right,-0.002190887928009033,0.264596238579228,0.6945861194055527,-9.439841471433638,0.12019834918947511,0.03888847678899765,-0.009637199342250824,-2.564630999793112,-0.0257146954536438
1773522680329681400,1.617681396484375,0.0733969027293155,0.24099218845367432,0.0660475756798067,0.04033815115690231,0.23260284206902465,0.9627100932922615,0.4642569234954955,right,-0.008929848670959473,0.2675316233856422,0.6935495428994297,-9.432328027063608,0.12133765449179212,0.037736475467681885,0.0023851394653320312,-2.5924045573815704,-0.011100441217422485
1773522680369681700,1.657681640625,0.07255914785603085,0.2297523468732834,0.06614168961056473,0.04079018160700798,0.23491300023097675,0.9620422684883406,0.4691559815143633,right,-0.0055481791496276855,0.26930668863152873,0.6853126065604388,-9.428301255765557,0.12212981774319641,0.035777583718299866,0.014240741729736328,-2.6091885189220307,0.0012373030185699463
1773522680409681700,1.697681640625,0.07171195650970015,0.21851250529289246,0.06623536975234404,0.041242215782403946,0.2372216569113629,0.9613682924303487,0.4740590127337695,right,-0.0021685361862182617,0.2710777428675598,0.6769926681131124,-9.424254610723256,0.12292118032829384,0.03381869196891785,0.026104815304279327,-2.625926595494151,0.01357036828994751
1773522680449681400,1.737681396484375,0.07055993075769722,0.21597598493099213,0.06627594409261937,-0.0023143254220485687,0.24069862630898797,0.9604396200158148,0.48144078217791836,right,-0.015425622463226318,0.27229296992967233,0.6659097677584738,-9.421838197231292,0.12339951877137705,-0.016233228147029877,0.01956937462091446,-2.6374066054075955,0.022519350051879883
1773522680489681400,1.777681396484375,0.06501402797398188,0.2784733176231384,0.06436477744996662,-0.06188980117440224,0.24858648684832033,0.9587020529536834,0.4985904980145161,right,-0.0033354759216308594,0.26971733728892905,0.6140864223450422,-9.432133381274342,0.12227916661588896,-0.04288202151656151,0.015433184802532196,-2.6130703287914394,-0.010583639144897461
1773522680529681400,1.817681396484375,0.06267756390590426,0.3218322992324829,0.06369960127620623,-0.028436951339244843,0.2525113443767652,0.9577500842607417,0.5070787659429394,right,0.006178438663482666,0.2691872096690393,0.5921336433319374,-9.434923888775705,0.12204554451985407,-0.025566525757312775,0.013463422656059265,-2.608059222631156,-0.019833087921142578
1773522680569681400,1.857681396484375,0.06034620765533655,0.3651913106441498,0.06303336740195611,0.005015898495912552,0.2564319378097574,0.9567819312791942,0.5155643790985853,right,0.015691697597503662,0.26863801167559487,0.57022218270991,-9.437706797492504,0.12180989223984358,-0.00825103186070919,0.011489443480968475,-2.6028669146850705,-0.02910098433494568
1773522680609681700,1.897681640625,0.05462142495852285,0.517500102519989,0.06296651618767463,0.04388023167848587,0.27291595536030605,0.9520211618563483,0.5508746693754188,right,0.009873628616333008,0.2725356935692542,0.5156265230389312,-9.430614793404937,0.12331935454430809,0.0023097507655620575,-0.00183766707777977,-2.639699392519891,-0.04291602969169617
1773522680649681700,1.937681640625,0.049403636932701354,0.6515971422195435,0.06242578524048044,-0.0006655864417552948,0.2860674549800408,0.9481251513026093,0.5792568974701061,right,-0.004851162433624268,0.2738891454939062,0.4662359211977571,-9.42960006340444,0.12380310970762197,-0.12647970020771027,0.00022798776626586914,-2.6524796713769434,-0.04533183574676514
1773522680689681400,1.977681396484375,0.04330108283976955,0.9027618169784546,0.060546304451485775,0.00924918707460165,0.29762278880007187,0.9449004960346712,0.6043962804749021,right,-0.005771815776824951,0.27013167122966425,0.40911147370152173,-9.442160269770026,0.12213900631821245,-0.27577513456344604,0.011375494301319122,-2.6169863331913947,-0.07807397842407227
1773522680729681400,2.017681396484375,0.03567727280409706,1.180261492729187,0.057574087464113896,0.05588599666953087,0.3125861599614034,0.940752233953066,0.6369033847519658,right,0.02277320623397827,0.2612632964395395,0.33792964008450505,-9.467827210468053,0.11815409498672855,-0.4271175265312195,0.030942611396312714,-2.5330694480985403,-0.08364400267601013
1773522680769681400,2.057681396484375,0.028373071234351843,1.457761287689209,0.05458655138158152,0.10252280533313751,0.32746640638783525,0.9363539273948619,0.6692630979587303,right,0.05123692750930786,0.2521609978553816,0.26940926249539476,-9.492697447830437,0.11413775695465961,-0.5784599184989929,0.050238337367773056,-2.446731765599549,-0.08946084976196289
1773522680809681400,2.097681396484375,0.011982214515744395,1.9833369255065918,0.04374132465162394,0.16342051327228546,0.3899517623985825,0.9156115083449842,0.804075115504464,right,0.030089259147644043,0.19584369557482878,0.11525635500196367,-9.618494157275556,0.08763550738513509,-0.9598037004470825,0.04145736247301102,-1.908316962571442,-0.06628450751304626
1773522680849681400,2.137681396484375,0.005217381712433524,2.1040704250335693,0.037720329061035306,0.1222231388092041,0.41494049912071923,0.9058710102868596,0.8586228293406565,right,0.03259456157684326,0.1700908643044999,0.050426438561780376,-9.66500222595036,0.07615240853329336,-1.02500581741333,0.04638611525297165,-1.6599904365226625,-0.06735087931156158
1773522680889681700,2.177681640625,-0.004011605905833463,2.251737117767334,0.027718102601271086,0.07823336124420166,0.45310661142204534,0.8890844618049679,0.9429092984704686,right,0.043205976486206055,0.13000122307593026,-0.03900837426891084,-9.723820910143852,0.05877779264833757,-1.0629860162734985,0.0555218830704689,-1.271288640578091,-0.0758296549320221
1773522680929681700,2.217681640625,-0.012819287149250944,2.46966552734375,0.011582763477307504,0.10091152042150497,0.5127714626274952,0.8578559086093924,1.0779332192508901,right,0.052327752113342285,0.06657267422132153,-0.12543238791106268,-9.784123110893368,0.031849690193424485,-1.0959702730178833,0.06870406121015549,-0.6523728253152221,-0.0648258700966835
1773522680969681400,2.257681396484375,-0.014174241202313373,2.6161444187164307,-0.0010169346436349367,0.04181782156229019,0.5588546328011275,0.8291897209679554,1.18621595956265,right,0.048807501792907715,0.01738885337657313,-0.1389761984865181,-9.804182733103632,0.011170311134703192,-1.0869355201721191,0.054212696850299835,-0.17051785817053167,-0.07401125133037567
1773522681009681400,2.297681396484375,-0.010917458757122994,2.695479393005371,-0.009214027874321342,0.14708900451660156,0.5938604608295459,0.8045084746734367,1.2716791227648232,right,0.04717022180557251,-0.01624094957628757,-0.10704749397998675,-9.804772515690326,-0.0032917875313710574,-0.9853944778442383,0.06688199192285538,0.15926226813010871,-0.028339050710201263
1773522681049681400,2.337681396484375,0.002153838256045873,2.5469295978546143,-0.018238317190446808,0.21377430856227875,0.6429795197982995,0.7653090714745313,1.3975671065294641,right,0.030060172080993652,-0.05927455960572062,0.021084775423363317,-9.789404850688577,-0.02338017949024339,-0.7385435104370117,0.07216568291187286,0.5809445061238482,0.015945199877023697
1773522681089681400,2.377681396484375,0.013882026593396567,2.303057909011841,-0.02093232663842021,0.24966591596603394,0.6698631225855004,0.7414331098029956,1.4699989365541934,right,0.01907414197921753,-0.07779651258688408,0.13572000056901015,-9.776046771943568,-0.033498958772893744,-0.5996700525283813,0.06999406218528748,0.762153781113401,0.0652623400092125
1773522681129681700,2.417681640625,0.028091682733499622,1.9235045909881592,-0.023416658417770398,0.19320467114448547,0.6957939025293151,0.7164973788460203,1.5428300970781772,right,-0.013246357440948486,-0.09607885437439395,0.2741786323216744,-9.757570035010575,-0.0442044650182607,-0.5741783380508423,0.057666633278131485,0.9407627008788287,0.0963035300374031
1773522681169681700,2.457681640625,0.047428879655257425,1.3424711227416992,-0.028364934375313983,0.12408287823200226,0.7273499557976061,0.6831380950639776,1.636367076067808,right,-0.010126113891601562,-0.1221621164493361,0.4614790089942515,-9.722620302182435,-0.05898955624141629,-0.5019587278366089,0.06782795488834381,1.1950235854126512,0.0835312008857727
1773522681209681400,2.497681396484375,0.05991193466596463,1.0194437503814697,-0.03223942173033138,0.12371201813220978,0.7438188099629351,0.6640651838270253,1.6881601773115862,right,-0.00624769926071167,-0.13957665796937882,0.5814735349666327,-9.69385656451285,-0.06864034413439847,-0.46379685401916504,0.07136441022157669,1.3643394108496605,0.0655258297920227
1773522681249681400,2.537681396484375,0.06640991505254422,0.8559831380844116,-0.03495427192243311,0.12009565532207489,0.7517961728991694,0.6542903623237641,1.7142587817537844,right,0.0021038055419921875,-0.15003275202420155,0.6434693878915161,-9.67510977846682,-0.07406004009290056,-0.4058961570262909,0.08961909264326096,1.4658051043756306,0.05238308012485504
1773522681289681400,2.577681396484375,0.07916233254119942,0.6558859348297119,-0.03788306209649935,0.14083951711654663,0.7629045395821695,0.6400528930675754,1.7520196322258683,right,-0.044744908809661865,-0.16467862660522278,0.7650149426981806,-9.643680620980263,-0.08290954931576122,-0.32900431752204895,0.10112873464822769,1.6076562920428812,0.03457392752170563
1773522681329681400,2.617681396484375,0.08976556492234716,0.541332483291626,-0.04036872462872796,0.08429945260286331,0.7708542006000035,0.6293001671032648,1.7802651727159629,right,-0.03316235542297363,-0.17667665140374644,0.8654326615411788,-9.615123219537734,-0.09019712631546084,-0.2972397208213806,0.10629928857088089,1.7236062918648123,0.024088352918624878
1773522681369681700,2.657681640625,0.09689470361896389,0.4708690643310547,-0.04164146397207937,0.07479466497898102,0.7755705994941904,0.6227180723555513,1.7974883157677504,right,-0.019444525241851807,-0.18363340051943364,0.9327750631257891,-9.596541853186487,-0.09475499178000936,-0.23033609986305237,0.10116351395845413,1.7907244562394915,0.002918154001235962
1773522681409681700,2.697681640625,0.10393298945651039,0.441516637802124,-0.04268190105751839,0.013576213270425797,0.7808180065085415,0.6154049567206509,1.816526349412401,right,-0.010365664958953857,-0.1894941123182745,0.9991885863624512,-9.57913654487729,-0.09888488210936776,-0.1461777687072754,0.08559487760066986,1.8472011073514818,-0.02401922643184662
1773522681449681400,2.737681396484375,0.1080580229856197,0.4751097857952118,-0.04262391937022911,-0.0021294280886650085,0.7848213646971133,0.6100163627653428,1.8304913975378614,right,-0.003476083278656006,-0.19078522863426553,1.0384361625149845,-9.57255424387753,-0.1005920634848633,-0.0870351791381836,0.0865684449672699,1.859634472467005,-0.04162780940532684
1773522681489681400,2.777681396484375,0.11452769273392743,0.5187448859214783,-0.04142140260671247,0.008347487077116966,0.7910349373362113,0.6017090701047776,1.8519366490378455,right,0.0044828057289123535,-0.18995150179678286,1.1005220318108797,-9.567172550839185,-0.10244129780296861,-0.04494674876332283,0.08422115445137024,1.85160606431216,-0.04832571744918823
1773522681529681400,2.817681396484375,0.12445219129818098,0.558795690536499,-0.038403218083427934,0.04427763819694519,0.7987293028275824,0.5912497150415214,1.878788082641972,right,0.0025724172592163086,-0.18633551754099925,1.196238952551782,-9.562360766643286,-0.10478782765851875,-0.029776882380247116,0.07449528574943542,1.8167711900353432,-0.055296361446380615
1773522681569681400,2.857681396484375,0.13476707734196125,0.5889409780502319,-0.03512356720853212,0.027930593118071556,0.8063925345438981,0.5805187227776577,1.9060089147009955,right,-0.0026721954345703125,-0.1821342503194923,1.2958223394624888,-9.556991933086515,-0.10721632494717574,-0.04220568388700485,0.04897834360599518,1.776268060863763,-0.05756479501724243
1773522681609681700,2.897681640625,0.14206005736359556,0.5902299880981445,-0.03296014236177894,0.04375448822975159,0.8119648733948562,0.5724857069731857,1.9261543973031716,right,-0.0031452178955078125,-0.17931632631564987,1.3661894226305187,-9.55220469880998,-0.10902625728086668,-0.057695865631103516,0.037114664912223816,1.749083701340109,-0.05287286639213562
1773522681649681700,2.937681640625,0.15155133702980758,0.5082849264144897,-0.030286728685775238,0.07296961545944214,0.8188713557779147,0.5622171823280074,1.9516659464484194,right,-0.005167126655578613,-0.17594325335311622,1.4576716284111142,-9.544586040499805,-0.11155389891309446,-0.06516439467668533,0.020261242985725403,1.7165256859540938,-0.039869338274002075
1773522681689681400,2.977681396484375,0.16022495271374484,0.34132152795791626,-0.027883336878594085,0.08621123433113098,0.8238502093274405,0.5544954503877048,1.9707253661497663,right,-0.0151902437210083,-0.17339238069244195,1.541095469290018,-9.535874910777807,-0.11414111870175073,-0.06593238562345505,0.009056925773620605,1.6918908647827804,-0.021774083375930786
1773522681729681400,3.017681396484375,0.16720697760466485,0.08075910806655884,-0.026157721131012147,0.09388992935419083,0.8265260774669568,0.5500688701197641,1.9816568584533596,right,-0.02857506275177002,-0.17236435646970003,1.6079256105035542,-9.526592703169584,-0.11659637312729593,-0.06979898363351822,-0.010935068130493164,1.6819595456160603,-0.0043813735246658325
1773522681769681400,3.057681396484375,0.16910562091696693,-0.2311667799949646,-0.02662821730938125,0.078804612159729,0.8256949881647128,0.5509673188772165,1.9796151243511662,right,-0.023642361164093018,-0.17503290558105777,1.6252490857481956,-9.51906464575231,-0.11812585328227929,-0.08601811528205872,0.0013630688190460205,1.7077353535160422,0.007144257426261902
1773522681809681400,3.097681396484375,0.16995506515306352,-0.570726752281189,-0.0285477824364053,0.0798807367682457,0.8204887802126681,0.5580296312997743,1.9626788914845754,right,-0.023931801319122314,-0.18264984720061334,1.6310869981214404,-9.504584284979105,-0.12077289389929238,-0.16195917129516602,-0.035720109939575195,1.7812404424488544,0.03352758288383484
1773522681849681400,3.137681396484375,0.16832147242564782,-0.7239505052566528,-0.030897663687354113,0.0634680762887001,0.814911319322745,0.5656731672593681,1.9440836949125848,right,-0.0025183558464050293,-0.18996094800630234,1.6133333147659896,-9.494143554985524,-0.12238766293373406,-0.16070905327796936,-0.06066335737705231,1.8516969574660063,0.03960631787776947
1773522681889681700,3.177681640625,0.1649719251805065,-0.8138334155082703,-0.03359225879407207,0.043124087154865265,0.8082033807995005,0.5748244139376297,1.9215240986313684,right,-0.0005823969841003418,-0.1975794903039278,1.5791607037901878,-9.485302661404013,-0.1235140094728279,-0.13892227411270142,-0.08311435580253601,1.9250110538713634,0.03202952444553375
1773522681929681700,3.217681640625,0.16144253715735887,-0.9037163257598877,-0.036282239049023765,0.022780099883675575,0.8013845050506713,0.5838967578469783,1.8989036509342947,right,0.001328587532043457,-0.20512185538599217,1.5432957558132707,-9.476216853150724,-0.12462341323753327,-0.11713550239801407,-0.10539278388023376,1.997481831320375,0.024538740515708923
1773522681969681400,3.257681396484375,0.1512184700668417,-1.0122270584106445,-0.04192603390150774,0.06765871495008469,0.7862296052503612,0.6035622806572414,1.8488555810828073,right,-0.007713496685028076,-0.21940578165130134,1.4418858841277657,-9.462326859486103,-0.12568935726301977,-0.10223439335823059,-0.10332275927066803,2.134414267285913,0.01605430245399475
1773522682009681400,3.297681396484375,0.14163024484528847,-1.0121300220489502,-0.04557865939737264,0.10788601636886597,0.7692838020028652,0.6246307704551898,1.7939905129046507,right,-0.030651450157165527,-0.22997765264215062,1.347833389467746,-9.452848837044835,-0.1263385693512054,-0.022347375750541687,-0.13701385259628296,2.2354823397964236,-0.036522477865219116
1773522682049681400,3.337681396484375,0.13284692228307682,-1.0278115272521973,-0.04832966241395093,0.15507537126541138,0.7504971308276431,0.6466801342147842,1.7351456691418061,right,-0.042367756366729736,-0.23956255331215073,1.2618588411927223,-9.442650099113584,-0.12736988539659821,-0.06018582358956337,-0.15796303749084473,2.326899371386319,-0.03987286984920502
1773522682089681400,3.377681396484375,0.12705392696686527,-1.0329869985580444,-0.050536231269435114,0.19364404678344727,0.7360356466864891,0.6626243092391957,1.6915181205211023,right,0.029935598373413086,-0.24780420222666924,1.204665785439685,-9.430457557016611,-0.12894402686716047,-0.09076759219169617,-0.1552129089832306,2.4053341718062757,-0.03609055280685425
1773522682129681700,3.417681640625,0.1246117575211454,-1.0547963380813599,-0.05194723783737021,0.26803264021873474,0.7212124242061583,0.6780004849460353,1.6486630995473497,right,0.04067420959472656,-0.2569748337420924,1.1788402201138437,-9.411087670636176,-0.13217240028702437,-0.12644556164741516,-0.15160050988197327,2.492417996497452,-0.009486839175224304
1773522682169681700,3.457681640625,0.12487396107544849,-1.0114858150482178,-0.05276188436822855,0.29190221428871155,0.7060118277446832,0.6928456950174077,1.6064314185143342,right,0.01696765422821045,-0.26730744581076615,1.1780372331678866,-9.384723979845642,-0.1368518561253496,-0.1333487331867218,-0.1538805067539215,2.590284204226732,-0.011866092681884766
1773522682209681400,3.497681396484375,0.125486571588303,-0.9419999122619629,-0.053490657814472875,0.2693728506565094,0.6914428459494991,0.7063790534932264,1.5669852054179199,right,-0.03010737895965576,-0.2776912538471032,1.1803560315042734,-9.35680955248177,-0.1416835724583419,-0.13338057696819305,-0.15672224760055542,2.6883564559221265,-0.0017625987529754639
1773522682249681400,3.537681396484375,0.12263788637518865,-0.7898904085159302,-0.0550770464652499,0.1211705207824707,0.6783228260708224,0.7182440570292689,1.5313614283042842,right,-0.037201762199401855,-0.286648253202697,1.1507047704104334,-9.335860287955402,-0.1448106645647169,-0.10105906426906586,-0.1918969303369522,2.772720792521536,0.004553884267807007
1773522682289681400,3.577681396484375,0.11691934048411155,-0.6611021757125854,-0.05686068098188269,0.13077685236930847,0.6672257984523757,0.7282364481389185,1.5006419944494027,right,-0.02647000551223755,-0.2923306310068869,1.0954430480461568,-9.326488648498058,-0.14576785696012323,-0.045876335352659225,-0.18997076153755188,2.8261270962774754,0.008339166641235352
1773522682329681400,3.617681396484375,0.11384772653351861,-0.5186813473701477,-0.05737755244231258,0.16415923833847046,0.6578184348335664,0.7364941040563938,1.4750594544480937,right,-0.101437509059906,-0.29607421191316846,1.0655812129415572,-9.319232978281379,-0.1468304130089761,-0.05477132275700569,-0.21174867451190948,2.8612615380227564,-0.003001958131790161
1773522682369681700,3.657681640625,0.11010757235980854,-0.4023700952529907,-0.05890845806319356,0.16586384177207947,0.6505768136047387,0.7425670217955039,1.4556298261774188,right,-0.0971938967704773,-0.30081335901740136,1.0292168640751391,-9.309570831444859,-0.14789788668454837,-0.07301199436187744,-0.17814111709594727,2.9056822790294885,-0.03405997157096863
1773522682409681700,3.697681640625,0.10924451630613112,-0.4035324156284332,-0.05988212474868934,0.14661692082881927,0.6437476529431745,0.7479383588247149,1.4382447128159785,right,-0.07654702663421631,-0.30672030841819403,1.0192926322363316,-9.29323169106245,-0.15030362048956555,-0.13347987830638885,-0.10453152656555176,2.9609575915277,-0.05219481885433197
1773522682449681400,3.737681396484375,0.10862639365786853,-0.41093093156814575,-0.06089365987312112,0.3021140694618225,0.636847505295767,0.7531992969594153,1.4209423587796133,right,0.12281554937362671,-0.31312623272062456,1.011470998699963,-9.274813406318426,-0.1529969607088474,-0.15269440412521362,-0.013067372143268585,3.020785160502791,-0.034729957580566406
1773522682489681400,3.777681396484375,0.11896797667171684,-0.46163201332092285,-0.05829730722023056,0.5528177618980408,0.6284232927491074,0.7590030573288362,1.4024393362930618,right,0.12251406908035278,-0.3216705629335238,1.1042276813957839,-9.237891496634482,-0.16000008469757984,-0.2789350152015686,0.06501437723636627,3.1003909043982625,0.021441876888275146
1773522682529681400,3.817681396484375,0.13311754761925806,-0.44293612241744995,-0.056428625687561185,0.5078130960464478,0.6192634180719968,0.7643075978636399,1.3845905024884342,right,0.12162953615188599,-0.3372899591472357,1.228247225100547,-9.172222215893864,-0.17077064292038596,-0.3789917826652527,0.10745903849601746,3.24532427598983,0.031275421380996704
1773522682569681400,3.857681396484375,0.1482858046641131,-0.40401333570480347,-0.05477638742076908,0.5390441417694092,0.6106910888251,0.7686313057584495,1.369399743926635,right,0.09157824516296387,-0.3546549823849115,1.3586955597437917,-9.095424222895502,-0.1823786869897981,-0.3822720944881439,0.15466533601284027,3.4055244825571775,0.05716550350189209
1773522682609681700,3.897681640625,0.16415678508863651,-0.47305744886398315,-0.05304268101952704,0.5201865434646606,0.6016078809960428,0.7729038068768375,1.3538935632093148,right,0.009945034980773926,-0.3732635167794899,1.4922557427972554,-9.008628567495942,-0.1946130775034616,-0.4073601961135864,0.19167789816856384,3.5760555290028453,0.08788445591926575
1773522682649681700,3.937681640625,0.17783789052496884,-0.4787244498729706,-0.05285960815327424,0.3050864040851593,0.5920720819230786,0.7769799317325331,1.337959546589117,right,-0.06126672029495239,-0.3948553459462049,1.6013254815861582,-8.909285565212368,-0.20726485970618277,-0.46943947672843933,0.18279951810836792,3.772369836002588,0.07451388239860535
1773522682689681400,3.977681396484375,0.18378445554134268,-0.44322195649147034,-0.055717800692310686,0.14656049013137817,0.5835818401478952,0.7803475999869267,1.3232079430202603,right,-0.05161309242248535,-0.4167236151068541,1.638806048066169,-8.816378148934245,-0.21768173933179025,-0.43323028087615967,0.1477098912000656,3.9694048584923145,0.02719438076019287
1773522682729681400,4.017681396484375,0.18201695879916052,-0.4282706081867218,-0.060442538105537034,0.0722241923213005,0.5759237797396468,0.7836805093558513,1.3079061950616273,right,-0.02201831340789795,-0.4354875380876679,1.6094534045927225,-8.744461498236655,-0.22472926833156018,-0.3509431481361389,0.11643530428409576,4.136959811736643,-0.0249500572681427
1773522682769681400,4.057681396484375,0.17609087130467438,-0.43256324529647827,-0.06556545866703614,-0.0025391951203346252,0.5686005184513634,0.7872469649296845,1.291512714580436,right,0.04483312368392944,-0.450918727630373,1.5462367777012287,-8.689954832023382,-0.2294270569274223,-0.26735055446624756,0.08953526616096497,4.273665745469928,-0.0796470046043396
1773522682809681400,4.097681396484375,0.17204617946496584,-0.4808821976184845,-0.06868689065618355,0.058135174214839935,0.5613680003466519,0.7910373227575616,1.274961001135862,right,0.09424883127212524,-0.46245242995428154,1.5025370444454251,-8.646997149306536,-0.23325513232648154,-0.24279341101646423,0.08794116973876953,4.375180831095576,-0.08919647336006165
1773522682849681400,4.137681396484375,0.16865576572381116,-0.5686095952987671,-0.07140580176639333,0.061384160071611404,0.5529028142432691,0.7954139302750605,1.2557761919449306,right,0.08582603931427002,-0.47478905055986825,1.4640397021383047,-8.598175542992353,-0.23773150639457005,-0.3095892071723938,0.09790365397930145,4.483118350984156,-0.08790013194084167
1773522682889681700,4.177681640625,0.16112638499336568,-0.6846761703491211,-0.07634915748847428,0.09305167198181152,0.5421121945163093,0.8007120314431116,1.2308207705991618,right,0.13296890258789062,-0.4918337710453785,1.3867982031561434,-8.532284143933653,-0.2431982151494552,-0.36557576060295105,0.10961832106113434,4.631122800584137,-0.08803492784500122
1773522682929681700,4.217681640625,0.15298777819087872,-0.8099465370178223,-0.08115889472903486,0.23070789873600006,0.5287489845731461,0.8071746130408083,1.199860274784463,right,0.12592440843582153,-0.5107005801316413,1.3037632154643535,-8.455418930917977,-0.24961339320437398,-0.34730929136276245,0.0965772420167923,4.793378186115622,-0.14911741018295288
1773522682969681400,4.257681396484375,0.1442438110136188,-0.8205251693725586,-0.08556809523622672,0.07841221988201141,0.5135602812400748,0.8143560210285399,1.164489706348289,right,0.05097389221191406,-0.5300138213024715,1.216244725682959,-8.373308218464254,-0.2564336146475374,-0.41779351234436035,0.0233367457985878,4.957705409485102,-0.2317727506160736
1773522683009681400,4.297681396484375,0.12998790892608653,-0.7653942108154297,-0.09192958789072915,-0.04190446436405182,0.4994441094223011,0.8207150684317299,1.1299897067041909,right,0.05704694986343384,-0.5486421830035422,1.0845954177521169,-8.296770337706803,-0.2617850027316385,-0.3668612837791443,-0.02943342924118042,5.114454306554794,-0.31157901883125305
1773522683049681400,4.337681396484375,0.11254598147335547,-0.5646170377731323,-0.09939492436941431,-0.11932700872421265,0.4873640494553292,0.8258292663506361,1.0990160865514793,right,0.12640595436096191,-0.5653945720029648,0.9299722075995057,-8.2281246715039,-0.26571230734351564,-0.3321702480316162,-0.16681265830993652,5.2539031092554325,-0.32635289430618286
1773522683089681400,4.377681396484375,0.09443576482438328,-0.37286436557769775,-0.1085055522860952,-0.38116320967674255,0.4801847183736687,0.8277965983306907,1.0795833513365454,right,0.1229557991027832,-0.5819888867820255,0.772486447622627,-8.15568954989016,-0.26907640480028655,-0.4988641142845154,-0.21290791034698486,5.390583031764626,-0.26130709052085876
1773522683129681700,4.417681640625,0.07342861762189114,-0.26688700914382935,-0.1204204041052599,-0.09059381484985352,0.47521285734054447,0.8276298408461529,1.065274866846244,right,0.29574060440063477,-0.6026843303574311,0.59268835460525,-8.057114609369636,-0.273313768376876,-0.5156207084655762,-0.23165687918663025,5.558957484698295,-0.15553313493728638
1773522683169681700,4.457681640625,0.060984859666543545,-0.11932891607284546,-0.13139033296466404,-0.32947301864624023,0.47150374046213284,0.8251181374183026,1.0581981192438632,right,0.2132624387741089,-0.6304315089413594,0.4827951340716332,-7.906822925615311,-0.28213614884697347,-0.7175291180610657,-0.2566947340965271,5.780955391269922,-0.15504190325737
1773522683209681400,4.497681396484375,0.04611071675770336,-0.07754415273666382,-0.14396098854858774,-0.1267808973789215,0.46988987222933104,0.8210840970578664,1.0553379795102342,right,0.31972575187683105,-0.6586944712778512,0.35746279073525217,-7.746777325087785,-0.290343798458923,-0.6539080142974854,-0.21956226229667664,6.00250321598649,-0.04979419708251953
1773522683249681400,4.537681396484375,0.04109967070695922,0.010828442871570587,-0.15231810473141974,-0.1586669683456421,0.4686000615163231,0.8170019129377992,1.056145188931485,right,0.22615909576416016,-0.6843806261777292,0.3121996075550094,-7.591881362408399,-0.2995346039357706,-0.5789777636528015,-0.20734122395515442,6.199697520691156,-0.044951558113098145
1773522683289681400,4.577681396484375,0.03154923633389721,0.04107677936553955,-0.1629318203513528,-0.13688144087791443,0.4698332031995668,0.8114967036515364,1.061308116220066,right,0.451762855052948,-0.7091462506540307,0.23476444916427133,-7.4387401344418524,-0.30689251245802784,-0.5181102156639099,-0.11892326176166534,6.385954251796007,0.019773900508880615
1773522683329681400,4.617681396484375,0.03682292731487987,-0.039924830198287964,-0.165465817795703,0.2515462338924408,0.46769133330151835,0.8088913514257836,1.062481215558725,right,0.2377936840057373,-0.7278791740100224,0.2695387523602694,-7.316554601231217,-0.3155639458938229,-0.4467759132385254,-0.0957639291882515,6.524243947589397,0.08296853303909302
1773522683369681700,4.657681640625,0.03767133113786342,-0.021595489233732224,-0.1706767664568796,0.054829806089401245,0.46573484471587345,0.8053157229953399,1.0634991458563507,right,0.2487851083278656,-0.7504181413762424,0.2701382343570702,-7.167531914499402,-0.3246952718279658,-0.4906695485115051,-0.05981659144163132,6.687592681315541,0.08723902702331543
1773522683409681700,4.697681640625,0.03970857696363048,-0.1574031263589859,-0.17394098238082675,0.12131552398204803,0.46183397675088406,0.803305590307698,1.0596416390290024,right,0.03843754529953003,-0.7702352884992939,0.2794229627159424,-7.03314390231967,-0.3333976700259622,-0.515094518661499,-0.01248387061059475,6.828411018803715,0.1309623122215271
1773522683449681400,4.737681396484375,0.0390563537216655,0.012362271547317505,-0.1782018159290654,-0.00453677773475647,0.4584465877642847,0.8009783935608293,1.0559726541707986,right,0.05427122116088867,-0.7897595993542733,0.2695780249247327,-6.898774594840407,-0.3413275704612649,-0.4528583586215973,-0.016412921249866486,6.964526293167472,0.11720770597457886
1773522683489681400,4.777681396484375,0.04559389387581544,0.08229126781225204,-0.18139677893731032,0.19347450137138367,0.45693235686694966,0.7970376442232765,1.0606677127463808,right,-0.02978271245956421,-0.8109249875210722,0.3078844477696344,-6.74807666837275,-0.3507692079988612,-0.46005168557167053,0.0027483105659484863,7.109082063618302,0.1414991021156311
1773522683529681400,4.817681396484375,0.05901626047427052,0.1657467782497406,-0.18260290260874756,0.1502280831336975,0.4562529847017598,0.7926562489927022,1.0706145594118388,right,-0.11004948616027832,-0.8310304273569673,0.38991880705151705,-6.599301234400272,-0.3608122384312757,-0.44549325108528137,-0.01339631900191307,7.243450786575675,0.22955209016799927
1773522683569681400,4.857681396484375,0.07191979164429986,0.0794118270277977,-0.18348796030712788,0.18059049546718597,0.455971095856318,0.7886189345857396,1.0809366811455998,right,-0.15160560607910156,-0.8481543575665236,0.4660561076514423,-6.469044038414955,-0.3694627374019659,-0.400739848613739,-0.004078753292560577,7.355586050415039,0.29510653018951416
1773522683609681700,4.897681640625,0.08253154961020227,0.059029292315244675,-0.1839844568392093,0.16099493205547333,0.45411922480509226,0.785832336149378,1.0860430533593073,right,-0.2199445366859436,-0.863573935000084,0.525263206640631,-6.349936597475409,-0.3773500414525602,-0.375609427690506,-0.025854716077446938,7.454716286730766,0.2789335250854492
1773522683649681700,4.937681640625,0.09078177483263226,0.009822562336921692,-0.18514056655400687,0.1125161200761795,0.452038415855601,0.7831723034160265,1.0896541156458692,right,-0.22278648614883423,-0.8788692089149216,0.5672291018411517,-6.23109686756134,-0.38474075372141336,-0.32432258129119873,-0.022937975823879242,7.551296254041791,0.2437489628791809
1773522683689681400,4.977681396484375,0.09724878639908349,-0.004198754206299782,-0.18558106071533165,0.12079587578773499,0.45015263097141534,0.781501525758336,1.0915672338384652,right,-0.21579396724700928,-0.8895785286321626,0.5996267755663022,-6.146455175325274,-0.3900995543786863,-0.2875209450721741,-0.037090349942445755,7.617868621101975,0.24572259187698364
1773522683729681400,5.017681396484375,0.10085719155803094,-0.07315695285797119,-0.18650196717410486,0.06394681334495544,0.44772504838112076,0.7802545268197844,1.0906394417468819,right,-0.20982736349105835,-0.899924736275424,0.6138328859753907,-6.065508245953917,-0.39492043749295364,-0.26251810789108276,-0.02706720679998398,7.681354128062725,0.22511255741119385
1773522683769681400,5.057681396484375,0.09733159162130221,-0.14265525341033936,-0.18919799716180802,0.042658448219299316,0.44489682861583063,0.7794113937431948,1.0850088644200335,right,-0.12509804964065552,-0.9100129746948474,0.5848840740624814,-5.9902025373399255,-0.3984830924581431,-0.17755211889743805,-0.0028460659086704254,7.7424647225856775,0.18541288375854492
1773522683809681400,5.097681396484375,0.09362208614551518,-0.10280519723892212,-0.19049336673592196,0.12644460797309875,0.44186782723071055,0.7797385194324826,1.0772956604613133,right,-0.07107430696487427,-0.915812568984634,0.5584521768739447,-5.947524256086349,-0.40059072777937016,-0.06527061015367508,-0.009010706096887589,7.777240267890691,0.14158302545547485
1773522683849681400,5.137681396484375,0.09738211771491058,-0.04685152322053909,-0.18884755568584466,0.2490299940109253,0.43931052020242684,0.7804936997223061,1.0735001894326615,right,-0.04637092351913452,-0.9182575918869463,0.5789604196345434,-5.926438797959685,-0.40270625583919084,-0.050084300339221954,-0.007051810622215271,7.791822919994592,0.15234601497650146
1773522683889681700,5.177681640625,0.1079548388156451,-0.048688873648643494,-0.1842932517416287,0.3110774755477905,0.4362670973269036,0.7819516748308546,1.0712261215726961,right,-0.10137069225311279,-0.9184040323219049,0.6414625781137496,-5.918852288353443,-0.4052882001712823,0.06548553705215454,-0.021721292287111282,7.7926950266540045,0.14347493648529053
1773522683929681700,5.217681640625,0.1145402401898568,-0.056464266031980515,-0.1803990058968275,0.2683182954788208,0.43335912649033403,0.7838351678558177,1.0666539670491038,right,-0.09116041660308838,-0.9167757219375319,0.6818756178490817,-5.927096969607472,-0.40651980809409427,0.08597991615533829,0.007567256689071655,7.7829902097195385,0.1364530324935913
1773522683969681400,5.257681396484375,0.12315575164990054,-0.026888182386755943,-0.17454620362919496,0.32700783014297485,0.43094608286871255,0.7866907272637769,1.0625998977909505,right,-0.12604904174804688,-0.9098766120966186,0.7394934748854488,-5.974150397205352,-0.4061240187959594,0.20211419463157654,0.021175220608711243,7.741644053852558,0.1573811173439026
1773522684009681400,5.297681396484375,0.12844874306447573,-0.16147799789905548,-0.1698379421900965,0.19685222208499908,0.4283975842585343,0.7894497836107291,1.056787459515175,right,-0.17882901430130005,-0.9038275485758882,0.7770886807210743,-6.0164873176753515,-0.40546219230485303,0.1647990345954895,0.08958945423364639,7.705089223915338,0.21896779537200928
1773522684049681400,5.337681396484375,0.11442273067388152,-0.37752676010131836,-0.17009329687642383,-0.18681900203227997,0.4236437376190625,0.7934948877331666,1.0360484386081945,right,-0.21447503566741943,-0.8991373208121585,0.6967461469836532,-6.06263064469099,-0.402442698773179,0.1518915295600891,0.09155683219432831,7.67655111169517,0.13453078269958496
1773522684089681400,5.377681396484375,0.08167792274841441,-0.4555535316467285,-0.17618600195607279,-0.22650876641273499,0.4205189746984547,0.7975310449964274,1.0095274336560345,right,0.006475508213043213,-0.8919739594705851,0.5023621139267459,-6.136842128327489,-0.3950526796234073,0.3102281093597412,0.173823744058609,7.632640073776245,-0.0013377070426940918
1773522684129681700,5.417681640625,0.05612246515975598,-0.23799064755439758,-0.17904851255688545,-0.10066261887550354,0.4170029651904773,0.8024840176957951,0.9849170427855928,right,0.0741187334060669,-0.8805251869350383,0.3502642575332895,-6.234517489659786,-0.3873883224079487,0.29813119769096375,0.09414210170507431,7.561646967664361,-0.06727147102355957
1773522684169681700,5.457681640625,0.04201309969480722,-0.1315748244524002,-0.18048923027330524,-0.15909254550933838,0.41628053010470956,0.8052832933744186,0.9737593624088974,right,0.030635535717010498,-0.8709379814530627,0.2652999822793528,-6.310981720659137,-0.3816452770045612,0.18801581859588623,0.002173088490962982,7.5014347832858554,-0.013395071029663086
1773522684209681400,5.497681396484375,0.028073999382904752,-0.3075101375579834,-0.18341433456475636,-0.23720639944076538,0.4156676764802427,0.8067343538153875,0.9645293372098456,right,-0.09490716457366943,-0.866556101440141,0.17822861521095038,-6.346862596857547,-0.3778349515661952,0.0972675085067749,-0.0386364720761776,7.473684022051096,0.11328113079071045
1773522684249681400,5.537681396484375,-0.006749581552777363,-0.33802539110183716,-0.1933140391114362,-0.44185927510261536,0.41396463165454184,0.8079943535914111,0.9438184353226905,right,0.04797828197479248,-0.8652393914291662,-0.04292164328908547,-6.35905513895452,-0.37203240842253,0.037154749035835266,-0.04746183753013611,7.465317175722122,0.03478163480758667
1773522684289681400,5.577681396484375,-0.03949233303488095,-0.47773295640945435,-0.20121645380582046,-0.33902913331985474,0.4094733363394042,0.8106460354354161,0.9172837321575031,right,0.03701430559158325,-0.8630307093353504,-0.2517247719186358,-6.370701737606525,-0.3670102957309037,0.017074095085263252,-0.08881951123476028,7.451253579056263,0.002785921096801758
1773522684329681400,5.617681396484375,-0.07297767572277136,-0.5779497027397156,-0.20829013077082556,-0.11626097559928894,0.40261131771170894,0.81442577745696,0.8847580402191915,right,0.04524385929107666,-0.8599083531367052,-0.46656303426027296,-6.381875458049774,-0.3622569755072016,0.014035617932677269,-0.06337670981884003,7.431310276702046,0.025469839572906494
1773522684369681700,5.657681640625,-0.10966913323839493,-0.5768721699714661,-0.2161643253146729,-0.22332634031772614,0.39361895930853347,0.8183764726319044,0.8463619115784329,right,0.019940674304962158,-0.8588921129747783,-0.7011828873220831,-6.3679679287284605,-0.35860422252650925,0.04656309634447098,-0.06509984284639359,7.424803963547944,-0.03816944360733032
1773522684409681700,5.697681640625,-0.14532939740014894,-0.5753333568572998,-0.22423437428190762,-0.19026151299476624,0.38563415940085527,0.8216308855223792,0.811153799285209,right,0.018168270587921143,-0.8573000809695032,-0.9294831819735467,-6.350608797648548,-0.3548633674410888,-0.005250189453363419,-0.03610267490148544,7.414595288744568,-0.026241779327392578
1773522684449681400,5.737681396484375,-0.17846223523146515,-0.4119955897331238,-0.23163835058545748,-0.1889428049325943,0.3782812526199842,0.8247039646382381,0.7787283080448619,right,0.04729253053665161,-0.854096603614181,-1.1435586249828338,-6.339674146658182,-0.35087068624582635,-0.01925281435251236,-0.04634135961532593,7.393996152830123,-0.08270066976547241
1773522684489681400,5.777681396484375,-0.20102806382689367,-0.2831425666809082,-0.2366523455356791,-0.07258587330579758,0.37301728333578527,0.82679387470359,0.7562090516890021,right,0.07352268695831299,-0.8516724903218508,-1.2898906113259494,-6.329801571941375,-0.34823210286432393,0.019584253430366516,-0.03293231129646301,7.378358438715338,-0.09050267934799194
1773522684529681400,5.817681396484375,-0.21103616212286339,-0.1364360749721527,-0.23810534102242345,0.04838232696056366,0.370063250076467,0.8287169422917136,0.7445311391290621,right,0.04271543025970459,-0.8471429832663958,-1.3601611022517084,-6.34918957850039,-0.3458139062128419,0.12612846493721008,-0.009402751922607422,7.349022454115748,-0.11176472902297974
1773522684569681400,5.857681396484375,-0.21364241818616173,-0.052930861711502075,-0.2379464372014555,-0.016910679638385773,0.3681906094117534,0.8298248436804537,0.738807304062326,right,-0.04801797866821289,-0.845402596320011,-1.3794137919932603,-6.358113474190235,-0.3452650184224456,-0.08392541110515594,-0.006739914417266846,7.337710786506533,-0.05048626661300659
1773522684609681700,5.897681640625,-0.21602344359038192,0.07527236640453339,-0.24002713464324552,-0.11041119694709778,0.3686554115692985,0.8279865932511222,0.739407468805683,right,0.024364173412322998,-0.8523226633972822,-1.3836312635578214,-6.305061098438501,-0.3477331012616491,-0.19743627309799194,0.01840541511774063,7.382557059448957,0.024040579795837402
1773522684649681700,5.937681640625,-0.20839628485942757,0.10497897118330002,-0.23807555865762053,0.17589303851127625,0.3694911854001044,0.8275148407374259,0.744773076117835,right,0.022135496139526367,-0.8542026788201889,-1.3326280754208564,-6.301841551870107,-0.34930722097005235,-0.04791295528411865,-0.018665805459022522,7.394679458919167,-0.02763420343399048
1773522684689681400,5.977681396484375,-0.20114405612690256,-0.008536607027053833,-0.23575558492939228,0.05668255686759949,0.36914101688328366,0.8275533515415968,0.7471374366611726,right,0.014015614986419678,-0.8560396066967653,-1.2841748640276491,-6.298019363233447,-0.3511547645897766,-0.034105084836483,-0.04485504329204559,7.40649907605052,-0.03264617919921875
1773522684729681400,6.017681396484375,-0.20087058115427073,-0.13041454553604126,-0.23489099517841214,0.14721593260765076,0.36686574105582814,0.8283015851226259,0.7418539578212302,right,0.039125680923461914,-0.8572648274833339,-1.2806409908130765,-6.289474237728118,-0.3523525089010641,-0.03815556690096855,0.0005993545055389404,7.41436849425137,-0.01637864112854004
1773522684769681400,6.057681396484375,-0.20315245547383326,-0.1531052142381668,-0.23393011391810817,0.1261475831270218,0.36285851363287425,0.8300187400764659,0.7312024021542735,right,0.03676486015319824,-0.857066919711479,-1.2952854561068117,-6.2879726009935135,-0.3530996103804149,-0.03915781527757645,0.012985602021217346,7.413098328185081,-0.015900015830993652
1773522684809681400,6.097681396484375,-0.20504479361537034,-0.08834917098283768,-0.23326238085101178,0.13429497182369232,0.3598304264203825,0.8312940445763146,0.7230955208450633,right,0.03729259967803955,-0.8569156937231194,-1.307410339795053,-6.286607157859206,-0.3536395120054546,-0.02500961534678936,0.013811476528644562,7.412127437326312,-0.031725525856018066
1773522684849681400,6.137681396484375,-0.20222384554933986,0.005274049937725067,-0.23185706437815187,0.07829784601926804,0.3581431471342068,0.8317354476828627,0.7203681388437297,right,0.0035786032676696777,-0.8587082926946566,-1.2870001505814492,-6.277244286230206,-0.3552350310760432,-0.04978426918387413,-0.03587619960308075,7.423626151940226,-0.05578804016113281
1773522684889681700,6.177681640625,-0.19977722032003217,0.007725370116531849,-0.231381569466632,0.02065122500061989,0.3582287184268419,0.8313293040041453,0.7217736549996108,right,0.020676016807556152,-0.8607922881914428,-1.2685653530940413,-6.265197874605655,-0.3564076199628373,-0.029034119099378586,-0.044088974595069885,7.4369637724190945,-0.0228041410446167
1773522684929681700,6.217681640625,-0.19916796609195178,-0.006756202317774296,-0.2310466727873511,0.06818108260631561,0.35793166447517233,0.8314820988963137,0.7213199017436858,right,0.058360934257507324,-0.8607869211235886,-1.2647560239389537,-6.2660086064666505,-0.3565668494158728,0.012354984879493713,-0.029238730669021606,7.4369292856276035,-0.037595510482788086
1773522684969681400,6.257681396484375,-0.19595982831659023,0.027917981147766113,-0.22933427765026682,0.13388589024543762,0.3574150150562483,0.8324104019482257,0.7212558860697139,right,0.07424861192703247,-0.8581761781451533,-1.2484233132973312,-6.2890563045769925,-0.3560241098864102,0.0915541872382164,-0.023727476596832275,7.420215466713905,-0.06373268365859985
1773522685009681400,6.297681396484375,-0.1863179337359581,0.06171828508377075,-0.225446527898831,0.19848501682281494,0.3578317590383359,0.8337081121378473,0.7259800155536731,right,0.09458744525909424,-0.8531587390469861,-1.1946095977842808,-6.33730800204873,-0.35505082911916114,0.1767200231552124,-0.0205223485827446,7.387951027446984,-0.04137730598449707
1773522685049681400,6.337681396484375,-0.17469918292785946,0.02414419874548912,-0.2203475627225126,0.2216663360595703,0.3577981665292378,0.8356799093283841,0.7302512574981216,right,0.06157660484313965,-0.8461772946287145,-1.129836535231024,-6.401397904643416,-0.35364742315530384,0.18431685864925385,-0.015463314950466156,7.342748780673742,-0.06003284454345703
1773522685089681400,6.377681396484375,-0.16237255034752257,0.07632195949554443,-0.21513509300049238,0.19825948774814606,0.3581816465735877,0.8374638113871236,0.7357475814730164,right,0.021169424057006836,-0.8391885100986906,-1.059115231797844,-6.46532297206521,-0.352245878444242,0.18446168303489685,-0.01428406685590744,7.297140291187167,-0.05266672372817993
1773522685129681700,6.417681640625,-0.15151625652320583,0.05027419328689575,-0.21051577862291387,0.20236720144748688,0.3580963594334321,0.838940377326421,0.7396265104761013,right,-0.02793210744857788,-0.8341541112165344,-0.9943971143022179,-6.512673336783051,-0.35160939501827165,0.07461857050657272,0.022693991661071777,7.264065120059251,-0.034576356410980225
1773522685169681700,6.457681640625,-0.1425986381953846,-0.013721227645874023,-0.20642673969499362,0.1804654896259308,0.3571836442348792,0.8403912519850035,0.7408221696605982,right,-0.06939148902893066,-0.8304799697135807,-0.9400674851562827,-6.547656387358903,-0.35149740928693174,0.04328722879290581,0.03630327433347702,7.239810384246707,0.01488792896270752
1773522685209681400,6.497681396484375,-0.13547644092435573,-0.0032170452177524567,-0.20286410998180202,0.13333959877490997,0.35545958584904763,0.841792334427141,0.7394780714955052,right,-0.09276074171066284,-0.8283028800926342,-0.8955369270995259,-6.569786970624327,-0.3519662478510603,0.0059911757707595825,0.025303319096565247,7.225392567315697,-0.009291470050811768
1773522685249681400,6.537681396484375,-0.13456936298338443,-0.11274246871471405,-0.20171203859639192,-0.016596004366874695,0.35415130932467975,0.8427370164585065,0.7365742127818183,right,-0.042826175689697266,-0.8265985123153314,-0.8912281970549374,-6.582790244582295,-0.3516864385034235,0.005150314420461655,0.03843419998884201,7.214080899706483,0.02740180492401123
1773522685289681400,6.577681396484375,-0.13624454101505948,-0.07310981303453445,-0.2013425773894206,0.027799390256404877,0.3525803983089055,0.8437306853800413,0.7319706676337339,right,-0.02212470769882202,-0.8248348879548405,-0.9039809303179382,-6.593882716482877,-0.3510935730482843,-0.012524949386715889,0.04594670236110687,7.2023542215555905,0.020345687866210938
1773522685329681400,6.617681396484375,-0.1369321564128287,-0.06427676975727081,-0.20086743083501984,0.02715299092233181,0.3511116975946959,0.844457851087235,0.7281427534601188,right,-0.02535998821258545,-0.8242140756721786,-0.909125015208125,-6.597688538506627,-0.3510894303311703,-0.00045124534517526627,0.03987773880362511,7.198221067273616,0.022204220294952393
1773522685369681700,6.657681640625,-0.13512687186708483,-0.08879953622817993,-0.1994587612348924,0.12047984451055527,0.3492083011032152,0.845278211322409,0.7243961458395412,right,-0.08618175983428955,-0.824296540987928,-0.8971328910540789,-6.598730741035938,-0.35181609158814586,-0.04308491572737694,0.03289242833852768,7.198769933328032,0.05592995882034302
1773522685409681700,6.697681640625,-0.13473676357188447,-0.010676868259906769,-0.19894083268737978,0.0014601871371269226,0.34752619242076793,0.8455682371626857,0.7207695491484359,right,-0.12227016687393188,-0.826217735155566,-0.8926991463903338,-6.585363309940695,-0.3530757268589373,-0.05219793692231178,-0.021945469081401825,7.211551088967919,0.06482470035552979
1773522685449681400,6.737681396484375,-0.1340355658245809,0.022785883396863937,-0.19896196034070915,-0.009925618767738342,0.3479300503776119,0.845295053208665,0.7220759188034457,right,-0.0983765721321106,-0.826802141240956,-0.8875179443601519,-6.581810001373291,-0.3533202709754131,0.012538637965917587,-0.019933298230171204,7.2154334833592175,0.10603779554367065
1773522685489681400,6.777681396484375,-0.13088239853626163,0.03170032799243927,-0.19753236896041146,0.08759081363677979,0.34832380540416547,0.8458521994983513,0.7240266556596948,right,-0.08601522445678711,-0.8238489785484657,-0.8695370281200856,-6.605671938475966,-0.3523995147571859,0.1031610369682312,-0.01856454461812973,7.19578887169063,0.10242867469787598
1773522685529681400,6.817681396484375,-0.1265029476846275,0.04510429874062538,-0.19589157336313495,-0.018496379256248474,0.34918462787303045,0.8462062514251736,0.7276001155554443,right,-0.07964783906936646,-0.8210744780909645,-0.8431152504667639,-6.629196606448293,-0.3516127338769161,0.06726820766925812,-0.028150826692581177,7.177275894400477,0.09217417240142822
1773522685569681400,6.857681396484375,-0.12665826207206615,-0.02629312500357628,-0.19558789971132023,-0.0002934485673904419,0.34993463710388045,0.8467379986636703,0.7289004609876341,right,-0.004267752170562744,-0.8171246533382905,-0.8477193101961166,-6.657136168253421,-0.349751178678448,0.12971822917461395,0.003102123737335205,7.15082452532649,0.05196326971054077
1773522685609681700,6.897681640625,-0.12748014527096319,-0.07925665378570557,-0.1946396227519127,0.052562836557626724,0.34921972100818105,0.8481998938886021,0.726307741524686,right,0.010249435901641846,-0.811541870432121,-0.8582525407787411,-6.69593088607192,-0.34744489181511534,0.12929919362068176,0.016799740493297577,7.113247951126098,-0.006203174591064453
1773522685649681700,6.937681640625,-0.1284233803707745,-0.036187104880809784,-0.1940062215294504,0.03975644335150719,0.3484493577461585,0.8493127669458539,0.723721333300351,right,0.03458648920059204,-0.8076620147105783,-0.8680960355315357,-6.722439538291097,-0.34585048958889447,0.1171911433339119,0.018270976841449738,7.087002918279171,-0.007046043872833252
1773522685689681400,6.977681396484375,-0.12481531880986496,0.027067184448242188,-0.19223655651379884,0.02392624318599701,0.348364107029654,0.8500114400581281,0.7247190755558933,right,-0.004499673843383789,-0.8049516917191298,-0.8462235917456448,-6.744561353728175,-0.34520742827231565,0.05456007272005081,-0.013648651540279388,7.068605676323175,0.004041135311126709
1773522685729681400,7.017681396484375,-0.12072479476378763,0.16535504162311554,-0.19110262656819033,0.01661616563796997,0.3499465802940985,0.8498651697903356,0.7299091757469456,right,0.01461714506149292,-0.8030416749390651,-0.8202523343387991,-6.761357590228319,-0.3445961336422502,0.09927482903003693,-0.04600922763347626,7.055609416627884,-0.021408259868621826
1773522685769681400,7.057681396484375,-0.11090878875235777,0.24051211774349213,-0.18886059160470559,0.040457531809806824,0.3534159995215671,0.8488643336142778,0.741958670806862,right,0.00007718801498413086,-0.8020729390298083,-0.7546005161896348,-6.775873022314905,-0.34475831204525575,0.011169590055942535,-0.05197492986917496,7.049007826405763,0.021202921867370605
1773522685809681400,7.097681396484375,-0.10200292576513673,0.2269006371498108,-0.1873358684611678,0.007728125900030136,0.3571669856994206,0.8473678820108634,0.7544921802868693,right,-0.0031546950340270996,-0.8026373876441475,-0.6938211263824254,-6.778365423652529,-0.3454052938893148,0.015582896769046783,-0.052971601486206055,7.052855149483681,0.016771912574768066
1773522685849681400,7.137681396484375,-0.09916507686826576,0.08328087627887726,-0.18717545026036128,-0.0027517490088939667,0.3594529470493074,0.8465641132088032,0.7609876015115487,right,-0.013111770153045654,-0.8021408410875618,-0.674929013581574,-6.7837909558326,-0.3450916715447261,0.024392610415816307,-0.024593651294708252,7.049470767742395,0.03202807903289795
1773522685889681700,7.177681640625,-0.09791635594251309,0.053954169154167175,-0.1870396473098193,0.022920435294508934,0.3601823738734084,0.8462706107183539,0.7632250922939133,right,-0.06779944896697998,-0.8021810558667881,-0.6664296269141137,-6.784345667105913,-0.34512433964197076,0.007634066045284271,-0.016625143587589264,7.049744908508658,0.02738898992538452
1773522685929681700,7.217681640625,-0.09556811925231508,0.12720316648483276,-0.18624518031813114,0.02529950812458992,0.3611601514023586,0.8463183300397886,0.766249381675816,right,-0.08323860168457031,-0.8002029571344645,-0.6518260050874203,-6.799760678380728,-0.3444146144457264,0.13992050290107727,-0.04476166516542435,7.036246544510126,-0.02409309148788452
1773522685969681400,7.257681396484375,-0.08420290855223893,0.19333010911941528,-0.18196020752825262,0.14796362817287445,0.3644966241858721,0.8469145838477059,0.7776408793163042,right,-0.047012150287628174,-0.7915634551225792,-0.5795959775917232,-6.867049084755778,-0.34171395948383815,0.31719648838043213,-0.0840417668223381,6.97696901063323,0.06177431344985962
1773522686009681400,7.297681396484375,-0.06430670733257686,0.25851601362228394,-0.17344703122404942,0.35638749599456787,0.3683076365020063,0.8487579553300573,0.7925325840757728,right,-0.046605706214904785,-0.7762358627357385,-0.4496820420861244,-6.983128117784857,-0.33745470734228106,0.49816781282424927,-0.08087404072284698,6.870524067389964,0.07383596897125244
1773522686049681400,7.337681396484375,-0.039364881512763086,0.23819108307361603,-0.16123667881606116,0.376422643661499,0.37180324066238,0.8521937008513089,0.807218814572185,right,-0.07282865047454834,-0.7531934739950191,-0.28154497810490425,-7.148491113942861,-0.33095484612320925,0.6679116487503052,-0.10031849145889282,6.707472855305672,0.10374069213867188
1773522686089681400,7.377681396484375,-0.016576989104837906,0.12708857655525208,-0.1481909455713975,0.41338109970092773,0.37442605413736474,0.8566494749633876,0.8178275523847371,right,-0.06667029857635498,-0.7254678378632781,-0.12162361587840131,-7.336220840209722,-0.32248455207136095,0.7427544593811035,-0.07246645539999008,6.506570343732833,0.12113046646118164
1773522686129681700,7.417681640625,0.002977686532075856,0.11790826171636581,-0.13530942821647643,0.3879372179508209,0.37629031245975403,0.8615292323045775,0.8246750481851869,right,-0.057256877422332764,-0.6956186040640593,0.02241640761961462,-7.528114115896821,-0.3128327884053199,0.7434355020523071,-0.044572699815034866,6.284694017714262,0.11441290378570557
1773522686169681700,7.457681640625,0.018764148188859787,-0.00042209774255752563,-0.12357118414223511,0.327666312456131,0.37633548703101416,0.8664041817174216,0.826069261029969,right,-0.12744879722595215,-0.6685727984785639,0.14438816793211734,-7.693993829405307,-0.30404876331459235,0.5974387526512146,-0.008037018589675426,6.078815471294522,0.12852263450622559
1773522686209681400,7.497681396484375,0.030842400638028653,-0.03265839070081711,-0.11391794570390402,0.309857040643692,0.3757824649340263,0.8705200060569339,0.8253498872706936,right,-0.18018245697021484,-0.646138762702671,0.24145068546254186,-7.8260490147233,-0.2966567666734733,0.5258251428604126,0.03738373890519142,5.904663019481301,0.17942893505096436
1773522686249681400,7.537681396484375,0.04281287797420048,0.014706037938594818,-0.1046374069613573,0.4589020609855652,0.37416915429031106,0.8743408092083826,0.8226091352103667,right,-0.20053333044052124,-0.6271711719797937,0.33984559324104335,-7.933079064378142,-0.29082049436156826,0.4533821940422058,0.0745740532875061,5.755097896435856,0.17547649145126343
1773522686289681400,7.577681396484375,0.05706450627938971,-0.022884640842676163,-0.09497601157794114,0.3022075891494751,0.37222447314884083,0.8776364197986005,0.8202616296497443,right,-0.28557831048965454,-0.6112579789575637,0.45803219300862397,-8.017855196648835,-0.28667526974086704,0.35012856125831604,0.03234266862273216,5.628018161442876,0.21081864833831787
1773522686329681400,7.617681396484375,0.07450063555190517,-0.10295851528644562,-0.08380541073468394,0.43016892671585083,0.3705453343579535,0.8808489432780487,0.8192037331276459,right,-0.3602244257926941,-0.5940226067848016,0.6048867053885012,-8.104188495233654,-0.28245004781537425,0.4641171097755432,0.04172927886247635,5.488772772359848,0.30967581272125244
1773522686369681700,7.657681640625,0.08797463505425983,-0.04193297401070595,-0.07236589066559189,0.5236395001411438,0.36764420460723835,0.8854657520636843,0.8128886700480039,right,-0.24880492687225342,-0.5704121409771794,0.7252103902500122,-8.222125723350048,-0.27486618371200283,0.8021489381790161,0.01871221512556076,5.2953848742008205,0.2578645944595337
1773522686409681700,7.697681640625,0.10416773622043939,-0.1590360403060913,-0.05655073371156939,0.39577293395996094,0.36324795847792496,0.8922704334132734,0.8017413684586665,right,-0.31788814067840576,-0.5338442045876445,0.8778077205982059,-8.39636585344672,-0.26211925774813405,1.0094349384307861,-0.02283906191587448,4.9900785698235035,0.2594115138053894
1773522686449681400,7.737681396484375,0.11800324541384037,-0.2939336895942688,-0.03940850450064212,0.5158865451812744,0.35867222027729156,0.9001524167721907,0.7876658441690032,right,-0.28395241498947144,-0.48647256487603646,1.0205924627885221,-8.608669464477897,-0.24398152744038787,1.3544042110443115,0.017818696796894073,4.584712639325857,0.3798797130584717
1773522686489681400,7.777681396484375,0.1252070918569514,-0.23316918313503265,-0.02309792025814704,0.45783528685569763,0.3528320940319189,0.9090742815186094,0.7678328252262094,right,-0.18639540672302246,-0.4300902511588057,1.1131246890787034,-8.84376358398795,-0.22036343395907032,1.6589089632034302,0.02860388159751892,4.088910651099682,0.31755009293556213
1773522686529681400,7.817681396484375,0.1347181839981336,-0.1640043407678604,-0.002979733166633977,0.33711349964141846,0.34749582507931764,0.9184385341754232,0.7477379373159978,right,-0.15772849321365356,-0.35669554477176707,1.2342350673384963,-9.106115128257871,-0.1889668082569286,2.035766839981079,-0.05418124049901962,3.4242829590409993,0.32199007272720337
1773522686569681400,7.857681396484375,0.1464704207028206,0.07595285773277283,0.019608706486134848,0.5293756127357483,0.3443219243878213,0.9263435004858596,0.7317098834179003,right,0.0013872981071472168,-0.27042203640625545,1.3792394583396612,-9.349069313618541,-0.1514781365038151,2.2836556434631348,-0.03665758669376373,2.6197303712025284,0.3329685628414154
1773522686609681700,7.897681640625,0.16157898507605278,0.20721876621246338,0.04273675876421798,0.30055880546569824,0.34554297272076623,0.930495535880615,0.7260211440595882,right,-0.006660163402557373,-0.18328115616013263,1.5512383853808045,-9.516800792473553,-0.11380577008779058,2.0019538402557373,-0.028359755873680115,1.7873280917994676,0.3600444197654724
1773522686649681700,7.937681640625,0.16642393660024662,0.18639209866523743,0.059169985682389445,-0.06474724411964417,0.34696270632737375,0.93272668530991,0.7210422346076385,right,0.0041016340255737305,-0.10527100124101897,1.6155447072051465,-9.617617958962917,-0.07833818455539189,1.7782670259475708,-0.007021293044090271,1.0304501321971415,0.26099616289138794
1773522686689681400,7.977681396484375,0.1577098238471738,0.24272029101848602,0.06718391027336121,-0.22661711275577545,0.34927857090974895,0.9335179204024745,0.7190036570089742,right,0.31214451789855957,-0.03730133290062616,1.5391303066968918,-9.678208329004049,-0.04511133738571889,1.7347080707550049,0.07250958681106567,0.36571623981762674,0.12867854535579681
1773522686729681400,8.017681396484376,0.15038375714833457,0.21053262054920197,0.075959763332786,-0.21821559965610504,0.35107994436872825,0.9331902881641971,0.7172477917601997,right,0.3548814058303833,0.03215595173669493,1.468448896882683,-9.690956166896223,-0.011351108549977841,1.5872766971588135,0.03377756476402283,-0.31528789242655036,0.08356329798698425
1773522686769681400,8.057681396484375,0.13621801517934548,0.44171851873397827,0.07912461956126485,-0.4448222219944,0.3553909671682783,0.9312073475329674,0.7231586730321216,right,0.5908946394920349,0.08803689182092858,1.3265576694659889,-9.678180856475233,0.017011712938887213,1.2497895956039429,-0.10026346147060394,-0.8622322580646723,0.10168038308620453
1773522686809681400,8.097681396484376,0.12119834034565952,0.5544736981391907,0.0807312662570771,-0.25677961111068726,0.36355917771802126,0.9271545758858799,0.7391695030489234,right,0.621708869934082,0.13537880911555183,1.174793794267252,-9.64564286096394,0.041128243460725245,0.8913869261741638,-0.11121643334627151,-1.3235611179985105,0.2230335772037506
1773522686849681400,8.137681396484375,0.11150749549572231,0.34899672865867615,0.08324949743001785,-0.1619332879781723,0.3705473211080673,0.9231612340189838,0.7537638753464191,right,0.6232516765594482,0.172360625266064,1.0750807896275072,-9.601339608857035,0.05947645506606295,1.0689036846160889,-0.09962263703346252,-1.6819235975198448,0.09045377373695374
1773522686889681700,8.177681640625,0.10916264629127978,0.266129732131958,0.09160758829470762,0.08767002820968628,0.3727284459966275,0.9196229013105744,0.7578673121323635,right,0.4443376064300537,0.2237620074080268,1.0417594617187975,-9.505248886367678,0.08351787200787684,1.3179261684417725,-0.07301951199769974,-2.176089801237732,-0.13999705016613007
1773522686929681700,8.217681640625,0.10844471693817578,0.2706696093082428,0.10127833903900818,-0.02002229541540146,0.376258441998523,0.914626117322043,0.7654229292609986,right,0.44571709632873535,0.2770257049649139,1.0209284167446195,-9.37734205290079,0.10784860837341352,1.2814961671829224,-0.06961941719055176,-2.6820792753487823,-0.16059404611587524
1773522686969681400,8.257681396484376,0.10972050369547286,0.38978683948516846,0.11212326718518596,0.32866623997688293,0.3790096754166658,0.9089942763562996,0.771695497665562,right,0.4925275444984436,0.3315971743892004,1.0153343961298464,-9.216661077079177,0.1323231669855003,1.4366819858551025,-0.03613270819187164,-3.1925904646679757,-0.3845139443874359
1773522687009681400,8.297681396484375,0.12216303643626357,0.5124047994613647,0.12938529121062659,0.4659149646759033,0.38565490578560163,0.9001289370708242,0.7853955197693585,right,0.33598339557647705,0.3902446770355083,1.1051852013163268,-9.001756343638897,0.15587687030530886,1.4133821725845337,-0.04224278777837753,-3.7305940565466877,-0.2697233557701111
1773522687049681400,8.337681396484374,0.13534616605616995,0.5572539567947388,0.1485791525471479,0.47008949518203735,0.3927531061227501,0.8890974442549592,0.800464686511795,right,0.19240128993988037,0.4562555768679723,1.1878872307267039,-8.723002530622482,0.18213974049441664,1.6631338596343994,0.03118482232093811,-4.320710112978518,-0.19140323996543884
1773522687089681400,8.377681396484375,0.1459257173182166,0.43346986174583435,0.1662819824926929,0.2629629671573639,0.39844334623344513,0.8776815514049358,0.8133529715935413,right,0.08791828155517578,0.5208772372607977,1.2368611780583858,-8.415715281561017,0.20801014345714008,1.3933968544006348,0.09447290003299713,-4.880193422998488,-0.013868659734725952
1773522687129681700,8.417681640625,0.14837126925325597,0.4391349256038666,0.17827705819968315,0.25914913415908813,0.4024394889037812,0.8678937330964637,0.8244887003822505,right,0.1226656436920166,0.5742148974985725,1.2171893130566924,-8.143385364112257,0.23026109047543025,1.176938533782959,0.16286727786064148,-5.326734536710381,-0.028928637504577637
1773522687169681700,8.457681640625,0.15137261317665768,0.5063607692718506,0.1872854789244487,0.10880540311336517,0.4101932302113549,0.8593816016138616,0.8434177048066352,right,-0.2587333917617798,0.6041215867518475,1.2170508544340728,-7.978596368449926,0.24109946516182468,0.1659865379333496,0.06326767057180405,-5.570563166818022,0.0849301815032959
1773522687209681400,8.497681396484374,0.1325345753305146,0.2988189458847046,0.18208275987046513,-0.3475028872489929,0.4156926604568821,0.8568075682669705,0.8618152749311515,right,-0.1578550934791565,0.6075669060224252,1.0640002273604272,-7.981034409251809,0.24479857994336637,0.009578362107276917,0.1832435131072998,-5.59833672440648,0.13259530067443848
1773522687249681400,8.537681396484375,0.11055590875406945,0.16729682683944702,0.1748389965859883,-0.427761971950531,0.41766538029519684,0.8558209644927878,0.8731168647078946,right,-0.03139692544937134,0.611572756166229,0.885863455151394,-7.98013716815114,0.25011508440114777,0.16727370023727417,0.12931609153747559,-5.63054563409388,0.12636160850524902
1773522687289681400,8.577681396484374,0.094557747296006,0.14515195786952972,0.17146891122410302,-0.2267918586730957,0.4165132424177763,0.854159864543397,0.8767263010810973,right,0.02956753969192505,0.6270499898558536,0.7497695158366113,-7.905577893990277,0.2598578922829481,0.5068479180335999,0.09173465520143509,-5.754135188883542,-0.05839979648590088
1773522687329681400,8.617681396484375,0.08246680322207088,0.0915183499455452,0.17084659687703027,-0.2120199054479599,0.4153703031671096,0.8513407342841955,0.8801381675812109,right,0.0688217282295227,0.647927068003901,0.6440938764654099,-7.79262780663669,0.2711051257237732,0.5150094032287598,-0.0063835978507995605,-5.918655304476618,-0.08085733652114868
1773522687369681700,8.657681640625,0.07002341538485972,-0.017309710383415222,0.1690560030343479,-0.37149012088775635,0.4127842783710238,0.8496412392966507,0.8802845712224013,right,0.050822317600250244,0.6656924331950653,0.5396371478972957,-7.6939242713004345,0.28131670728557895,0.39860260486602783,-0.0450323149561882,-6.05662526679635,-0.12113046646118164
1773522687409681700,8.697681640625,0.05979669186206568,-0.13589468598365784,0.16704151483879012,-0.35435694456100464,0.40746397350696023,0.8492585183920885,0.8734491763078911,right,0.07683086395263672,0.6826235536806394,0.4547326400065794,-7.595580216926336,0.2912564619480192,0.3830171525478363,-0.029680617153644562,-6.18633768838048,-0.08230423927307129
1773522687449681400,8.737681396484374,0.04985035984447444,-0.20492082834243774,0.16548695957650777,-0.1579466015100479,0.40158864073929545,0.8485055093368223,0.865841013402564,right,0.16028285026550293,0.7022074151749174,0.37305392576195295,-7.4772753245413295,0.3022897722090737,0.505977213382721,0.037764761596918106,-6.334158598107099,-0.004704535007476807
1773522687489681400,8.777681396484375,0.05121107741943933,-0.2861352264881134,0.16773042686084455,-0.27075207233428955,0.39484829372301566,0.847887896644353,0.8523087597070718,right,-0.01607966423034668,0.7217933344666678,0.37680447393450883,-7.351437114042043,0.3115244989677932,0.3725414574146271,0.0518404096364975,-6.479566016951203,0.017319321632385254
1773522687529681400,8.817681396484375,0.05142973462226959,-0.536758303642273,0.16725226186916223,-0.4040706753730774,0.3846538111175685,0.8495407545655865,0.8304549135881879,right,-0.0031498074531555176,0.7372280892273049,0.3732257751975208,-7.250604749983549,0.319919857901242,0.26496049761772156,0.0981980562210083,-6.592406214189529,0.10507792234420776
1773522687569681400,8.857681396484375,0.06110296288500436,-0.5981175899505615,0.16729500145004123,-0.38412949442863464,0.3714201473957539,0.8538139372944109,0.7967702112005777,right,-0.053540587425231934,0.7447253493965279,0.44031343483608215,-7.197119828033447,0.32413175762344154,0.17465147376060486,0.057789091020822525,-6.646652183640003,0.03106015920639038
1773522687609681700,8.897681640625,0.06775584731258424,-0.6244050860404968,0.16479442314485993,-0.4615383744239807,0.3574575735319632,0.8592875104406479,0.7618867305497466,right,0.09589272737503052,0.7466234187502302,0.48732985489182173,-7.18143009147048,0.3266370312285261,0.1128949299454689,0.028858017176389694,-6.660326488727331,0.06608682870864868
1773522687649681700,8.937681640625,0.07798169009965125,-0.5411993861198425,0.16445734280256774,-0.3670763075351715,0.34473287677045666,0.8635146579684764,0.728928716515957,right,0.02553039789199829,0.7506889430951657,0.55862523188591,-7.14901659912169,0.32932561085149825,0.1270523965358734,-0.01646072044968605,-6.6895344630330795,0.028268814086914062
1773522687689681400,8.977681396484375,0.08594164503293021,-0.579451322555542,0.16303453490837735,-0.3017944097518921,0.3324445358545144,0.8678166607237323,0.6977004038644546,right,0.04179030656814575,0.7525557698520613,0.6144397658273577,-7.131889523231982,0.3313526379357094,0.048610903322696686,-0.018344517797231674,-6.702909492912888,0.03539615869522095
1773522687729681400,9.017681396484376,0.09157737759506791,-0.680351972579956,0.15911289175083757,-0.4811564087867737,0.3196135128542593,0.8738849473217316,0.6654211643451532,right,0.015889465808868408,0.7455216355482597,0.6589188128925859,-7.17508861348927,0.3299323940763199,-0.3218379020690918,-0.03818431869149208,-6.652391604074835,0.10522431135177612
1773522687769681400,9.057681396484375,0.09700979752325647,-0.839854896068573,0.15172169444087125,-0.5225707292556763,0.3042566699579987,0.8838789491120329,0.6264549707971294,right,0.0591617226600647,0.7209785882559934,0.7134891189265996,-7.33172937400937,0.3211952213224342,-0.7346609830856323,-0.012839190661907196,-6.47356648427546,0.13042032718658447
1773522687809681400,9.097681396484376,0.10495579030084944,-0.8934305906295776,0.14422418881519408,-0.3324441909790039,0.28783021286326693,0.8952853480529311,0.5845347237256897,right,0.13238686323165894,0.6872116428210563,0.79418010077551,-7.539000836092233,0.30792419667954524,-0.7384525537490845,0.07294700294733047,-6.2211839608341455,0.10622024536132812
1773522687849681400,9.137681396484375,0.11628860399364122,-0.8683800101280212,0.1391546022284587,-0.3933190107345581,0.27246944930191114,0.9057092906963146,0.5450504737309587,right,0.02601146697998047,0.6526721061329518,0.9039671940535307,-7.738408725193143,0.29340579412764756,-0.8107812404632568,0.02288234233856201,-5.95569119592905,0.0677269697189331
1773522687889681700,9.177681640625,0.12471869024934372,-0.8955556154251099,0.13342394295720772,-0.34127435088157654,0.2565051203182393,0.9158356364364284,0.5063484920775682,right,0.010003149509429932,0.6173185751767402,0.9947508231107145,-7.934558489280938,0.278654188063184,-0.7883636355400085,0.03049863874912262,-5.676586669778824,0.0029114484786987305
1773522687929681700,9.217681640625,0.13427642953680788,-0.9610629081726074,0.12839080272960046,-0.17317655682563782,0.23962466470172836,0.9259016261532431,0.46643202838016123,right,0.04543787240982056,0.5790887744166794,1.098803829716146,-8.133907341670989,0.26230124420379175,-0.9028659462928772,0.01960086077451706,-5.3668023432046175,-0.01059800386428833
1773522687969681400,9.257681396484376,0.14879942726437778,-1.0279030799865723,0.1255875020826131,-0.14019206166267395,0.2233954247659671,0.9363032823389673,0.42795620332091144,right,-0.04400604963302612,0.5302680246419678,1.2541906446523963,-8.366433656519652,0.2401215708284344,-1.3054698705673218,-0.02975369244813919,-4.959856450039148,0.043100982904434204
1773522688009681400,9.297681396484375,0.16249669472161635,-0.9595658183097839,0.12249924663634004,-0.031598225235939026,0.20783943387916254,0.9472856212414164,0.39322484966362986,right,-0.04441922903060913,0.4671470084066819,1.4165569432124494,-8.640586697742343,0.21082366909868555,-1.5585036277770996,-0.04952458292245865,-4.416334679260849,0.007400959730148315
1773522688049681400,9.337681396484374,0.17529618948232287,-0.8691978454589844,0.12023855312292729,0.014223560690879822,0.193756336874331,0.9569706157266068,0.36384799139757695,right,-0.043055713176727295,0.4007221327599532,1.574788772316277,-8.89138107520938,0.17946706000125487,-1.3665438890457153,-0.06263802945613861,-3.825411105838418,-0.08302310109138489
1773522688089681400,9.377681396484375,0.1864847190753207,-0.7531949281692505,0.11951370745545621,0.08568468689918518,0.1809101678347596,0.9637829898263702,0.33806973292498493,right,-0.004863619804382324,0.34962469240356336,1.7082096930295227,-9.053619801867008,0.15527496490907097,-0.9307636022567749,-0.03322899341583252,-3.3592212888047097,-0.12801405787467957
1773522688129681700,9.417681640625,0.1983049381372921,-0.5142671465873718,0.12109882077088807,0.12924613058567047,0.17081649939540317,0.9680917902114378,0.31790408380480534,right,-0.035132408142089844,0.3130278378175835,1.8381024396166203,-9.147249102678895,0.13767774640960567,-0.697277307510376,0.059986695647239685,-3.0198671688750385,-0.14942783117294312
1773522688169681700,9.457681640625,0.2102476488373004,-0.27949339151382446,0.12436116575335011,0.26990342140197754,0.1644022746665095,0.9704273505482637,0.304968766074229,right,-0.06287491321563721,0.2886675112118458,1.9619857166558503,-9.193875829297303,0.1256068294069787,-0.43014153838157654,0.12351946532726288,-2.7917092783689497,-0.10936319828033447
1773522688209681400,9.497681396484374,0.2141058293083666,-0.04548056423664093,0.1250594829240762,-0.07065007090568542,0.1627331117182867,0.9715625175110044,0.3023313687751974,right,-0.05342555046081543,0.2735586187430365,2.006176302168518,-9.226404472458363,0.11808648026623432,-0.24584676325321198,0.11901603639125824,-2.6493592012688514,-0.05147126317024231
1773522688249681400,9.537681396484375,0.21457123408757814,0.06243214011192322,0.12518231283428496,-0.06317747384309769,0.16318161751208146,0.9716308746604982,0.3034142786848329,right,-0.1454182267189026,0.2710731631008888,2.0118660382427276,-9.231875012823938,0.11676793502182009,0.060921743512153625,0.10730428993701935,-2.625883340874314,-0.08017268776893616
1773522688289681400,9.577681396484374,0.21132341715280537,0.1547996997833252,0.12443424929550927,-0.11760859191417694,0.16441314158399703,0.9708728903184708,0.30544969168290265,right,-0.13578099012374878,0.28156725568932944,1.97598297008723,-9.21090938168466,0.1220264149994907,0.3627050518989563,0.08276069164276123,-2.724890827593207,-0.10895007848739624
1773522688329681400,9.617681396484375,0.2038790112736624,0.45007336139678955,0.12268599632950361,-0.18044573068618774,0.16861322000627282,0.9690968714093928,0.3134717380660068,right,-0.1293385624885559,0.3013520829253091,1.8960710828520357,-9.170766756388545,0.13179212318846248,0.44318750500679016,-0.012433275580406189,-2.910727871981263,-0.14745616912841797
1773522688369681700,9.657681640625,0.1898503011782941,0.7246603965759277,0.11891162111258431,-0.18891531229019165,0.17862694557061726,0.9662729649676258,0.3345542922799675,right,-0.04229867458343506,0.3232147841317963,1.7548044170744717,-9.131776808258891,0.14236912728299472,0.38716647028923035,-0.08148255199193954,-3.114754068532586,-0.09387588500976562
1773522688409681700,9.697681640625,0.17454321316562801,0.8488048911094666,0.11523814695097445,-0.11813553422689438,0.19308826590763856,0.962651402004168,0.36574179408987223,right,-0.03157991170883179,0.34142478371204793,1.6047063561961055,-9.100193921515345,0.15079586762180536,0.23196282982826233,-0.1302851140499115,-3.2835604831427334,-0.054872214794158936
1773522688449681400,9.737681396484374,0.15995921845146988,0.759680986404419,0.11210281653894366,-0.0013818442821502686,0.20811370861502207,0.9587454790420391,0.3985906805962981,right,0.0302579402923584,0.3569411820437575,1.4635313142247497,-9.071233784490824,0.15788840341535784,0.2601894438266754,-0.1142238974571228,-3.426540090318024,-0.028086990118026733
1773522688489681400,9.777681396484375,0.15113072410445957,0.5219618082046509,0.11146061518906787,0.12440735101699829,0.22035130907052725,0.9549117084528925,0.4250454737501008,right,0.026469528675079346,0.37244783396430015,1.3752242313489318,-9.030182227656244,0.16481918753788746,0.2636253833770752,-0.07051519304513931,-3.5686060897797343,0.013592243194580078
1773522688529681400,9.817681396484375,0.1484079746652766,0.2061750590801239,0.11247144101357857,0.12018029391765594,0.2272817401536542,0.9523274152594794,0.4396919381252791,right,0.051949381828308105,0.3834938224647082,1.3447213949270547,-8.994357465559244,0.169604157911788,0.15731005370616913,-0.008463248610496521,-3.669283555537462,0.061428457498550415
1773522688569681400,9.857681396484375,0.15394114924198068,0.047069162130355835,0.11597697487793633,0.24091938138008118,0.2299224635530011,0.951004403431264,0.44409240149482293,right,0.020583748817443848,0.3884639227680146,1.3916544110156595,-8.968647270241378,0.17110110671777395,0.06038226932287216,0.016998499631881714,-3.7144378715157504,0.03574937582015991
1773522688609681700,9.897681640625,0.16155802846037878,-0.007118601351976395,0.11982884099223844,0.13874053955078125,0.23076727348118425,0.9503094029520447,0.44442861143845414,right,-0.010990738868713379,0.3904835213734684,1.4587167535498737,-8.950364594575762,0.1711707961170469,0.11420067399740219,0.025871112942695618,-3.7327600024089214,0.0035254359245300293
1773522688649681700,9.937681640625,0.16781581845092866,-0.07562975585460663,0.12304893167286979,0.021683327853679657,0.22984957133273576,0.949753898390245,0.44116136663905786,right,-0.05360233783721924,0.39579932108917104,1.511361717544496,-8.921371139803528,0.1731924178362326,0.2138841152191162,0.034906864166259766,-3.7809132079422474,-0.00848039984703064
1773522688689681400,9.977681396484375,0.17099473310392085,-0.18970727920532227,0.12456886882398759,-0.006893971934914589,0.2263499657747683,0.949706846685311,0.43290478065362786,right,-0.015270054340362549,0.4033060392883507,1.5348413773313163,-8.8883023984164,0.17693299528632458,0.26170971989631653,0.06889007985591888,-3.8487303143665192,0.00786927342414856
1773522688729681400,10.017681396484376,0.17385480066088846,-0.15204977989196777,0.12592511978811774,-0.07887902855873108,0.22196470005872826,0.9496368284002941,0.4227301366774589,right,-0.014605700969696045,0.41289008595741894,1.5538039980851113,-8.847138613379002,0.18183601582197742,0.33849507570266724,0.0804469883441925,-3.934999023282528,-0.010685056447982788
1773522688769681400,10.057681396484375,0.1759967589491043,-0.10843850672245026,0.1274502138194094,-0.1245584785938263,0.2180704758779722,0.9488804527906006,0.4134748740338161,right,-0.030356943607330322,0.427721317207864,1.562359644984454,-8.785360494858026,0.18928212648790407,0.5327844619750977,0.07997472584247589,-4.06778369191885,-0.036149829626083374
1773522688809681400,10.097681396484376,0.1789722640166645,-0.07726429402828217,0.13016185869146277,-0.09860885143280029,0.2139853066142404,0.9468086935430136,0.4031292094523722,right,-0.06761378049850464,0.4537043646644801,1.569144190558046,-8.67371506036222,0.2020432842836262,0.8297450542449951,0.04831491410732269,-4.298236415363848,-0.08063885569572449
1773522688849681400,10.137681396484375,0.17933577401030487,-0.12038327753543854,0.13210919988866468,-0.13375972211360931,0.20892689151016908,0.9436631277308758,0.3908437949863541,right,-0.004389703273773193,0.48974335163704336,1.5436508528612554,-8.515125503861904,0.2199922208698176,1.0795629024505615,0.04668131470680237,-4.613042661753297,-0.10642468929290771
1773522688889681700,10.177681640625,0.18021845196290065,-0.1635022759437561,0.1340088231170224,-0.16891059279441833,0.20379297648455474,0.9401764892126714,0.37829439849942836,right,0.057631731033325195,0.5257755550073236,1.5203722686044872,-8.34474263371527,0.23786164163940474,1.3293808698654175,0.044821858406066895,-4.921800567889213,-0.1328272819519043
1773522688929681700,10.217681640625,0.18265302343628084,-0.14393149316310883,0.13668889562426584,-0.27107834815979004,0.19677804091448106,0.9348474891461237,0.3607972878263299,right,0.02596759796142578,0.5748309620983194,1.4949927665457128,-8.093653072693943,0.2620203761068802,1.1626842021942139,-0.06688723713159561,-5.331806433147191,-0.0964704155921936
1773522688969681400,10.257681396484376,0.18219167902419658,-0.1523893028497696,0.13722414050776086,-0.25668865442276,0.18896629558634653,0.9295690401235918,0.3424560032002194,right,0.10141873359680176,0.6213886139537338,1.444682090717554,-7.841531246015429,0.28524147485675366,1.2844138145446777,-0.09253957122564316,-5.709086086845398,-0.08514249324798584
1773522689009681400,10.297681396484375,0.1837778512170246,-0.05079781264066696,0.13884479909238462,-0.35853591561317444,0.18259344292448854,0.9226216409871517,0.3263792485775441,right,-0.029183149337768555,0.6724207740350918,1.402002202028781,-7.542707873916625,0.3100823217074629,1.2289525270462036,-0.1660950481891632,-6.108382342040539,-0.027799665927886963
1773522689049681400,10.337681396484374,0.1821514641879783,0.0014366135001182556,0.1388501779458439,-0.22040052711963654,0.1769147836323661,0.9153172509817976,0.31294479139495085,right,-0.03424555063247681,0.7217854190304923,1.3334398301951587,-7.239357964304089,0.33408996143916575,1.1836282014846802,-0.19364875555038452,-6.479507564762234,0.010725975036621094
1773522689089681400,10.377681396484375,0.17546975422262864,0.07769642770290375,0.1367440161931747,-0.24069541692733765,0.17304247281352717,0.9092092500173049,0.3058345611558957,right,0.15457546710968018,0.7607302442763716,1.2400241721339522,-6.994204223072528,0.35312307002178955,0.790117621421814,-0.17698945105075836,-6.761200353839993,0.1592075228691101
1773522689129681700,10.417681640625,0.1730515678867917,0.026052337139844894,0.13644453358433428,-0.08453571796417236,0.17168297420091067,0.9050781594983858,0.30320138113010525,right,0.15644067525863647,0.7843386356283182,1.1952839899145067,-6.838010037276148,0.36433692027477527,0.3042948246002197,-0.17379897832870483,-6.926997649762034,0.24104276299476624
1773522689169681700,10.457681640625,0.17672177653750853,-0.104795441031456,0.1377466721922795,0.08257833123207092,0.1711101451503088,0.9044900462023694,0.300381083930829,right,0.12021851539611816,0.7873097187954958,1.2167492411389946,-6.813286514908075,0.36557475611795015,-0.16694316267967224,-0.1692315638065338,-6.9475915249794715,0.229981929063797
1773522689209681400,10.497681396484374,0.18786700071329868,-0.1714036762714386,0.14106423309114063,0.11203628778457642,0.17000129710202722,0.9062884010033176,0.2937736077956676,right,-0.0691184401512146,0.7769361840077528,1.3059981349095702,-6.869738469970226,0.36033552210833386,-0.27128079533576965,-0.12281589955091476,-6.875422945347428,-0.031629323959350586
1773522689249681400,10.537681396484375,0.19714433218005278,-0.16027501225471497,0.14361327497165977,-0.03506363928318024,0.16846107641473834,0.9079974482817478,0.28706668247736183,right,-0.13575369119644165,0.7675466635690577,1.3822579293780028,-6.9203300085663795,0.3557198186345365,-0.29335224628448486,-0.04225713014602661,-6.809461988183855,-0.07642614841461182
1773522689289681400,10.577681396484374,0.20135919167082025,-0.05604219436645508,0.14420708428373588,0.15901657938957214,0.167280759679363,0.9107399217150293,0.2834581341797215,right,0.07333606481552124,0.7530570822430547,1.4309982871495186,-7.010386127066612,0.3489614587002944,-0.3716047406196594,-0.029795512557029724,-6.706497288271785,-0.05197972059249878
1773522689329681400,10.617681396484375,0.20662706471449047,0.043038249015808105,0.14673928517923882,0.3169315457344055,0.17029394404888168,0.9130134925570115,0.28885179545931977,right,0.02907705307006836,0.7363148835863803,1.4907371549278496,-7.111657467064261,0.3404026219601929,-0.4837144911289215,-0.014795824885368347,-6.585773644307255,-0.010190069675445557
1773522689369681700,10.657681640625,0.20980505100019792,0.06105557829141617,0.1490136123535892,0.15432506799697876,0.17499090185102772,0.9150230447159339,0.29878551721938684,right,-0.06773209571838379,0.7192895809650944,1.5364621104009448,-7.215515316423773,0.33152080660570243,-0.5479952692985535,-0.049977682530879974,-6.461115583503246,-0.0032806992530822754
1773522689409681700,10.697681640625,0.21123252987371458,0.1087087094783783,0.15044959912105219,0.10233081877231598,0.17909380141416406,0.9165466942854016,0.30790345037154876,right,-0.1550467610359192,0.7056604557906195,1.565079279206693,-7.298744219252467,0.32439564801976717,-0.306882381439209,-0.038892053067684174,-6.359972253799438,-0.1277734637260437
1773522689449681400,10.737681396484374,0.2070771735295444,0.3008549213409424,0.15025355873789734,0.09647978097200394,0.1838039738862343,0.9164819713704571,0.31983528037277675,right,-0.05110931396484375,0.7016732779151306,1.5399384082093834,-7.329943075114488,0.3220260705543967,-0.02557474374771118,0.010387018322944641,-6.330159299337864,-0.12429463863372803
1773522689489681400,10.777681396484375,0.20048890859292576,0.37335532903671265,0.15031099803468134,0.19176167249679565,0.1906380570356029,0.9144118800156963,0.33686184383540085,right,0.037284910678863525,0.7071581791513553,1.4846768319755792,-7.305794137763977,0.32390547025920385,0.15348897874355316,0.09503459930419922,-6.371145389720797,-0.0696260929107666
1773522689529681400,10.817681396484375,0.1912109337998432,0.4184250235557556,0.1497926856105037,-0.006017625331878662,0.1981335209744589,0.9116681836141163,0.35629929935844856,right,0.0475231409072876,0.7158388776463863,1.4062668737359345,-7.264681206130981,0.32736291727380495,0.12816321849822998,0.08160124719142914,-6.435620492240786,0.008006393909454346
1773522689569681400,10.857681396484375,0.175907527013744,0.4497278332710266,0.1470245797113898,-0.016499167308211327,0.2059031031205029,0.9092164021480574,0.3787333046349347,right,0.04128587245941162,0.7231723346055845,1.2866381854012607,-7.238688102218508,0.3306257418820466,0.052679337561130524,0.12176460027694702,-6.489710978868604,0.02959263324737549
1773522689609681700,10.897681640625,0.16943099336101342,0.40126198530197144,0.14720464366276567,0.0052497293800115585,0.21263648096202128,0.9072141347473299,0.39587645135571425,right,-0.033966898918151855,0.7269537123875449,1.235583120946586,-7.222628947821259,0.33178185329038895,-0.032676152884960175,0.10377384722232819,-6.517465831756591,-0.007287561893463135
1773522689649681700,10.937681640625,0.1675546778630973,0.3413050174713135,0.14848985964763553,0.03949485719203949,0.2180348404566713,0.9058852847441573,0.4084680605384922,right,-0.0017287135124206543,0.7275698106543482,1.2213591460872442,-7.2209741663515565,0.3313360074846311,-0.026889799162745476,0.10211169719696045,-6.521978925266861,-0.024552345275878906
1773522689689681400,10.977681396484375,0.16414384196201476,0.36663633584976196,0.14914124213044896,-0.016253232955932617,0.22330767391303633,0.9045833807711398,0.42136348548943414,right,0.05389136075973511,0.7283016043733731,1.1959423076927662,-7.220387306374311,0.3310884976782286,0.043645359575748444,0.08344472199678421,-6.527336652907729,-0.014166831970214844
1773522689729681400,11.017681396484376,0.15913570146393835,0.36664485931396484,0.14926980942085935,-0.0599239356815815,0.22866666520212361,0.9031442401513547,0.43505935367663573,right,0.028680801391601562,0.729761519647803,1.158255404985696,-7.216869069120287,0.33130136965526585,-0.07486792653799057,0.026500903069972992,-6.538014114266634,0.03556668758392334
1773522689769681400,11.057681396484375,0.1465966642186346,0.4043721556663513,0.14621519159397434,-0.17318104207515717,0.23436947468611277,0.9025643322700638,0.45226059448464345,right,0.025345802307128906,0.727083016909119,1.0702283080950379,-7.248122870039939,0.3302570039746991,-0.26543861627578735,0.018710821866989136,-6.518413341739773,0.059669315814971924
1773522689809681400,11.097681396484376,0.13237446996514526,0.4889613091945648,0.14258666255334834,-0.019067957997322083,0.24204202387130125,0.9025203011201988,0.4742680823865687,right,-0.029290080070495605,0.7184285239242904,0.9744489165771753,-7.318257313495874,0.3264073307045437,-0.3080691695213318,0.00645320862531662,-6.4547606615185735,-0.005812168121337891
1773522689849681400,11.137681396484375,0.11528874401394251,0.42453914880752563,0.13814033093838368,0.04362838715314865,0.25132187078929363,0.902214118469911,0.5006683152294319,right,-0.0010469555854797363,0.7084880361024402,0.856613906726241,-7.397212776789068,0.3221247738859357,-0.2781541347503662,0.051296427845954895,-6.381054204794764,0.04181724786758423
1773522689889681700,11.177681640625,0.10603919702811507,0.29681575298309326,0.13624055560427006,0.021413709968328476,0.25890340493611574,0.9017436508656589,0.5204292977810583,right,0.0007879137992858887,0.7003141854947789,0.7936514007262885,-7.456435950130224,0.31822329424498147,-0.2339223027229309,0.054555222392082214,-6.319974005410075,0.047418177127838135
1773522689929681700,11.217681640625,0.10287311345714004,0.2026229202747345,0.135846496045585,0.12145598232746124,0.2639864524363189,0.9016951296469288,0.5324631436737339,right,0.022683262825012207,0.6926539641731578,0.774988712767139,-7.506848625028133,0.31432937231672087,-0.1797119826078415,0.07522803544998169,-6.262348330393433,0.052927494049072266
1773522689969681400,11.257681396484376,0.10116989509035652,0.1279040277004242,0.1353146118290035,0.10402229428291321,0.2679397452207468,0.9022943565158169,0.5413469427248936,right,0.052752912044525146,0.6827823090074335,0.7684081653330475,-7.56929485206902,0.30945650148379683,-0.23685818910598755,0.08294956386089325,-6.187545310604572,0.08753043413162231
1773522690009681400,11.297681396484375,0.1045872024919883,0.10778853297233582,0.13651135133750747,0.05392243713140488,0.2708799869625946,0.902948665931182,0.5462616564423499,right,-0.09041154384613037,0.6734799451844825,0.8002446615114808,-7.623539652475714,0.3044212326194476,-0.24816499650478363,0.034618645906448364,-6.116504858219623,0.02987504005432129
1773522690049681400,11.337681396484374,0.10460180398934496,0.14043383300304413,0.13597654504165788,-0.05706228315830231,0.2731042001956968,0.9040116157019326,0.5507173798936983,right,-0.10497689247131348,0.6633192968990406,0.8068034355051815,-7.684941923421621,0.29947853975788363,-0.16403307020664215,-0.018823683261871338,-6.038304597207904,-0.049921393394470215
1773522690089681400,11.377681396484375,0.0981243417342166,0.18086478114128113,0.13338300667076003,-0.0817054808139801,0.2755485762889185,0.9044512021389085,0.5579714063540138,right,-0.025665342807769775,0.6571659930000218,0.7606336588740349,-7.726837529864907,0.2970688484106946,-0.07886457443237305,-0.07983536273241043,-5.99064268232286,-0.014198243618011475
1773522690129681700,11.417681640625,0.0926132117195347,0.09726867079734802,0.13151346514226384,-0.030463945120573044,0.2783888960459546,0.9044304395139212,0.5658356278354718,right,-0.1003217101097107,0.6527867237859746,0.7204580080911517,-7.756959696406126,0.29531223107155213,-0.18546873331069946,-0.0918595939874649,-5.956583760854602,0.004824638366699219
1773522690169681700,11.457681640625,0.09175257975149043,-0.10358038544654846,0.12998411845117855,0.06453453004360199,0.27886152039022477,0.9059687235020095,0.566638655603154,right,-0.06513237953186035,0.6427457289920128,0.7192258359476924,-7.81674401076138,0.29079391681667727,-0.27659645676612854,-0.0688791275024414,-5.878062012803555,0.004709303379058838
1773522690209681400,11.497681396484374,0.09664202344352439,-0.2709495425224304,0.12972422448043386,0.07263582199811935,0.2767927684603264,0.9084788702179516,0.5599389202991661,right,-0.026928067207336426,0.6306154530738712,0.7642608363952488,-7.883527390223741,0.2849975447205149,-0.2728652060031891,-0.06420641392469406,-5.7824126043409105,0.028403639793395996
1773522690249681400,11.537681396484375,0.10566735873908245,-0.37577468156814575,0.13037974761082627,0.04358311742544174,0.27205033281983104,0.911686328806825,0.5462101553117549,right,-0.014994680881500244,0.618219024187344,0.8428761079486459,-7.946982502046227,0.27895835356957,-0.2387866973876953,-0.08240685611963272,-5.683785056850314,0.028824210166931152
1773522690289681400,11.577681396484374,0.11196990508950765,-0.39846259355545044,0.1298173444093628,0.0383547805249691,0.26579007939150257,0.9150030584674469,0.530250013619575,right,0.06111443042755127,0.6078279379869672,0.8994961130540817,-7.999773596513271,0.27435835029445443,-0.13301104307174683,-0.08167219161987305,-5.600438665121794,0.04278308153152466
1773522690329681400,11.617681396484375,0.11818824654851165,-0.31333619356155396,0.12990279805755825,-0.03995243087410927,0.2599738864830191,0.9175237601339196,0.5155319206682482,right,0.03924757242202759,0.6012569323920137,0.9535424682792275,-8.03039669831395,0.27145713781428543,-0.10780191421508789,-0.12617191672325134,-5.547420191639661,0.052030324935913086
1773522690369681700,11.657681640625,0.12321366230418711,-0.26588699221611023,0.13000556141164757,-0.020575594156980515,0.25517088086887507,0.919523061628783,0.5034911158329195,right,0.0001404881477355957,0.5960787798706583,0.9974034565113484,-8.053903246107698,0.26919093795320703,-0.09666595607995987,-0.12571412324905396,-5.505471393704414,0.04297220706939697
1773522690409681700,11.697681640625,0.1262471326840274,-0.2404835969209671,0.12952178881608437,0.029679428786039352,0.2510382660476429,0.9213316328928965,0.49354987616395685,right,-0.00606924295425415,0.5910560806590093,1.0252989599790423,-8.078171425923705,0.267117932751388,-0.07996385544538498,-0.10159756243228912,-5.464640786144137,0.039234936237335205
1773522690449681400,11.737681396484374,0.13035394361923563,-0.1857100874185562,0.12974090816706302,0.05232243239879608,0.2477190399059697,0.9228829286327546,0.4851069380162453,right,-0.04865831136703491,0.5858830325407596,1.0621261040516197,-8.101813582795858,0.2647447256158841,-0.11765503883361816,-0.11363610625267029,-5.422443566405772,0.022462427616119385
1773522690489681400,11.777681396484375,0.13002357245706989,-0.12127234041690826,0.12823885638629828,0.043277088552713394,0.24616616191675494,0.924581074682339,0.4817641571740779,right,-0.04979217052459717,0.5772450786090885,1.065482794068381,-8.14830411581397,0.26097296941618087,-0.24539682269096375,-0.11564689874649048,-5.351660303652286,0.05045884847640991
1773522690529681400,11.817681396484375,0.1288021079110625,-0.11657998710870743,0.12610245862493988,0.045150961726903915,0.2455739407454426,0.9267488220718874,0.48072685928743675,right,-0.05836600065231323,0.5635911352573691,1.06481621991843,-8.221303885573148,0.254810368935809,-0.3575415313243866,-0.11821882426738739,-5.238961560711265,0.04771775007247925
1773522690569681400,11.857681396484375,0.1253184418161512,-0.06291238963603973,0.12278757523098079,-0.024228032678365707,0.2454844810667687,0.9292408165094957,0.4813705933921065,right,-0.03388679027557373,0.5467840839434788,1.0470282689671964,-8.31115834402144,0.24732985625094545,-0.3885190188884735,-0.11818432807922363,-5.0988978409826755,0.03610619902610779
1773522690609681700,11.897681640625,0.11954069881305819,0.007687300443649292,0.11885743824166553,-0.013409039936959743,0.24616901834606011,0.9312630306480899,0.48425729057472866,right,-0.010563492774963379,0.5318886576172934,1.00793771000728,-8.391551731163263,0.24087928608862288,-0.2804805338382721,-0.10216781497001648,-4.97355998122096,0.005671083927154541
1773522690649681700,11.937681640625,0.11310628543191445,0.12710095942020416,0.11560730161585603,0.05440766364336014,0.24855565895833556,0.9320955685881397,0.490943871592102,right,-0.003158092498779297,0.522243746064792,0.9592921178471296,-8.445135437312722,0.23675488230005517,-0.17143842577934265,-0.11282607913017273,-4.891812549121678,0.004700899124145508
1773522690689681400,11.977681396484375,0.1057363683565535,0.1991347372531891,0.11287156937658724,0.05048438534140587,0.2528552897822221,0.9318374002942232,0.5019663481625992,right,-0.003252267837524414,0.5168728652158987,0.899786620433256,-8.4779803068161,0.23452781479547088,-0.13467460870742798,-0.1023532971739769,-4.846092708215117,0.041406869888305664
1773522690729681400,12.017681396484376,0.09813197287496164,0.2396927773952484,0.11035933129105883,-0.03092128410935402,0.2580658560191361,0.9311501198238807,0.5149867495320676,right,-0.007153570652008057,0.5126047336671953,0.8373101443845778,-8.505084586840868,0.23277068618416547,-0.14936286211013794,-0.09923641383647919,-4.809660335613787,0.05596604943275452
1773522690769681400,12.057681396484375,0.0894378395409094,0.2976328730583191,0.1074967353606857,0.06334128975868225,0.2642285790392793,0.9302574329844584,0.5302816553633397,right,-0.015169978141784668,0.5076603233081795,0.7654499000493437,-8.535624102011322,0.23075685187102335,-0.15749716758728027,-0.05690621957182884,-4.767345919236541,0.0421108603477478
1773522690809681400,12.097681396484376,0.08070857446296982,0.32596555352211,0.1044907869101302,0.025654487311840057,0.2712637629223492,0.9293523080034204,0.5473564115604477,right,-0.031699299812316895,0.5003477841209919,0.6937040028087794,-8.576500302278996,0.22760022606318792,-0.205099955201149,-0.03241417184472084,-4.7045513171494004,0.03365224599838257
1773522690849681400,12.137681396484375,0.07140508489599362,0.39406999945640564,0.1013269728674525,-0.0345337800681591,0.27872037089830426,0.9281961305815545,0.5654400553900147,right,-0.03767275810241699,0.4934358838107942,0.616189020647481,-8.614812205016612,0.22472131739752937,-0.17205815017223358,-0.017238102853298187,-4.644966032497584,0.007715493440628052
1773522690889681700,12.177681640625,0.05960907964729423,0.4487561881542206,0.097508103338491,-0.03383490815758705,0.2868539538312452,0.9264795823243162,0.5856408795825849,right,-0.0051781535148620605,0.4888629742262447,0.5157881433414295,-8.642593945911527,0.22325434198060046,-0.052891284227371216,0.0038105249404907227,-4.605421957616508,-0.0021164119243621826
1773522690929681700,12.217681640625,0.048695602222123685,0.49010545015335083,0.09482917730362396,0.018231652677059174,0.29561393982121514,0.9238985223711795,0.6071992846771157,right,0.004395663738250732,0.48858258051056164,0.42150136500149965,-8.648997967734932,0.22367668992032158,0.019004516303539276,0.01308322325348854,-4.602994145947695,0.0047844648361206055
1773522690969681400,12.257681396484376,0.040116696508715535,0.4705190658569336,0.09357357570662916,0.04760848358273506,0.30462634700453334,0.9208249391649851,0.6289317681260369,right,0.015898585319519043,0.4904065732893962,0.34695052987542,-8.64389216902852,0.22478465316347326,0.05130748450756073,0.03250038996338844,-4.61878091314435,0.014907091856002808
1773522691009681400,12.297681396484375,0.033531722365945926,0.44762107729911804,0.09335629916734878,0.08574298769235611,0.3129911000850406,0.9176052269608006,0.6489838921854976,right,0.027659058570861816,0.4940480100281146,0.289457815322373,-8.629122469919919,0.22654313695316672,0.1126481294631958,0.03757455199956894,-4.65025186394602,0.014560729265213013
1773522691049681400,12.337681396484374,0.028611661424868845,0.3639601469039917,0.09358951568599369,0.060562245547771454,0.32059615144133247,0.9146436879846763,0.66700784065676,right,0.0022888779640197754,0.49688875726546633,0.24661977692982182,-8.61720231502354,0.22778486237188525,0.008161574602127075,0.03712800517678261,-4.674759989997744,0.038740724325180054
1773522691089681400,12.377681396484375,0.02528241544413273,0.2657022178173065,0.0931678387506004,0.03265312314033508,0.32642809335350914,0.9129460694518893,0.680399754388318,right,-0.0047792792320251465,0.4942323339083924,0.2182428283544257,-8.630359902760386,0.22648149936401454,-0.1226930022239685,0.02141675539314747,-4.651843224790692,0.010987609624862671
1773522691129681700,12.417681640625,0.022406367001049757,0.19833073019981384,0.09215990366503728,0.048751350492239,0.3309492738317459,0.912010983001646,0.6906127204232894,right,0.011279106140136719,0.4889964906301166,0.19396367048667743,-8.655183378371596,0.22408705777172652,-0.10551723837852478,0.04084691405296326,-4.606578141914308,-0.012269794940948486
1773522691169681700,12.457681640625,0.023513915204658883,0.1626567840576172,0.09300535776921148,0.06770218163728714,0.3345977574160789,0.911061502302323,0.6981088838853259,right,-0.04270327091217041,0.48597018414020304,0.20387641281709074,-8.668860606068373,0.22217362286209724,-0.05268928036093712,0.040931276977062225,-4.580357074464858,-0.04575595259666443
1773522691209681400,12.497681396484374,0.024794664242795226,0.07493363320827484,0.09392816176066081,0.1370004266500473,0.33698529291676443,0.9103262318890082,0.7029471494238996,right,-0.002034485340118408,0.4847797539942608,0.21511391921155154,-8.674037716445326,0.221189212011987,-0.008782602846622467,0.07062315195798874,-4.570031495283544,-0.032203227281570435
1773522691249681400,12.537681396484375,0.029343827089503113,-0.021646268665790558,0.09597935122989577,0.11283783614635468,0.3380352920592126,0.910018430001526,0.7040845616748953,right,-0.029076576232910156,0.4839076187494659,0.25468800563840194,-8.676949804499746,0.21996964561543683,-0.05126490071415901,0.0978117287158966,-4.562462521333992,-0.022762954235076904
1773522691289681400,12.577681396484374,0.034752753525249036,-0.14727729558944702,0.09753811159408922,0.044260285794734955,0.336935640396528,0.9107488040367717,0.7001553420830008,right,0.025083541870117188,0.48104247474306705,0.3020699893372133,-8.688473653554915,0.2179390520814173,-0.06901431828737259,0.12913738191127777,-4.537572410227358,-0.0024217069149017334
1773522691329681400,12.617681396484375,0.04471177532290718,-0.23593860864639282,0.10078039534671838,0.11369583010673523,0.33366357721997714,0.9120490397091224,0.6904989428594657,right,-0.021939218044281006,0.47952069894189797,0.38889048691708594,-8.691922917225956,0.21605224790665983,-0.011750932782888412,0.1403404027223587,-4.524337081079184,-0.031704455614089966
1773522691369681700,12.657681640625,0.05426999794772175,-0.26200026273727417,0.10345831951298737,-0.010028764605522156,0.32894351183689613,0.9138966793545841,0.6777833225281591,right,-0.037503957748413086,0.4775375948842146,0.4724365294035524,-8.696750483512877,0.2142089800057004,-0.04792113974690437,0.1407601535320282,-4.507074103850126,-0.04791116714477539
1773522691409681700,12.697681640625,0.05798212552217312,-0.13086271286010742,0.10401764547549987,-0.11514627188444138,0.3246586706060593,0.9154095070079593,0.6675302260918168,right,-0.03419727087020874,0.47727865135566316,0.5047842630397528,-8.696101664215325,0.21401524792152646,0.020679574459791183,0.13084569573402405,-4.504818726138771,-0.09276416897773743
1773522691449681400,12.737681396484374,0.05585059008939897,-0.08652717620134354,0.10257160454067445,-0.22268348932266235,0.32207443198011027,0.9162879512047021,0.6624141052337951,right,-0.013650178909301758,0.4777845503611619,0.48611982151493427,-8.69488118250966,0.21485689528864116,0.012795193120837212,0.09803195297718048,-4.509224852143228,-0.09376901388168335
1773522691489681400,12.777681396484375,0.047430748150915324,-0.053877510130405426,0.09857236166264456,-0.24939654767513275,0.3193184004268594,0.9171269756914017,0.6584919974471398,right,0.17843306064605713,0.47962018577962895,0.4125007508136332,-8.690383286568522,0.21724925872527634,0.09424499422311783,0.0864330306649208,-4.5252027579978105,-0.0770488977432251
1773522691529681400,12.817681396484375,0.04103699550035676,-0.05714321881532669,0.09596873899787314,-0.23569858074188232,0.31707156597655517,0.9174272473089508,0.655386200718714,right,0.28321146965026855,0.4839589406125049,0.3561197055632248,-8.673143982475995,0.22041485702741406,0.07120347023010254,0.06531206518411636,-4.562907927013933,0.01871943473815918
1773522691569681400,12.857681396484375,0.03225503316420393,-0.08859129250049591,0.09201189586120208,-0.3790130615234375,0.31431318152523163,0.9180555911252442,0.6517043815614321,right,0.4300638735294342,0.4870920164081079,0.2794773049853742,-8.661606104895473,0.22341620318710007,0.09827964007854462,0.0503096804022789,-4.590082057404518,0.10782510042190552
1773522691609681700,12.897681640625,0.023972332391051166,-0.10791562497615814,0.08882979640626572,-0.09254202246665955,0.3108159239460071,0.9183051794371632,0.6466715015810198,right,0.5494884252548218,0.49486139176081956,0.20686598655451088,-8.627711434078217,0.228513491323254,0.23114866018295288,0.060729898512363434,-4.657273140884936,0.2137075662612915
1773522691649681700,12.937681640625,0.022912664722537366,-0.2779715061187744,0.08836336120111891,-0.25054407119750977,0.3066057263882927,0.9188769507729289,0.6382471990037248,right,0.5454308390617371,0.5013927829322122,0.19702223607338964,-8.597330908861755,0.23205606026159387,0.20520664751529694,0.0024056416004896164,-4.713540387029946,0.3001805543899536
1773522691689681400,12.977681396484375,0.024906318842904184,-0.23496559262275696,0.0895388014913874,0.017289847135543823,0.3007002562177371,0.9192838983772448,0.6257324850223623,right,0.4211033284664154,0.5129976464963087,0.21278531186720356,-8.541660459566115,0.23765375897549237,0.2741492986679077,0.0015282407402992249,-4.813017829348147,0.2408958524465561
1773522691729681400,13.017681396484376,0.02828227794058454,-0.204674631357193,0.09151692762399843,-0.031639985740184784,0.29574167216101815,0.9192751673541792,0.6149125228431213,right,0.3477827310562134,0.5248363743560451,0.23999213895099236,-8.483339203500748,0.24309406271188766,0.42290198802948,-0.024616781622171402,-4.913831780967116,0.2191561460494995
1773522691769681400,13.057681396484375,0.03749666484972915,-0.30831480026245117,0.09562461730749798,0.004250857979059219,0.29132750804426377,0.9193896395752095,0.6034706279121325,right,-0.023401618003845215,0.5337544057185644,0.31649419947639107,-8.436639996168017,0.24638788391382435,0.019665658473968506,-0.04549809917807579,-4.98932044493258,0.14684012532234192
1773522691809681400,13.097681396484376,0.038049339648948854,-0.23670244216918945,0.09443368983805543,-0.18647179007530212,0.28468097833356937,0.9211276600108316,0.5890366533020234,right,0.044610559940338135,0.5361905480588105,0.3206935508623719,-8.424293140292168,0.24811865848270287,0.09810791909694672,-0.029731670394539833,-5.0098728190958495,0.02881854772567749
1773522691849681400,13.137681396484375,0.03976488719863873,-0.3320232331752777,0.09415492427938481,-0.1722477376461029,0.2787974092880478,0.9223508760900802,0.5760616831318749,right,0.014291346073150635,0.540218708899094,0.33434038342088457,-8.403497605022787,0.25035118517622895,0.09125314652919769,-0.05079425871372223,-5.043791455310583,0.008707284927368164
1773522691889681700,13.177681640625,0.04368081453243577,-0.2266356498003006,0.0956532433669611,0.060994669795036316,0.2739327387211528,0.9226153573764041,0.5649471912323346,right,-0.1006879210472107,0.5484561154776442,0.3654184989800677,-8.360331247991322,0.25414995182461075,0.15386050939559937,-0.04214020445942879,-5.112897140240669,-0.021979570388793945
1773522691929681700,13.217681640625,0.054492319530833416,-0.2475915551185608,0.09936496728808535,0.04216921329498291,0.2689035316417148,0.9234653705162159,0.551270457413834,right,-0.19783055782318115,0.5520357480171393,0.45478338381312783,-8.337562951344252,0.25500820255197826,0.00604112446308136,-0.03162836283445358,-5.142819984817504,-0.12282180786132812
1773522691969681400,13.257681396484376,0.06276807414197927,-0.3130607306957245,0.10157630886422023,-0.05774889886379242,0.2646963933647498,0.9247441581324595,0.5398243816896942,right,-0.2607640027999878,0.5507928613397087,0.5241671915648505,-8.339887010377645,0.2539022436429126,-0.04354741424322128,-0.06632380187511444,-5.132437707012891,-0.08319854736328125
1773522692009681400,13.297681396484375,0.06271863339703965,-0.11671702563762665,0.10021099735992339,-0.05929915979504585,0.26080219664164833,0.9261528906118284,0.5313231929509182,right,-0.1855451464653015,0.5486462817426455,0.5244442184079439,-8.350889465907215,0.2533394759252812,-0.10248550027608871,-0.033484600484371185,-5.114488208824396,-0.06499171257019043
1773522692049681400,13.337681396484374,0.06740662325741069,-0.08012931793928146,0.10091423877846578,-0.05125553160905838,0.25784450056015334,0.9274659892161242,0.5234926326622751,right,-0.2729918956756592,0.5446743054652966,0.5649510373739526,-8.36854144245386,0.25127562366341494,-0.057947345077991486,-0.10944058746099472,-5.081213131210208,-0.14504224061965942
1773522692089681400,13.377681396484375,0.06408207279388745,-0.1458323746919632,0.09845213936024012,-0.18605580925941467,0.2559089586634256,0.9286170330691834,0.5200503901072524,right,-0.23062431812286377,0.5406045197838815,0.5384461480144411,-8.39094090578854,0.2499764779707132,-0.16735106706619263,-0.040265027433633804,-5.047035551798343,0.010666072368621826
1773522692129681700,13.417681640625,0.06457288804079843,0.0303497314453125,0.09731744435394608,-0.015938282012939453,0.2538491263946389,0.9300544427910952,0.5152248517252219,right,-0.22983574867248535,0.5342026613590657,0.5446382806528359,-8.422746495372056,0.24716136733464722,-0.1795116513967514,-0.05971214920282364,-4.99310463964641,-0.12247854471206665
1773522692169681700,13.457681640625,0.06388450811268974,-0.04542326182126999,0.09654163375036934,-0.08072513341903687,0.25451437049796904,0.930600632024444,0.5166268459507402,right,-0.21471655368804932,0.528922444557708,0.5405157208301127,-8.449313015258312,0.24471338374441634,-0.15910568833351135,-0.007980026304721832,-4.9484682100623845,-0.008424758911132812
1773522692209681400,13.497681396484374,0.05700073396594666,0.11774299293756485,0.0927276572653112,-0.2171289622783661,0.2543228859158996,0.9315899500114562,0.5177605094333348,right,-0.11640733480453491,0.5226744119977833,0.4840921881448477,-8.483536187377572,0.2426141100685939,-0.15550123155117035,-0.029816213995218277,-4.89547253293395,-0.09240943193435669
1773522692249681400,13.537681396484375,0.04992851742516878,-0.007151588797569275,0.08913048364161928,-0.17031541466712952,0.25446066605594997,0.9322327064750285,0.5196968953538743,right,-0.06800997257232666,0.5182270672835603,0.4251655500648543,-8.508408178305626,0.24134551658774492,-0.10374569147825241,-0.08204694092273712,-4.857633800666034,-0.07816514372825623
1773522692289681400,13.577681396484374,0.04647943008607006,-0.07948753237724304,0.0873077128813839,0.0524420440196991,0.25444733291709215,0.932607620378227,0.520443244261008,right,-0.040508270263671875,0.5157146044903916,0.39638266930337995,-8.521988959890603,0.24057610035299182,-0.012957386672496796,-0.027742713689804077,-4.836214580540359,-0.06959089636802673
