time,seconds_elapsed,z,y,x
1776018950121961200,0.084961181640625,0.24268355172574518,-0.05897869706079364,-0.6004181816723198
1776018950132021000,0.09502099609375,0.27615035251975056,0.020535715289413926,-0.5924754790395498
1776018950142081000,0.1050810546875,0.27808278188705443,-0.024715485192090273,-0.6189074127607047
1776018950152141000,0.11514111328125,0.15832418356239794,-0.07256064768955112,-0.5438436231438071
1776018950162200800,0.125200927734375,0.05835048215985298,-0.14148030852824448,-0.4296205201797187
1776018950172261000,0.13526123046875,0.3945394160568714,-0.13319777948185801,-0.1760719486337155
1776018950182321200,0.145321044921875,0.024143092131614682,-0.32210765544399617,-0.40978747326694426
1776018950192381200,0.155381103515625,-0.3720475982636213,-0.6093722533047199,-0.8674583952151238
1776018950202441000,0.16544091796875,0.04781155248880386,-0.24652035340964792,-0.658504679133743
1776018950212502000,0.175501953125,0.034896541336178775,0.16372677325829862,-0.67176346222274
1776018950222562000,0.18556201171875,0.05740355669856071,0.1409558462627232,-0.5409965631496161
1776018950232622000,0.1956220703125,0.04679331535696983,-0.07517872123345733,-0.42209414326287803
1776018950242681900,0.205681884765625,0.11750175930857658,-0.13912263948619366,-0.3855392402604222
1776018950252742100,0.2157421875,0.31896015119850635,-0.062333414316177366,-0.391200407827273
1776018950262802200,0.22580224609375,0.3579091827958822,-0.03329918914213777,-0.5092467223413288
1776018950272862000,0.235862060546875,0.344334246429801,-0.16913988434821367,-0.5889913632508367
1776018950282922000,0.245921875,0.2729033334225416,-0.023884733456373212,-0.54819758056961
1776018950292982300,0.255982177734375,-0.01680208171904087,0.2191299499198794,-0.44333647245168684
1776018950303042300,0.266042236328125,-0.7682464719653129,-0.4780950666218996,-0.7383253078889102
1776018950313102600,0.2761025390625,-1.092251631593704,-0.09803425777256489,-0.31291078803166744
1776018950323162400,0.286162353515625,0.5556313107669353,-0.32050241220444436,0.8520749481223523
1776018950333222400,0.296222412109375,0.6876379807680845,-0.957654360577464,-0.06097688514068722
1776018950343282400,0.306282470703125,-0.25621055729687214,-0.76812138428092,0.5259701128009706
1776018950353342200,0.31634228515625,1.2446791583329437,-0.07327069565504789,0.9493966737113892
1776018950363402200,0.32640234375,0.7634212437659501,0.27086832046359777,-0.3559060993451625
1776018950373462500,0.336462646484375,0.8652887960910797,0.45108547914326186,-0.6626101416911929
1776018950383522300,0.346522216796875,0.6565437543243169,0.517962674368918,-0.7706818824186921
1776018950393582300,0.356582275390625,-0.2516962947428226,0.5006821614831686,-0.7213925855275243
1776018950403642400,0.366642333984375,-0.6983838311880827,0.5879717378795146,-0.4412460760436952
1776018950413702400,0.376702392578125,-0.6128869834274053,0.5785758407637477,-0.18887597369253634
1776018950423762400,0.386762451171875,-0.4960854813426733,0.4736605913057923,0.00022547931894659995
1776018950433822500,0.396822509765625,-0.3123375181883573,0.33325258818417786,0.0888403129696846
1776018950443883500,0.406883544921875,-0.004622983625531196,0.027439503328502177,0.3095233375504613
1776018950453943600,0.416943603515625,0.3656540978342295,-0.4190568944588303,0.4958664317645132
1776018950464003300,0.42700341796875,0.801809134349227,-0.6975517642781138,0.5999390198532492
1776018950474063400,0.4370634765625,0.7736421935290098,-0.704929307308793,0.38967648619562384
1776018950484123400,0.447123291015625,0.6923281844109297,-0.4804284780055284,0.511463083216548
1776018950494183400,0.457183349609375,0.567398320928216,-0.09678045831918716,0.5164312270179391
1776018950504243500,0.467243408203125,0.38758828174471854,0.18733897338360547,0.2983537087604403
1776018950514303500,0.477303466796875,-0.1332739134579897,0.3223722977295518,0.3424162839792669
1776018950524363300,0.48736328125,-0.312200155544281,0.11806874554157257,0.5039499311074614
1776018950534423300,0.49742333984375,0.10069733950197696,-0.39963527789115905,0.7375231246605515
1776018950544483300,0.5074833984375,0.5282575661510229,-0.9852125218495726,0.8165256419658661
1776018950554543600,0.517543701171875,0.5889660096138716,-1.000611166511476,0.7490230083182454
1776018950564603400,0.527603271484375,0.732240508082509,-0.7451242473140358,0.7873784579366445
1776018950574663400,0.537663330078125,0.8248322825402021,-0.4792705401420593,0.42825244669690726
1776018950584723500,0.547723388671875,0.8470867844462394,-0.22666005316376686,0.10700170034319162
1776018950594783200,0.557783203125,0.20048867007493973,0.01862900488525629,0.3277567672468722
1776018950604843300,0.56784326171875,-0.6981506069540977,0.08405775486826896,0.7123487897850572
1776018950614903600,0.577903564453125,-0.9785562788307666,-0.08019932587444782,0.824669347063452
1776018950624963300,0.58796337890625,-0.1275830083400011,-0.22941636613458394,0.8370549275144934
1776018950635023400,0.5980234375,1.0109019666403531,-0.6712132079288363,0.6142036189839244
1776018950645083400,0.60808349609375,1.7096312502652407,-1.0743033024489879,0.32545608908906576
1776018950655143200,0.61814306640625,1.9053455455452202,-1.4571341605335473,0.08408011283054947
1776018950665204200,0.628204345703125,1.9538859968304634,-1.9050456858158111,0.10855535952597856
1776018950675264300,0.63826416015625,0.8244318850457668,-1.279931088978052,0.42285628674179315
1776018950685324500,0.648324462890625,-0.661875763002038,0.36393881834894415,0.3411939025774598
1776018950695384300,0.65838427734375,-0.8600514799594878,1.6814245619565247,0.020538930159807203
1776018950705444400,0.6684443359375,1.0188333441615105,2.181263842874765,-0.5756842109754682
1776018950715504400,0.67850439453125,3.2888942453861234,1.8702476364180445,-1.5806005273349581
1776018950725564400,0.688564453125,4.531445159518719,1.7250269723176954,-2.0122507997766137
1776018950735624200,0.698624267578125,4.813640637421607,1.5991013757959007,-2.0160124903976917
1776018950745684500,0.7086845703125,5.393991963425278,2.4721581755399704,-2.5069664540708065
1776018950755744500,0.71874462890625,5.0841082681298255,3.5269776098400354,0.5135666313670575
1776018950765804300,0.72880419921875,3.3964749146610496,3.079937606695294,2.386139641992748
1776018950775864300,0.7388642578125,-0.05332710103988647,0.9461910095378756,0.3130272540181875
1776018950785924400,0.74892431640625,-1.1563982328116893,-2.195070834431052,-1.336515438248217
1776018950795984400,0.758984375,-0.6496627626389264,-6.155051738756895,-3.5439635236933826
1776018950806044400,0.76904443359375,1.2197878781825304,-5.237001074293255,-1.6554934173643587
1776018950816104400,0.7791044921875,1.9051789568066595,-2.5437159297972918,-0.7862368866860866
1776018950826164500,0.78916455078125,2.101425167006254,2.1662365157432855,1.87095520016551
1776018950836224300,0.799224365234375,2.7824329159796237,5.120191388902068,1.0100780830368399
1776018950846284300,0.8092841796875,1.8071862000882624,1.9771688188709318,0.3044420887634158
1776018950856344600,0.819344482421875,2.471588266697526,-2.2132437661118805,1.82538382781893
1776018950866404400,0.829404296875,1.5067080465197562,-2.2154341157630086,0.575656446185708
1776018950876465400,0.83946533203125,-1.54717157433331,0.8381133505262434,-0.8621893687710166
1776018950886525400,0.849525390625,-0.3400105380117893,3.5410651719033717,-0.5945104919984936
1776018950896585500,0.85958544921875,1.1742138754874467,3.9731256325811146,-1.118486727568507
1776018950906645200,0.869645263671875,-0.7334533910036086,2.664004397214949,-2.159522258926928
1776018950916705300,0.879705322265625,-0.5915729772418737,1.452405378445983,-3.030184857010841
1776018950926765600,0.889765625,-0.8066478065520525,1.7444304687067864,-3.8993291594862938
1776018950936825300,0.899825439453125,-1.0599392615318297,2.7533424305737015,-3.318619521564245
1776018950946885400,0.909885498046875,-1.0908785896748303,3.4264012663692234,-3.0848698024004695
1776018950956945400,0.9199453125,-0.1552197878062725,3.2735262881234286,-2.6558774971216916
1776018950967005400,0.93000537109375,0.3277536985069513,3.0294273166418075,-1.4465700964212416
1776018950977065200,0.940065185546875,0.5558522600412369,3.3364763730332254,-0.5504056850731373
1776018950987125500,0.95012548828125,1.7067875512719153,3.8056089655205607,-0.5090764803409576
1776018950997185500,0.960185546875,2.5426602832645178,4.31015920060873,-0.8048018864244222
1776018951007245300,0.970245361328125,1.5857728154063224,4.652395013454556,-0.786991504445672
1776018951017305300,0.980305419921875,0.35970951021611686,3.986892292127013,-1.1624100404471158
1776018951027365400,0.990365478515625,-1.2115215696185826,3.781334648224711,-1.2279437121093273
1776018951037425200,1.000425048828125,-2.127746187698841,3.4301182410657405,-0.4255816200524568
1776018951047485400,1.0104853515625,-2.809976756465435,2.7444614972427486,0.7800497224837541
1776018951057545500,1.02054541015625,-2.3726731344372034,2.0677108211919664,1.916187257555127
1776018951067606500,1.0306064453125,-2.452171618565917,2.644740309296548,3.143329590153694
1776018951077666300,1.040666259765625,-2.29397602981925,3.4603093811899424,4.117814089500904
1776018951087726300,1.050726318359375,-1.7670143486976622,3.366352748119831,4.707357022219896
1776018951097786400,1.060786376953125,-1.8548492840170858,2.7358286934539673,5.361233018639683
1776018951107846100,1.07084619140625,-1.950190064921975,2.143253261171281,5.930324114960432
1776018951117906400,1.080906494140625,-1.6657254730433224,1.7537661600679157,6.163455994486808
1776018951127966500,1.090966552734375,-1.4318319614946842,1.3354063079625367,6.277380479830503
1776018951138026500,1.101026611328125,-1.7192472198724746,1.2497639142513275,6.083400460997224
1776018951148086300,1.111086181640625,-2.601715114301443,1.2877578370809555,5.874266712173819
1776018951158146300,1.121146240234375,-2.6774422631978987,1.4773007502496243,5.676494899842143
1776018951168206300,1.131206298828125,-2.021278448101878,1.3491127617537975,5.427042584633827
1776018951178266400,1.141266357421875,-1.7483178315341472,0.8080565043061971,5.312196892791986
1776018951188326400,1.151326416015625,-1.6974147427707909,0.15047347006201744,5.247161818301677
1776018951198386400,1.161386474609375,-1.617176253929734,-0.4883937577962875,4.944490538603067
1776018951208446200,1.1714462890625,-1.48657769716084,-0.7722872717887163,4.687453467354178
1776018951218506200,1.18150634765625,-1.6240747812718153,-0.8556529527395963,4.520205388101935
1776018951228566500,1.19156640625,-1.5974486401528118,-0.6797048496812582,4.464305806225538
1776018951238626600,1.20162646484375,-1.5560226970478892,-0.4329728993475437,4.3020267475575205
1776018951248686300,1.211686279296875,-1.5468419039875267,-0.3680968148112297,4.001842023977637
1776018951258747400,1.221747314453125,-0.9250304403483867,-0.2740893283367157,3.6370109329640865
1776018951268807400,1.231807373046875,-0.45632542562335726,-0.3883604351609945,3.381065164083242
1776018951278867500,1.241867431640625,-0.3615364333823323,-0.7203349662333727,3.0453321572601793
1776018951288927200,1.25192724609375,-0.8140969535142183,-0.9913128845512866,2.6641186712443825
1776018951298987000,1.261987060546875,-1.4485351128838955,-1.2257511705011128,2.1955939815223218
1776018951309047000,1.272047119140625,-1.955534202428907,-1.411464296248555,1.6828309216231108
1776018951319106800,1.28210693359375,-2.1595294193200765,-1.2468074025332927,1.2787678904175757
1776018951329166800,1.292166748046875,-2.029323076739162,-0.7082628356456756,1.018614148452878
1776018951339227000,1.302226806640625,-1.872350453916192,-0.40200609867572784,0.8148270213544369
1776018951349287000,1.312286865234375,-1.6400113322027026,-0.18015373805463314,0.6293839447200298
1776018951359347000,1.322346923828125,-1.3388771989434958,0.23878654428720472,0.8266986609339714
1776018951369407000,1.332406982421875,-0.5008784147076308,0.33066695560514925,1.1456553050011395
1776018951379466800,1.342466796875,-0.22167934214174745,0.018470891714096067,1.29979723444283
1776018951389526800,1.35252685546875,-0.6353161843132227,-0.2395990297138691,1.4691197818815707
1776018951399586800,1.3625869140625,-2.506292500331998,-0.7217606151223183,1.3400269535005092
1776018951409647000,1.372647216796875,-3.9878146676689386,-0.819604903280735,1.317152858391404
1776018951419707000,1.382706787109375,-3.0601603085577485,-0.6184317580729722,1.7919979833066462
1776018951429767000,1.392766845703125,-1.400681036427617,-0.17197218516469,1.6551748529344796
1776018951439828000,1.402827880859375,0.21263795755207537,0.38508652805685994,1.8087626556247471
1776018951449888000,1.412887939453125,0.6949796487677842,0.07389817990362643,2.090285933354497
1776018951459947800,1.42294775390625,0.04239478813707828,-0.38178164129257197,1.8312953899502753
1776018951470007800,1.4330078125,-1.4253531208693981,-0.6538830106824636,1.0726169567972421
1776018951480068000,1.443068115234375,-2.835232778275013,-1.0229454556554556,0.5560819771438836
1776018951490128000,1.4531279296875,-3.0877929963707924,-1.4308826979458331,0.13010229768455028
1776018951500188000,1.46318798828125,-2.479486910992861,-1.3557523458987473,0.13234919982850551
1776018951510248000,1.473248046875,-1.0186749387294054,-1.3498346462875603,0.9559878886699676
1776018951520307700,1.4833076171875,-0.22317980983257293,-1.9280045365989207,1.742553276658058
1776018951530367700,1.49336767578125,-0.25065942597575486,-2.3558131850510833,1.7386632834821938
1776018951540428000,1.503427978515625,-0.5377678103614598,-2.6150363681674,1.0273913291484116
1776018951550488000,1.513488037109375,-1.4870564205884933,-3.1001427748560904,0.30472061344385143
1776018951560547800,1.5235478515625,-2.3969506666034457,-4.028208637377619,-0.15852935074567795
1776018951570607900,1.53360791015625,-2.3900877950966355,-4.467898862281442,-0.8538830204576253
1776018951580668000,1.54366796875,-1.1942968785732984,-3.8918601387798786,-1.593907022023201
1776018951590727700,1.553727783203125,-0.018469722670316695,-3.058216188752651,-3.2945196840524673
1776018951600788000,1.5637880859375,1.6182389147251843,-1.6967480955556034,-6.157808343988656
1776018951610848000,1.573847900390625,3.1282033326923844,-1.1284563329190016,-7.548768196868896
1776018951620909000,1.583908935546875,4.262198010516166,-1.7536369807302952,-7.189737901088595
1776018951630968800,1.59396875,4.524665290120244,-1.9623975123271344,-6.791802412852644
1776018951641028900,1.60402880859375,3.2922312808543444,-1.7978870413452386,-6.4023109278351065
1776018951651089000,1.6140888671875,0.5694922244675457,-2.0103397054582834,-5.4093461844235655
1776018951661148700,1.624148681640625,-2.2430122969098387,-2.3519795982375737,-3.8069314462959762
1776018951671209000,1.634208984375,-3.2790658020719885,-3.4308488934278487,-2.0106039093524215
1776018951681269000,1.64426904296875,-2.66408593801856,-3.609944354601204,-1.4626333424717186
1776018951691328800,1.654328857421875,-1.980278329193592,-2.246729709997773,-1.4770926604568957
1776018951701388800,1.664388916015625,-1.246479339622706,-0.9166858058512211,-1.6784218730092049
1776018951711448800,1.67444873046875,-0.1775448707304895,0.4960302440240979,-1.4794547134131193
1776018951721508900,1.6845087890625,0.997954368392378,1.873590809366107,-0.9897282457083463
1776018951731569000,1.69456884765625,1.5949920407809317,2.7995652525663375,-0.40251930889487264
1776018951741629000,1.70462890625,1.1576990862771868,2.767103537161648,0.060576341515779494
1776018951751689000,1.71468896484375,0.42365825077444313,1.95494602727741,-0.42871933355629444
1776018951761748700,1.724748779296875,-0.31619156326800585,1.3394196352571248,-1.3842910426408053
1776018951771808800,1.734808837890625,-1.0354591925308108,0.6794657802283763,-2.2075696659982205
1776018951781869000,1.744869140625,-2.162632792162895,0.22469839770197866,-2.734922976785898
1776018951791928800,1.7549287109375,-2.986827361321449,-0.5615577782064676,-3.2233056286662816
1776018951801988900,1.76498876953125,-2.597378838662803,-1.3001543773174284,-3.3474382042914628
1776018951812049000,1.775048828125,-1.7801869878731666,-1.7023504456073044,-3.603934008270502
1776018951822110000,1.78510986328125,-1.3956012489452958,0.32459991065114735,-2.563803024536371
1776018951832169700,1.795169677734375,-0.8261410270512104,1.388409291614592,-1.6172195085495709
1776018951842229800,1.805229736328125,-0.7981973735928535,0.3079074267864227,-1.1930898408710955
1776018951852289800,1.815289794921875,-0.7728871373780072,0.6198810800984501,-0.4973217451393604
1776018951862350000,1.82535009765625,-1.2913063233427702,0.19724515810906887,-1.3418226047456263
1776018951872409900,1.835409912109375,-1.6476666692614554,-0.009317278921604156,-2.780188936445117
1776018951882470000,1.845469970703125,-1.6914331841431558,-0.5810457380086184,-4.72258790909946
1776018951892530000,1.855530029296875,-1.8139608087897299,-1.3123743919432163,-6.275453895682096
1776018951902589700,1.865589599609375,-4.0614918982982635,1.7858692712932824,-2.2027724948495626
1776018951912650000,1.87564990234375,-3.403376364612579,0.6934732627928256,-2.501619832345843
1776018951922710000,1.8857099609375,1.1439210285544394,-0.682664868530631,-4.64265278711915
1776018951932769800,1.895769775390625,3.3105525349646805,2.637871300309896,-0.48834290439188477
1776018951942829800,1.905829833984375,4.6854397894442075,3.6933956680089235,4.098050235366821
1776018951952889900,1.915889892578125,4.979675249230861,4.714314001750946,6.526692509785295
1776018951962950000,1.925949951171875,3.760519531472027,3.168686149728298,7.703534395688772
1776018951973010000,1.936010009765625,1.1441861092314123,0.005577507871389388,8.929801114496588
1776018951983070000,1.946070068359375,-0.5779352047726511,-0.5043529589504003,8.491984282249211
1776018951993131000,1.956131103515625,0.5721171661436557,1.9655816953212022,7.7938652394771575
1776018952003191000,1.96619091796875,0.011551906105875968,3.48431569519937,6.571288607358932
1776018952013250800,1.976250732421875,-0.153038644374907,1.8468635459601879,3.878710734349489
1776018952023310800,1.986310791015625,-0.9485670910194516,0.9931687415510415,1.427525788733363
1776018952033371000,1.996370849609375,-1.7078002354457973,1.768141306900978,0.09462357254624366
1776018952043431000,2.006430908203125,-1.1203232953459024,1.494382817953825,-0.620220687316358
1776018952053491000,2.016490966796875,0.3236437789700925,0.7209615736991166,-0.6496995875179767
1776018952063551000,2.026551025390625,4.607943877309561,-1.1703443405777216,-0.08303513382226228
1776018952073610800,2.03661083984375,5.072970203521847,-2.497793552055955,-0.39935324607938527
1776018952083670800,2.0466708984375,2.6098452292650935,-2.6954040363460776,-0.9681213940560817
1776018952093730800,2.056730712890625,0.7263285806249826,-2.798749844530225,-1.327796417480707
1776018952103790800,2.066790771484375,0.4053974946796894,-3.5068262176930904,-1.564447411043942
1776018952113851000,2.076850830078125,0.8083803294330835,-4.193382248443365,-1.924514648656547
1776018952123911000,2.086910888671875,1.3840110566556454,-5.353672812518477,-2.250745083118975
1776018952133971000,2.096970947265625,0.7580898196101188,-6.4935799292564385,-2.2146394582539797
1776018952144031700,2.10703173828125,-0.2026420487165451,-6.048654141786694,-2.292193238055706
1776018952154091800,2.117091796875,-0.21362053884863852,-5.718720176631212,-2.253890541537851
1776018952164151800,2.12715185546875,-0.4495557122927159,-6.185844351905584,-2.340884788249433
1776018952174212000,2.137212158203125,-1.470849966675043,-5.883080133226514,-2.344577651418
1776018952184272000,2.14727197265625,-2.5442811624646184,-4.5384342877537005,-2.3341328297711907
1776018952194332000,2.157331787109375,-1.0205986002683638,-4.81516507050991,-2.9744448496103284
1776018952204392000,2.167391845703125,1.4213666815817356,-5.556992906627059,-2.8492805928498504
1776018952214451700,2.17745166015625,2.6996915044069287,1.2517881135553122,-1.572537778519094
1776018952224511700,2.18751171875,2.657587223649025,11.503940239608287,-0.862037027753517
1776018952234572000,2.197572021484375,4.268887279021739,17.676711174929142,-0.03618468145057559
1776018952244631800,2.2076318359375,6.128412738156318,19.265453361535073,0.8844293306950479
1776018952254691800,2.21769189453125,7.41285750516653,16.019109971630574,1.3120964517846703
1776018952264751900,2.227751953125,6.810391962510347,12.45534781475067,1.3249109251722693
1776018952274812000,2.23781201171875,5.357220275866985,7.897189420351386,0.8549692082591355
1776018952284872000,2.247871826171875,3.5982279055833812,2.895411060383916,0.20876900716423988
1776018952294932500,2.257932373046875,1.99145321868062,-0.4332382722854614,-0.22998788241222498
1776018952304993300,2.2679931640625,-0.07488521817959845,-2.6132190896123646,-0.5573593036033213
1776018952315053300,2.27805322265625,-3.8318192193150518,-4.354129859760404,-0.8318060670755804
1776018952325113300,2.28811328125,-5.177494992357492,-4.268752838987112,-0.5430417321763933
1776018952335173400,2.29817333984375,-3.8726153400838372,-2.8200375472307204,-0.35822000231072304
1776018952345233200,2.308233154296875,-2.1299241162598133,-1.018226025918126,-0.08632482301741838
1776018952355293200,2.318293212890625,-0.48739422536492344,-0.0068073419272899624,0.32633374870643017
1776018952365353500,2.328353515625,0.6942050841987133,-0.26998072397410866,0.5323854597359895
1776018952375413200,2.338413330078125,1.6894693367242812,-0.5407423691928387,0.5271069348111749
1776018952385473300,2.348473388671875,2.2604266653083265,-0.3862871360182762,0.6624972559012472
1776018952395533300,2.358533203125,2.6165701536059376,-0.12314414910972117,0.9326965910620987
1776018952405593300,2.36859326171875,2.6583342426240444,-0.06098842944800854,1.107119822640717
1776018952415653000,2.378653076171875,2.609249601459503,-0.05990764847397804,1.214854951824993
1776018952425713400,2.38871337890625,2.4389421346366404,0.045074236479401585,1.2350531057231127
1776018952435773400,2.3987734375,2.052864257454872,0.31196225513517856,1.2378436132244766
1776018952445834500,2.40883447265625,1.6292378631234168,0.4367062406569719,1.1665028627187013
1776018952455894300,2.418894287109375,1.2407307129681109,0.2833896561235189,0.9755663032345473
1776018952465954300,2.428954345703125,0.7567023107744753,0.08939502424299717,0.7352341369405389
1776018952476014300,2.439014404296875,0.0924095497585833,0.06756137809753418,0.4410197199419141
1776018952486074000,2.44907421875,-0.7288217856802046,0.15261983444094657,0.14475333884954453
1776018952496134400,2.459134521484375,-1.3003941774226724,0.2207277405053377,-0.06278641878068447
1776018952506194400,2.4691943359375,-1.2892249870240688,0.33767829567193985,-0.2758690513603389
1776018952516254200,2.479254150390625,-0.825217628595978,0.43224750768244263,-0.44701457644253967
1776018952526314200,2.489314208984375,-0.2744050432223826,0.42517011664211746,-0.5197133174285292
1776018952536374300,2.499374267578125,0.163197342556715,0.3307505422353744,-0.4965110132783651
1776018952546434300,2.509434326171875,0.4463455911397934,0.10143383708298205,-0.4432236597269773
1776018952556494300,2.519494384765625,0.5992810674011707,-0.22186405105888843,-0.38568858560323716
1776018952566554400,2.529554443359375,0.6726058313310146,-0.4786608838111162,-0.2570226043321192
1776018952576614400,2.539614501953125,0.7279590313710272,-0.662649669983983,-0.019108897356688977
1776018952586674200,2.549674072265625,0.7202047639824449,-0.7772031008809804,0.23676862859353423
1776018952596735200,2.5597353515625,0.6551554417710751,-0.8094272081375121,0.4553805459886789
1776018952606795300,2.569795166015625,0.5943277558427303,-0.7761608983516692,0.6553368627525865
1776018952616855300,2.579855224609375,0.473184644357115,-0.6347282283574343,0.8007692699074744
1776018952626915300,2.589915283203125,0.28095738747529686,-0.4946469729721546,0.9011334319323301
1776018952636975400,2.599975341796875,0.0031178397595882416,-0.30514731442332266,0.973908891416341
1776018952647035400,2.610035400390625,-0.38703883116841314,-0.08742284738719462,1.0286686556078493
1776018952657095200,2.62009521484375,-0.8475672614395618,0.08222410970032215,1.0756610006682574
1776018952667155200,2.6301552734375,-1.3069361464120446,0.20494974113702774,1.0808449791774153
1776018952677215200,2.64021533203125,-1.6943572548963128,0.2917342906206846,1.0486917452000082
1776018952687275500,2.650275634765625,-1.9243724637068806,0.3597825754523277,1.0123346297919749
1776018952697335300,2.660335205078125,-1.9896084675967691,0.44460313138663765,0.9919671106763184
1776018952707395300,2.670395263671875,-1.9324540633536873,0.5248164857864379,0.9519288225375115
1776018952717455400,2.680455322265625,-1.7551416862048208,0.5258902524977922,0.9060514529816805
1776018952727515100,2.69051513671875,-1.5324715794600545,0.42187165961861606,0.8154200188115238
1776018952737576200,2.700576171875,-1.2993743328556417,0.300989610221982,0.6826571236155927
1776018952747636200,2.71063623046875,-1.0728056112371385,0.22378829711973666,0.5619441471755504
1776018952757696500,2.720696533203125,-0.8969302811540663,0.2031990980774164,0.49867827431485057
1776018952767756300,2.73075634765625,-0.6914297742664813,0.3465753033548593,0.5456231269717217
1776018952777816300,2.74081640625,-0.4515408216953277,0.6262403859972954,0.7564639719739555
1776018952787876400,2.75087646484375,-0.21026552933230994,0.8285188620984554,1.0229995239302516
1776018952797936000,2.76093603515625,-0.06040785308107734,0.8426011634647845,1.2445214835532008
1776018952807996200,2.77099609375,0.03709156716242432,0.6096054775387049,1.3650496049456298
1776018952818056400,2.781056396484375,0.07700359857305884,0.25098902325630185,1.3919007869921625
1776018952828116200,2.7911162109375,0.08358663022518158,0.028277999979257583,1.3837712565504015
1776018952838176300,2.80117626953125,0.14334683305248616,-0.016559505134820938,1.416382755689323
1776018952848236300,2.811236328125,0.2810882473133504,0.04465045810937881,1.4828966705605386
1776018952858296300,2.82129638671875,0.5164974241219461,0.06664718586206436,1.440448398670554
1776018952868356400,2.8313564453125,0.7023883175890893,0.13910451930761336,1.3105809326551854
1776018952878417200,2.841417236328125,0.8217079399745911,0.26315058569312094,1.0018944843202828
1776018952888477400,2.8514775390625,0.8072796747148037,0.3280588189333677,0.5658030145607889
1776018952898537500,2.861537353515625,0.6386850031591952,0.5004360777676106,0.18553557722344993
1776018952908597200,2.87159716796875,0.3323718598268926,0.6611702450811863,-0.12632760145142674
1776018952918657300,2.8816572265625,-0.06415259256735444,0.7734633298307657,-0.4063298070937395
1776018952928717300,2.89171728515625,-0.4385901547074318,0.8534703480035066,-0.6529485063113272
1776018952938777000,2.901777099609375,-0.672486734995991,0.8267354858130216,-0.8002187964178621
1776018952948837400,2.91183740234375,-0.726537328004837,0.6724976947814226,-0.7649376396782696
1776018952958897400,2.9218974609375,-0.5960721152920275,0.46609307866096494,-0.5274431810282171
1776018952968957200,2.931957275390625,-0.38841136163063344,0.2725438524603844,-0.14630699803233146
1776018952979017200,2.942017333984375,-0.24225166311450302,0.02355155597925186,0.315090908549726
1776018952989077200,2.9520771484375,-0.2710802096486091,-0.24350363593697547,0.6711449649982154
1776018952999137300,2.96213720703125,-0.48357495933771133,-0.37827275638878344,0.9205264069274067
1776018953009197300,2.972197265625,-0.8582301097512245,-0.31372341958880423,0.9698771516822278
1776018953019258400,2.98225830078125,-1.2728595431566239,-0.07897825964689255,0.7847276511669159
1776018953029318400,2.992318359375,-1.5758733526825903,0.10412497586309909,0.4177897971324622
1776018953039378400,3.00237841796875,-1.6367641669750213,0.20149463224709033,0.0882058144584298
1776018953049438200,3.012438232421875,-1.3710188886135817,0.42361236580610273,-0.16181860154941677
1776018953059498200,3.022498291015625,-0.7468237447082996,0.70303253377676,-0.32929595951288937
1776018953069558300,3.032558349609375,0.0025409897197037935,0.7857458882987499,-0.38145898520946503
1776018953079618300,3.042618408203125,0.7495113763570785,0.791577663192153,-0.389392700818181
1776018953089678300,3.05267822265625,1.4985913755595683,0.7851578592777252,-0.41272053104415535
1776018953099738400,3.06273828125,2.114072467133403,0.7771341272979975,-0.5567129685238004
1776018953109798100,3.072798095703125,2.3717663948558267,0.6136831022411584,-0.7646271124243735
1776018953119858200,3.082858154296875,2.12327225715518,0.36636078479886053,-0.9063301237925887
1776018953129918500,3.09291845703125,1.5627875150077044,0.2560474756896496,-1.0945349202252923
1776018953139979300,3.102979248046875,0.9715937463417649,0.29184242717027664,-1.2682231155276298
1776018953150039300,3.113039306640625,0.6017454116880894,0.3266477830916643,-1.4985769086427985
1776018953160099300,3.123099365234375,0.5664082869775593,0.3599643617600202,-1.7134608915559946
1776018953170159400,3.133159423828125,0.6617484833605587,0.40549043366014953,-1.8244655439302324
1776018953180219400,3.143219482421875,0.6801257054418325,0.49651335136592384,-1.8925573756426572
1776018953190279200,3.153279052734375,0.8350976559668779,0.39821605874300003,-1.5422773725509642
1776018953200339200,3.163339111328125,1.226093700328469,0.11599077022373676,-1.3322273856654763
1776018953210399500,3.1733994140625,1.593147728088498,0.1318921037107706,-1.6325427498877048
1776018953220459300,3.183459228515625,1.8479218228414653,0.4712450545966625,-1.7742632969126104
1776018953230519300,3.193519287109375,2.9844542024493217,0.9635919339329003,-2.246044942604005
1776018953240579300,3.203579345703125,3.2676442443475127,0.8855465712219476,-2.191792543412745
1776018953250639000,3.21363916015625,2.383689033970237,0.03372808207869529,-1.3638982429534197
1776018953260699400,3.223699462890625,0.7823764118656515,-2.0892963377952576,-0.04142331275641918
1776018953270759400,3.233759521484375,-0.054043724876642225,-2.487792382523417,1.141230766557157
1776018953280820500,3.243820556640625,-0.16336831520944833,-1.8358154977232217,1.4997384997680783
1776018953290880300,3.25388037109375,0.722807201565802,-1.1434177552074194,1.071843049815297
1776018953300940000,3.26393994140625,1.335862819558382,-2.133144831871986,0.3044569940716028
1776018953311000000,3.274,1.7406760846093297,-2.8087562747597694,-0.23173457994908092
1776018953321059800,3.284059814453125,1.5475401153847574,-2.190041023570299,-0.6039788698285817
1776018953331120000,3.2941201171875,1.4831839630693195,-1.6037012708067893,-0.9249293180614709
1776018953341180200,3.30418017578125,1.552430810035765,-1.0392045165389776,-1.5465370758220554
1776018953351240000,3.314239990234375,1.4714032166436313,-0.7550584890902042,-2.0350385317765176
1776018953361300000,3.324300048828125,1.3164473404705523,-0.4841197337388992,-2.2203505293771624
1776018953371360000,3.334360107421875,0.9688999772131442,-0.11895663429200648,-2.251383381022513
1776018953381419800,3.344419677734375,0.6050428457982838,0.15851415317654607,-2.2674825751692054
1776018953391480000,3.35447998046875,0.05690028335154056,0.009080547556281088,-2.18653330771029
1776018953401541000,3.364541015625,-1.0351835904598234,-0.16121289074122905,-1.8069088444516062
1776018953411601200,3.37460107421875,-2.1009148793965577,1.151991522285342,-1.1939765605777501
1776018953421661000,3.384660888671875,-2.74862767701149,3.236167448326945,-0.6080823596246541
1776018953431721000,3.394720947265625,-3.1263533209115266,4.120080865389109,0.8404394553862512
1776018953441781000,3.404781005859375,-3.6140737094908952,4.18173448074758,3.3502678747594357
1776018953451841000,3.414841064453125,-4.878420275846123,3.5103508846879,5.492769148519635
1776018953461901000,3.424901123046875,-4.4291514907360074,2.2132272533684967,5.567552294564247
1776018953471961000,3.434961181640625,-3.080663582882285,0.8849655564635992,4.669314291812479
1776018953482021000,3.445021240234375,-0.48748555691018697,-0.26269173600971696,3.0696351161286235
1776018953492081000,3.455080810546875,2.6646692908644676,-0.908261676377058,0.587348053023219
1776018953502141000,3.465140869140625,4.539664121809602,-1.3463210852086542,-1.845380613926053
1776018953512201000,3.475200927734375,5.093828282633424,-1.5855261471688746,-3.899455708475411
1776018953522262000,3.485261962890625,4.15484179764688,-1.5179308668017386,-5.680110167729854
1776018953532322000,3.495322021484375,1.4389951311223208,-0.7494178528547286,-7.132979072034359
1776018953542382000,3.505382080078125,-1.6209499272495507,0.12766308783888816,-8.208921958383918
1776018953552442000,3.515442138671875,-2.6357489013284443,0.9797837747991085,-8.39573456980586
1776018953562502000,3.525501953125,-0.672219900753349,1.2065268300712109,-7.071866723945736
1776018953572562000,3.53556201171875,2.0606636791594326,0.5643909558057785,-4.424361918371916
1776018953582622000,3.5456220703125,3.7853672647416587,-0.5065238732486963,-1.672940226727724
1776018953592682000,3.555681884765625,4.321157564485073,-1.4558429516792297,0.16448562880158424
1776018953602742000,3.565741943359375,4.153974367162585,-1.988172881835699,1.1183856052815913
1776018953612802000,3.575802001953125,3.6765281198382374,-2.1106629509508608,2.009166862286627
1776018953622862000,3.585862060546875,2.7821722192168234,-1.795733662703633,3.2511814775854346
1776018953632921900,3.595921875,1.4249011393181978,-1.2836164994925259,4.522498467475176
1776018953642983000,3.60598291015625,0.039903409712761635,-0.9517559501886367,5.280643232142925
1776018953653043000,3.61604296875,-1.0960931094527244,-0.5983078384548425,5.532321991229057
1776018953663103000,3.62610302734375,-1.617854445452243,-0.07775427080988884,4.881818101590872
1776018953673163000,3.6361630859375,-1.579755162551999,0.472404161503911,3.6280221553444862
1776018953683223000,3.64622314453125,-1.5664660573899745,1.2711556618481874,2.825264341968298
1776018953693283000,3.656282958984375,-0.9133891754586249,1.481214124301076,1.686824959695339
1776018953703342800,3.6663427734375,-0.23363632191717623,1.7715695277839898,0.22721432604566216
1776018953713403000,3.67640283203125,-0.891912526057288,1.8034809158295393,-0.4609121688917279
1776018953723463200,3.686463134765625,-1.5184329711049793,1.4389415012389422,-0.7618101553075015
1776018953733523000,3.69652294921875,-0.3207446965277195,0.9014274464428425,-1.8186562731295823
1776018953743583000,3.7065830078125,-0.0617388824891299,0.7326169401794672,-2.9653432592660187
1776018953753643000,3.71664306640625,0.1165472715953365,0.6216518891632556,-3.356314753708243
1776018953763704000,3.7267041015625,0.4683446569800377,0.06729717420339584,-3.1270041860356925
1776018953773763800,3.736763916015625,1.0405530816037207,-0.7345417707622051,-2.771700801824033
1776018953783824000,3.746823974609375,1.0362444976896048,-1.3042425234138966,-2.4651906746149064
1776018953793884200,3.75688427734375,0.5807347723633051,-1.2633294982671737,-2.0094521089687944
1776018953803944200,3.766944091796875,0.2736152810841799,-0.7844915043234825,-1.3579597928151488
1776018953814004000,3.77700390625,0.2828237658690661,-0.24383681341409683,-0.6355874755352735
1776018953824064000,3.78706396484375,0.32973055153787134,0.14667700038850306,-0.016546061131358147
1776018953834124000,3.7971240234375,0.3411696449190378,0.49270168412327764,0.5047559867933392
1776018953844183800,3.807183837890625,0.29329266251120717,0.6465344014853238,0.94033132372424
1776018953854244000,3.817244140625,0.18263565453086048,0.5612368756890297,1.3230170742496847
1776018953864304000,3.82730419921875,0.02546001994907856,0.2995505173295736,1.6455939546406269
1776018953874364000,3.837364013671875,-0.13123508284045382,0.009858546191453934,1.8540549187690019
1776018953884425000,3.847425048828125,-0.21115150012029332,-0.25015841765105723,1.9386650468230247
1776018953894485000,3.857485107421875,-0.1529342889512889,-0.4267839815795421,1.8172152805410324
1776018953904545000,3.867544921875,-0.008468553137779236,-0.5125058702677489,1.5145692814141511
1776018953914604800,3.877604736328125,0.11770694475816562,-0.5902116257607937,1.0901251409590245
1776018953924665000,3.8876650390625,0.21191430118633434,-0.6573533171415329,0.6744163878843188
1776018953934725000,3.89772509765625,0.244429518610239,-0.7221861470580101,0.33835487975925205
1776018953944785200,3.90778515625,0.1985328598320484,-0.6675543931603432,0.09903729733526706
1776018953954845000,3.917844970703125,0.1641565429776907,-0.43983986250758167,-0.06360051164254546
1776018953964905000,3.927905029296875,0.14415478843450547,-0.12182605224847792,-0.15778130885735153
1776018953974965000,3.937965087890625,0.14245675234496594,0.1333119073808193,-0.15903320861458778
1776018953985025000,3.94802490234375,0.12904022141098975,0.2472445760309696,-0.14938479804247617
1776018953995086000,3.958086181640625,0.0362953113513533,0.25016075573861596,-0.14428455229401588
1776018954005146000,3.96814599609375,-0.10093992521935143,0.22205343615114687,-0.15689152041077614
1776018954015206100,3.9782060546875,-0.21809446939229965,0.18373919532597063,-0.1557915963448584
1776018954025266000,3.988265869140625,-0.3500830192148685,0.15119301650822162,-0.11757321710959076
1776018954035326000,3.998325927734375,-0.48789457610249515,0.11503273884654044,-0.04954933606684207
1776018954045386000,4.008385986328125,-0.5822621280610562,0.06487900714576245,0.04901698275581002
1776018954055446000,4.018446044921875,-0.6526853253304958,-0.019041385078430173,0.2104163359798491
1776018954065506000,4.028506103515625,-0.6697323217213154,-0.09564239419996738,0.41527547622397537
1776018954075566000,4.038566162109375,-0.5941945579171181,-0.09297229820787906,0.6675939945183694
1776018954085625900,4.0486259765625,-0.47035073610544204,-0.08268120581805706,0.9484439030312001
1776018954095686000,4.058685791015625,-0.3762099786400795,-0.020723639076948165,1.189456598935276
1776018954105746000,4.068745849609375,-0.35580315042734145,0.015831190860271453,1.3825843848533927
1776018954115807000,4.078806884765625,-0.4093008953263983,0.05750760159492492,1.5769915430575607
1776018954125867000,4.088866943359375,-0.4821008316645398,0.040943420284986494,1.7193449811585246
1776018954135927000,4.098927001953125,-0.534900657427311,-0.03837503110170364,1.8034646953471003
1776018954145987000,4.108987060546875,-0.5126759661376477,-0.14847323615550995,1.8113940270416438
1776018954156047000,4.119047119140625,-0.37188100952506065,-0.23594459885954855,1.676151589989662
1776018954166107000,4.12910693359375,-0.1860007287834771,-0.22524141853749752,1.3685276563197373
1776018954176167000,4.1391669921875,-0.05826517849657684,-0.13840718469321728,0.991705683261156
1776018954186227200,4.149227294921875,-0.03378304540263489,-0.08933598753213882,0.6145410342447459
1776018954196287000,4.159286865234375,-0.031019480707123875,-0.09089256932437419,0.25421032339036465
1776018954206347000,4.169346923828125,-0.037412908071279526,-0.08796060752570628,-0.012580226240307092
1776018954216407000,4.179406982421875,-0.06579846007823943,-0.054601358759403223,-0.17964008944407103
1776018954226468000,4.189468017578125,-0.05848842932581901,0.0008417115211486816,-0.3123696668922901
1776018954236527900,4.19952783203125,-0.04825345103740692,0.03844692729413509,-0.4099309003256261
1776018954246588000,4.209587890625,-0.06172430597450584,-0.017761866661906243,-0.5085737915158272
1776018954256648000,4.21964794921875,-0.04277180475592613,-0.11685703166425228,-0.5611405757077038
1776018954266708000,4.2297080078125,0.040571664363145826,-0.17045125920772553,-0.5606817260242998
1776018954276768000,4.23976806640625,0.1597030707001686,-0.20626491538882255,-0.525347816184163
1776018954286828000,4.249828125,0.20662490780763326,-0.7166144844055176,-0.49316360254660246
1776018954296888600,4.259888671875,0.260789080726169,-1.5484738891035317,-0.5380398322358727
1776018954306948400,4.2699482421875,0.33015663146283475,-2.2990929344415663,-0.7135784777104854
1776018954317008400,4.28000830078125,0.545308581129834,-2.1538608721643686,-0.9689302262209355
1776018954327068700,4.290068603515625,0.882955385684967,-0.5757634136915206,-1.2847273833438753
1776018954337128400,4.30012841796875,1.4994190585553646,2.026927267643809,-1.726739913715422
1776018954347189500,4.310189453125,2.2581740640759467,4.692518349528313,-1.715788896112144
1776018954357249500,4.32024951171875,2.326171495503187,5.5689662530153985,-1.0289975953012704
1776018954367309600,4.3303095703125,1.5320470704376696,3.591968260666728,-0.814796918477118
1776018954377369300,4.340369384765625,0.6366799469470977,0.8770423622488975,-1.5046354780294
1776018954387429400,4.350429443359375,-0.2647556828022003,-0.5905605853289365,-2.107211495322734
1776018954397489700,4.36048974609375,-1.0656500403940676,-1.4913245994269848,-3.1396751592993732
1776018954407549700,4.3705498046875,-1.122300732898712,-1.1499228993177413,-3.225749514687061
1776018954417609500,4.380609375,0.05403437252640724,-0.26552140647768974,-2.383033492670953
1776018954427669500,4.39066943359375,1.0374503663480281,-0.19742986702620982,-1.0824399932838975
1776018954437729500,4.4007294921875,1.056287168765068,-0.32085049498975277,0.2988679418928921
1776018954447790600,4.41079052734375,0.5377238981544971,-0.6382780297935009,1.5000748921155929
1776018954457850400,4.420850341796875,-0.012304149245284496,-0.9857786312997341,2.5639780888423322
1776018954467910700,4.43091064453125,-0.27964926401879636,-0.9689122521728276,3.4506139166057106
1776018954477970700,4.440970703125,-0.21759298614356665,-0.998835681271553,3.8162390806064006
1776018954488030500,4.451030517578125,0.07053538893964141,-0.8927303452461958,3.181097887533903
1776018954498090500,4.461090576171875,0.3591770107746124,-0.5141518839091063,1.9924626879841087
1776018954508150500,4.471150634765625,0.4675695444216951,-0.10797229894101619,1.0211674861975013
1776018954518210300,4.481210205078125,0.2586474290549755,-0.03321837899088859,0.3635366672888398
1776018954528270600,4.4912705078125,-0.12609540013074874,0.04627250635325909,-0.09426248414888977
1776018954538330600,4.50133056640625,-0.5393534721177071,0.28665245731174943,-0.3579841477282345
1776018954548390400,4.511390380859375,-0.7884521515827626,0.6189537361204623,-0.5361169013492763
1776018954558451500,4.521451416015625,-0.807898098874092,0.7430266905128955,-0.6350187357366085
1776018954568511500,4.531511474609375,-0.5006406604290008,0.5285170938700438,-0.7913007459469139
1776018954578571500,4.541571533203125,-0.03415598863456398,0.2844184146493673,-0.9518013967655599
1776018954588631300,4.55163134765625,0.2993605477154255,0.08621054898798465,-0.9223048147767782
1776018954598691600,4.561691650390625,0.4524538814196363,-0.11585457662343979,-0.6059906480424105
1776018954608751600,4.571751708984375,0.39695930014755576,-0.1786561929732561,-0.055999096728116274
1776018954618811600,4.581811767578125,0.22448329364657402,-0.15956629257798194,0.5284630255952477
1776018954628871400,4.591871337890625,0.058251113438606256,-0.1533499022811651,1.060703523902595
1776018954638931500,4.601931396484375,-0.09068860771749168,-0.1997393130123615,1.3615211385585366
1776018954648991500,4.611991455078125,-0.14878069466948507,-0.2515530868798494,1.4648364054739473
1776018954659051500,4.622051513671875,-0.12061722444798796,-0.3061398325920105,1.3850554511420428
1776018954669112300,4.6321123046875,-0.09532266072630882,-0.3278314399182796,1.1460045568302273
1776018954679172600,4.642172607421875,-0.09186462922692298,-0.22716449555456636,0.8246293073140084
1776018954689232600,4.652232666015625,-0.1218575798979029,-0.1290513273268938,0.5355738805137574
1776018954699292400,4.66229248046875,-0.1529144334733486,-0.07061959662437439,0.2785166432596743
1776018954709352400,4.6723525390625,-0.15508655334804206,0.017054010653495787,0.10841697396859526
1776018954719412500,4.68241259765625,-0.12375033484194427,0.08693944778442382,0.02369257188513875
1776018954729472500,4.692472412109375,-0.05024900876879692,0.10403379044830799,-0.009873889891058207
1776018954739532500,4.702532470703125,0.03230415022280067,0.08771101667881011,-0.015866262173652647
1776018954749592600,4.712592529296875,0.11697919673919677,0.09275134893357753,-0.05820785881876945
1776018954759652600,4.722652587890625,0.1492073956489563,0.1021510454416275,-0.13461772928237914
1776018954769713400,4.73271337890625,0.14453940383791922,0.15601006140112875,-0.21835502002462742
1776018954779773400,4.7427734375,0.11615856453869491,0.19550971261858938,-0.3099726887531578
1776018954789833500,4.75283349609375,0.151722008818388,0.16503391033411025,-0.38291400632336736
1776018954799893500,4.7628935546875,0.24088150727245955,0.08630524153411388,-0.48619127931594847
1776018954809953500,4.77295361328125,0.32060905091669406,-0.004007482075691223,-0.4889418931983411
1776018954820013600,4.783013671875,0.3655295581391081,-0.0638747985392809,-0.40140594082549214
1776018954830073600,4.793073486328125,0.3547674141714349,-0.13087912727594375,-0.22926073718145487
1776018954840133400,4.80313330078125,0.28991931362058965,-0.11787760688364506,-0.06047814183831215
1776018954850193400,4.813193359375,0.17468900637533516,-0.1877273881793022,0.08554083303287625
1776018954860253700,4.823253662109375,0.06309329277276993,-0.28558862747251984,0.15635609835982323
1776018954870313500,4.8333134765625,0.053988779819011685,-0.35768764899969097,0.16110855358391998
1776018954880374500,4.84337451171875,0.11554826888693497,-0.36176761178970335,0.16403364725038408
1776018954890434600,4.8534345703125,0.19508180606272071,-0.22395839298963546,0.17517156572788953
1776018954900494600,4.86349462890625,0.06761161044742911,-0.10056991373002529,0.3084492785781622
1776018954910554400,4.873554443359375,0.007175581584637984,0.0030050270348787305,0.6224339794516563
1776018954920614400,4.883614501953125,0.09175707719922065,0.23316052109897134,0.44107378821671006
1776018954930674400,4.89367431640625,0.23941841244995593,0.061142743226885794,0.04533464098125696
1776018954940734500,4.903734375,0.2813385688126087,-0.08263795119822025,-0.08303893321454525
1776018954950794500,4.91379443359375,0.17194237454831598,-0.08628887492120266,-0.22377412246391176
1776018954960854500,4.9238544921875,0.05152326648831367,-0.1488145969390869,-0.44873336305916306
1776018954970914600,4.93391455078125,0.04058335480093956,-0.06850304286181927,-0.42064562495499846
1776018954980975400,4.943975341796875,0.2915308770030737,-0.1597510014951229,-0.3628394788049161
1776018954991035400,4.954035400390625,0.4684568851828575,-0.16782149522602557,-0.19061989475041627
1776018955001095400,4.964095458984375,0.3523720069348812,-0.25083646304309365,-0.052216947840899225
1776018955011155700,4.97415576171875,0.06148175678974949,-0.19481354704797266,-0.015111352153122424
1776018955021215500,4.984215576171875,-0.18948855263292788,-0.08142974445223808,0.00028568507358431815
1776018955031275500,4.994275634765625,-0.2659153742313385,-0.017350363251566886,-0.06954787573963403
1776018955041335600,5.00433544921875,-0.15734394035339355,0.02637187409698963,-0.22005159480944275
1776018955051395300,5.014395263671875,0.008059383248421363,0.10655658692419528,-0.335357013117522
1776018955061455600,5.02445556640625,0.08313070315122603,0.1898620621204376,-0.3716619599469006
1776018955071515600,5.034515625,0.07563479443788527,0.23632921426296233,-0.356222691013664
1776018955081576700,5.04457666015625,0.016144494593143464,0.2746773573577404,-0.35691169619113206
1776018955091636500,5.054636474609375,-0.06505728632211685,0.31887071934938427,-0.32060894131883977
1776018955101696500,5.064696533203125,-0.12195702168438582,0.3080862904846668,-0.22203034753650425
1776018955111756500,5.074756591796875,-0.13249591482281683,0.11928630463778972,-0.14320435584187508
1776018955121816300,5.08481640625,-0.08787000663280486,-0.06733633717000484,-0.0869676509656012
1776018955131876400,5.09487646484375,-0.06777295675529167,-0.11594167038500308,0.04294087771251798
1776018955141936600,5.1049365234375,-0.11785714861750601,-0.11541852329373359,0.1698509552270174
1776018955151996700,5.11499658203125,-0.17871406064033507,-0.07132219193577766,0.33845585591569544
1776018955162056400,5.125056396484375,-0.2246562938596122,-0.007785831570625305,0.5246260777808726
1776018955172116500,5.135116455078125,-0.20509236447811124,0.030977906587719914,0.6001087503969669
1776018955182177500,5.145177490234375,-0.1754138500511646,0.023632220000028608,0.5481633129738271
1776018955192237600,5.155237548828125,-0.1572410645008087,-0.0016103578060865402,0.4152276915594935
1776018955202297300,5.16529736328125,-0.11303602120452559,-0.08336217381954193,0.2841248385302722
1776018955212357600,5.175357666015625,-0.0290016472118441,-0.17781798858344555,0.18241247676685451
1776018955222417700,5.185417724609375,0.08849893391979857,-0.21573650808930395,0.08326499705538153
1776018955232477400,5.1954775390625,0.2988683620180003,-0.22616671668887137,-0.01196048690676689
1776018955242537500,5.205537353515625,0.48129766205549235,-0.24907646763324737,-0.14662088628709316
1776018955252597500,5.215597412109375,0.5534720869064331,-0.29263270076513287,-0.29438977356553075
1776018955262657300,5.2256572265625,0.4990460847139358,-0.3089040366083383,-0.42786286285743114
1776018955272717600,5.235717529296875,0.3371393664896488,-0.27133798380196095,-0.5180011066831648
1776018955282778600,5.245778564453125,0.1290823161202017,-0.14170505719482898,-0.4935181150726974
1776018955292838700,5.255838623046875,-0.04083001390523277,0.02853343604505062,-0.3920815015107393
1776018955302897400,5.2658974609375,-0.12940495393699966,0.16094167258441447,-0.27210721460878845
1776018955312957400,5.27595751953125,-0.15128594635552725,0.22171850510835647,-0.1827653818577528
1776018955323017500,5.286017578125,-0.12512509379386902,0.19241759182214735,-0.12931845383048057
1776018955333077500,5.296077392578125,-0.011656535524129867,0.060574003428220745,-0.11640008167698979
1776018955343137500,5.306137451171875,0.18566870208382605,-0.08310323062241078,-0.1436630593948066
1776018955353197600,5.316197509765625,0.32611060747504234,-0.2028986538261175,-0.16732786649018525
1776018955363257300,5.32625732421875,0.3122469172954559,-0.2595885092973709,-0.21737024677097797
1776018955373317400,5.3363173828125,0.21548048750162124,-0.1855237406551838,-0.1868720865242183
1776018955383378400,5.34637841796875,0.14010171365141869,-0.09389584279358386,-0.12800371797010301
1776018955393438500,5.3564384765625,0.08925885804216377,0.004723521390557289,-0.008721358855068683
1776018955403498500,5.36649853515625,0.02634089443683624,0.05350362665057182,0.11256123416647314
1776018955413558500,5.37655859375,-0.10138532176613807,0.05198153164982795,0.29451909903362394
1776018955423618600,5.38661865234375,-0.19812252546548842,-0.0037245734810829162,0.43930356367379425
1776018955433678300,5.39667822265625,-0.17575051639331504,-0.09042962798774241,0.5482544983886182
1776018955443738400,5.40673828125,-0.06748887911690399,-0.1424012227654457,0.5817068322658538
1776018955453798700,5.416798583984375,0.00686930124759674,-0.16403963859975337,0.5433448067761958
1776018955463858700,5.426858642578125,-0.013281506377458572,-0.1710667607575655,0.480350005941838
1776018955473919500,5.43691943359375,-0.06652324895514175,-0.11414309653043746,0.40076778905242677
1776018955483979500,5.4469794921875,-0.06713465885175392,-0.05481295568346977,0.3390666812904179
1776018955494039600,5.45703955078125,0.012974047863483428,0.024527707535028455,0.21363091411218046
1776018955504099600,5.467099609375,0.1358464125608094,0.08789397203028201,0.10672127596661447
1776018955514159400,5.477159423828125,0.1654875175868161,0.11834873152673243,0.016006109035760163
1776018955524219400,5.487219482421875,0.11431730231987312,0.12839490924477576,-0.061894146116077894
1776018955534279700,5.49727978515625,0.02447860769629478,0.11680910086929798,-0.10609130750000476
1776018955544339500,5.50733935546875,-0.09656416695369407,0.05296469746828079,-0.12979834630191325
1776018955554399500,5.5173994140625,-0.16014261289490386,-0.002385433831810951,-0.11123232365027069
1776018955564459500,5.52745947265625,-0.105902506929636,-0.06912205154299736,-0.024779782599955797
1776018955574520600,5.5375205078125,0.028353987824916837,-0.09779518831968306,0.06146072313487529
1776018955584580400,5.547580322265625,0.14771920291781424,-0.11901567100286484,0.10392580002918839
1776018955594640400,5.557640380859375,0.2222048273205757,-0.10956979726552962,0.14778613067418336
1776018955604700700,5.56770068359375,0.2421159809708595,-0.0628150603532791,0.16914470665380357
1776018955614760400,5.577760498046875,0.2062146465063095,-0.05003332019150257,0.14974866291880606
1776018955624820500,5.587820556640625,0.16434417450428007,0.022311200529336928,0.1077137941353023
1776018955634880500,5.597880615234375,0.10874562140107154,0.03982113825678825,0.07471651054918765
1776018955644940500,5.6079404296875,0.0780652364552021,-0.0006458966881036758,0.05412570407167077
1776018955655000600,5.61800048828125,0.1671159955714829,-0.0451999086856842,0.043025194995105265
1776018955665060600,5.628060546875,0.22401567613482473,-0.07734919714033603,-0.011225596760958433
1776018955675121700,5.63812158203125,0.21373627418279648,-0.08984335253238677,-0.07628565956205129
1776018955685181700,5.648181640625,0.12064767438517883,-0.06586684913933277,-0.10743585397675633
1776018955695241500,5.658241455078125,0.02843582088947296,-0.04651683650314808,-0.10884367494806646
1776018955705301500,5.668301513671875,-0.05496610041856766,-0.04951660284101963,-0.10105375172421335
1776018955715361500,5.678361572265625,-0.06870821004509925,-0.04985094936192035,-0.018990970065444708
1776018955725421300,5.68842138671875,-0.0404010022376664,-0.06530570812523365,0.07679244004040955
1776018955735481600,5.698481689453125,0.05523614953160286,-0.096003044205904,0.12075155488476157
1776018955745541600,5.708541748046875,0.18032266488075255,-0.12500585132837294,0.10319733962416648
1776018955755601400,5.718601318359375,0.2456570328448899,-0.15289455972909927,0.008431289867311715
1776018955765662500,5.728662353515625,0.24203531695008276,-0.15261282017827033,-0.08714870662093162
1776018955775722500,5.738722412109375,0.1667792926967144,-0.1403968972057104,-0.15140169082283972
1776018955785782500,5.748782470703125,0.11724341889964415,-0.09698971715569496,-0.15656097328215837
1776018955795842300,5.75884228515625,0.055877954566478726,-0.05813830071389675,-0.0920301950521767
1776018955805902600,5.768902587890625,0.02135609176158905,-0.005127426016330719,0.044449382579326624
1776018955815962600,5.778962646484375,-0.00957214873181656,-0.01018938558101654,0.1946685856193304
1776018955826022400,5.7890224609375,-0.059499652194976806,-0.11338438711762427,0.33231340763792394
1776018955836082400,5.79908251953125,-0.114364045804739,-0.1541343306571245,0.43330563843324776
1776018955846142500,5.809142578125,-0.15272037220597265,-0.152191964417696,0.4830927287787199
1776018955856203500,5.81920361328125,-0.1687982130373828,-0.09944587813615799,0.4941857852011919
1776018955866263300,5.82926318359375,-0.11874795997738838,-0.05661328310370445,0.43479003177210684
1776018955876323600,5.839323486328125,-0.07061957835806533,-0.031048633736371994,0.31723055092692376
1776018955886383600,5.849383544921875,-0.05271918000830337,-0.06482172400057315,0.18738456609100101
1776018955896443600,5.859443603515625,-0.11021744751930236,-0.0665887336730957,0.10199044805243611
1776018955906503400,5.86950341796875,-0.18097267148839308,-0.04443360048830509,0.08731018079295753
1776018955916563500,5.8795634765625,-0.24402037155376746,0.00042377837002277374,0.10739873683676122
1776018955926623500,5.88962353515625,-0.23076109527442604,0.04343757518827915,0.16972396784648297
1776018955936683500,5.89968359375,-0.1853881315767765,0.09676000005304813,0.21618162150830028
1776018955946744300,5.909744384765625,-0.13536591730117797,0.12677578361034392,0.17432196316123008
1776018955956804600,5.9198046875,-0.08836920659290626,0.07527063730061054,0.11120455886051057
1776018955966864600,5.92986474609375,-0.010861585754156113,0.05194003059566021,0.033606209264695645
1776018955976924400,5.93992431640625,0.10570026235580443,0.039110944160819054,-0.06439779950007796
1776018955986984400,5.949984375,0.20359014322161673,0.005209843602776527,-0.1491946822978556
1776018955997044500,5.96004443359375,0.2338473343193531,-0.009218494722247124,-0.23357173224836586
1776018956007104500,5.9701044921875,0.1909761425758712,-0.0038397242933511733,-0.31522651762813325
1776018956017164500,5.98016455078125,0.13044890089882538,0.022322306445240973,-0.38991350982189177
1776018956027224600,5.990224609375,0.09826982009410858,0.022134090396761893,-0.4369128691449761
1776018956037285600,6.00028564453125,0.13825579352378844,-0.0075707275152206415,-0.44919893474429845
1776018956047345400,6.010345458984375,0.20838672984838486,-0.01497603533565998,-0.42664296567365523
1776018956057405400,6.020405517578125,0.2577729843080044,-0.04076747919619083,-0.4365767690584063
1776018956067465500,6.030465576171875,0.2577577867388725,-0.0867792887866497,-0.4521478476777672
1776018956077525500,6.040525390625,0.25195463515175504,-0.10772679974734782,-0.4188816840223968
1776018956087585500,6.05058544921875,0.23280452900184317,-0.07259878774285317,-0.36905791492834683
1776018956097645600,6.0606455078125,0.2199041491627693,-0.003076338705420494,-0.33763241070359945
1776018956107705600,6.07070556640625,0.21294015536904334,0.0755512078076601,-0.2863087584406137
1776018956117765400,6.080765380859375,0.23457564859390256,0.13079437160193919,-0.238853179782629
1776018956127826400,6.090826416015625,0.2768014916385524,0.1188555120050907,-0.20796631247922778
1776018956137886500,6.100886474609375,0.30440263353586194,0.05294423920214176,-0.21049057025983928
1776018956147946500,6.110946533203125,0.29473115261541677,-0.0037830256700515743,-0.22273659610971808
1776018956158006500,6.121006591796875,0.21916648253798485,-0.08021627700924873,-0.22742314649075268
1776018956168066600,6.131066650390625,0.15425768304215742,-0.15724164902269838,-0.1874040014438331
1776018956178126600,6.141126708984375,0.165036248421669,-0.22981062614917755,-0.0973842694312334
1776018956188186400,6.151186279296875,0.2345511169408448,-0.24857144072055815,0.008064502381533384
1776018956198246400,6.161246337890625,0.2811620614682324,-0.23222762416303155,0.10871391108855605
1776018956208306400,6.171306396484375,0.20975102220522238,-0.23155776207745074,0.21494930323436856
1776018956218367500,6.181367431640625,0.09788873008834198,-0.2118260566473007,0.33450770281180736
1776018956228427500,6.191427490234375,0.000028057050704956055,-0.19337153154611586,0.45235637586191296
1776018956238487600,6.201487548828125,-0.08016365177286788,-0.14466215343475342,0.5576224845841526
1776018956248547600,6.211547607421875,-0.0966436801970005,-0.10393208363950251,0.6117421973064542
1776018956258607400,6.221607421875,-0.1296855153108947,-0.05114215821623802,0.6260276200294494
1776018956268667400,6.23166748046875,-0.19152911854982374,-0.05740238765478134,0.5641225141279399
1776018956278727400,6.2417275390625,-0.26606968801021574,-0.044482700327038764,0.5193273868508637
1776018956288787700,6.25178759765625,-0.276671746045351,-0.025159575697779653,0.46981604470685123
1776018956298848300,6.26184814453125,-0.1941442877505906,-0.002444470542669296,0.40933264217153187
1776018956308909000,6.271908935546875,-0.10693944876193999,0.015532500174641608,0.30507512596994635
1776018956318969300,6.28196923828125,-0.058795887839794156,0.04174713788330555,0.22667612751573324
1776018956329029400,6.292029296875,-0.050154316222667694,0.009779635736346244,0.1325510060109198
1776018956339089200,6.302089111328125,-0.07329787592291831,0.02056055746972561,0.08369973521083593
1776018956349149200,6.312149169921875,-0.06038346755849197,0.02079436622560024,0.06434840740039945
1776018956359209200,6.322209228515625,-0.003916278394591063,0.019064765954017637,0.07733093083128333
1776018956369269200,6.332269287109375,0.07227613165974617,-0.021596330258250234,0.04838642976731062
1776018956379329300,6.342329345703125,0.1333154327784665,-0.08080079889893531,0.021324965970963238
1776018956389389300,6.352389404296875,0.16807227338301017,-0.1666261479616165,0.0138042150773108
1776018956399450400,6.362450439453125,0.16691957795023918,-0.22993980548679827,0.011174012704193591
1776018956409510100,6.37251025390625,0.1921452046215534,-0.21478256836533546,0.045216859820485115
1776018956419570200,6.382570068359375,0.20142505587590856,-0.16364391728043556,0.05993205226287245
1776018956429630200,6.392630126953125,0.22723522270321844,-0.07343874569833278,0.06658785689026117
1776018956439690200,6.402690185546875,0.21976154408799484,0.02527297294437885,0.0441616516791284
1776018956449750300,6.412750244140625,0.17818678536321966,0.07004559612870216,-0.0215063138872385
1776018956459810300,6.422810302734375,0.11081482889056204,0.08422492812871933,-0.08036781430914998
1776018956469870300,6.432870361328125,0.08848256730688735,0.07005904013216495,-0.18058321551308035
1776018956479930000,6.44293017578125,0.12031798577308654,0.0766752434015274,-0.23191066716834902
1776018956489991200,6.4529912109375,0.17434419325934722,0.07923194214701652,-0.27482889465764165
1776018956500051200,6.46305126953125,0.22988661399483679,0.0945961000174284,-0.2811820630766451
1776018956510111200,6.473111328125,0.28456748599754644,0.10182020605206489,-0.24032953594550488
1776018956520171300,6.483171142578125,0.29184478352414445,0.10978665488660334,-0.18063173082992434
1776018956530231300,6.493231201171875,0.2520189690922387,0.07019055755734444,-0.12280848741456865
1776018956540291300,6.503291259765625,0.16060557249784468,0.038462709385156627,-0.058303428147733205
1776018956550351000,6.51335107421875,0.05413841742277145,0.03378068904876709,-0.027959727810323236
1776018956560411100,6.5234111328125,0.014123217898607253,0.005765139397978783,-0.03839709680303931
1776018956570472200,6.53347216796875,0.004070628706086427,-0.0405249026119709,-0.12524667434692383
1776018956580532200,6.5435322265625,0.04770051159607246,-0.055309214767813676,-0.22913915662840006
1776018956590592300,6.55359228515625,0.09072481154203414,-0.07413608031272888,-0.2924715188540518
1776018956600652300,6.56365234375,0.08266778008090332,-0.07364099027216434,-0.34918475520089265
1776018956610712300,6.57371240234375,0.0344447241817601,0.009916413858532905,-0.33938363828510043
1776018956620772400,6.5837724609375,0.004283394673932343,0.09927285965681075,-0.28155761839076876
1776018956630832000,6.59383203125,0.012670096480846405,0.14643909997940063,-0.17359584084376692
1776018956640892200,6.60389208984375,0.11941316415416076,0.141343238145113,-0.07731354130506515
1776018956650952400,6.613952392578125,0.19267244336605072,0.09644552727639674,-0.04069835948273539
1776018956661013200,6.62401318359375,0.2112204919695854,0.036005379360914226,-0.013696663049608468
1776018956671073300,6.6340732421875,0.17922376372814178,-0.02245265482664108,0.015539952828735113
1776018956681133300,6.64413330078125,0.1397334831272252,-0.06542787320017815,0.07626987747102976
1776018956691193300,6.654193359375,0.12031798577308654,-0.07118015311658382,0.1129740527510643
1776018956701253000,6.664253173828125,0.10437104131234809,-0.09714812258780002,0.13458119666427373
1776018956711313200,6.674313232421875,0.07825230172621085,-0.12045242580771445,0.15506971181109547
1776018956721373400,6.68437353515625,0.061408700686693185,-0.13298749773204327,0.15390899746865033
1776018956731433200,6.69443310546875,0.04968552966713905,-0.16354922473430633,0.150145114890486
1776018956741493200,6.7044931640625,0.03256137638688087,-0.11233984650075435,0.11829627068713307
1776018956751554300,6.71455419921875,-0.008109656697511673,-0.010669278052449226,0.06188333246111869
1776018956761614300,6.7246142578125,-0.007295983960758894,0.03624035716056823,-0.011490385176986456
1776018956771674000,6.734674072265625,0.043484921461343765,0.014853285738825796,-0.09247267812266945
1776018956781734100,6.744734130859375,0.10574819315075874,-0.03534136249423027,-0.14619681565612555
1776018956791794200,6.754794189453125,0.10304187506781891,-0.08522562960386276,-0.16861308399513364
1776018956801854500,6.7648544921875,0.016407529443502426,-0.07584463779628277,-0.11691358415707945
1776018956811914200,6.774914306640625,-0.0909270561158657,-0.06088906072676181,-0.030557489218562838
1776018956821974300,6.784974365234375,-0.15644611473083495,-0.06592413228452206,0.0698804686948657
1776018956832035300,6.795035400390625,-0.11341008781446144,-0.09990823495090007,0.18353271296843884
1776018956842095000,6.80509521484375,-0.00684476046138443,-0.13614800758957862,0.30350889956653115
1776018956852155100,6.815155029296875,0.07900047147870064,-0.14694295784831046,0.34986440802812574
1776018956862215200,6.825215087890625,0.05576340654240921,-0.1029962640941143,0.341102132640779
1776018956872275500,6.835275390625,-0.004761515313386917,-0.07062018114626407,0.3463089075036347
1776018956882335200,6.845335205078125,-0.037142877224553374,-0.08120762613415718,0.3372381506890058
1776018956892395300,6.855395263671875,0.01787000321149826,-0.13752923281490803,0.3184130387097597
1776018956902455300,6.865455322265625,0.08188919692384079,-0.14327449846863746,0.2484725103907287
1776018956912515000,6.87551513671875,0.11714753904342651,-0.1693716472774744,0.18491788371652362
1776018956922576100,6.885576171875,0.08078091602153144,-0.21886954541802406,0.145762369761616
1776018956932636200,6.89563623046875,-0.004949740495020523,-0.18751929838657377,0.13542963018715382
1776018956942696400,6.905696533203125,-0.09734627550840377,-0.1075882680594921,0.0988162019304931
1776018956952756200,6.915756103515625,-0.13685644811987877,-0.05110533333718777,0.08649009658172727
1776018956962816300,6.925816162109375,-0.16347557497620582,-0.04219605069458485,0.06180120713561773
1776018956972876300,6.935876220703125,-0.12010521980524062,-0.026436171504855156,0.02096197787746787
1776018956982936000,6.94593603515625,-0.11939444118738174,-0.040184710872173304,0.035218612897396084
1776018956992996000,6.95599609375,-0.15184707823647187,-0.05182078813016414,0.08201032081916927
1776018957003057200,6.96605712890625,-0.16799159109592438,-0.043217794957756996,0.14176073290482163
1776018957013117400,6.976117431640625,-0.18439795149564742,0.012713935622572899,0.19649828526452182
1776018957023177200,6.98617724609375,-0.22265958535075187,0.003514145600795746,0.23537162127718328
1776018957033237200,6.9962373046875,-0.24036124625802038,-0.057339843812584876,0.2708455241099
1776018957043297300,7.00629736328125,-0.19760697715878486,-0.1367149938225746,0.3069868048101663
1776018957053357300,7.016357421875,-0.10385317318439483,-0.17488076608777045,0.3746266549713909
1776018957063417000,7.0264169921875,-0.04252981269359588,-0.17965630992650986,0.43966932824626564
1776018957073477400,7.036477294921875,-0.063770169121027,-0.17797873210310935,0.5002767955526709
1776018957083538200,7.0465380859375,-0.15653262397050857,-0.12244213832020759,0.5596021140940487
1776018957093598500,7.056598388671875,-0.20943653116226196,-0.1383838038176298,0.6067500881075859
1776018957103658200,7.066658203125,-0.19684476061463355,-0.1862812810242176,0.6544000202938914
1776018957113718300,7.07671826171875,-0.11628363395677879,-0.21753625098764895,0.6845829771116375
1776018957123778300,7.0867783203125,-0.009147776706749574,-0.2132423531860113,0.6654167966097593
1776018957133838000,7.096838134765625,0.08298923058761283,-0.1697545091152191,0.599103372746706
1776018957143898400,7.1068984375,0.11393149960637092,-0.06545417668521404,0.47415831169486045
1776018957153958400,7.11695849609375,0.16852936950074507,0.04406768978536129,0.30159926655292507
1776018957164019500,7.12701953125,0.23105448873043058,0.1200491057038307,0.10981471193730831
1776018957174079200,7.137079345703125,0.3108826432049274,0.14565291803777217,-0.11601546627357602
1776018957184139300,7.14713916015625,0.4260147507727146,0.1377823307931423,-0.31630569116696716
1776018957194199300,7.15719921875,0.503852023690939,0.12241349674761294,-0.4970268538460135
1776018957204259000,7.167259033203125,0.57265025010705,0.1663911701619625,-0.6688964554190635
1776018957214319000,7.177319091796875,0.5863116957128047,0.25457448052763937,-0.817480458472669
1776018957224379400,7.18737939453125,0.5779962873101234,0.35836452534794805,-0.9962690456539391
1776018957234439200,7.197439208984375,0.5873042138814926,0.3734054426133632,-1.1632520442292094
1776018957244500200,7.207500244140625,0.6201531750380993,0.35822073296308515,-1.2955800551392138
1776018957254560300,7.217560302734375,0.69950786678195,0.30572832918167114,-1.3960568837583065
1776018957264620300,7.227620361328125,0.7732102318525313,0.26167349887788294,-1.455471488018334
1776018957274680000,7.23768017578125,0.7681739912509917,0.2264712525933981,-1.4861121254757046
1776018957284740000,7.247739990234375,0.7010685402274132,0.18766542885899543,-1.376724991300702
1776018957294800400,7.25780029296875,0.6916121450960636,0.11072072086632251,-1.1547282537728547
1776018957304860700,7.267860595703125,0.7291513098955154,0.05018938753604889,-0.8638814135111867
1776018957314920400,7.27792041015625,0.7239116556763648,-0.017611060014367103,-0.6035911856852472
1776018957324981500,7.2879814453125,0.7081190432608128,-0.04711830952763557,-0.3988086178086698
1776018957335041500,7.29804150390625,0.7093640748858452,-0.09224632202088832,-0.25599019254446026
1776018957345101600,7.3081015625,0.7116542316496371,-0.06182254218459129,-0.18316621774360536
1776018957355161300,7.318161376953125,0.7297218032598495,0.012254501417279243,-0.18735446321368215
1776018957365221400,7.328221435546875,0.7038485263347626,0.11498773066103457,-0.2755152694866061
1776018957375281700,7.33828173828125,0.6893757643461227,0.17618015824854372,-0.4511186507605016
1776018957385341400,7.348341552734375,0.6934276700854302,0.17151216643750666,-0.6677304803796112
1776018957395401500,7.3584013671875,0.6637731210559606,0.13803016807436944,-0.8609028360918164
1776018957405462500,7.368462646484375,0.5620838479071856,0.07173954056501389,-0.9776308345489203
1776018957415522600,7.3785224609375,0.4834761751383543,0.057117725494503974,-0.9820514274701475
1776018957425582300,7.388582275390625,0.432591791075468,0.0064496145308017725,-0.8772874230511486
1776018957435642400,7.398642333984375,0.4506172771096229,-0.023375614890456198,-0.7442899884469807
1776018957445702700,7.40870263671875,0.5306809939056635,-0.05826923361718654,-0.5833116371139884
1776018957455762400,7.418762451171875,0.6171265206933021,-0.07451952667236328,-0.42557182931080456
1776018957465822500,7.428822509765625,0.7052198146879672,-0.03689502167701721,-0.30951120872125026
1776018957475882500,7.438882568359375,0.7237783846855164,0.07606850968003273,-0.3189144123606384
1776018957485943600,7.448943603515625,0.6028624330192804,0.18688859926760196,-0.39499826574027536
1776018957496003300,7.45900341796875,0.46874096282124517,0.26520693370103837,-0.5413356589108705
1776018957506063400,7.4690634765625,0.36453064676225183,0.23675883785188195,-0.7048930669516325
1776018957516123600,7.47912353515625,0.3134060242027044,0.16892507255375383,-0.8054045284926891
1776018957526183700,7.48918359375,0.31370471488833424,0.08195639867484569,-0.8721908305644989
1776018957536243500,7.499243408203125,0.3118787050375715,0.05029752408564091,-0.8144006126359105
1776018957546303500,7.509303466796875,0.3149047383278608,0.09726444244384765,-0.6669805387951433
1776018957556363500,7.519363525390625,0.38824645339250563,0.13136544948816298,-0.48988808800727124
1776018957566424600,7.529424560546875,0.5738017947623506,0.07532733592391014,-0.30286636387929317
1776018957576484400,7.539484375,0.7455284442007541,0.02903495582640171,-0.21955270537659524
1776018957586544600,7.549544677734375,0.7900637514978647,-0.011629062995314597,-0.18885785351395606
1776018957596604700,7.559604736328125,0.6409773518800735,-0.04926642747223377,-0.2453210606224835
1776018957606664400,7.56966455078125,0.4653063121974468,-0.07915069360435009,-0.3380775241225958
1776018957616724500,7.579724365234375,0.4183505362877622,-0.09144844964146613,-0.3695936292402446
1776018957626784500,7.589784423828125,0.48905138145480304,0.00504500842988491,-0.4220004005648195
1776018957636844300,7.59984423828125,0.5725333822617307,0.17053367679417133,-0.4445946558192372
1776018957646905300,7.6099052734375,0.507953065801598,0.30521336539685723,-0.43587285857275126
1776018957656965400,7.61996533203125,0.3555974352547899,0.3381254549175501,-0.4392405814401805
1776018957667025700,7.630025634765625,0.2743623731244355,0.24283318932950496,-0.4777345627464354
1776018957677085400,7.64008544921875,0.5403847148615867,-0.004345335727930068,-0.5251189758643507
1776018957687145500,7.6501455078125,0.9072055183876305,-0.19882570529878138,-0.5177946243256331
1776018957697205500,7.66020556640625,1.140046890534833,-0.2670820799231529,-0.46304771961569785
1776018957707265500,7.670265625,1.1950222702383995,-0.25739830577671524,-0.4491501271665096
1776018957717325600,7.68032568359375,1.1552918059397488,-0.2138087548971176,-0.3996114586241543
1776018957727386400,7.690386474609375,0.9383985290307552,-0.09760638774931431,-0.3212383252635598
1776018957737446700,7.70044677734375,0.5962936490882188,-0.01822597704231739,-0.2178916402965784
1776018957747506700,7.710506591796875,0.3898679901797324,0.020809563794732092,-0.11847191951498388
1776018957757566500,7.72056640625,0.3973234207522124,0.03887421279549599,-0.09189546275660396
1776018957767626500,7.73062646484375,0.506411133589223,0.03177402540147305,-0.12488719338476657
1776018957777686500,7.7406865234375,0.6946937444984912,-0.1074228483647108,-0.22462796281427144
1776018957787746300,7.750746337890625,0.888982244759053,-0.2878781997144222,-0.3893707812473178
1776018957797807400,7.760807373046875,1.0148183363664895,-0.5016361012071371,-0.5831380341127514
1776018957807867600,7.77086767578125,1.0347469526082276,-0.6593459522634745,-0.8235787753477692
1776018957817927700,7.780927734375,0.9664338793605566,-0.7553700392574071,-1.0590620403058826
1776018957827987500,7.790987548828125,0.9038922291211783,-0.7785702975809574,-1.1962078267611562
1776018957838047500,7.801047607421875,0.836532511075586,-0.7189122399538755,-1.2482881426103412
1776018957848107500,7.811107421875,0.7530582551836967,-0.5798053825587034,-1.2440741781771183
1776018957858167300,7.821167236328125,0.6414179352544248,-0.4388718942582607,-1.1866869880914688
1776018957868227600,7.8312275390625,0.5431621436856687,-0.2363911735832691,-1.0752177869454025
1776018957878288400,7.841288330078125,0.398147085160017,-0.02025894417464733,-0.897685045044124
1776018957888348700,7.8513486328125,0.09499489007666706,0.135787357583642,-0.594112724852562
1776018957898408400,7.861408447265625,-0.23958193244859574,0.24640111094415187,-0.2199783834427595
1776018957908468500,7.871468505859375,-0.4063588870577514,0.3142483202457428,0.18069792793393133
1776018957918528500,7.881528564453125,-0.35866014729365703,0.28423487477600573,0.533350505375862
1776018957928588300,7.89158837890625,-0.1738892708323896,0.18114216457009313,0.6711749217450619
1776018957938648600,7.901648681640625,-0.045808395972847936,0.11262801579236983,0.6059118837177753
1776018957948708600,7.91170849609375,-0.0959463455826044,0.051964580515027045,0.5438435500785708
1776018957958769700,7.921769775390625,-0.3180709472738206,-0.05218786787688732,0.5019847685143352
1776018957968829400,7.931829345703125,-0.4683272674538195,-0.2690174318999052,0.5221580802321434
1776018957978889500,7.941889404296875,-0.4320670365490019,-0.49090661740005015,0.5113873876318336
1776018957988949500,7.951949462890625,-0.39078488582894205,-0.634454672113061,0.47565497999340295
1776018957999009500,7.962009521484375,-0.39966844950839875,-0.6597381664514541,0.5556991153061389
1776018958009069600,7.972069580078125,-0.43582288195118307,-0.6257178234279155,0.6334960562139749
1776018958019129600,7.982129638671875,-0.5183185020692647,-0.579541178664565,0.6602230273589491
1776018958029190700,7.992190673828125,-0.5826414827674627,-0.5009305832862854,0.7529819750770926
1776018958039250700,8.002250732421874,-0.6276904386751353,-0.47118543336391444,0.8533452603191137
1776018958049310500,8.012310546875,-0.6674087010793387,-0.4090665385812521,0.9245502556160092
1776018958059370500,8.02237060546875,-0.6915905177861452,-0.35694822880923743,1.0766507423579692
1776018958069430500,8.032430419921875,-0.6750492789603769,-0.25753274581134317,1.198227203759551
1776018958079490300,8.042490234375,-0.638379298210889,-0.1615191802114248,1.3368559222489595
1776018958089550600,8.052550537109376,-0.579900221235305,-0.10176058481931685,1.476228444842994
1776018958099610600,8.062610595703125,-0.4711139755629003,-0.12014730538129806,1.5316671312093735
1776018958109671700,8.072671630859375,-0.3226046451807022,-0.24286358446776865,1.508207929688692
1776018958119731500,8.0827314453125,-0.29739041668623684,-0.3838064251184463,1.4937047725617885
1776018958129791500,8.09279150390625,-0.4377823454558849,-0.5300765982717275,1.5383283426642418
1776018958139851500,8.1028515625,-0.696191874101758,-0.576115295869112,1.6273419663742184
1776018958149911300,8.112911376953125,-1.021007181069255,-0.6568798544108867,1.6827189856812357
1776018958159971600,8.1229716796875,-1.2147931386351585,-0.7105921553760767,1.7703502151221036
1776018958170031600,8.133031494140624,-1.1804412255696952,-0.8497066115558147,1.8010405369400977
1776018958180091600,8.143091552734376,-1.017284653414786,-1.0099749149233102,1.7700076852947473
1776018958190152400,8.15315234375,-0.8270201479732989,-1.1333055265158414,1.733828995193541
1776018958200212500,8.16321240234375,-0.6834335148155689,-1.293458094549179,1.7720950129628181
1776018958210272500,8.1732724609375,-0.6853221050411462,-1.4848872598558664,1.9291408471524714
1776018958220332500,8.18333251953125,-0.8306342468172311,-1.7106050637334584,2.041234025415778
1776018958230392600,8.193392578125,-1.0300666858375072,-1.7753852866798638,2.335480298857391
1776018958240452600,8.20345263671875,-1.5597561844877899,-1.462092075201869,2.6737279188498855
1776018958250512600,8.2135126953125,-2.4085037417531012,-1.037965330132842,3.224568780469894
1776018958260573400,8.223573486328124,-3.3154946675419805,-1.0519120224207639,3.7081943009510634
1776018958270633500,8.233633544921876,-3.6909520742490884,-1.2874036168158054,3.8138714746922253
1776018958280693500,8.243693603515625,-3.4787551384627817,-2.011265588131547,4.032245345547795
1776018958290753500,8.25375341796875,-2.998072977957129,-2.673650469699502,4.151480212259292
1776018958300812500,8.2638125,-2.3489694566361603,-2.976669539922476,4.5304269223868845
1776018958310872600,8.27387255859375,-1.9182132104247807,-2.329082999035716,5.359625583443045
1776018958320932600,8.2839326171875,-2.302732167726755,-1.118999937787652,6.344718570566177
1776018958330992400,8.293992431640625,-2.913169127653539,0.49475861665308474,7.409010182088613
1776018958341053400,8.304053466796875,-2.6706767145857215,1.4068348828822375,8.101109818440674
1776018958351113500,8.314113525390624,-1.6802537646114826,1.0626093575239182,8.02664991300106
1776018958361173500,8.324173583984376,-0.9342509808972478,-0.4351204327702522,7.5825009551227085
1776018958371233500,8.334233642578125,-0.4127615937069058,-2.2726725450277327,6.863076089471578
1776018958381293600,8.34429345703125,0.3334197614446282,-3.7183676121801135,5.6129427573859685
1776018958391353600,8.354353515625,1.0690794303208588,-4.575144015991688,4.014461267054081
1776018958401413400,8.364413330078126,1.536861777243018,-4.411926215168833,2.361297753942013
1776018958411474400,8.374474365234375,0.18039748368263245,-3.785415780058503,1.5007558601170778
1776018958421534500,8.384534423828125,-3.2991035047113892,-1.9159294834017753,0.4752630580663681
1776018958431594500,8.394594482421875,-9.360455215507745,1.4976193156570194,-5.043202257245778
1776018958441654500,8.404654541015624,-13.56618139721751,3.3716502700060604,-9.66848772997856
1776018958451714600,8.414714599609376,-3.6877035938471554,2.1879490197271108,-8.553971075084805
1776018958461774600,8.424774658203125,5.02835423220396,0.20217910737991332,-6.891110928344726
1776018958471834600,8.434834716796875,5.739709188646078,-0.8048965789705514,-6.4180427499741315
1776018958481895400,8.4448955078125,6.170066352537274,-0.8225807042211294,-5.7512990886747835
1776018958491955500,8.45495556640625,2.7702856743291018,0.5558896694421768,-3.570670036572218
1776018958502015500,8.465015380859375,3.240278683038056,2.957313682067394,-3.2746266505807635
1776018958512075800,8.47507568359375,7.409692903655767,3.3833962373793125,-5.383410948178172
1776018958522135600,8.485135498046875,6.44682285425663,3.3504315408885477,-6.337317938920855
1776018958532195600,8.495195556640626,4.263128861625493,3.3105040196478366,-6.493490497407317
1776018958542255600,8.505255615234375,1.5675021224394439,2.1790625334382057,-5.620021317470074
1776018958552316400,8.51531640625,-0.3690691669747233,-0.07617313909828663,-4.525379575869441
1776018958562376400,8.52537646484375,-1.6994000713691115,-1.8658254360616207,-3.937333603709936
1776018958572436500,8.5354365234375,-2.4484260022968054,-3.0776509570628403,-3.4300574507892128
1776018958582496800,8.545496826171876,-2.4459394461780786,-3.9107454565137623,-2.6920249153017997
1776018958592556500,8.555556640625,-2.2322879276692866,-4.410270849177241,-2.012982913443446
1776018958602616600,8.565616455078125,-1.820184213349223,-4.9478059467613695,-1.6005951214849947
1776018958612676600,8.575676513671874,-1.0826114043280481,-5.717055458289384,-1.21822194404006
1776018958622736400,8.585736328125,-0.3679924776539206,-6.434502301865816,-0.9311416167050599
1776018958632797400,8.59579736328125,0.2873860322833061,-7.029660736379027,-0.6031535249203444
1776018958642857500,8.605857421875,0.4475938376352191,-7.734688827887177,0.10574410149753093
1776018958652917500,8.61591748046875,0.30916064171791074,-8.42436386744082,1.499641761395335
1776018958662977500,8.6259775390625,-0.8881590918079018,-9.316668680751324,4.911433487653732
1776018958673037600,8.63603759765625,-2.3745991340637205,-8.695477394837141,10.369696555459498
1776018958683097600,8.64609765625,-0.23464023826271294,-1.5550301788792014,13.076837206828593
1776018958693157400,8.656157470703125,1.2534963787779212,7.775481441524624,12.723551007658243
1776018958703218400,8.666218505859375,-2.4663109108164907,13.410693898385762,13.204997138273715
1776018958713278500,8.676278564453124,-7.110996372807025,12.330844652247428,12.000564065611362
1776018958723338500,8.68633837890625,-10.977967569524049,5.177725293982029,4.4927322747647755
1776018958733398500,8.6963984375,-8.971403290951251,-0.3712076403081417,-1.3992360983163117
1776018958743458600,8.70645849609375,-2.2901392281353474,-3.482041028265655,-3.638763329589367
1776018958753518600,8.7165185546875,2.1591703767493367,-5.14309003393054,-4.4534471430808305
1776018958763578600,8.72657861328125,3.2315549860954285,-4.747219369269907,-4.942132577300072
1776018958773638400,8.736638427734375,3.0205566124439236,-2.459234104298055,-4.138402704021335
1776018958783699500,8.746699462890625,3.84193027896285,0.2781336352914572,-2.0419249302893876
1776018958793759500,8.756759521484375,3.5395655809953808,3.4326863379880783,-0.3930617447197437
1776018958803819800,8.76681982421875,1.5687071143150328,6.2147086273401975,0.9830191034585237
1776018958813879600,8.776879638671875,-0.666221098729968,7.559612246966362,2.3378432285964488
1776018958823939600,8.786939697265625,-1.980358408692479,7.274552611804008,3.154293467238545
1776018958833999600,8.79699951171875,-2.100709712213278,5.366584316539764,3.4334015005201097
1776018958844059400,8.807059326171874,-1.9882780957758426,3.181704036733508,3.0310920349836348
1776018958854120400,8.817120361328126,-1.590456297047436,1.9203546063676475,1.8619073858350514
1776018958864180500,8.827180419921875,-0.9772229844003916,1.339283149395883,0.15915537368953228
1776018958874240500,8.837240478515625,-0.40911417711526155,1.0204612376242876,-1.4949772767156362
1776018958884300500,8.847300537109374,0.2738666254967451,1.0278723906636238,-2.4514018032371996
1776018958894360600,8.857360595703126,1.1297539715141058,1.2787836725085973,-2.60739023732841
1776018958904420600,8.867420654296875,1.7676672596484422,1.5336691186815499,-2.2859862001091242
1776018958914480400,8.87748046875,1.8745348122179508,2.0765373939871785,-1.9033049796283243
1776018958924541400,8.88754150390625,1.4024458541430531,2.4108219555675983,-1.25844990953207
1776018958934601500,8.8976015625,0.8817010017096996,2.3433067546993493,-0.34723113691508767
1776018958944661500,8.90766162109375,0.6428080744385719,1.9417220963060855,0.5460872373521327
1776018958954721500,8.917721435546875,0.4886787122175097,1.327277946564555,1.2546160304576157
1776018958964781600,8.927781494140625,0.2077618759483099,0.7635299648374319,1.5667331838935612
1776018958974841600,8.937841552734374,-0.03278583279252052,0.46201545395851135,1.4473352355748414
1776018958984901400,8.9479013671875,-0.13074468724131583,0.3111398328363895,0.8503396487623452
1776018958994962400,8.95796240234375,-0.049800680479407305,0.1516208865314722,0.15205401725172996
1776018959005022500,8.9680224609375,0.2842085712909698,0.09195873725116252,-0.3389081297278404
1776018959015082500,8.97808251953125,0.8581681504309177,0.21923077994585036,-0.7507043855339288
1776018959025142500,8.988142578125,1.1636626708567142,0.462359152829647,-1.185500408655405
1776018959035202600,8.99820263671875,1.25754112412408,0.6854729116886854,-1.5192051245212554
1776018959045262600,9.0082626953125,1.4805163512952624,0.6615256343901157,-1.594634167253971
1776018959055322600,9.018322509765625,1.5044956311672926,0.907411197027564,-1.797630436235666
1776018959065383400,9.028383544921875,1.0872558691330254,1.0735095217227935,-1.8249620952755212
1776018959075443500,9.038443359375,0.6905775413513183,0.9277373612195253,-1.2977858946204184
1776018959085503500,9.04850341796875,0.6172809806026518,0.7941513130724429,-0.45744858443439
1776018959095563800,9.058563720703125,0.584419159964472,0.5507622434258461,0.34705461130440235
1776018959105623600,9.06862353515625,0.4705091415375471,0.13435118730068207,0.8942103546708822
1776018959115683600,9.07868359375,0.2914228865839541,-0.25344635328054427,1.1055781461566685
1776018959125743600,9.08874365234375,0.11774199780523777,-0.5352805966556072,1.060300496059656
1776018959135804700,9.0988046875,-0.04932955583631992,-0.6968003613889217,0.8937152646303176
1776018959145864400,9.108864501953125,0.04195332797989249,-0.6475590683579444,0.6231307295441627
1776018959155924500,9.118924560546875,0.09147007695138454,-0.4463216257423162,0.26335049217939377
1776018959165984500,9.128984619140626,0.2612562963791191,-0.22904665603935717,-0.15626257485747336
1776018959176044500,9.13904443359375,0.6037181730657816,-0.07400222479999065,-0.5638198779195547
1776018959186104600,9.1491044921875,0.8908820870310068,0.012851882788538932,-0.8856126221954822
1776018959196164600,9.15916455078125,1.192789542750269,0.014207973572611807,-1.048137180057168
1776018959206225700,9.1692255859375,1.4322522327333689,-0.027986323556303976,-1.0833008478969335
1776018959216285400,9.179285400390626,1.5842372764021158,0.04379530258476734,-1.1092799232840538
1776018959226345500,9.189345458984375,1.751074436765909,-0.03675122929215431,-1.0303963561832905
1776018959236405500,9.199405517578125,1.8324432448111474,-0.13236907357275485,-1.022096145349741
1776018959246465500,9.209465576171874,1.9138544306933878,-0.35500060187280175,-0.7618757678896189
1776018959256525600,9.219525634765626,1.9015362163901328,-0.465341383510828,-0.4616460361242294
1776018959266585600,9.229585693359375,1.8142799577414987,-0.4863759882330894,-0.3033013942956924
1776018959276646700,9.239646728515625,1.6536184172727166,-0.5330997454851866,-0.32811317946910856
1776018959286706400,9.24970654296875,1.4285884495288133,-0.38070319840610023,-0.4528571649909019
1776018959296766500,9.259766357421874,1.2301846229039133,-0.2292202590405941,-0.46283787625730033
1776018959306826800,9.26982666015625,1.1340392476178704,-0.04383446555137634,-0.47988721073567864
1776018959316886800,9.27988671875,1.217304244673252,0.07870821053385733,-0.571771713706851
1776018959326946800,9.28994677734375,1.500878609713912,0.1664776794016361,-0.5176099154084921
1776018959337006800,9.3000068359375,1.7646721694856882,0.21632336806654928,-0.35363691230416294
1776018959347068000,9.31006787109375,1.8804576263956725,0.18581074090301988,-0.02518938631415367
1776018959357128000,9.3201279296875,1.764786151254177,0.19172201077342033,0.4644213460564613
1776018959367187700,9.330187744140625,1.347619892847538,0.5282990672051906,0.967896937650442
1776018959377247700,9.340247802734375,0.4448509686678648,1.2573784809082746,1.1185942795962094
1776018959387307800,9.350307861328124,-0.8592085993945598,2.079505596143007,0.9461252508252859
1776018959397367800,9.360367919921876,-1.9931525699444115,2.853211502557993,0.7819494186252355
1776018959407427800,9.370427734375,-2.282298597637564,3.7911084387421607,0.9977975703954696
1776018959417489000,9.380489013671875,-1.8868764073967932,4.559898516064882,1.7041168707579373
1776018959427549000,9.390548828125,-1.7723475264191626,4.782669160574675,2.3838053538262844
1776018959437608700,9.400608642578124,-2.2743945465147495,4.852467503944039,2.5979297505438326
1776018959447668700,9.410668701171875,-2.8050521595448252,4.826327685037255,2.319983746778965
1776018959457728800,9.420728759765625,-2.8865672441929577,4.629368942654133,1.84264446696043
1776018959467788800,9.430788818359375,-2.6490280696183444,4.695687042692303,1.1814853277951478
1776018959477848800,9.440848876953124,-1.9643650130078196,4.0919700386703015,0.39912499028146264
1776018959487910000,9.450909912109376,-1.09666068020761,3.3673213008910414,-0.4930675948262214
1776018959497970000,9.460969970703125,-0.35062662457227706,2.5985610341846943,-1.4525941790163517
1776018959508029700,9.47102978515625,0.7176352057553828,1.7235148141890764,-2.4405904863655565
1776018959518089700,9.48108984375,2.0116478654474017,0.6514864709347487,-3.4277333917558193
1776018959528149800,9.491149658203126,3.0643694506853816,-0.7062666933923959,-4.271052932623029
1776018959538209800,9.501209716796875,3.71005629543066,-2.3749761506825684,-4.932065356793999
1776018959548270600,9.5112705078125,3.8994717828273773,-4.057454605606198,-5.447564563658833
1776018959558331000,9.521330810546875,3.3900863826677203,-5.297433038902282,-5.946555703315139
1776018959568391000,9.531390869140624,2.460719082158804,-6.0539680302858345,-6.430159304225445
1776018959578450700,9.54145068359375,1.6109163167521356,-6.248475287863612,-6.690649146276712
1776018959588510700,9.5515107421875,1.4661270298063753,-5.597913530558348,-6.395528135827183
1776018959598570800,9.56157080078125,1.921409376117587,-4.536798210984468,-5.84282118807435
1776018959608630800,9.571630859375,2.283837497642636,-3.71458867816329,-5.297497336310148
1776018959618691600,9.581691650390624,2.499676881584525,-3.165758279582858,-4.746315990689396
1776018959628752000,9.591751953125,2.570119368076324,-3.3592700963824984,-3.945875222083926
1776018959638812000,9.60181201171875,1.348895319610834,-4.416042418316007,-2.3407886343985793
1776018959648872000,9.611871826171875,-2.875463666376471,-4.115057484269142,-0.3495020044565201
1776018959658931700,9.621931640625,-4.748402733835578,-0.7445043618500232,1.671817360177636
1776018959668991700,9.63199169921875,-2.548383337086439,4.856600073704123,2.4047189625173804
1776018959679051800,9.6420517578125,-2.290064701594412,9.374413598233462,3.0364228746175765
1776018959689112800,9.65211279296875,-3.7245974464803933,11.608192056721448,4.4511932266741985
1776018959699172600,9.662172607421875,-4.972483876422047,10.82123036289215,5.530732676210999
1776018959709233000,9.67223291015625,-3.202472683995962,6.584294219404459,4.736352815079688
1776018959719293000,9.68229296875,-0.6809924052737653,2.256166815906763,3.602979484024644
1776018959729352700,9.692352783203125,0.8114059608645736,-0.8449667235523461,3.2827287084937096
1776018959739412700,9.702412841796875,0.8304403316803276,-2.776566654294729,2.972012069505453
1776018959749472800,9.71247265625,-0.49503538776785133,-3.2899873013198375,2.529235569024086
1776018959759533800,9.722533935546876,-2.181048154297471,-2.5017495962053538,1.60823189997375
1776018959769593600,9.732593505859375,-3.1385049464762207,-1.7098516150176524,0.11435177084505557
1776018959779654000,9.74265380859375,-2.393209726509452,-1.4403975452661513,-1.2323328869789838
1776018959789714000,9.7527138671875,-0.3694032212346792,-1.5042419486671685,-1.9458827231168745
1776018959799773700,9.762773681640626,1.1528864252984523,-1.782472030070424,-2.1110592567920685
1776018959809833700,9.772833740234375,1.7507617175549268,-2.2244179249465463,-2.0453087275087833
1776018959819894800,9.782894775390625,1.9175147067666052,-2.519967974463105,-1.6329665282577275
1776018959829954800,9.792954833984375,1.929411773048341,-2.2306705556005237,-0.7828945905208587
1776018959840014600,9.8030146484375,1.9486650473117828,-1.242660804247856,0.3066653177708387
1776018959850075000,9.813074951171876,1.9291035838820039,0.07373626734018325,1.3447405380189419
1776018959860135000,9.823135009765625,1.6055302397996187,1.0902303548991679,2.12651693816483
1776018959870195000,9.83319482421875,1.036837933538109,1.3029635895192622,2.4465245525896546
1776018959880254700,9.843254638671874,0.38135917809680103,0.7858844199866056,2.0105799439549443
1776018959890315800,9.853315673828124,-0.2771744348704815,0.15137304925024508,1.1784230176150798
1776018959900375800,9.863375732421876,-0.4103559938699007,-0.3641127136111259,0.5689028802722692
1776018959910435600,9.873435546875,0.2458154200106859,-0.6377437767863273,0.36466917845010755
1776018959920495900,9.883495849609375,0.9287830708801745,-0.5755775357306003,0.5198392818957567
1776018959930556000,9.893555908203124,1.0798948388457297,-0.2872323030263185,0.7291606622457504
1776018959940616000,9.903615966796876,0.7559400942303239,0.16414835967123506,0.7608844187647104
1776018959950675700,9.91367578125,0.21891689169108866,0.5715209538161754,0.6257745220512151
1776018959960736800,9.92373681640625,-0.09232055630087851,0.7683423335552215,0.2824164271771908
1776018959970796800,9.933796875,0.0774509039491415,0.8256009288251399,-0.06768588126003741
1776018959980856800,9.94385693359375,0.2603647543668747,0.7870084555804729,-0.2806733829021454
1776018959990916600,9.95391650390625,0.4874119071520865,0.6819348006904125,-0.29078678063750263
1776018960000977000,9.963976806640625,0.6691618283569812,0.604640548607707,-0.05820610525310039
1776018960011037000,9.974036865234375,0.7480050634473562,0.5679208834975957,0.27236674232780933
1776018960021096700,9.9840966796875,0.4736152908593416,0.5436795916885138,0.5946528230786323
1776018960031157800,9.99415771484375,0.04751227728128433,0.5460872373521327,0.8273135779619216
1776018960041217800,10.0042177734375,-0.17110475468039513,0.5002209737122059,0.7699772412806749
1776018960051277800,10.01427783203125,-0.27389935872256754,0.32328210605084895,0.42823008873462676
1776018960061337600,10.024337646484375,-0.2387666705429554,0.021211130332946776,0.03182721689343452
1776018960071398000,10.03439794921875,-0.11455343089699745,-0.24799159500598905,-0.4562701883047819
1776018960081458000,10.0444580078125,0.03459317447543144,-0.4264811992406845,-0.8097218071699142
1776018960091519000,10.05451904296875,0.23665508521646259,-0.5421352848559617,-0.96722941365242
1776018960101578800,10.064578857421875,0.44741891945973034,-0.4939309336572885,-0.8561760998308658
1776018960111638800,10.074638671875,0.38740781061127777,-0.4707067099362611,-0.8490735743492841
1776018960121698800,10.08469873046875,0.2873129670470953,-0.32327450726628304,-0.645883244100213
1776018960131758600,10.094758544921875,0.06245031869411468,-0.053694765308499336,-0.37614217410087586
1776018960141819000,10.10481884765625,-0.28813158995360133,0.24989947445392607,-0.24255028073489665
1776018960151879000,10.11487890625,-0.3310644304901361,0.45769992884695526,-0.19358663560152053
1776018960161940000,10.12493994140625,-0.22703502395600078,0.5930500640571117,-0.1995049197345972
1776018960171999700,10.134999755859376,-0.2257522906690836,0.6763175453305244,-0.1600029304295778
1776018960182059800,10.145059814453125,-0.19690818123966455,0.6730851392805576,0.1626484765022993
1776018960192119800,10.155119873046875,-0.08491057230532169,0.6561532937020063,0.6420037723183631
1776018960202179800,10.165179931640624,-0.18722806035503745,0.6464449696362018,1.0276362438201905
1776018960212239600,10.175239501953126,-0.3181820064328611,0.6278565890222787,1.1966267828255892
1776018960222300000,10.1852998046875,-0.41801410740762945,0.5530506466239691,1.0418085615575312
1776018960232361000,10.19536083984375,-0.30980346966609357,0.565579873329401,0.7163473579019307
1776018960242421000,10.2054208984375,-0.1253168169736862,0.6414303563445806,0.3340507528245449
1776018960252480800,10.215480712890624,-0.08434212476760149,0.6177449448525906,-0.28549276588261124
1776018960262540800,10.225540771484376,-0.10257833094298839,0.4907330143988132,-0.8667594531655312
1776018960272600800,10.235600830078125,0.03158478643968701,0.34327217015624045,-1.3607330569207667
1776018960282660600,10.24566064453125,0.13921762429326773,0.029101006799936293,-1.6832774963468313
1776018960292721700,10.2557216796875,0.09733400054872035,-0.35985505616664887,-1.9907289960592984
1776018960302781700,10.26578173828125,0.20637918941825628,-0.4510732041835785,-1.9453700974196195
1776018960312842000,10.275842041015625,0.4518193463757634,-0.413055900478363,-1.6522621803581714
1776018960322902000,10.285902099609375,0.5780133845753967,-0.23741584045588968,-1.3496855932056904
1776018960332961800,10.2959619140625,0.35764278694465756,0.11418401306271553,-1.0108137038350105
1776018960343021800,10.306021728515624,0.09874152925908565,0.34679742167294025,-0.6619803924202918
1776018960353083000,10.316082763671876,-0.02138181072473526,0.4727309092402458,-0.30649814451038837
1776018960363143000,10.326142822265625,-0.0333345527164638,0.5380687660694122,0.031191841599345207
1776018960373202700,10.33620263671875,-0.1258528235465288,0.5139519774228334,0.2297644489198923
1776018960383263000,10.346262939453124,-0.3833946294471621,0.3881546834558248,0.2530260820418596
1776018960393323000,10.356322998046876,-0.4889641050301492,0.38904783290326594,0.15209259569644928
1776018960403382800,10.3663828125,-0.31907705557644367,0.4827729953050613,0.12776187203824518
1776018960413442800,10.37644287109375,0.05317819408848881,0.5323281765908002,0.3477010925143957
1776018960423504000,10.38650390625,0.3995204193398356,0.5178115754604339,0.8206558736383914
1776018960433564000,10.39656396484375,0.5594033766515553,0.5119546661257743,1.3241887483775614
1776018960443623700,10.406623779296876,0.493926257482171,0.3710726157516241,1.585521470993757
1776018960453684000,10.41668408203125,0.2941623945504427,0.1373164668470621,1.5666203711688518
1776018960463744000,10.426743896484375,0.08270414830222725,-0.08781856870651245,1.2619511956512928
1776018960473804000,10.436803955078124,0.09751534846499561,-0.22786066112518308,1.0105115060180425
1776018960483863800,10.44686376953125,0.30924832000136376,-0.11543839703798293,0.9777139827877283
1776018960493924900,10.4569248046875,0.6146383571393788,0.13900398154258728,1.009526002112031
1776018960503985000,10.46698486328125,0.8099629224494099,0.37718379210829733,0.9966653514951467
1776018960514044700,10.477044677734375,0.8510907593905925,0.4388800775647163,0.6890443404346704
1776018960524105000,10.48710498046875,0.9752554837197065,0.44767713200449943,0.4260048139005899
1776018960534165000,10.4971650390625,0.9450205044537782,0.2400987959295511,0.09092822515964508
1776018960544225000,10.50722509765625,0.8587938811138272,0.15922726988196373,-0.13724106352329254
1776018960554285800,10.517285888671875,0.8766606694549322,0.19940204388201235,-0.11400748745203018
1776018960564345900,10.527345947265625,0.8086293357580899,0.21466332589983939,-0.11853694757521152
1776018960574406000,10.537406005859374,0.7646791348725557,0.43562136802971363,-0.15283435397446155
1776018960584466000,10.5474658203125,0.6640712272197008,0.7058902612954377,-0.18329028251469134
1776018960594525700,10.557525634765625,0.3692116441853344,0.8648428058892488,-0.2376952419191599
1776018960604586000,10.5675859375,0.02033084036707878,0.9844447523474693,-0.20584639771580696
1776018960614646800,10.577646728515624,-0.12101999656260012,1.0640098719716071,-0.08567629598081111
1776018960624707000,10.58770703125,-0.1624985466375947,1.0640320838034152,0.023306641307473182
1776018960634766800,10.597766845703125,-0.21378069784641265,1.0029869557321072,-0.03750233992040157
1776018960644827000,10.607826904296875,-0.19154606968462465,1.0410480985790491,-0.173244104796648
1776018960654887000,10.617886962890625,-0.1680458055011928,1.075237368428707,-0.3388938089415431
1776018960664946700,10.62794677734375,-0.08852920119389891,1.026689318358898,-0.47586774596124887
1776018960675007000,10.638007080078125,-0.10905629478543996,0.893694221842289,-0.5944321660652756
1776018960685067800,10.64806787109375,-0.1766902997277677,0.7689490672767162,-0.6889724442422389
1776018960695128000,10.658128173828125,-0.29706439960226416,0.7745446953266859,-0.7879989279225468
1776018960705187800,10.668187744140624,-0.1891067137084901,0.9557347906917333,-0.8124138227328658
1776018960715247900,10.678247802734376,-0.020639321794360874,1.0636661731004715,-0.9356813059613108
1776018960725308000,10.688307861328125,0.20426541213467717,0.8887123417764902,-1.0948752580955623
1776018960735367700,10.69836767578125,0.2769147610209882,0.49606911472976206,-1.3337895204156636
1776018960745428700,10.7084287109375,0.10111132713034748,0.08326689675152302,-1.7294319292783735
1776018960755488800,10.71848876953125,0.28416487827971576,-0.010572247418761253,-1.8820701761588454
1776018960765549000,10.728549072265626,0.7113536412678658,0.024838088658452034,-1.8128151458859443
1776018960775608800,10.73860888671875,0.7131089605025946,-0.1338128426402807,-2.1575977206051347
1776018960785668900,10.7486689453125,0.5552510062124579,-0.288175136834383,-2.469029522125423
1776018960795729000,10.75872900390625,0.5667653567869216,-0.4248392772525549,-2.637639245119691
1776018960805790000,10.7687900390625,0.4042150799620896,-0.5097498495578766,-2.8820281394585967
1776018960815849700,10.778849609375,0.12659282825887203,-0.41574820830225945,-3.0161124925166365
1776018960825909800,10.78890966796875,0.28915011934638024,-0.1247942544043064,-2.7173002263337374
1776018960835970000,10.798969970703125,0.6436310812592506,0.19583412226736543,-2.375656241901219
1776018960846030000,10.809030029296874,1.335711428388953,0.25309096397161485,-1.8119860015854239
1776018960856089900,10.81908984375,1.5787936240434646,-0.2705044555872679,-1.3691858279675244
1776018960866150000,10.82914990234375,1.0632406411647797,-1.0727975740611553,-0.9711664608404039
1776018960876211000,10.8392109375,0.22117957592606544,-1.5010767626345156,-0.5665186154842377
1776018960886270700,10.849270751953124,-0.7229612961489706,-1.456230489692092,-0.2899526679009199
1776018960896330800,10.859330810546876,-1.3209703708529472,-1.0876719025880097,-0.04517068259119987
1776018960906390800,10.869390869140625,-1.5367454573869703,-0.6177110425829887,0.03986994583457708
1776018960916451000,10.879451171875,-1.6150269669413566,-0.24192542683482168,0.17213731259852647
1776018960926510800,10.8895107421875,-1.5160791014552115,-0.13432488381564617,0.360798474496603
1776018960936572000,10.899572021484374,-1.3983084620773791,-0.3554652967751026,0.5015183200463652
1776018960946632000,10.9096318359375,-1.3239549396216868,-0.6616922231286764,0.5158575187832117
1776018960956692000,10.91969189453125,-1.153214926600456,-0.712673053303361,0.372247797010839
1776018960966751700,10.929751708984375,-0.5441209057152271,-0.8968114770799874,0.07422346633523702
1776018960976811800,10.939811767578124,0.3124304571688175,-0.9493541497439145,-0.02874415618628263
1776018960986872000,10.9498720703125,1.1281997278094291,-0.7373159116506576,0.20774638611823318
1776018960996931800,10.959931884765625,1.6564233916908502,-0.30698738933205605,0.760991386270523
1776018961006993000,10.969992919921875,1.8213100025087594,0.02090250277519226,1.2824296277955174
1776018961017053000,10.980052978515625,1.7476421242296694,-0.05170154566466808,1.744295444150269
1776018961027113000,10.990113037109374,1.4039455911815166,-0.5916513031750917,1.911668611086905
1776018961037172700,11.0001728515625,0.8206646414667368,-1.2451502829760313,1.8111971892952918
1776018961047232800,11.010232666015625,0.15595855040960013,-1.734515516152978,1.5541192015141247
1776018961057293000,11.02029296875,-0.436633833007887,-1.93128838057518,1.0556389339894057
1776018961067353900,11.030353759765624,-0.8850720125127584,-1.7141338223814964,0.4563935224235058
1776018961077414000,11.040413818359376,-1.1255951713342218,-1.1476339115977288,0.002022445738315582
1776018961087474000,11.050473876953125,-0.91280867215693,-0.5544412241995335,-0.2334369999527931
1776018961097534000,11.060533935546875,-0.15237674640007315,0.11567805101275444,-0.1832271541506052
1776018961107593700,11.07059375,0.9499123681485653,0.7475058817535638,0.15383154831826687
1776018961117653800,11.08065380859375,1.9342074828922748,1.1436807900577783,0.7865329470232129
1776018961127714800,11.09071484375,2.531989836168289,1.1614859113395213,1.456638778232038
1776018961137774800,11.10077490234375,2.6971944268941876,0.9698176765799522,1.92933929233402
1776018961147835000,11.1108349609375,2.648525965315103,0.5392945084720849,2.3669246539130806
1776018961157895000,11.12089501953125,2.493767949801683,-0.06642974371910094,2.7207497822657225
1776018961167955000,11.130954833984376,2.3896277763694522,-0.6536421876639127,3.0964328144222497
1776018961178015000,11.141014892578125,2.2423726838320492,-1.2690829472273588,3.5202351498425006
1776018961188075800,11.15107568359375,1.9295336458623409,-1.9585352839410304,4.072610965944826
1776018961198135800,11.1611357421875,1.3284540046066045,-2.454877954915166,4.369149441976845
1776018961208195800,11.17119580078125,0.4576199224133044,-2.4027274964392182,3.6215649420291185
1776018961218256000,11.181255859375,-0.3700998982619494,-2.086712166520953,2.3476503368616104
1776018961228316000,11.19131591796875,-0.8192623003881424,-1.4720131652355193,1.2800202285662292
1776018961238376000,11.2013759765625,-0.9054857819229364,-0.8421762160509825,0.5183098803713917
1776018961248436000,11.21143603515625,-0.7364536687981337,-0.3479945225030184,0.01618774921298027
1776018961258496800,11.221496826171874,-0.4205769436329603,0.14467735100388526,-0.33963819756805896
1776018961268556800,11.231556884765626,-0.061707391372323034,0.4521089769721031,-0.6692787327349186
1776018961278616800,11.241616943359375,0.2549256320528686,0.7449655496209859,-1.0377870509564875
1776018961288676900,11.2516767578125,0.4397421012215316,1.030510922473669,-1.4874886745259166
1776018961298737000,11.26173681640625,0.5842733217529952,1.380990247529745,-1.8864187267571686
1776018961308797000,11.271796875,0.8006045077998191,1.6757126140505074,-2.198132852350175
1776018961318858000,11.28185791015625,0.9743654030121862,1.6279799720168113,-2.4563497810333965
1776018961328918000,11.29191796875,1.016299441769719,1.4014876766353845,-2.654578981743753
1776018961338977800,11.301977783203125,0.9153181707598268,1.1374807663738726,-2.81300691794157
1776018961349037800,11.312037841796876,0.604267623642087,1.1266828935056925,-3.0822292247638106
1776018961359097900,11.322097900390625,0.23311142126023768,1.4226596440017223,-3.258844559559226
1776018961369158100,11.332158203125,0.0037198973059654234,1.9127490997999905,-3.1908018276855348
1776018961379219000,11.342218994140625,0.12319909416735171,2.334175938260555,-2.9806659160822626
1776018961389279000,11.352279052734374,0.41449674693644045,2.480983871552348,-2.6612299640655515
1776018961399339000,11.362339111328126,0.5904014492444694,2.366979306709766,-2.561552615261078
1776018961409399000,11.37239892578125,0.5863398988939822,2.0223031149744988,-2.66276258046031
1776018961419458800,11.382458740234375,0.35674496132209893,1.5839315714538096,-2.8338030377328396
1776018961429518800,11.392518798828124,0.02706877031996846,1.2250041515260934,-3.0287033862814305
1776018961439580000,11.402579833984374,-0.24632336953282355,0.9449310726046561,-3.032697716614604
1776018961449640000,11.412639892578126,-0.4086379379056394,0.76772975461483,-2.9172034977361556
1776018961459700000,11.422699951171875,-0.44242038052007554,0.8251859182834624,-2.634225637283921
1776018961469760000,11.432760009765625,-0.34009631659910083,0.8378659516364335,-2.203904129227996
1776018961479820000,11.442820068359374,-0.12603285628855226,0.5790192006170749,-1.7537188137948512
1776018961489879800,11.4528798828125,0.138174544981122,0.29600948372185226,-1.2893208486139773
1776018961499940900,11.46294091796875,0.1779575431846082,0.11577800425589084,-0.8548696934074163
1776018961510001000,11.4730009765625,-0.07182108136862515,-0.026110592812299726,-0.40466216614246364
1776018961520061000,11.48306103515625,-0.5400380203157663,-0.1366752463340759,0.1915180126339197
1776018961530121000,11.493120849609374,-1.0070131425082682,-0.25803485011458394,1.01450729765594
1776018961540181000,11.503180908203126,-1.3934193748615682,-0.43357086524069305,1.9150263970822095
1776018961550241000,11.513240966796875,-1.850045098605752,-0.6854518689006567,2.745688116428256
1776018961560302000,11.523302001953125,-2.282768991628289,-1.0495400325924158,3.5082138726592063
1776018961570361900,11.53336181640625,-2.5508289766728875,-1.3513894745141266,4.116981145808101
1776018961580422000,11.543421875,-2.712443726213276,-1.4770909068912266,4.370722390381991
1776018961590482000,11.55348193359375,-2.8579455453425644,-1.381732590329647,4.365603732194006
1776018961600542000,11.5635419921875,-3.124206956532597,-1.0384265179038048,4.018361197102069
1776018961610602000,11.57360205078125,-3.366246365135908,-0.7469277896046638,3.663189038054645
1776018961620663000,11.5836630859375,-3.1541081737995147,-0.7400000361680984,3.38224414473474
1776018961630723000,11.59372314453125,-2.597963945074379,-0.8451105159372091,2.948509613364935
1776018961640782800,11.603782958984375,-2.1557035774216056,-1.067986374387145,2.3262363774329424
1776018961650843000,11.6138427734375,-1.723781940692663,-1.2247908010363577,1.7345576017290352
1776018961660903000,11.62390283203125,-1.0930869133740664,-1.4092214857578276,1.1442393007233738
1776018961670962700,11.633962646484376,-0.7705804678708315,-1.6283242554098367,0.7447659353956579
1776018961681023700,11.644023681640626,-0.6625821577057242,-1.923278092598915,0.5900307162359356
1776018961691084000,11.654083984375,-0.4259302873596549,-2.1246803703874346,0.542220625051856
1776018961701144000,11.66414404296875,0.06584755991697311,-2.135610929724574,0.712531014484167
1776018961711203800,11.674203857421874,0.6509799827173351,-2.1202666455984116,0.7630097403556108
1776018961721263900,11.684263916015626,1.1428975307255982,-2.076432180047035,0.6050397770583629
1776018961731324000,11.694323974609375,1.5145482386261224,-1.8676999977618456,0.35559593741744755
1776018961741384000,11.704384033203125,1.8291764981001615,-1.6397048966020344,-0.1092766595378518
1776018961751444700,11.71444482421875,2.060175164990127,-1.5348112744539975,-0.8077826558008789
1776018961761504800,11.7245048828125,2.3226219863280653,-1.4924199934482574,-1.5074828302845358
1776018961771565000,11.73456494140625,2.64834593257308,-1.3948381556183098,-2.0384265667796133
1776018961781625000,11.744625,2.91543268867135,-1.199685585874319,-2.4059479197904468
1776018961791684900,11.754684814453125,2.9493069012224673,-0.8571931679189204,-2.6724130368590355
1776018961801745000,11.764744873046874,2.698102773910761,-0.3921721024036407,-2.9685160440832377
1776018961811806000,11.774805908203126,2.1710580906808374,0.06941489700973033,-3.31206410857141
1776018961821866000,11.784865966796875,1.1793073992341756,0.4425269096344709,-3.6995147354111073
1776018961831925800,11.79492578125,-0.37065380581766366,0.5573077195465564,-4.225436844351887
1776018961841986000,11.804986083984375,-2.1879078109338876,0.3222393189996481,-4.78928857871443
1776018961852046000,11.815046142578124,-3.308449717466533,-0.1981283706843853,-5.274502245169877
1776018961862105900,11.82510595703125,-3.139801123766601,-0.7061433592736721,-5.508507400399446
1776018961872167000,11.8351669921875,-2.098292714199424,-1.0417857652038336,-5.45989972909689
1776018961882227000,11.84522705078125,-0.7249383683755993,-0.7241168228596448,-4.882580902656913
1776018961892287000,11.855286865234374,0.35068332319557666,0.3141623955279588,-3.9894031059041617
1776018961902346800,11.8653466796875,0.7339990421876311,1.7545634479254484,-3.2885885404378175
1776018961912407000,11.875406982421875,0.17419409899786115,3.1381741070866584,-2.7056524586379527
1776018961922467000,11.885467041015625,-0.7123118187755346,4.224347880071401,-2.1938236108489333
1776018961932528000,11.895528076171875,-0.8245661789499222,4.670677689120173,-1.4565265500292182
1776018961942588000,11.905587890625,-0.7302611708335578,4.479928907293081,-0.6559362899504602
1776018961952648000,11.91564794921875,-0.7174252162665128,3.7746798665106294,-0.21166165986582636
1776018961962708000,11.9257080078125,-0.8048731980949639,2.7491636835843325,0.2858380721889436
1776018961972767700,11.935767822265625,-0.5680759279288351,2.6879519667744636,1.6139906096309422
1776018961982827800,11.945827880859374,-0.25153029052615167,2.8757892450690266,3.5087153924405574
1776018961992888800,11.955888916015626,-0.511088477750495,2.073767344751954,5.214665908366442
1776018962002949000,11.96594921875,-0.705339641675353,0.568004470127821,5.967385725376009
1776018962013009000,11.9760087890625,-0.7936871296267956,-1.0045102197766302,5.719827845612168
1776018962023069000,11.98606884765625,-1.3680705602020025,-2.6132676049292085,5.720611689466238
1776018962033129000,11.99612890625,-2.1172458364725113,-3.6430215715557335,5.818868650078773
1776018962043188700,12.006188720703125,-2.1996838811844586,-3.9569115798830983,4.776278582754731
1776018962053249800,12.016249755859375,-1.6358651723086832,-3.3802544322222468,2.201572179149091
1776018962063309800,12.026309814453125,-0.3469785503935069,-2.092726896765828,0.11448109631314873
1776018962073369900,12.036369873046874,1.3600842376232147,-1.0450725317895413,-0.7397833246774971
1776018962083430000,12.046429931640626,2.7338001102358103,-0.7629764226078987,-0.8275551316328347
1776018962093490000,12.056489990234375,3.2110867830842733,-0.9689449853986501,-0.7036557802416383
1776018962103551000,12.066551025390625,3.0343788015693423,-1.1483891138792037,-0.5917671846397221
1776018962113611000,12.076611083984375,2.6225737779349085,-1.1381547201126814,-0.25216902682110665
1776018962123670800,12.0866708984375,2.0940964315533637,-0.618228928977251,0.058107759445160626
1776018962133730800,12.096730712890626,1.6153694967687129,0.08871464076340198,0.7668281295999884
1776018962143790800,12.106790771484375,1.2723141842335461,0.16036241139173507,1.9247684772871434
1776018962153851100,12.11685107421875,0.8387433920580893,-0.26546938402950765,2.794140889430046
1776018962163911000,12.126910888671874,0.451506955958344,-0.6630325318217277,3.1598452561467885
1776018962173972000,12.136971923828124,0.28132742636408653,-0.9383511096924543,3.3514909868136047
1776018962184032000,12.147031982421876,0.13258421416077762,-0.9889560922920704,3.5499607182815667
1776018962194092000,12.157092041015625,0.05443999418523162,-0.7501654563516378,3.824556827096641
1776018962204151800,12.16715185546875,-0.32135493738055226,-0.5153004694223403,3.940602542378008
1776018962214211800,12.1772119140625,-0.9227823691606521,-0.06898468889892101,3.647847092016041
1776018962224273000,12.18727294921875,-1.5057061760008335,0.4218517858743667,2.396124444912374
1776018962234333000,12.1973330078125,-1.5210364316016434,0.8516600837111472,0.707354634759575
1776018962244393000,12.20739306640625,-1.056442067065835,0.8849819230765104,-0.5636769623175263
1776018962254453000,12.217452880859375,-0.12031621394110843,0.6174614517360926,-1.1578449244886635
1776018962264513000,12.227512939453124,0.8534878836601972,0.4088397440880537,-1.3724702564656734
1776018962274572800,12.23757275390625,1.4544132111370562,0.31019699902832504,-1.411996941820532
1776018962284633900,12.2476337890625,1.7378642420589923,0.5142676192432641,-1.376488990587741
1776018962294694000,12.25769384765625,1.6758026304215192,0.9311024537384509,-1.4727750895187257
1776018962304754200,12.267754150390624,1.3171405834317207,1.4739491017341613,-1.6258241091571748
1776018962314814200,12.277814208984376,0.8149193758130073,1.7631944981485603,-1.8604064797528086
1776018962324874200,12.287874267578125,0.5731149815419688,1.3821569532215594,-2.097316562643647
1776018962334934300,12.297934326171875,0.7317512632608413,0.8521768010616302,-1.9798362845145165
1776018962344995300,12.307995361328125,1.1406137306373565,0.4378746999144554,-1.3526998264603316
1776018962355055400,12.318055419921874,1.4197662606477737,-0.08586042037606238,-0.5043950445264578
1776018962365115100,12.328115234375,1.5209990222007035,-0.36385084780454635,0.2599681562647223
1776018962375175200,12.338175048828125,1.4223703056663275,-0.4360480690091848,0.8863969044409692
1776018962385235200,12.348235107421875,1.1712427507221699,-0.5262684381604195,1.5119637750908732
1776018962395295200,12.358295166015624,0.8282476439416409,-0.6402174734234809,2.260485117497295
1776018962405356300,12.368356201171874,0.5291384771713986,-0.7844652008384466,2.9888050911352035
1776018962415416300,12.378416259765626,0.24197993350103497,-0.9325544061124325,3.609418577161431
1776018962425476400,12.388476318359375,0.051049876822903746,-0.9265963744908571,4.041667838409543
1776018962435536100,12.3985361328125,-0.004835165071487427,-0.7287783849298953,4.123158373138308
1776018962445596200,12.40859619140625,0.03844992296881974,-0.6565981148600578,4.038513173770904
1776018962455656200,12.41865625,0.22644728719592094,-0.7392816587656736,3.7836113609850406
1776018962465717200,12.42871728515625,0.63939161705859,-0.762076843419671,3.377670845469832
1776018962475777000,12.438777099609375,1.0643600736487657,-0.765070180016756,2.7191195507153867
1776018962485837300,12.44883740234375,1.2959674470216036,-0.7989806329250335,1.9927518801890312
1776018962495897300,12.4588974609375,1.3742512946635483,-0.7775240033984184,1.4392634266696869
1776018962505957400,12.468957275390625,1.4391723873853683,-0.5955459725260734,1.1317897151254117
1776018962516018200,12.47901806640625,1.4922458059251307,-0.3361906874626875,1.0039952559918164
1776018962526078200,12.489078125,1.5372691890001295,-0.04851414780020714,0.9461663134880364
1776018962536138200,12.49913818359375,1.583783687415719,0.26497078685760495,0.8568684660091995
1776018962546198300,12.5091982421875,1.5872458105683325,0.4777981295019388,0.7440799989581107
1776018962556258300,12.51925830078125,1.5852145970016718,0.4795236381202936,0.6152005210667848
1776018962566318300,12.529318359375,1.6202788961201906,0.3334446036249399,0.40714901452213526
1776018962576379400,12.53937939453125,1.6337920192964375,0.1384498547911644,0.1335946698449552
1776018962586439400,12.549439453125,1.4754144981116055,-0.033310733449459076,-0.19828560707271098
1776018962596499200,12.559499267578126,1.0938507373534143,-0.16824176646471023,-0.5987143734291196
1776018962606559200,12.569559326171875,0.5355775337755679,-0.20833529192209244,-0.9846056419976055
1776018962616619300,12.579619384765625,-0.046780455875396726,-0.14013327783346174,-1.2787282890595495
1776018962626679300,12.58967919921875,-0.48351650714874267,-0.09896014044582843,-1.455405729305744
1776018962636740000,12.599739990234376,-0.5775671751778573,-0.0201817872852087,-1.594363533619046
1776018962646800400,12.60980029296875,-0.4114293221898377,0.14860416905879972,-1.7446939419485628
