time,seconds_elapsed,z,y,x
1776018950101957000,0.06495703125,-337.4501953125,-14.148651123046875,11.4073486328125
1776018950111948000,0.074947998046875,-337.57781982421875,-13.894790649414062,11.6649169921875
1776018950121939000,0.08493896484375,-337.6458740234375,-14.67022705078125,11.75750732421875
1776018950131931100,0.09493115234375,-337.114013671875,-14.66259765625,12.221420288085938
1776018950141923000,0.104923095703125,-337.63433837890625,-14.78900146484375,11.721633911132812
1776018950151913000,0.114912841796875,-337.35870361328125,-15.308792114257812,11.31280517578125
1776018950161905200,0.1249052734375,-337.3916320800781,-15.050018310546875,11.618637084960938
1776018950171898000,0.134898193359375,-337.80181884765625,-15.21783447265625,11.429718017578125
1776018950181890000,0.14489013671875,-337.64202880859375,-15.17657470703125,11.396835327148438
1776018950191881000,0.154880859375,-336.869140625,-15.4676513671875,11.4375
1776018950201873200,0.164873046875,-337.0539245605469,-15.87762451171875,11.390914916992188
1776018950211864800,0.17486474609375,-337.2896423339844,-15.644241333007812,11.344161987304688
1776018950221857000,0.18485693359375,-337.3160400390625,-15.354537963867188,11.313125610351562
1776018950231850200,0.194850341796875,-337.03558349609375,-15.81243896484375,11.195785522460938
1776018950241844000,0.204843994140625,-337.21136474609375,-15.6097412109375,11.202178955078125
1776018950251837000,0.2148369140625,-337.8709411621094,-15.87701416015625,11.217361450195312
1776018950261831200,0.2248310546875,-337.035400390625,-15.3863525390625,11.111053466796875
1776018950271822800,0.23482275390625,-337.3207702636719,-15.623184204101562,11.30169677734375
1776018950281816000,0.244816162109375,-337.941650390625,-15.3885498046875,11.279266357421875
1776018950291809000,0.25480908203125,-337.88140869140625,-16.042556762695312,11.271347045898438
1776018950301801500,0.264801513671875,-337.0137939453125,-16.122756958007812,11.334320068359375
1776018950311793400,0.27479345703125,-337.4227294921875,-16.495452880859375,11.454925537109375
1776018950321785300,0.284785400390625,-337.1614990234375,-16.551986694335938,11.602081298828125
1776018950331779600,0.294779541015625,-337.67486572265625,-16.473129272460938,11.450775146484375
1776018950341771300,0.304771240234375,-337.3045349121094,-16.848785400390625,11.507522583007812
1776018950351764500,0.314764404296875,-338.2904357910156,-16.679855346679688,11.429092407226562
1776018950361757200,0.324757080078125,-337.7113342285156,-16.663284301757812,11.349395751953125
1776018950371751400,0.33475146484375,-338.1190490722656,-16.384445190429688,11.377685546875
1776018950381744400,0.344744384765625,-337.509765625,-16.341537475585938,11.449188232421875
1776018950391737300,0.3547373046875,-338.01318359375,-16.235610961914062,11.792877197265625
1776018950401730300,0.364730224609375,-337.65631103515625,-15.83245849609375,11.7109375
1776018950411724300,0.374724365234375,-337.6367492675781,-15.823257446289062,11.862030029296875
1776018950421717500,0.384717529296875,-337.4627685546875,-15.95672607421875,11.872894287109375
1776018950431710500,0.39471044921875,-337.4755859375,-15.865234375,11.89996337890625
1776018950441703400,0.404703369140625,-337.70037841796875,-16.053192138671875,11.583969116210938
1776018950451696400,0.4146962890625,-337.72857666015625,-15.993911743164062,11.698654174804688
1776018950461690400,0.4246904296875,-337.35064697265625,-15.831939697265625,11.800262451171875
1776018950471684400,0.434684326171875,-336.9223327636719,-16.346328735351562,11.560791015625
1776018950481677300,0.44467724609375,-337.061279296875,-16.180831909179688,11.584320068359375
1776018950491671300,0.45467138671875,-337.6903076171875,-15.982269287109375,11.71063232421875
1776018950501663500,0.46466357421875,-337.5302734375,-16.078506469726562,12.069656372070312
1776018950511657500,0.474657470703125,-337.51702880859375,-16.151885986328125,11.757049560546875
1776018950521647400,0.4846474609375,-337.873779296875,-16.226104736328125,12.155960083007812
1776018950531638300,0.49463818359375,-337.65765380859375,-16.693756103515625,11.986282348632812
1776018950541630200,0.504630126953125,-338.04931640625,-16.440536499023438,12.001556396484375
1776018950551623400,0.51462353515625,-337.6212158203125,-16.876663208007812,12.057479858398438
1776018950561616400,0.524616455078125,-337.6039123535156,-16.82391357421875,12.299102783203125
1776018950571608300,0.5346083984375,-337.491943359375,-16.746932983398438,12.159210205078125
1776018950581601300,0.544601318359375,-337.78173828125,-16.662582397460938,12.150299072265625
1776018950591591400,0.55459130859375,-337.6010437011719,-16.709732055664062,12.596588134765625
1776018950601583400,0.564583251953125,-337.84820556640625,-16.392532348632812,13.071060180664062
1776018950611576300,0.574576416015625,-337.4604797363281,-16.72210693359375,12.720413208007812
1776018950621568500,0.584568603515625,-337.768798828125,-16.717208862304688,12.745651245117188
1776018950631561200,0.594561279296875,-337.7017517089844,-16.363739013671875,12.383514404296875
1776018950641555200,0.60455517578125,-337.9064025878906,-16.294601440429688,12.481369018554688
1776018950651549400,0.614549560546875,-337.6473083496094,-16.307693481445312,12.570205688476562
1776018950661542400,0.62454248046875,-337.5109558105469,-15.928298950195312,12.805282592773438
1776018950671536400,0.634536376953125,-337.93988037109375,-15.482437133789062,12.620193481445312
1776018950681529300,0.644529296875,-337.66522216796875,-15.081771850585938,12.821121215820312
1776018950691522300,0.654522216796875,-338.22283935546875,-14.53582763671875,12.880599975585938
1776018950701516300,0.664516357421875,-337.96630859375,-14.30718994140625,12.754638671875
1776018950711508200,0.67450830078125,-337.9697265625,-13.812545776367188,12.65045166015625
1776018950721503500,0.68450341796875,-337.92120361328125,-13.702117919921875,12.68988037109375
1776018950731498500,0.69449853515625,-337.3026123046875,-12.82403564453125,13.0780029296875
1776018950741491200,0.7044912109375,-338.4276123046875,-12.378982543945312,13.533538818359375
1776018950751484400,0.714484375,-338.60821533203125,-11.882659912109375,13.931427001953125
1776018950761478400,0.724478515625,-339.10693359375,-10.894515991210938,14.63720703125
1776018950771471400,0.734471435546875,-339.5124206542969,-10.250167846679688,15.598236083984375
1776018950781463300,0.74446337890625,-340.0664978027344,-10.026809692382812,15.885482788085938
1776018950791455200,0.754455322265625,-340.2154235839844,-9.469833374023438,16.213546752929688
1776018950801448400,0.764448486328125,-339.8625793457031,-10.03289794921875,16.070327758789062
1776018950811440400,0.7744404296875,-340.24945068359375,-10.012054443359375,15.850509643554688
1776018950821434600,0.7844345703125,-339.964599609375,-10.33203125,16.07354736328125
1776018950831427300,0.79442724609375,-340.5264587402344,-10.099288940429688,16.023147583007812
1776018950841419500,0.80441943359375,-340.54547119140625,-10.394210815429688,16.674179077148438
1776018950851412200,0.814412109375,-340.290771484375,-10.197647094726562,16.998062133789062
1776018950861403400,0.8244033203125,-340.4395751953125,-9.944412231445312,17.110458374023438
1776018950871395300,0.834395263671875,-340.78985595703125,-10.2178955078125,17.67919921875
1776018950881387500,0.844387451171875,-341.3856201171875,-11.094268798828125,18.280303955078125
1776018950891380200,0.854380126953125,-342.163818359375,-11.441696166992188,19.1080322265625
1776018950901373400,0.86437353515625,-341.62164306640625,-11.593292236328125,19.763702392578125
1776018950911365400,0.874365478515625,-342.06622314453125,-12.392913818359375,20.150741577148438
1776018950921358300,0.8843583984375,-343.08489990234375,-12.778472900390625,21.259750366210938
1776018950931351300,0.894351318359375,-343.2170715332031,-13.10992431640625,21.58251953125
1776018950941344300,0.90434423828125,-343.11968994140625,-13.803497314453125,22.137893676757812
1776018950951338200,0.914338134765625,-343.7353515625,-13.96783447265625,22.33587646484375
1776018950961332200,0.924332275390625,-343.38800048828125,-14.027191162109375,22.755645751953125
1776018950971326500,0.934326416015625,-343.37359619140625,-14.12762451171875,23.27783203125
1776018950981320400,0.944320556640625,-343.77874755859375,-13.692703247070312,23.458480834960938
1776018950991314400,0.954314453125,-344.1518249511719,-13.319061279296875,24.222244262695312
1776018951001309400,0.964309326171875,-343.76556396484375,-12.936370849609375,24.564102172851562
1776018951011302400,0.974302490234375,-343.96240234375,-11.883804321289062,25.624588012695312
1776018951021296400,0.98429638671875,-344.48443603515625,-11.431182861328125,26.200103759765625
1776018951031291400,0.99429150390625,-344.20928955078125,-10.49542236328125,26.581573486328125
1776018951041284400,1.004284423828125,-344.20269775390625,-9.55230712890625,27.452041625976562
1776018951051277300,1.01427734375,-344.43603515625,-8.574981689453125,27.76953125
1776018951061269200,1.024269287109375,-344.44146728515625,-7.6917724609375,27.95458984375
1776018951071260400,1.034260498046875,-343.998291015625,-6.7158966064453125,28.02642822265625
1776018951081252400,1.04425244140625,-343.3197326660156,-5.9036712646484375,28.047286987304688
1776018951091245300,1.054245361328125,-343.54180908203125,-4.732513427734375,28.025985717773438
1776018951101236200,1.064236328125,-342.7716979980469,-4.0921173095703125,28.19775390625
1776018951111227400,1.074227294921875,-342.9129943847656,-3.11029052734375,28.3612060546875
1776018951121220400,1.084220458984375,-342.4622802734375,-2.5640869140625,28.267776489257812
1776018951131211300,1.094211181640625,-342.6444396972656,-1.959136962890625,28.191818237304688
1776018951141203500,1.104203369140625,-342.3157958984375,-1.129608154296875,28.683334350585938
1776018951151195400,1.1141953125,-342.2815246582031,0.0489044189453125,28.366165161132812
1776018951161186600,1.1241865234375,-342.25140380859375,0.5350494384765625,28.898208618164062
1776018951171177500,1.134177490234375,-341.76495361328125,1.372528076171875,29.078811645507812
1776018951181169200,1.144169189453125,-341.78021240234375,1.926483154296875,29.6790771484375
1776018951191161300,1.154161376953125,-341.11956787109375,2.7093353271484375,29.889724731445312
1776018951201153300,1.1641533203125,-341.1221923828125,3.4152374267578125,30.238540649414062
1776018951211145500,1.1741455078125,-340.7821044921875,3.5543670654296875,30.535369873046875
1776018951221138400,1.184138427734375,-340.23333740234375,4.2314605712890625,30.615005493164062
1776018951231130400,1.19413037109375,-339.92059326171875,4.80078125,30.914627075195312
1776018951241122600,1.20412255859375,-339.73187255859375,5.689361572265625,30.844528198242188
1776018951251114500,1.214114501953125,-339.25677490234375,5.8351287841796875,31.091705322265625
1776018951261106400,1.2241064453125,-339.32708740234375,6.1138763427734375,31.326690673828125
1776018951271098400,1.234098388671875,-338.9864196777344,6.4100189208984375,31.549072265625
1776018951281090300,1.24409033203125,-338.1322326660156,6.98187255859375,31.84490966796875
1776018951291083300,1.254083251953125,-337.61968994140625,7.8654632568359375,32.072845458984375
1776018951301075000,1.264074951171875,-337.59844970703125,8.2064208984375,32.12492370605469
1776018951311065900,1.27406591796875,-337.02801513671875,8.817245483398438,32.574798583984375
1776018951321056800,1.284056884765625,-336.2452392578125,9.191146850585938,32.35636901855469
1776018951331049000,1.294049072265625,-336.22314453125,9.442764282226562,32.79618835449219
1776018951341039900,1.304039794921875,-336.484619140625,10.449234008789062,32.8250732421875
1776018951351030800,1.31403076171875,-335.4728088378906,10.752410888671875,32.96290588378906
1776018951361021000,1.32402099609375,-335.5614929199219,11.061019897460938,33.004608154296875
1776018951371010800,1.3340107421875,-335.33856201171875,11.565933227539062,33.06907653808594
1776018951381001000,1.3440009765625,-334.39007568359375,11.95001220703125,33.1002197265625
1776018951390992000,1.353991943359375,-333.80303955078125,12.799072265625,33.05683898925781
1776018951400982800,1.363982666015625,-333.595458984375,12.475143432617188,33.30122375488281
1776018951410976000,1.37397607421875,-332.86328125,12.85113525390625,33.20814514160156
1776018951420968700,1.38396875,-332.36480712890625,13.19464111328125,33.75897216796875
1776018951430961000,1.3939609375,-332.8968505859375,13.047393798828125,33.96211242675781
1776018951440953900,1.403953857421875,-332.3199157714844,13.479660034179688,34.342376708984375
1776018951450945000,1.413945068359375,-332.2056579589844,13.79437255859375,34.67298889160156
1776018951460936000,1.42393603515625,-331.166015625,14.43438720703125,34.553314208984375
1776018951470928000,1.433927978515625,-330.44219970703125,14.472930908203125,35.07359313964844
1776018951480920800,1.4439208984375,-329.8592529296875,14.8153076171875,35.559173583984375
1776018951490913000,1.4539130859375,-329.80340576171875,14.618820190429688,36.15248107910156
1776018951500904700,1.46390478515625,-330.171142578125,14.543701171875,36.697021484375
1776018951510898000,1.47389794921875,-330.3900146484375,15.077056884765625,37.09025573730469
1776018951520890000,1.48389013671875,-329.6424865722656,14.768569946289062,37.391265869140625
1776018951530881800,1.4938818359375,-330.032958984375,14.337905883789062,37.89054870605469
1776018951540872700,1.503872802734375,-329.45611572265625,14.451950073242188,38.32987976074219
1776018951550864000,1.51386376953125,-329.79559326171875,14.591445922851562,38.71656799316406
1776018951560855800,1.523855712890625,-330.03009033203125,14.501602172851562,38.74176025390625
1776018951570848000,1.533847900390625,-330.201171875,13.776626586914062,39.45924377441406
1776018951580840000,1.54383984375,-330.4074401855469,13.6417236328125,39.979278564453125
1776018951590829800,1.553829833984375,-330.5359802246094,13.581253051757812,40.3101806640625
1776018951600822000,1.563822021484375,-330.3034973144531,13.353790283203125,40.86027526855469
1776018951610812000,1.57381201171875,-330.9891357421875,12.879959106445312,40.58843994140625
1776018951620802000,1.583802001953125,-331.10052490234375,12.989166259765625,40.4676513671875
1776018951630793000,1.59379296875,-330.93548583984375,12.812149047851562,40.54229736328125
1776018951640782800,1.603782958984375,-331.5386047363281,12.854263305664062,40.06416320800781
1776018951650775000,1.613775146484375,-330.857666015625,13.08624267578125,39.28407287597656
1776018951660766000,1.623765869140625,-331.33880615234375,12.95477294921875,39.11167907714844
1776018951670756900,1.6337568359375,-331.7481384277344,12.53302001953125,38.877532958984375
1776018951680748000,1.643748046875,-331.99627685546875,11.87103271484375,38.44786071777344
1776018951690739000,1.653739013671875,-331.9833984375,11.700103759765625,38.54698181152344
1776018951700731000,1.66373095703125,-332.457275390625,11.183517456054688,37.91215515136719
1776018951710722800,1.673722900390625,-332.6932373046875,11.117080688476562,37.63832092285156
1776018951720713000,1.683712890625,-332.8876953125,10.653213500976562,37.869049072265625
1776018951730702800,1.693702880859375,-333.0614013671875,10.77978515625,37.85896301269531
1776018951740693800,1.70369384765625,-332.9598388671875,10.863739013671875,38.2059326171875
1776018951750685000,1.713684814453125,-333.31427001953125,10.766647338867188,38.288665771484375
1776018951760676900,1.7236767578125,-332.99798583984375,10.432754516601562,38.487213134765625
1776018951770667800,1.733667724609375,-333.31298828125,10.215225219726562,38.30146789550781
1776018951780660000,1.743659912109375,-333.7047119140625,10.492141723632812,38.428070068359375
1776018951790652000,1.75365185546875,-333.15625,10.045578002929688,38.245086669921875
1776018951800643000,1.76364306640625,-333.3330078125,10.08636474609375,38.09727478027344
1776018951810634800,1.773634765625,-333.313232421875,10.075714111328125,38.124969482421875
1776018951820627000,1.783626953125,-333.3218994140625,10.07012939453125,37.96736145019531
1776018951830619000,1.793618896484375,-333.6502380371094,9.92510986328125,37.75433349609375
1776018951840609800,1.80360986328125,-333.23529052734375,9.905685424804688,37.8228759765625
1776018951850601000,1.81360107421875,-332.82379150390625,9.782943725585938,37.4530029296875
1776018951860593000,1.823593017578125,-333.1219482421875,9.728195190429688,37.01806640625
1776018951870585900,1.8335859375,-333.0855712890625,9.54827880859375,36.727142333984375
1776018951880579000,1.8435791015625,-333.218994140625,9.628646850585938,35.7476806640625
1776018951890570800,1.85357080078125,-333.29656982421875,9.07720947265625,34.642730712890625
1776018951900564000,1.86356396484375,-333.99090576171875,8.846206665039062,33.402435302734375
1776018951910556000,1.873555908203125,-334.01617431640625,8.273727416992188,32.21708679199219
1776018951920548900,1.883548828125,-334.62713623046875,7.9063720703125,30.813568115234375
1776018951930539000,1.8935390625,-334.3072814941406,7.269012451171875,29.155975341796875
1776018951940529000,1.90352880859375,-334.27398681640625,7.11248779296875,28.082855224609375
1776018951950519800,1.913519775390625,-333.92333984375,7.14453125,26.798965454101562
1776018951960512000,1.923511962890625,-333.52215576171875,7.403839111328125,26.015777587890625
1776018951970503700,1.933503662109375,-332.8863220214844,7.46923828125,25.421600341796875
1776018951980496000,1.943495849609375,-332.59814453125,7.1221771240234375,24.796005249023438
1776018951990486800,1.95348681640625,-332.0811462402344,7.4886016845703125,24.408859252929688
1776018952000479000,1.96347900390625,-332.4527282714844,7.1522064208984375,24.565994262695312
1776018952010471000,1.973470947265625,-332.8096618652344,7.2816925048828125,24.372772216796875
1776018952020461800,1.9834619140625,-331.59521484375,7.9744720458984375,24.309646606445312
1776018952030454000,1.9934541015625,-331.224609375,8.161026000976562,23.70220947265625
1776018952040447000,2.003447021484375,-330.5021057128906,8.29998779296875,23.4251708984375
1776018952050440000,2.01343994140625,-329.7725830078125,8.356155395507812,22.608779907226562
1776018952060433000,2.023432861328125,-328.72369384765625,8.848297119140625,22.303390502929688
1776018952070424800,2.0334248046875,-328.40399169921875,8.701187133789062,21.8153076171875
1776018952080417000,2.0434169921875,-328.0285949707031,8.8004150390625,21.794952392578125
1776018952090408700,2.05340869140625,-327.4072570800781,8.979705810546875,21.769195556640625
1776018952100401000,2.06340087890625,-327.3841247558594,9.089431762695312,21.30731201171875
1776018952110393900,2.073393798828125,-327.19671630859375,8.55609130859375,20.704177856445312
1776018952120385000,2.083385009765625,-327.4095458984375,8.587570190429688,20.519927978515625
1776018952130377700,2.093377685546875,-327.3135986328125,8.265884399414062,20.174667358398438
1776018952140370000,2.103369873046875,-327.1110534667969,8.246200561523438,19.999908447265625
1776018952150361900,2.11336181640625,-327.0391845703125,8.115310668945312,19.584228515625
1776018952160353800,2.123353759765625,-326.66668701171875,8.1143798828125,18.96966552734375
1776018952170345700,2.133345703125,-326.1785888671875,7.8709869384765625,18.804000854492188
1776018952180338000,2.143337890625,-325.6357421875,7.95452880859375,17.839675903320312
1776018952190328800,2.153328857421875,-325.8370361328125,7.1974334716796875,17.580474853515625
1776018952200319700,2.16331982421875,-325.37200927734375,7.144744873046875,16.411941528320312
1776018952210311000,2.173310791015625,-324.835693359375,6.45361328125,16.031967163085938
1776018952220300800,2.18330078125,-324.4788818359375,6.217376708984375,15.366470336914062
1776018952230292700,2.193292724609375,-323.9383544921875,6.2180633544921875,14.912673950195312
1776018952240285000,2.203284912109375,-322.591552734375,6.4722900390625,14.404769897460938
1776018952250275800,2.21327587890625,-322.32586669921875,6.8716278076171875,14.186996459960938
1776018952260266800,2.223266845703125,-321.55633544921875,6.9945831298828125,14.1092529296875
1776018952270258000,2.2332578125,-320.368408203125,7.087493896484375,13.820846557617188
1776018952280248800,2.243248779296875,-320.01129150390625,6.919830322265625,14.073379516601562
1776018952290239700,2.25323974609375,-320.1976013183594,7.626373291015625,14.109878540039062
1776018952300230100,2.263230224609375,-320.5653076171875,7.365753173828125,14.382522583007812
1776018952310222300,2.273222412109375,-320.7215576171875,7.4368743896484375,14.62615966796875
1776018952320213200,2.283213134765625,-321.09417724609375,7.1220550537109375,15.01025390625
1776018952330204200,2.2932041015625,-321.392578125,7.4007568359375,15.152816772460938
1776018952340195000,2.303195068359375,-321.8486328125,6.93670654296875,15.26190185546875
1776018952350188300,2.313188232421875,-321.52093505859375,7.0373687744140625,14.881729125976562
1776018952360179200,2.32317919921875,-321.67529296875,7.1063690185546875,14.972259521484375
1776018952370170400,2.33317041015625,-321.21746826171875,7.2434539794921875,14.855072021484375
1776018952380162300,2.343162353515625,-320.31732177734375,7.3517303466796875,14.418930053710938
1776018952390154200,2.353154296875,-320.40380859375,7.139129638671875,14.519180297851562
1776018952400147200,2.363147216796875,-319.78729248046875,6.9857940673828125,14.548065185546875
1776018952410138400,2.373138427734375,-320.0146789550781,6.9970245361328125,14.31890869140625
1776018952420130300,2.38313037109375,-320.0064392089844,6.9412841796875,14.040115356445312
1776018952430121200,2.393121337890625,-320.45697021484375,7.1340484619140625,14.301040649414062
1776018952440112400,2.4031123046875,-319.69195556640625,6.911376953125,14.180694580078125
1776018952450101200,2.413101318359375,-319.6444091796875,7.0597686767578125,14.383987426757812
1776018952460090400,2.42309033203125,-320.1560363769531,7.21368408203125,14.377365112304688
1776018952470080300,2.433080322265625,-320.21478271484375,7.446685791015625,14.323516845703125
1776018952480069400,2.4430693359375,-319.223876953125,7.3768157958984375,14.342605590820312
1776018952490058200,2.453058349609375,-319.2786865234375,7.573089599609375,14.413101196289062
1776018952500048400,2.46304833984375,-319.21417236328125,7.4485626220703125,14.350173950195312
1776018952510039300,2.473039306640625,-319.43511962890625,7.4937744140625,14.3321533203125
1776018952520028400,2.4830283203125,-319.5890197753906,7.49822998046875,14.601226806640625
1776018952530017300,2.493017333984375,-319.5953369140625,7.799072265625,14.43658447265625
1776018952540008200,2.50300830078125,-319.0784912109375,7.3036346435546875,14.513519287109375
1776018952550000000,2.513000244140625,-319.80224609375,7.5683135986328125,14.564620971679688
1776018952559992300,2.522992431640625,-319.82672119140625,7.542266845703125,14.850723266601562
1776018952569983200,2.532983154296875,-319.80181884765625,7.4902801513671875,14.828521728515625
1776018952579972400,2.542972412109375,-320.1693115234375,7.3031158447265625,14.833877563476562
1776018952589962200,2.552962158203125,-319.6910400390625,7.357177734375,14.647857666015625
1776018952599954400,2.562954345703125,-319.87469482421875,7.3740692138671875,14.628555297851562
1776018952609946400,2.5729462890625,-320.2037353515625,7.0787200927734375,14.871826171875
1776018952619937300,2.582937255859375,-319.97869873046875,7.492156982421875,14.891632080078125
1776018952629929200,2.59292919921875,-320.4104919433594,7.3837127685546875,15.208816528320312
1776018952639920000,2.602920166015625,-320.7225036621094,7.419036865234375,15.052474975585938
1776018952649912300,2.612912353515625,-320.0386962890625,7.3204193115234375,15.233596801757812
1776018952659905300,2.6229052734375,-320.2203369140625,7.3567352294921875,15.213150024414062
1776018952669896400,2.632896484375,-320.3228759765625,7.436981201171875,15.24993896484375
1776018952679888100,2.64288818359375,-320.2447814941406,7.1111602783203125,15.577285766601562
1776018952689879300,2.65287939453125,-320.2763671875,7.5027923583984375,15.346878051757812
1776018952699870500,2.662870361328125,-320.99713134765625,7.256195068359375,15.51123046875
1776018952709861400,2.672861328125,-321.2454833984375,7.4861297607421875,15.471405029296875
1776018952719851300,2.682851318359375,-320.7271728515625,7.4118499755859375,15.579818725585938
1776018952729841200,2.692841064453125,-321.4219970703125,7.2463836669921875,15.707916259765625
1776018952739832300,2.702832275390625,-321.0794677734375,7.171783447265625,15.648956298828125
1776018952749822500,2.712822509765625,-321.1143798828125,6.6725616455078125,16.117874145507812
1776018952759813400,2.7228134765625,-320.8785095214844,6.9239654541015625,15.722061157226562
1776018952769804300,2.73280419921875,-320.76397705078125,7.0361480712890625,15.83782958984375
1776018952779795500,2.74279541015625,-321.1510009765625,6.9698486328125,15.830764770507812
1776018952789786400,2.752786376953125,-321.0975341796875,6.90716552734375,15.97161865234375
1776018952799776300,2.7627763671875,-321.9144287109375,6.694671630859375,15.6907958984375
1776018952809767200,2.77276708984375,-321.3341369628906,6.5746002197265625,15.602783203125
1776018952819759400,2.78275927734375,-321.84381103515625,6.1858367919921875,16.00018310546875
1776018952829751300,2.792751220703125,-320.84197998046875,6.3811798095703125,15.830657958984375
1776018952839743500,2.802743408203125,-321.8502502441406,6.44830322265625,16.107025146484375
1776018952849735200,2.812735107421875,-321.6627197265625,6.1727294921875,15.816390991210938
1776018952859727400,2.822727294921875,-321.87261962890625,6.6087188720703125,16.148544311523438
1776018952869720300,2.83272021484375,-321.67474365234375,6.0927886962890625,16.285797119140625
1776018952879712300,2.842712158203125,-322.0078430175781,5.905609130859375,16.396759033203125
1776018952889705200,2.852705322265625,-322.3261413574219,6.1961517333984375,16.51312255859375
1776018952899697400,2.862697509765625,-322.4753112792969,5.775360107421875,16.354995727539062
1776018952909688300,2.872688232421875,-322.5451354980469,5.6905975341796875,16.802520751953125
1776018952919680300,2.88268017578125,-322.7109375,5.425994873046875,16.85162353515625
1776018952929671200,2.892671142578125,-322.87811279296875,5.8703460693359375,17.023513793945312
1776018952939663400,2.902663330078125,-322.6282958984375,5.859619140625,17.164459228515625
1776018952949655300,2.9126552734375,-323.2678527832031,5.9259033203125,17.279190063476562
1776018952959646200,2.922646240234375,-322.8993225097656,5.1805572509765625,17.429183959960938
1776018952969637400,2.932637451171875,-323.10308837890625,5.2440643310546875,17.5936279296875
1776018952979629300,2.94262939453125,-323.75897216796875,5.20257568359375,17.611373901367188
1776018952989621500,2.95262158203125,-324.1656494140625,4.955535888671875,17.737380981445312
1776018952999612400,2.9626123046875,-324.2564697265625,4.6655120849609375,18.009872436523438
1776018953009603300,2.972603271484375,-324.0067138671875,4.6520843505859375,17.986526489257812
1776018953019594200,2.98259423828125,-324.73004150390625,4.6510772705078125,18.033493041992188
1776018953029586400,2.99258642578125,-324.8931884765625,4.3633575439453125,18.254714965820312
1776018953039578000,3.002578125,-324.8185729980469,4.225341796875,18.398880004882812
1776018953049570300,3.0125703125,-324.769775390625,3.6539154052734375,18.274124145507812
1776018953059562200,3.022562255859375,-324.7620849609375,3.9739990234375,18.1646728515625
1776018953069554400,3.032554443359375,-325.3790588378906,3.42828369140625,18.018142700195312
1776018953079545300,3.04254541015625,-325.2156982421875,3.01666259765625,18.007080078125
1776018953089536300,3.052536376953125,-325.30462646484375,2.4774169921875,18.088699340820312
1776018953099527400,3.06252734375,-324.77630615234375,2.25341796875,17.977996826171875
1776018953109518300,3.072518310546875,-325.0048828125,2.179107666015625,18.249847412109375
1776018953119511300,3.08251123046875,-326.03631591796875,1.755462646484375,18.172378540039062
1776018953129503200,3.092503173828125,-325.94964599609375,1.68951416015625,18.179855346679688
1776018953139496400,3.102496337890625,-326.33026123046875,1.3947906494140625,18.43402099609375
1776018953149489400,3.112489501953125,-326.7908935546875,1.0160064697265625,18.763626098632812
1776018953159481300,3.1224814453125,-327.31878662109375,1.009765625,18.25262451171875
1776018953169473500,3.1324736328125,-327.814453125,0.721435546875,18.972671508789062
1776018953179465200,3.14246533203125,-327.8096923828125,0.5303497314453125,18.975067138671875
1776018953189457200,3.15245703125,-327.6458435058594,0.45794677734375,19.03179931640625
1776018953199450400,3.162450439453125,-327.6061096191406,0.080474853515625,19.155136108398438
1776018953209443300,3.172443359375,-327.76348876953125,0.07806396484375,19.362747192382812
1776018953219436300,3.182436279296875,-327.8143310546875,-0.0400543212890625,19.406005859375
1776018953229430300,3.19243017578125,-327.9712219238281,-0.201171875,19.912734985351562
1776018953239424300,3.20242431640625,-328.3929748535156,-0.65008544921875,19.900909423828125
1776018953249418200,3.212418212890625,-327.8458251953125,-0.697174072265625,19.838973999023438
1776018953259409200,3.2224091796875,-328.61090087890625,-0.66448974609375,20.165603637695312
1776018953269403100,3.232403076171875,-328.0906982421875,-0.7884674072265625,19.865447998046875
1776018953279394300,3.242394287109375,-327.8298645019531,-0.3168487548828125,19.549331665039062
1776018953289386200,3.25238623046875,-327.9253845214844,-0.37860107421875,19.833419799804688
1776018953299379200,3.262379150390625,-327.7156982421875,0.1151885986328125,19.876083374023438
1776018953309372000,3.272371826171875,-327.8221740722656,-0.2735137939453125,19.505905151367188
1776018953319366000,3.282365966796875,-328.09857177734375,-0.206146240234375,19.1275634765625
1776018953329360100,3.292360107421875,-327.306884765625,0.0346221923828125,19.070663452148438
1776018953339354000,3.30235400390625,-327.3738708496094,-0.06903076171875,19.13763427734375
1776018953349349000,3.31234912109375,-327.28741455078125,0.4642181396484375,19.2069091796875
1776018953359343000,3.322343017578125,-327.24493408203125,0.1189117431640625,19.114349365234375
1776018953369337000,3.332337158203125,-326.5343017578125,0.179718017578125,18.755661010742188
1776018953379331000,3.3423310546875,-326.22198486328125,0.4395599365234375,18.888717651367188
1776018953389324000,3.352323974609375,-326.3236083984375,0.47845458984375,18.616073608398438
1776018953399316000,3.36231591796875,-326.34796142578125,0.9610443115234375,18.567153930664062
1776018953409309000,3.372308837890625,-325.4952392578125,0.95556640625,18.214935302734375
1776018953419300000,3.382300048828125,-325.3071594238281,1.1135406494140625,17.875579833984375
1776018953429292800,3.392292724609375,-325.04949951171875,1.4665679931640625,18.434539794921875
1776018953439286000,3.4022861328125,-324.8140563964844,1.1925811767578125,18.0810546875
1776018953449280000,3.412280029296875,-324.8173522949219,1.14105224609375,17.847183227539062
1776018953459273200,3.422273193359375,-324.70806884765625,0.8639678955078125,18.2203369140625
1776018953469265000,3.432264892578125,-324.82061767578125,1.0172576904296875,17.9671630859375
1776018953479258000,3.442258056640625,-324.81854248046875,0.96282958984375,17.84051513671875
1776018953489250000,3.45225,-324.9827880859375,0.751251220703125,18.161849975585938
1776018953499241200,3.4622412109375,-324.8565673828125,0.829620361328125,17.91461181640625
1776018953509232000,3.472232177734375,-324.86053466796875,1.253570556640625,18.249069213867188
1776018953519223000,3.48222314453125,-324.89971923828125,1.3515472412109375,18.306396484375
1776018953529213000,3.492212890625,-324.99993896484375,0.878753662109375,18.229446411132812
1776018953539204000,3.5022041015625,-324.71539306640625,0.9972076416015625,17.980392456054688
1776018953549196000,3.512196044921875,-324.6470947265625,1.107086181640625,17.587188720703125
1776018953559188000,3.52218798828125,-324.4771728515625,1.068023681640625,17.696792602539062
1776018953569181000,3.532180908203125,-324.3283386230469,0.893707275390625,17.733566284179688
1776018953579173000,3.542173095703125,-324.9699401855469,0.893890380859375,17.988418579101562
1776018953589165800,3.552165771484375,-324.72589111328125,0.9362945556640625,17.814727783203125
1776018953599160000,3.56216015625,-324.949951171875,0.81390380859375,17.558563232421875
1776018953609153000,3.572153076171875,-324.87158203125,0.7261810302734375,17.492843627929688
1776018953619146000,3.58214599609375,-324.51873779296875,0.9277191162109375,17.61663818359375
1776018953629139000,3.592138916015625,-325.2591552734375,0.9681396484375,17.389251708984375
1776018953639132000,3.6021318359375,-325.01446533203125,1.3423614501953125,17.805831909179688
1776018953649123800,3.612123779296875,-324.660888671875,0.803985595703125,17.74273681640625
1776018953659115000,3.622114990234375,-325.24688720703125,1.499267578125,17.881744384765625
1776018953669106000,3.63210595703125,-325.23101806640625,1.2868499755859375,17.987030029296875
1776018953679099100,3.64209912109375,-324.883056640625,1.54296875,17.909210205078125
1776018953689091800,3.652091796875,-324.4534912109375,1.1588897705078125,17.997100830078125
1776018953699085000,3.6620849609375,-325.2501525878906,1.25262451171875,17.798629760742188
1776018953709077000,3.672076904296875,-324.3504638671875,1.862213134765625,17.838836669921875
1776018953719067100,3.682067138671875,-324.30633544921875,1.96099853515625,18.103469848632812
1776018953729059000,3.69205908203125,-324.17449951171875,2.0708465576171875,17.899581909179688
1776018953739051000,3.702051025390625,-324.56268310546875,2.361236572265625,17.876617431640625
1776018953749042000,3.7120419921875,-324.3423767089844,2.2356109619140625,17.990264892578125
1776018953759033900,3.722033935546875,-324.0982971191406,2.006317138671875,17.709976196289062
1776018953769027000,3.732027099609375,-324.2354736328125,2.1437530517578125,17.82098388671875
1776018953779019000,3.74201904296875,-323.6119384765625,2.0320587158203125,17.55181884765625
1776018953789011000,3.752010986328125,-324.3384094238281,2.0841217041015625,17.903564453125
1776018953799003000,3.7620029296875,-323.71600341796875,1.8715972900390625,17.893539428710938
1776018953808995800,3.771995849609375,-323.7715148925781,2.0033111572265625,17.775375366210938
1776018953818987000,3.781987060546875,-323.9389953613281,1.968963623046875,17.793792724609375
1776018953828979000,3.79197900390625,-324.30120849609375,2.14068603515625,17.66925048828125
1776018953838971000,3.801970947265625,-324.236083984375,1.698883056640625,17.435104370117188
1776018953848962000,3.811962158203125,-324.34796142578125,2.171295166015625,18.139511108398438
1776018953858953000,3.821952880859375,-324.2467041015625,1.9348907470703125,17.781707763671875
1776018953868944000,3.83194384765625,-324.43328857421875,2.384765625,17.659225463867188
1776018953878935000,3.84193505859375,-324.34796142578125,2.182525634765625,17.910491943359375
1776018953888924200,3.851924072265625,-324.43670654296875,2.31805419921875,17.757125854492188
1776018953898914000,3.8619140625,-324.7139892578125,1.9429779052734375,18.176925659179688
1776018953908905000,3.871905029296875,-324.82220458984375,2.210174560546875,18.126419067382812
1776018953918897000,3.88189697265625,-324.57159423828125,2.621246337890625,18.031051635742188
1776018953928888000,3.89188818359375,-324.52349853515625,2.2929534912109375,18.11907958984375
1776018953938879000,3.90187890625,-324.6688232421875,2.581451416015625,17.842376708984375
1776018953948870000,3.911869873046875,-324.4760437011719,2.352020263671875,18.114212036132812
1776018953958862000,3.921862060546875,-324.0699462890625,2.590301513671875,17.94305419921875
1776018953968854000,3.93185400390625,-323.90496826171875,2.82733154296875,17.488265991210938
1776018953978847000,3.941846923828125,-324.27178955078125,2.727996826171875,18.012985229492188
1776018953988840200,3.951840087890625,-324.27313232421875,2.9042816162109375,17.85302734375
1776018953998833000,3.9618330078125,-323.65704345703125,3.2181243896484375,17.811965942382812
1776018954008825000,3.9718251953125,-324.039794921875,3.1044464111328125,17.779861450195312
1776018954018817800,3.98181787109375,-323.94775390625,2.791351318359375,17.812164306640625
1776018954028810000,3.99181005859375,-324.2541198730469,3.00048828125,17.663894653320312
1776018954038801000,4.00180078125,-324.2181701660156,3.1732330322265625,17.873748779296875
1776018954048791800,4.011791748046875,-323.93414306640625,2.8276214599609375,17.731048583984375
1776018954058783000,4.021782958984375,-324.27288818359375,2.7637176513671875,17.86480712890625
1776018954068774000,4.03177392578125,-324.0350341796875,3.126800537109375,17.696441650390625
1776018954078764800,4.041764892578125,-324.38909912109375,3.087188720703125,17.988113403320312
1776018954088755000,4.0517548828125,-323.89208984375,3.29498291015625,17.751327514648438
1776018954098745000,4.0617451171875,-324.4094543457031,3.048248291015625,17.780410766601562
1776018954108735000,4.07173486328125,-324.53857421875,3.4429779052734375,17.58111572265625
1776018954118726000,4.081725830078125,-324.27557373046875,3.2543487548828125,17.790802001953125
1776018954128717800,4.0917177734375,-324.2401123046875,3.5465850830078125,17.99444580078125
1776018954138710000,4.1017099609375,-324.28802490234375,3.4011688232421875,17.905349731445312
1776018954148701000,4.111700927734375,-323.8501892089844,3.250274658203125,17.956817626953125
1776018954158692000,4.121692138671875,-324.2939453125,3.3853912353515625,17.656387329101562
1776018954168684000,4.13168408203125,-323.7474365234375,3.011932373046875,17.810943603515625
1776018954178675000,4.141675048828125,-323.9218444824219,2.9636688232421875,17.975250244140625
1776018954188667100,4.151667236328125,-323.6696472167969,3.07257080078125,18.087173461914062
1776018954198657000,4.161656982421875,-323.29931640625,2.6973724365234375,17.632553100585938
1776018954208648000,4.17164794921875,-323.358154296875,3.1118011474609375,17.628692626953125
1776018954218638800,4.181638916015625,-322.9888916015625,3.2331390380859375,17.3304443359375
1776018954228630000,4.191630126953125,-323.02001953125,3.1783905029296875,17.646270751953125
1776018954238620200,4.2016201171875,-323.1202392578125,3.0228729248046875,17.38861083984375
1776018954248611000,4.211611083984375,-322.84246826171875,3.263092041015625,17.466110229492188
1776018954258603000,4.22160302734375,-322.7027587890625,3.2376251220703125,17.646408081054688
1776018954268595000,4.231594970703125,-322.6469421386719,3.0440216064453125,17.408218383789062
1776018954278585900,4.2415859375,-323.0328369140625,3.097412109375,17.476211547851562
1776018954288578000,4.251578125,-322.6732177734375,3.0720672607421875,17.465164184570312
1776018954298570500,4.261570556640625,-322.56402587890625,2.9820709228515625,17.287521362304688
1776018954308561700,4.271561767578125,-322.55926513671875,3.0166168212890625,17.525222778320312
1776018954318551600,4.281551513671875,-322.5870666503906,3.16021728515625,17.360565185546875
1776018954328543500,4.29154345703125,-322.05023193359375,3.3829345703125,17.322113037109375
1776018954338534700,4.30153466796875,-322.8346252441406,3.593841552734375,17.617843627929688
1776018954348526600,4.311526611328125,-322.81982421875,3.606353759765625,17.796249389648438
1776018954358517500,4.321517578125,-322.4048767089844,3.62591552734375,17.970993041992188
1776018954368509400,4.331509521484375,-322.8442687988281,3.4459686279296875,17.425079345703125
1776018954378499600,4.34149951171875,-322.4149475097656,3.2962188720703125,18.035720825195312
1776018954388490500,4.351490478515625,-322.64666748046875,3.65447998046875,17.805801391601562
1776018954398480400,4.36148046875,-322.99761962890625,3.724884033203125,18.388442993164062
1776018954408471600,4.371471435546875,-323.06884765625,3.776519775390625,18.16241455078125
1776018954418462500,4.38146240234375,-322.35906982421875,3.82562255859375,17.916244506835938
1776018954428452600,4.39145263671875,-322.58135986328125,3.99871826171875,17.635910034179688
1776018954438445600,4.401445556640625,-323.0484619140625,3.926910400390625,17.65960693359375
1776018954448435500,4.411435546875,-323.3373718261719,3.546661376953125,17.428482055664062
1776018954458427400,4.421427490234375,-323.2052001953125,3.5294342041015625,17.442398071289062
1776018954468417300,4.431417236328125,-322.9676513671875,3.331512451171875,17.088623046875
1776018954478409500,4.441409423828125,-323.0521240234375,3.5965576171875,17.443008422851562
1776018954488401400,4.4514013671875,-323.351318359375,3.5052642822265625,17.209854125976562
1776018954498393600,4.4613935546875,-323.572265625,3.3752899169921875,17.439697265625
1776018954508386600,4.471386474609375,-323.3421630859375,3.210113525390625,17.536911010742188
1776018954518379500,4.481379638671875,-323.6678466796875,3.52227783203125,17.315353393554688
1776018954528372500,4.49137255859375,-323.1555480957031,3.697235107421875,17.21185302734375
1776018954538365700,4.50136572265625,-323.614013671875,3.38848876953125,17.561248779296875
1776018954548357400,4.511357421875,-323.615234375,3.3631744384765625,17.702117919921875
1776018954558350600,4.5213505859375,-322.96820068359375,3.169189453125,17.602127075195312
1776018954568343300,4.53134326171875,-323.39642333984375,3.28668212890625,17.646347045898438
1776018954578337500,4.541337646484375,-322.7674560546875,3.52142333984375,17.562240600585938
1776018954588329500,4.55132958984375,-323.2969970703125,3.5211334228515625,17.767730712890625
1776018954598320400,4.5613203125,-323.3541259765625,3.538421630859375,17.674179077148438
1776018954608310500,4.571310546875,-323.5480651855469,3.1991119384765625,17.5994873046875
1776018954618300400,4.581300537109375,-323.5093994140625,3.1477813720703125,17.717361450195312
1776018954628291600,4.59129150390625,-323.2989501953125,3.47613525390625,17.691253662109375
1776018954638283500,4.601283447265625,-323.4033508300781,3.0253448486328125,17.458953857421875
1776018954648275700,4.611275634765625,-323.7165832519531,2.83074951171875,17.851242065429688
1776018954658267400,4.621267333984375,-323.3483581542969,3.1762237548828125,17.580230712890625
1776018954668259600,4.631259521484375,-322.887939453125,3.5311737060546875,17.67962646484375
1776018954678250500,4.64125048828125,-322.974853515625,2.9954986572265625,17.344558715820312
1776018954688243500,4.651243408203125,-323.3184814453125,3.402313232421875,17.569549560546875
1776018954698233600,4.661233642578125,-323.38238525390625,3.2394256591796875,17.769607543945312
1776018954708225500,4.6712255859375,-323.35626220703125,3.412353515625,17.702499389648438
1776018954718215400,4.68121533203125,-323.1654052734375,3.2969970703125,17.717926025390625
1776018954728207600,4.69120751953125,-323.041259765625,3.1342620849609375,17.584579467773438
1776018954738198500,4.701198486328125,-323.1298828125,3.3913421630859375,17.593490600585938
1776018954748188400,4.7111884765625,-323.5169372558594,2.8865509033203125,17.774581909179688
1776018954758178600,4.721178466796875,-322.9942626953125,3.1380462646484375,17.738754272460938
1776018954768168400,4.73116845703125,-323.4091796875,3.349456787109375,17.6868896484375
1776018954778160600,4.74116064453125,-323.1920166015625,3.5005340576171875,17.7509765625
1776018954788151600,4.751151611328125,-322.744873046875,3.0109100341796875,17.50384521484375
1776018954798142500,4.761142578125,-323.13214111328125,3.4407958984375,17.437393188476562
1776018954808134700,4.771134765625,-322.49969482421875,3.310821533203125,17.782272338867188
1776018954818127400,4.78112744140625,-323.34197998046875,3.2390899658203125,17.488204956054688
1776018954828119600,4.79111962890625,-322.955810546875,3.2524871826171875,17.432342529296875
1776018954838111500,4.801111572265625,-323.72802734375,3.1865081787109375,17.57183837890625
1776018954848103400,4.811103515625,-323.54345703125,3.040069580078125,17.804168701171875
1776018954858095400,4.821095458984375,-323.1582336425781,2.8416900634765625,17.492706298828125
1776018954868087600,4.831087646484375,-323.1064758300781,3.153045654296875,17.418182373046875
1776018954878080500,4.84108056640625,-323.332275390625,3.2326202392578125,17.5675048828125
1776018954888074500,4.851074462890625,-323.54302978515625,3.1009368896484375,17.64111328125
1776018954898066400,4.86106640625,-322.8254089355469,2.875701904296875,17.680206298828125
1776018954908058400,4.871058349609375,-323.3643798828125,2.7066497802734375,17.359878540039062
1776018954918051600,4.881051513671875,-323.58245849609375,2.7316436767578125,17.231002807617188
1776018954928043500,4.89104345703125,-323.10418701171875,3.0959320068359375,17.01251220703125
1776018954938034400,4.901034423828125,-323.43878173828125,2.7191619873046875,16.867233276367188
1776018954948025300,4.911025390625,-323.70965576171875,2.86553955078125,17.0740966796875
1776018954958017500,4.921017578125,-323.32073974609375,3.005157470703125,16.866561889648438
1776018954968008400,4.931008544921875,-322.765869140625,3.01947021484375,16.686065673828125
1776018954977997600,4.94099755859375,-323.10882568359375,2.7121734619140625,16.871429443359375
1776018954987987500,4.950987548828125,-322.7088928222656,2.8614044189453125,16.874481201171875
1776018954997978400,4.960978271484375,-323.4896240234375,3.0291595458984375,17.179168701171875
1776018955007968500,4.970968505859375,-322.73248291015625,2.66571044921875,17.002212524414062
1776018955017958400,4.98095849609375,-323.18170166015625,2.704132080078125,16.995513916015625
1776018955027947500,4.990947509765625,-322.9068603515625,2.8036346435546875,17.485641479492188
1776018955037938700,5.000938720703125,-323.0498046875,3.0684356689453125,17.3753662109375
1776018955047927600,5.010927490234375,-323.19683837890625,2.5355987548828125,17.27020263671875
1776018955057917700,5.020917724609375,-323.52972412109375,2.7704925537109375,17.348968505859375
1776018955067907600,5.030907470703125,-322.9815673828125,2.7871246337890625,17.483047485351562
1776018955077899500,5.0408994140625,-322.978759765625,2.808929443359375,17.39306640625
1776018955087889400,5.050889404296875,-323.0009765625,2.8204498291015625,17.52581787109375
1776018955097881600,5.060881591796875,-323.14630126953125,2.8123016357421875,17.484115600585938
1776018955107872500,5.07087255859375,-323.1555480957031,3.12713623046875,17.471389770507812
1776018955117863400,5.080863525390625,-322.96246337890625,2.9439697265625,17.314056396484375
1776018955127854600,5.0908544921875,-323.12847900390625,2.75677490234375,17.660049438476562
1776018955137844500,5.100844482421875,-323.2057800292969,2.6937255859375,17.143402099609375
1776018955147834600,5.110834716796875,-322.80645751953125,2.9207000732421875,17.343765258789062
1776018955157824500,5.120824462890625,-322.5421142578125,2.992889404296875,17.426742553710938
1776018955167813600,5.130813720703125,-323.23284912109375,2.9877777099609375,17.34344482421875
1776018955177804500,5.140804443359375,-322.5503234863281,3.1785430908203125,17.23309326171875
1776018955187794400,5.15079443359375,-322.7840270996094,3.1660919189453125,17.264678955078125
1776018955197784300,5.160784423828125,-323.3854064941406,3.0371551513671875,17.187728881835938
1776018955207775500,5.170775390625,-322.70440673828125,3.0961761474609375,16.93182373046875
1776018955217765600,5.180765625,-323.0311279296875,2.9843597412109375,17.288803100585938
1776018955227756500,5.190756591796875,-323.1820068359375,2.987335205078125,17.09429931640625
1776018955237748700,5.200748779296875,-322.59600830078125,3.241546630859375,17.253570556640625
1776018955247739600,5.21073974609375,-323.2044677734375,3.238861083984375,17.1414794921875
1776018955257729500,5.2207294921875,-323.18304443359375,3.1112823486328125,17.000701904296875
1776018955267719400,5.230719482421875,-322.5910339355469,3.4052886962890625,17.142486572265625
1776018955277709600,5.24070947265625,-323.1075134277344,3.1745758056640625,16.96722412109375
1776018955287699500,5.250699462890625,-323.1590576171875,3.272705078125,16.984420776367188
1776018955297688600,5.2606884765625,-322.9705505371094,3.5518341064453125,17.355880737304688
1776018955307679500,5.270679443359375,-322.8879699707031,3.0426177978515625,17.220779418945312
1776018955317670700,5.280670654296875,-322.75640869140625,3.4655609130859375,17.204635620117188
1776018955327661600,5.29066162109375,-322.80889892578125,3.0231781005859375,17.441146850585938
1776018955337653500,5.300653564453125,-323.1917724609375,3.0901336669921875,17.371002197265625
1776018955347645400,5.3106455078125,-323.058349609375,3.145172119140625,17.352630615234375
1776018955357637400,5.320637451171875,-322.9085693359375,2.836883544921875,17.33880615234375
1776018955367629600,5.330629638671875,-323.65875244140625,3.2027587890625,17.240036010742188
1776018955377621500,5.34062158203125,-323.1695556640625,3.5491790771484375,17.269134521484375
1776018955387612700,5.35061279296875,-323.2097473144531,2.737060546875,17.236099243164062
1776018955397602600,5.3606025390625,-322.9307861328125,3.0295562744140625,17.262741088867188
1776018955407592400,5.370592529296875,-323.09197998046875,2.61944580078125,17.11907958984375
1776018955417583400,5.380583251953125,-323.15179443359375,2.785888671875,17.296463012695312
1776018955427572500,5.390572509765625,-322.75396728515625,3.228240966796875,17.19561767578125
1776018955437561600,5.4005615234375,-322.8009948730469,2.690826416015625,16.931900024414062
1776018955447550500,5.410550537109375,-322.7380065917969,2.89178466796875,17.008819580078125
1776018955457541400,5.420541259765625,-323.27197265625,3.163970947265625,17.204345703125
1776018955467532300,5.4305322265625,-323.32305908203125,3.3752899169921875,17.259002685546875
1776018955477523500,5.4405234375,-322.76934814453125,2.98394775390625,17.254425048828125
1776018955487513600,5.450513671875,-323.44073486328125,2.6914520263671875,17.395523071289062
1776018955497505500,5.460505615234375,-322.96051025390625,3.221282958984375,17.027603149414062
1776018955507496700,5.47049658203125,-322.62744140625,2.7913665771484375,17.325958251953125
1776018955517487600,5.480487548828125,-322.99359130859375,3.2475128173828125,17.2191162109375
1776018955527478500,5.490478515625,-323.27398681640625,3.002716064453125,17.22027587890625
1776018955537471500,5.500471435546875,-323.0337219238281,3.0972442626953125,17.21575927734375
1776018955547464700,5.510464599609375,-323.240234375,3.4897003173828125,17.751678466796875
1776018955557455600,5.52045556640625,-322.85089111328125,3.1307373046875,17.379486083984375
1776018955567446500,5.530446533203125,-323.0516662597656,3.05792236328125,17.580413818359375
1776018955577436400,5.5404365234375,-323.21295166015625,2.9983062744140625,17.45806884765625
1776018955587426300,5.55042626953125,-323.34539794921875,3.077911376953125,17.466262817382812
1776018955597416400,5.56041650390625,-323.70025634765625,3.14971923828125,17.452911376953125
1776018955607406600,5.570406494140625,-323.03369140625,3.039337158203125,17.396926879882812
1776018955617399600,5.580399658203125,-323.29205322265625,3.338958740234375,17.418487548828125
1776018955627390500,5.590390380859375,-322.9376220703125,3.3153228759765625,17.39593505859375
1776018955637381600,5.600381591796875,-323.2076416015625,3.0064697265625,17.472793579101562
1776018955647372500,5.61037255859375,-323.3377685546875,3.288177490234375,17.298965454101562
1776018955657363500,5.620363525390625,-323.2987060546875,3.0835418701171875,17.581436157226562
1776018955667354600,5.630354736328125,-323.3335266113281,3.2460784912109375,17.69891357421875
1776018955677344500,5.640344482421875,-322.6651611328125,2.892730712890625,17.47552490234375
1776018955687335400,5.65033544921875,-323.16302490234375,3.1524200439453125,17.207244873046875
1776018955697327600,5.66032763671875,-323.36749267578125,3.056121826171875,17.56378173828125
1776018955707318500,5.670318603515625,-323.21795654296875,2.99005126953125,17.531509399414062
1776018955717310500,5.680310546875,-323.3392333984375,3.052703857421875,17.331390380859375
1776018955727301600,5.690301513671875,-323.4255065917969,2.9140167236328125,17.758163452148438
1776018955737293600,5.70029345703125,-323.43231201171875,3.2210235595703125,17.670745849609375
1776018955747285500,5.710285400390625,-322.9698486328125,3.2200775146484375,17.354507446289062
1776018955757278500,5.720278564453125,-323.9173889160156,2.883087158203125,17.388687133789062
1776018955767270700,5.730270751953125,-323.8530578613281,3.1419677734375,17.703781127929688
1776018955777261600,5.740261474609375,-323.392822265625,2.9195098876953125,17.660552978515625
1776018955787252500,5.75025244140625,-323.2203063964844,2.767181396484375,17.797500610351562
1776018955797241300,5.760241455078125,-323.58648681640625,2.95263671875,17.634918212890625
1776018955807232500,5.770232421875,-323.5694580078125,2.6001739501953125,17.738265991210938
1776018955817223400,5.780223388671875,-323.6836242675781,2.7343292236328125,17.741607666015625
1776018955827213600,5.790213623046875,-323.386962890625,3.2323150634765625,17.777191162109375
1776018955837203500,5.800203369140625,-323.6607666015625,2.884613037109375,17.644683837890625
1776018955847193600,5.810193603515625,-323.9808349609375,2.7529144287109375,17.740036010742188
1776018955857183500,5.82018359375,-323.8374328613281,3.1253204345703125,17.77642822265625
1776018955867173400,5.83017333984375,-322.8577880859375,3.0125885009765625,17.757568359375
1776018955877161500,5.840161376953125,-323.730224609375,2.6848602294921875,17.801437377929688
1776018955887152400,5.85015234375,-323.6832275390625,2.634124755859375,17.760772705078125
1776018955897143600,5.8601435546875,-323.71905517578125,2.7888641357421875,17.487869262695312
1776018955907135500,5.870135498046875,-323.28009033203125,2.93841552734375,17.671401977539062
1776018955917126400,5.88012646484375,-323.68719482421875,2.8184967041015625,17.7960205078125
1776018955927116300,5.8901162109375,-323.8614196777344,2.919342041015625,17.517257690429688
1776018955937108500,5.9001083984375,-323.8992919921875,3.059844970703125,18.080963134765625
1776018955947100400,5.910100341796875,-323.97125244140625,2.9658966064453125,17.620956420898438
1776018955957093400,5.92009326171875,-323.28399658203125,2.8431243896484375,17.500518798828125
1776018955967086600,5.930086669921875,-323.19110107421875,3.0089263916015625,17.720428466796875
1776018955977078500,5.94007861328125,-323.891845703125,3.2668609619140625,17.647064208984375
1776018955987071500,5.950071533203125,-323.3086853027344,3.065338134765625,17.587005615234375
1776018955997062400,5.9600625,-323.4132080078125,3.1128387451171875,17.613128662109375
1776018956007052500,5.970052490234375,-323.47869873046875,3.176055908203125,17.341842651367188
1776018956017043700,5.980043701171875,-323.20404052734375,3.2232666015625,17.090805053710938
1776018956027035400,5.990035400390625,-323.3382873535156,3.1452789306640625,17.358978271484375
1776018956037028600,6.000028564453125,-324.3033447265625,3.2709503173828125,17.27081298828125
1776018956047020500,6.0100205078125,-323.9388122558594,2.797271728515625,17.538909912109375
1776018956057013500,6.020013427734375,-323.8470764160156,2.8006439208984375,17.373916625976562
1776018956067005400,6.03000537109375,-323.38421630859375,2.786529541015625,17.472122192382812
1776018956076995600,6.03999560546875,-323.7052917480469,2.704315185546875,17.513824462890625
1776018956086985500,6.0499853515625,-323.225830078125,2.88446044921875,17.343475341796875
1776018956096974600,6.059974609375,-323.7115173339844,3.0004730224609375,17.523727416992188
1776018956106964500,6.069964599609375,-323.328369140625,2.9765472412109375,17.727401733398438
1776018956116954600,6.07995458984375,-323.08270263671875,3.269683837890625,17.378448486328125
1776018956126942500,6.0899423828125,-323.22589111328125,2.9628753662109375,17.359237670898438
1776018956136931300,6.099931396484375,-323.404296875,2.996856689453125,17.64520263671875
1776018956146921500,6.10992138671875,-323.4245300292969,2.698089599609375,17.682937622070312
1776018956156911600,6.11991162109375,-323.45501708984375,2.5594329833984375,17.148818969726562
1776018956166901500,6.129901611328125,-324.3022766113281,3.1085052490234375,17.599533081054688
1776018956176892400,6.139892333984375,-323.9864501953125,3.02984619140625,17.45489501953125
1776018956186882600,6.149882568359375,-323.36474609375,3.099029541015625,17.508026123046875
1776018956196873500,6.15987353515625,-323.5400085449219,2.9162139892578125,17.5362548828125
1776018956206864600,6.16986474609375,-323.76904296875,2.7975921630859375,17.474029541015625
1776018956216855600,6.17985546875,-324.24755859375,3.142852783203125,17.821273803710938
1776018956226847500,6.189847412109375,-324.10992431640625,2.8400421142578125,17.666351318359375
1776018956236838700,6.199838623046875,-323.89453125,3.0120697021484375,17.737625122070312
1776018956246830300,6.209830322265625,-323.74505615234375,2.8313446044921875,17.495529174804688
1776018956256821500,6.219821533203125,-324.0789794921875,2.8098602294921875,17.404067993164062
1776018956266813400,6.2298134765625,-324.309814453125,2.7822113037109375,17.498062133789062
1776018956276805400,6.239805419921875,-323.529296875,2.77972412109375,17.553741455078125
1776018956286796500,6.249796630859375,-323.58306884765625,2.9081878662109375,17.591903686523438
1776018956296786400,6.259786376953125,-323.941162109375,3.068389892578125,17.4364013671875
1776018956306778000,6.269778076171875,-323.9458923339844,2.7400360107421875,17.56475830078125
1776018956316769300,6.279769287109375,-323.40673828125,2.5278472900390625,17.390655517578125
1776018956326759400,6.289759521484375,-323.92626953125,3.0770263671875,17.684097290039062
1776018956336750300,6.299750244140625,-323.7095947265625,2.9688873291015625,17.494155883789062
1776018956346742300,6.3097421875,-323.654296875,2.7172698974609375,17.3701171875
1776018956356733400,6.3197333984375,-323.39801025390625,2.9584503173828125,17.522506713867188
1776018956366724400,6.329724365234375,-323.29022216796875,2.78582763671875,17.63031005859375
1776018956376715300,6.33971533203125,-323.6041259765625,2.785369873046875,17.36724853515625
1776018956386707200,6.349707275390625,-323.7416687011719,2.722259521484375,17.617034912109375
1776018956396698000,6.359697998046875,-323.148193359375,2.6331024169921875,17.677017211914062
1776018956406690300,6.369690185546875,-323.8785400390625,2.519805908203125,17.440628051757812
1776018956416682200,6.37968212890625,-323.53460693359375,2.7833099365234375,17.461776733398438
1776018956426674400,6.38967431640625,-323.52105712890625,3.1332244873046875,17.713897705078125
1776018956436666400,6.399666259765625,-323.64849853515625,2.9520263671875,17.6175537109375
1776018956446659300,6.409659423828125,-323.6935119628906,2.5889129638671875,17.446212768554688
1776018956456651300,6.4196513671875,-323.63360595703125,3.0623626708984375,17.11962890625
1776018956466642200,6.42964208984375,-323.48681640625,2.7298431396484375,17.206130981445312
1776018956476634400,6.43963427734375,-323.92974853515625,2.70159912109375,17.070968627929688
1776018956486626000,6.4496259765625,-323.773193359375,2.7179412841796875,17.459503173828125
1776018956496618200,6.4596181640625,-324.131591796875,2.9412384033203125,17.02398681640625
1776018956506610200,6.469610107421875,-324.50714111328125,3.0983428955078125,17.14874267578125
1776018956516602400,6.479602294921875,-323.8624267578125,2.7351226806640625,17.601959228515625
1776018956526593300,6.48959326171875,-324.21453857421875,2.7496795654296875,17.163131713867188
1776018956536585200,6.499585205078125,-323.7310485839844,2.842987060546875,17.356109619140625
1776018956546577200,6.5095771484375,-323.19940185546875,2.873138427734375,17.356689453125
1776018956556570400,6.5195703125,-323.56646728515625,2.63861083984375,17.367446899414062
1776018956566563300,6.529563232421875,-323.1216735839844,2.76885986328125,17.282516479492188
1776018956576556300,6.539556396484375,-323.7945556640625,2.847259521484375,17.533767700195312
1776018956586548200,6.54954833984375,-323.3262939453125,2.87646484375,17.355987548828125
1776018956596540200,6.5595400390625,-323.31195068359375,2.7278900146484375,17.2666015625
1776018956606532400,6.569532470703125,-323.15167236328125,2.74261474609375,17.393569946289062
1776018956616524300,6.579524169921875,-323.69769287109375,2.8552398681640625,17.290908813476562
1776018956626515200,6.58951513671875,-323.8699951171875,3.2599029541015625,17.386566162109375
1776018956636506400,6.59950634765625,-323.2227783203125,2.9256134033203125,17.16790771484375
1776018956646497300,6.609497314453125,-323.5819396972656,2.9852294921875,17.359725952148438
1776018956656488200,6.61948828125,-323.29827880859375,3.0311431884765625,17.340316772460938
1776018956666480400,6.62948046875,-323.266845703125,3.0497589111328125,17.337249755859375
1776018956676471300,6.63947119140625,-323.7132263183594,2.767059326171875,17.45050048828125
1776018956686463200,6.649463134765625,-323.6458740234375,2.98138427734375,17.063735961914062
1776018956696456200,6.659456298828125,-323.696044921875,2.79339599609375,17.341201782226562
1776018956706449200,6.66944921875,-323.7235107421875,3.03912353515625,17.3504638671875
1776018956716443400,6.679443359375,-323.29949951171875,2.7675933837890625,17.367324829101562
1776018956726437400,6.689437255859375,-323.30047607421875,3.1607818603515625,17.252578735351562
1776018956736430000,6.69943017578125,-324.0648498535156,3.268402099609375,16.973358154296875
1776018956746422300,6.70942236328125,-323.2459716796875,3.099609375,17.191787719726562
1776018956756414200,6.719414306640625,-323.8056945800781,3.0154876708984375,17.425704956054688
1776018956766407200,6.7294072265625,-323.7133483886719,3.118011474609375,17.340194702148438
1776018956776399000,6.739399169921875,-324.2009582519531,3.1372222900390625,17.47735595703125
1776018956786392300,6.749392333984375,-323.63482666015625,3.1976470947265625,17.409774780273438
1776018956796385300,6.75938525390625,-323.6540832519531,2.8811187744140625,17.382736206054688
1776018956806378200,6.769378173828125,-323.869384765625,3.422088623046875,17.3875732421875
1776018956816371200,6.77937109375,-323.92041015625,3.123809814453125,17.313095092773438
1776018956826365200,6.789365234375,-323.9078369140625,3.0728607177734375,17.469528198242188
1776018956836359200,6.799359130859375,-323.36029052734375,2.8944549560546875,17.669754028320312
1776018956846353400,6.809353515625,-324.1454162597656,2.7710418701171875,17.70782470703125
1776018956856347400,6.819347412109375,-323.87109375,2.9259185791015625,17.539520263671875
1776018956866340000,6.829340087890625,-323.7692565917969,3.1606292724609375,17.574249267578125
1776018956876334000,6.839333984375,-323.7274475097656,2.9820404052734375,17.468658447265625
1776018956886327300,6.849327392578125,-323.7863464355469,3.02996826171875,17.340652465820312
1776018956896321300,6.8593212890625,-323.1115417480469,3.0677032470703125,17.4696044921875
1776018956906313200,6.869313232421875,-323.77587890625,3.2223052978515625,17.360519409179688
1776018956916305400,6.879305419921875,-324.0128173828125,3.0198516845703125,17.580490112304688
1776018956926298000,6.889298095703125,-323.7102355957031,2.9685211181640625,17.108352661132812
1776018956936290300,6.899290283203125,-323.40557861328125,3.26934814453125,17.444427490234375
1776018956946284300,6.9092841796875,-323.36981201171875,2.93792724609375,17.344940185546875
1776018956956277200,6.91927734375,-323.22265625,3.0775299072265625,17.346847534179688
1776018956966270200,6.929270263671875,-322.83343505859375,2.9658660888671875,17.281005859375
1776018956976263200,6.93926318359375,-323.6820068359375,3.2788238525390625,17.37957763671875
1776018956986255000,6.949255126953125,-323.34625244140625,3.108978271484375,17.332962036132812
1776018956996249000,6.9592490234375,-323.684326171875,3.0369415283203125,17.014083862304688
1776018957006242300,6.9692421875,-323.1973876953125,3.112335205078125,17.18707275390625
1776018957016234200,6.979234130859375,-323.20159912109375,2.5906982421875,17.27081298828125
1776018957026227200,6.989227294921875,-323.2242431640625,2.5627288818359375,17.356033325195312
1776018957036218000,6.999218017578125,-323.66754150390625,2.706146240234375,17.2320556640625
1776018957046210300,7.009210205078125,-323.8544921875,2.7398529052734375,17.49188232421875
1776018957056202200,7.0192021484375,-323.74371337890625,2.801300048828125,17.523101806640625
1776018957066193400,7.029193359375,-323.86712646484375,2.6279754638671875,17.433090209960938
1776018957076183300,7.039183349609375,-323.78521728515625,2.6043243408203125,17.349014282226562
1776018957086175200,7.04917529296875,-323.6480712890625,2.5698394775390625,17.303070068359375
1776018957096166400,7.05916650390625,-323.7290954589844,2.599334716796875,17.26495361328125
1776018957106160000,7.06916015625,-323.9176025390625,2.735015869140625,17.130172729492188
1776018957116152300,7.07915234375,-324.55029296875,2.5637359619140625,17.281509399414062
1776018957126145300,7.089145263671875,-323.462158203125,2.863494873046875,17.4271240234375
1776018957136138200,7.09913818359375,-324.15875244140625,3.05126953125,17.794830322265625
1776018957146133200,7.10913330078125,-323.931640625,2.7488250732421875,17.35870361328125
1776018957156127200,7.119127197265625,-323.37200927734375,2.795562744140625,17.363754272460938
1776018957166120200,7.1291201171875,-323.5838317871094,2.750457763671875,17.4671630859375
1776018957176113400,7.139113525390625,-323.86962890625,2.5937957763671875,17.499374389648438
1776018957186105300,7.149105224609375,-323.09716796875,2.508026123046875,17.607208251953125
1776018957196098300,7.159098388671875,-323.20513916015625,2.6441650390625,17.3463134765625
1776018957206090200,7.16909033203125,-323.0054931640625,2.6667327880859375,17.472488403320312
1776018957216081200,7.1790810546875,-323.16583251953125,2.6169586181640625,17.280044555664062
1776018957226073300,7.1890732421875,-322.8108825683594,2.55072021484375,17.361785888671875
1776018957236065000,7.19906494140625,-322.8276672363281,2.54180908203125,17.140243530273438
1776018957246056200,7.20905615234375,-323.78082275390625,2.5563812255859375,17.361770629882812
1776018957256049200,7.219049072265625,-323.18267822265625,2.586181640625,17.37188720703125
1776018957266041300,7.229041259765625,-323.3009033203125,2.58563232421875,17.440933227539062
1776018957276034300,7.239034423828125,-323.0797119140625,2.671539306640625,17.376052856445312
1776018957286026200,7.249026123046875,-323.12921142578125,2.886199951171875,17.449234008789062
1776018957296019200,7.259019287109375,-323.7543640136719,2.6372528076171875,17.192337036132812
1776018957306013700,7.269013671875,-323.20703125,2.7455291748046875,17.355056762695312
1776018957316005400,7.27900537109375,-323.4129638671875,2.70074462890625,17.261138916015625
1776018957325996300,7.288996337890625,-323.0661315917969,2.482574462890625,17.281570434570312
1776018957335988500,7.298988525390625,-322.99029541015625,2.946929931640625,17.005050659179688
1776018957345979400,7.3089794921875,-323.39324951171875,2.708709716796875,17.49542236328125
1776018957355971600,7.3189716796875,-323.36083984375,3.2773590087890625,17.370101928710938
1776018957365962500,7.32896240234375,-323.140380859375,2.567901611328125,17.378982543945312
1776018957375953400,7.338953369140625,-323.57958984375,3.001068115234375,17.384536743164062
1776018957385946600,7.348946533203125,-323.17144775390625,3.13055419921875,17.361495971679688
1776018957395938300,7.358938232421875,-323.3242492675781,2.9828338623046875,17.600311279296875
1776018957405932500,7.3689326171875,-323.31536865234375,3.173614501953125,17.395187377929688
1776018957415925500,7.378925537109375,-323.28399658203125,3.1197357177734375,16.9832763671875
1776018957425917400,7.38891748046875,-323.87725830078125,3.16839599609375,17.332763671875
1776018957435910400,7.398910400390625,-323.4024658203125,3.269317626953125,17.1082763671875
1776018957445903600,7.408903564453125,-323.3916320800781,3.2288970947265625,17.126296997070312
1776018957455894500,7.41889453125,-324.0872497558594,3.305206298828125,17.640960693359375
1776018957465886700,7.42888671875,-323.31146240234375,3.1910400390625,17.619964599609375
1776018957475878400,7.43887841796875,-323.89361572265625,3.0135345458984375,17.249313354492188
1776018957485871600,7.44887158203125,-323.3139953613281,3.55889892578125,17.564605712890625
1776018957495863600,7.458863525390625,-323.66839599609375,3.3684844970703125,17.203857421875
1776018957505856500,7.4688564453125,-323.85223388671875,3.4745025634765625,17.235214233398438
1776018957515848400,7.478848388671875,-323.4288635253906,3.81024169921875,17.125259399414062
1776018957525841400,7.48884130859375,-323.92578125,3.6114044189453125,17.411407470703125
1776018957535834600,7.498834716796875,-324.5558776855469,3.649505615234375,17.312835693359375
1776018957545828600,7.50882861328125,-324.0420227050781,3.4968719482421875,17.241455078125
1776018957555821300,7.5188212890625,-324.4251708984375,3.7906646728515625,17.383163452148438
1776018957565815600,7.528815673828125,-324.25323486328125,3.9355926513671875,17.5545654296875
1776018957575809500,7.5388095703125,-323.84027099609375,3.977142333984375,17.223739624023438
1776018957585801700,7.5488017578125,-324.3489990234375,3.7459716796875,17.301773071289062
1776018957595793400,7.55879345703125,-324.97271728515625,3.7715301513671875,17.4520263671875
1776018957605786600,7.56878662109375,-324.64990234375,3.6961669921875,17.419052124023438
1776018957615778600,7.578778564453125,-324.77252197265625,4.03753662109375,17.4095458984375
1776018957625771500,7.588771484375,-324.44488525390625,3.8665924072265625,17.656768798828125
1776018957635763500,7.598763427734375,-324.2540283203125,4.0532684326171875,17.54901123046875
1776018957645757400,7.60875732421875,-324.38568115234375,3.74835205078125,17.363815307617188
1776018957655749600,7.61874951171875,-324.6025390625,3.995269775390625,17.341094970703125
1776018957665743600,7.62874365234375,-324.99468994140625,4.348114013671875,17.289535522460938
1776018957675737600,7.638737548828125,-324.79229736328125,4.0904693603515625,17.344009399414062
1776018957685731300,7.6487314453125,-324.9006652832031,4.023101806640625,17.285888671875
1776018957695724500,7.658724609375,-324.56793212890625,4.2119903564453125,17.4002685546875
1776018957705717500,7.668717529296875,-324.96551513671875,4.1973724365234375,17.511001586914062
1776018957715710500,7.67871044921875,-325.1552734375,4.09393310546875,17.5244140625
1776018957725703400,7.688703369140625,-325.3410949707031,4.2174530029296875,17.220245361328125
1776018957735694300,7.6986943359375,-325.403076171875,4.0930633544921875,17.194320678710938
1776018957745686500,7.7086865234375,-325.117919921875,4.4058990478515625,17.29327392578125
1776018957755678500,7.718678466796875,-325.70794677734375,4.5794677734375,17.030960083007812
1776018957765672400,7.72867236328125,-325.82720947265625,4.592254638671875,17.527801513671875
1776018957775665400,7.73866552734375,-325.8682861328125,4.529754638671875,17.148330688476562
1776018957785658600,7.74865869140625,-325.5051574707031,4.5950469970703125,17.055801391601562
1776018957795651300,7.7586513671875,-325.43695068359375,4.574066162109375,17.20477294921875
1776018957805646300,7.768646240234375,-325.444580078125,4.653961181640625,17.29901123046875
1776018957815638500,7.778638427734375,-325.98162841796875,4.83477783203125,17.237106323242188
1776018957825630500,7.78863037109375,-325.78216552734375,4.9857635498046875,17.3096923828125
1776018957835623400,7.79862353515625,-326.08905029296875,4.9842071533203125,17.4005126953125
1776018957845614300,7.8086142578125,-326.2236328125,4.7909088134765625,17.407363891601562
1776018957855606500,7.8186064453125,-326.5372314453125,5.038726806640625,17.58648681640625
1776018957865597400,7.828597412109375,-326.40643310546875,4.907745361328125,17.313507080078125
1776018957875588400,7.83858837890625,-326.90667724609375,5.1556396484375,17.555892944335938
1776018957885577500,7.848577392578125,-327.03338623046875,5.173736572265625,17.591018676757812
1776018957895569700,7.858569580078125,-327.11956787109375,4.986480712890625,17.19256591796875
1776018957905562400,7.868562255859375,-327.17779541015625,5.0761566162109375,17.597183227539062
1776018957915554600,7.878554443359375,-327.05120849609375,5.4095001220703125,17.511215209960938
1776018957925546500,7.88854638671875,-327.6429748535156,5.323333740234375,17.372238159179688
1776018957935539500,7.89853955078125,-327.98358154296875,5.327117919921875,17.285781860351562
1776018957945532700,7.90853271484375,-327.8016052246094,5.4095916748046875,17.299667358398438
1776018957955524400,7.9185244140625,-327.7008056640625,5.294281005859375,17.812942504882812
1776018957965517600,7.928517578125,-327.6173095703125,5.1583099365234375,17.69720458984375
1776018957975510500,7.938510498046875,-328.18072509765625,5.1156463623046875,17.760757446289062
1776018957985503500,7.94850341796875,-328.71875,5.4608001708984375,17.944931030273438
1776018957995495700,7.95849560546875,-328.6579895019531,5.2869873046875,17.636611938476562
1776018958005488400,7.96848828125,-328.774658203125,5.2155609130859375,17.513397216796875
1776018958015480600,7.97848046875,-328.8636474609375,5.1758880615234375,18.051055908203125
1776018958025472500,7.988472412109375,-329.0361328125,5.2101287841796875,18.021469116210938
1776018958035465500,7.998465576171875,-329.7987976074219,5.5533599853515625,18.369644165039062
1776018958045458400,8.00845849609375,-330.3543701171875,5.6204986572265625,18.2965087890625
1776018958055451400,8.018451416015624,-330.05499267578125,5.1445465087890625,18.500350952148438
1776018958065444400,8.0284443359375,-330.56689453125,5.3787689208984375,18.655166625976562
1776018958075435500,8.038435546875,-330.60821533203125,5.306610107421875,18.733200073242188
1776018958085426700,8.0484267578125,-330.7744140625,5.100006103515625,19.1429443359375
1776018958095419400,8.05841943359375,-330.4256591796875,5.5117340087890625,18.997528076171875
1776018958105411600,8.06841162109375,-330.9964904785156,5.2757568359375,18.9874267578125
1776018958115404500,8.078404541015624,-330.85943603515625,5.3881072998046875,19.0291748046875
1776018958125396500,8.088396484375,-331.00982666015625,4.86297607421875,19.294403076171875
1776018958135387400,8.098387451171876,-331.35150146484375,5.3129119873046875,19.270599365234375
1776018958145379600,8.108379638671876,-331.40631103515625,5.157928466796875,19.617202758789062
1776018958155371500,8.11837158203125,-331.89190673828125,5.2909698486328125,19.764434814453125
1776018958165362700,8.12836279296875,-331.4893493652344,5.5379180908203125,19.499359130859375
1776018958175354400,8.138354248046875,-332.1639404296875,5.53021240234375,19.432937622070312
1776018958185346600,8.1483466796875,-331.9815979003906,5.0601043701171875,19.618606567382812
1776018958195337500,8.15833740234375,-332.1055908203125,5.083465576171875,19.413833618164062
1776018958205329400,8.168329345703125,-331.530029296875,5.1047210693359375,19.473861694335938
1776018958215320600,8.178320556640625,-332.61871337890625,4.7514495849609375,19.664581298828125
1776018958225311500,8.1883115234375,-332.51580810546875,4.7864227294921875,19.728759765625
1776018958235304700,8.1983046875,-332.15142822265625,4.8422088623046875,19.938629150390625
1776018958245297400,8.20829736328125,-332.2518005371094,5.1337738037109375,20.359756469726562
1776018958255288600,8.21828857421875,-332.6766052246094,4.86029052734375,20.17327880859375
1776018958265278500,8.228278564453126,-332.95416259765625,5.029571533203125,20.878662109375
1776018958275268600,8.2382685546875,-332.6003112792969,4.85089111328125,21.095550537109375
1776018958285258500,8.248258544921875,-333.20892333984375,4.8136749267578125,20.9246826171875
1776018958295248400,8.258248291015626,-332.9725341796875,5.1111297607421875,21.028915405273438
1776018958305239600,8.268239501953126,-332.9595947265625,4.7978973388671875,21.244598388671875
1776018958315230700,8.278230712890625,-332.83001708984375,4.9089508056640625,21.978713989257812
1776018958325220600,8.288220703125,-332.82073974609375,4.63018798828125,21.869155883789062
1776018958335211500,8.29821142578125,-332.8787841796875,4.83050537109375,22.636749267578125
1776018958345203700,8.30820361328125,-333.06427001953125,4.357147216796875,22.496780395507812
1776018958355193600,8.318193603515626,-332.974365234375,4.4870452880859375,22.865097045898438
1776018958365183500,8.32818359375,-333.6203308105469,4.55816650390625,23.207656860351562
1776018958375173600,8.338173583984375,-333.7541809082031,4.161102294921875,23.833755493164062
1776018958385163500,8.34816357421875,-333.5771179199219,4.583251953125,24.32373046875
1776018958395155500,8.358155517578124,-333.97113037109375,4.2031707763671875,24.794204711914062
1776018958405146600,8.368146728515624,-334.2535400390625,3.6397247314453125,25.582168579101562
1776018958415137500,8.378137451171876,-334.20623779296875,3.414947509765625,26.521713256835938
1776018958425126700,8.388126708984375,-334.8138122558594,2.5549468994140625,28.27264404296875
1776018958435117600,8.39811767578125,-335.65643310546875,1.669647216796875,29.6092529296875
1776018958445107500,8.408107421875,-335.867431640625,1.096771240234375,30.02716064453125
1776018958455097300,8.418097412109375,-335.6224365234375,0.985107421875,29.207229614257812
1776018958465087700,8.428087646484375,-335.1165771484375,1.2810516357421875,28.647811889648438
1776018958475078700,8.43807861328125,-334.33251953125,1.773834228515625,27.804519653320312
1776018958485068500,8.448068603515624,-333.4095764160156,2.345306396484375,26.745452880859375
1776018958495059500,8.4580595703125,-333.689697265625,1.6322174072265625,26.931900024414062
1776018958505050600,8.468050537109375,-334.18853759765625,1.1007232666015625,27.569107055664062
1776018958515041500,8.47804150390625,-334.6084899902344,0.450225830078125,27.9166259765625
1776018958525031700,8.48803173828125,-335.0384826660156,0.2256622314453125,28.3779296875
1776018958535022600,8.498022705078125,-335.59033203125,-0.0863494873046875,28.943649291992188
1776018958545012500,8.508012451171876,-335.92352294921875,-0.726837158203125,29.349456787109375
1776018958555002400,8.51800244140625,-335.808349609375,-1.2125701904296875,29.927825927734375
1776018958564992500,8.527992431640625,-336.15313720703125,-1.53912353515625,30.440567016601562
1776018958574982700,8.537982666015624,-336.3388366699219,-1.7418060302734375,31.026687622070312
1776018958584972500,8.54797265625,-336.066162109375,-1.309844970703125,31.25244140625
1776018958594961700,8.557961669921875,-336.0618591308594,-1.5890350341796875,31.476715087890625
1776018958604950500,8.567950439453124,-336.17840576171875,-1.6761016845703125,31.306121826171875
1776018958614939400,8.577939453125,-335.4972839355469,-1.527679443359375,32.25401306152344
1776018958624928500,8.587928466796875,-336.5572509765625,-1.6472320556640625,32.115814208984375
1776018958634917400,8.59791748046875,-335.81988525390625,-1.4385528564453125,32.59220886230469
1776018958644907500,8.607907470703125,-336.212646484375,-1.4886016845703125,32.95790100097656
1776018958654898700,8.617898681640625,-335.5716552734375,-2.156402587890625,33.1162109375
1776018958664888600,8.627888671875,-336.10784912109375,-2.774383544921875,34.05476379394531
1776018958674880500,8.637880615234375,-335.5508117675781,-2.826690673828125,34.98231506347656
1776018958684871400,8.647871337890624,-336.0889892578125,-3.4925384521484375,36.21478271484375
1776018958694863600,8.657863525390624,-336.1065673828125,-3.972900390625,36.94287109375
1776018958704854500,8.6678544921875,-336.0927429199219,-4.1570892333984375,36.80360412597656
1776018958714845700,8.677845703125,-336.0643005371094,-4.3928375244140625,36.99749755859375
1776018958724835600,8.687835693359375,-335.8715515136719,-4.9145050048828125,36.12066650390625
1776018958734824700,8.69782470703125,-336.23681640625,-4.5752105712890625,35.60968017578125
1776018958744814600,8.707814697265626,-336.1985778808594,-4.684356689453125,35.39532470703125
1776018958754803700,8.7178037109375,-335.0481262207031,-4.166351318359375,35.06770324707031
1776018958764793600,8.727793701171874,-335.97137451171875,-4.02252197265625,34.66087341308594
1776018958774782700,8.73778271484375,-335.30279541015625,-4.1657562255859375,34.92201232910156
1776018958784772600,8.747772705078125,-335.24578857421875,-3.9073944091796875,35.382171630859375
1776018958794762500,8.757762451171875,-335.1272277832031,-4.3763427734375,35.64073181152344
1776018958804752600,8.767752685546874,-335.18243408203125,-4.4567413330078125,35.8057861328125
1776018958814743600,8.77774365234375,-335.4936218261719,-4.78094482421875,36.09480285644531
1776018958824734500,8.787734375,-335.2132873535156,-4.69952392578125,35.88905334472656
1776018958834726700,8.7977265625,-334.7786560058594,-4.6260528564453125,35.581878662109375
1776018958844718300,8.80771826171875,-335.23779296875,-5.053619384765625,35.23936462402344
1776018958854709500,8.81770947265625,-334.94879150390625,-5.0930023193359375,35.10157775878906
1776018958864701400,8.827701416015625,-335.3115234375,-4.8502655029296875,35.31571960449219
1776018958874691600,8.837691650390624,-335.3482666015625,-5.161865234375,34.79579162597656
1776018958884681500,8.847681396484376,-334.9425964355469,-4.9442291259765625,34.69966125488281
1776018958894671400,8.85767138671875,-334.8567199707031,-5.1281280517578125,34.37242126464844
1776018958904660500,8.867660400390625,-334.5744934082031,-4.826934814453125,34.656585693359375
1776018958914652700,8.877652587890625,-335.19573974609375,-4.6301727294921875,34.730560302734375
1776018958924642600,8.887642578125,-334.76031494140625,-4.880584716796875,34.55810546875
1776018958934633500,8.897633544921876,-334.952392578125,-4.949798583984375,34.49256896972656
1776018958944623400,8.907623291015625,-335.12445068359375,-5.173919677734375,34.269195556640625
1776018958954614500,8.917614501953125,-335.2707824707031,-5.0284881591796875,34.17341613769531
1776018958964605700,8.927605712890625,-334.947998046875,-5.2684478759765625,34.43855285644531
1776018958974597400,8.937597412109374,-335.6578674316406,-5.4119873046875,34.2945556640625
1776018958984588500,8.947588623046874,-334.7713623046875,-5.46014404296875,33.875885009765625
1776018958994579500,8.957579345703126,-335.0460510253906,-5.042694091796875,34.115631103515625
1776018959004571400,8.9675712890625,-334.21759033203125,-5.4638519287109375,33.68080139160156
1776018959014562600,8.9775625,-334.3665771484375,-5.0058746337890625,33.5491943359375
1776018959024554500,8.987554443359375,-334.6968078613281,-4.7630462646484375,33.3863525390625
1776018959034544400,8.99754443359375,-334.14337158203125,-4.7740936279296875,33.06388854980469
1776018959044535600,9.00753564453125,-333.97113037109375,-4.7515106201171875,32.59657287597656
1776018959054526500,9.0175263671875,-334.105712890625,-4.4890594482421875,32.83299255371094
1776018959064517400,9.027517333984376,-333.94329833984375,-4.15185546875,32.72532653808594
1776018959074509600,9.037509521484376,-334.1186218261719,-4.2882537841796875,32.92729187011719
1776018959084500500,9.04750048828125,-334.2945251464844,-4.398681640625,32.61976623535156
1776018959094491400,9.057491455078125,-333.9033203125,-4.1656646728515625,32.866851806640625
1776018959104482600,9.067482666015625,-333.7539367675781,-4.6348114013671875,32.99421691894531
1776018959114472700,9.07747265625,-334.563720703125,-4.5705108642578125,32.572479248046875
1776018959124463600,9.087463623046874,-334.7117614746094,-4.6279754638671875,32.645843505859375
1776018959134452500,9.097452392578125,-334.4141540527344,-4.48468017578125,32.64984130859375
1776018959144443400,9.107443359375,-334.29742431640625,-4.1672821044921875,32.72254943847656
1776018959154434600,9.1174345703125,-334.2660217285156,-4.177581787109375,32.57102966308594
1776018959164424700,9.1274248046875,-334.1192626953125,-3.9472808837890625,32.7244873046875
1776018959174416600,9.137416748046874,-333.9786376953125,-3.866302490234375,32.12190246582031
1776018959184407600,9.147407470703126,-334.2572021484375,-4.0992889404296875,32.05485534667969
1776018959194397400,9.1573974609375,-333.74969482421875,-4.162567138671875,32.12127685546875
1776018959204388600,9.167388671875,-334.28515625,-3.925994873046875,31.877365112304688
1776018959214380500,9.177380615234375,-333.85443115234375,-3.6023406982421875,31.8629150390625
1776018959224371500,9.187371337890625,-334.1075134277344,-3.9457244873046875,31.168533325195312
1776018959234362600,9.197362548828124,-334.32501220703125,-3.7740936279296875,31.323898315429688
1776018959244352500,9.2073525390625,-334.63641357421875,-3.493896484375,31.193710327148438
1776018959254344400,9.217344482421876,-334.63531494140625,-3.40447998046875,30.9661865234375
1776018959264334300,9.227334228515625,-334.4604187011719,-3.4490509033203125,30.74908447265625
1776018959274325500,9.237325439453125,-334.640869140625,-3.51470947265625,30.7386474609375
1776018959284316400,9.24731640625,-334.2774658203125,-3.595245361328125,30.536758422851562
1776018959294307600,9.2573076171875,-333.9535827636719,-3.35784912109375,30.410202026367188
1776018959304297700,9.267297607421876,-334.26214599609375,-3.3392486572265625,30.374191284179688
1776018959314287900,9.277287841796875,-334.220947265625,-3.380096435546875,30.211044311523438
1776018959324278800,9.28727880859375,-334.4143981933594,-3.271270751953125,30.1361083984375
1776018959334269700,9.297269775390625,-334.49530029296875,-3.33660888671875,29.650039672851562
1776018959344259800,9.307259765625,-334.36187744140625,-3.2176361083984375,29.652572631835938
1776018959354251000,9.3172509765625,-333.7131652832031,-2.91143798828125,29.828598022460938
1776018959364242000,9.327241943359375,-333.8060302734375,-3.007354736328125,29.945297241210938
1776018959374232800,9.33723291015625,-334.17742919921875,-3.0120849609375,29.880584716796875
1776018959384222700,9.34722265625,-333.68194580078125,-3.1786956787109375,29.940185546875
1776018959394215000,9.35721484375,-334.032470703125,-3.4093780517578125,29.899276733398438
1776018959404205800,9.367205810546874,-334.4564208984375,-3.414642333984375,30.388015747070312
1776018959414196700,9.37719677734375,-333.84625244140625,-3.7973785400390625,30.297088623046875
1776018959424188000,9.38718798828125,-333.7339782714844,-3.44549560546875,30.164260864257812
1776018959434180900,9.397180908203126,-334.2972412109375,-3.2276611328125,30.632888793945312
1776018959444172800,9.4071728515625,-333.7816467285156,-3.58099365234375,30.628829956054688
1776018959454165800,9.417165771484376,-334.31689453125,-3.727752685546875,30.844955444335938
1776018959464156000,9.427156005859375,-334.3990478515625,-3.846832275390625,31.124221801757812
1776018959474146800,9.437146728515625,-333.7665100097656,-3.8395538330078125,31.013107299804688
1776018959484136700,9.44713671875,-333.73004150390625,-4.2775421142578125,30.772354125976562
1776018959494127900,9.4571279296875,-333.8088073730469,-4.2095489501953125,30.995498657226562
1776018959504118800,9.467118896484376,-333.4812316894531,-4.8054656982421875,31.191390991210938
1776018959514110700,9.47711083984375,-333.7493591308594,-5.106048583984375,31.102981567382812
1776018959524104000,9.48710400390625,-333.12591552734375,-5.28546142578125,31.1663818359375
1776018959534096000,9.497095947265626,-333.774169921875,-5.188446044921875,31.033828735351562
1776018959544086800,9.507086669921875,-333.7734680175781,-5.04095458984375,31.170486450195312
1776018959554078000,9.517077880859375,-333.61322021484375,-4.5711212158203125,30.858322143554688
1776018959564069600,9.527069580078125,-333.66070556640625,-5.165191650390625,31.058029174804688
1776018959574060800,9.537060791015625,-333.6234436035156,-4.999053955078125,30.61175537109375
1776018959584051000,9.547051025390624,-333.9819030761719,-4.715911865234375,30.560226440429688
1776018959594043000,9.55704296875,-333.2575988769531,-4.6592254638671875,30.197784423828125
1776018959604033800,9.56703369140625,-333.6475830078125,-4.1881256103515625,29.939254760742188
1776018959614025700,9.577025634765626,-333.73944091796875,-4.680877685546875,29.980484008789062
1776018959624019000,9.58701904296875,-333.24627685546875,-4.41168212890625,30.0714111328125
1776018959634011000,9.597010986328126,-333.4854736328125,-4.05487060546875,29.73858642578125
1776018959644002800,9.6070029296875,-333.61199951171875,-4.4537353515625,29.954345703125
1776018959653993700,9.61699365234375,-333.7165222167969,-4.7029266357421875,30.389602661132812
1776018959663985000,9.62698486328125,-333.5186767578125,-4.381744384765625,30.610122680664062
1776018959673976800,9.636976806640625,-333.98065185546875,-4.1977386474609375,30.811126708984375
1776018959683968800,9.64696875,-334.7244873046875,-4.153533935546875,30.9139404296875
1776018959693961000,9.6569609375,-333.9730529785156,-4.1938934326171875,30.93121337890625
1776018959703953700,9.66695361328125,-334.1674499511719,-4.1191558837890625,30.871505737304688
1776018959713947000,9.67694677734375,-333.8155822753906,-4.2107696533203125,31.069183349609375
1776018959723938800,9.686938720703125,-333.92041015625,-4.3558807373046875,31.159713745117188
1776018959733931800,9.696931884765625,-333.9757080078125,-4.7228546142578125,30.90606689453125
1776018959743924700,9.7069248046875,-334.1648864746094,-4.744110107421875,31.433547973632812
1776018959753919000,9.7169189453125,-334.5623779296875,-5.0693511962890625,31.861129760742188
1776018959763912700,9.72691259765625,-334.220703125,-4.7153472900390625,31.744110107421875
1776018959773906700,9.73690673828125,-334.1374816894531,-5.1782379150390625,31.774826049804688
1776018959783900700,9.746900634765625,-333.7470703125,-5.2259979248046875,31.676071166992188
1776018959793894000,9.756893798828125,-334.13775634765625,-5.1735687255859375,31.43768310546875
1776018959803885800,9.7668857421875,-334.1932373046875,-5.059417724609375,30.977294921875
1776018959813877800,9.776877685546875,-333.4134826660156,-4.90313720703125,30.75909423828125
1776018959823871700,9.786871826171875,-334.3836364746094,-5.1331634521484375,30.25482177734375
1776018959833866000,9.796865966796876,-334.6453552246094,-4.9133758544921875,30.347320556640625
1776018959843858700,9.806858642578124,-334.38189697265625,-5.0476531982421875,30.10931396484375
1776018959853852700,9.816852783203124,-334.32110595703125,-5.094390869140625,30.091110229492188
1776018959863846700,9.8268466796875,-333.61505126953125,-5.2716827392578125,29.986175537109375
1776018959873839900,9.83683984375,-333.8934326171875,-5.380950927734375,30.296005249023438
1776018959883831800,9.846831787109375,-334.0711669921875,-5.3304595947265625,29.830963134765625
1776018959893824800,9.85682470703125,-334.1040344238281,-5.2633514404296875,30.170913696289062
1776018959903816700,9.866816650390625,-333.5923156738281,-5.424530029296875,30.017898559570312
1776018959913809700,9.8768095703125,-334.52386474609375,-5.029266357421875,30.065841674804688
1776018959923803000,9.886802978515625,-334.20391845703125,-5.2035675048828125,30.119430541992188
1776018959933794800,9.896794921875,-333.8193359375,-5.2296600341796875,29.576690673828125
1776018959943787800,9.906787841796875,-333.7048645019531,-4.9266510009765625,29.73919677734375
1776018959953778700,9.91677880859375,-333.9535217285156,-5.0714569091796875,29.96905517578125
1776018959963772000,9.92677197265625,-333.9020690917969,-4.7706298828125,29.658416748046875
1776018959973763600,9.936763671875,-333.32489013671875,-4.8955078125,29.2847900390625
1776018959983754800,9.946754638671875,-333.7860107421875,-4.88037109375,29.617172241210938
1776018959993746000,9.956745849609375,-333.7890930175781,-4.9181060791015625,29.730453491210938
1776018960003736800,9.96673681640625,-333.18804931640625,-4.8229827880859375,29.6756591796875
1776018960013728800,9.976728759765624,-333.58587646484375,-5.059417724609375,29.739334106445312
1776018960023719700,9.9867197265625,-334.4649658203125,-5.122528076171875,29.863571166992188
1776018960033710600,9.996710693359375,-333.4395751953125,-4.74725341796875,29.906219482421875
1776018960043704800,10.006704833984376,-333.8326110839844,-4.905059814453125,30.096023559570312
1776018960053696800,10.01669677734375,-333.3662109375,-4.669891357421875,29.663589477539062
1776018960063687000,10.02668701171875,-333.584716796875,-4.78253173828125,29.772598266601562
1776018960073676800,10.0366767578125,-333.9921875,-4.8457183837890625,29.408126831054688
1776018960083666700,10.046666748046874,-333.6500549316406,-4.6314239501953125,29.723724365234375
1776018960093656800,10.05665673828125,-333.3303527832031,-4.7479705810546875,29.191925048828125
1776018960103645000,10.06664501953125,-333.7665710449219,-4.392578125,29.322341918945312
1776018960113634800,10.076634765625,-332.8382263183594,-4.7377166748046875,29.163543701171875
1776018960123624000,10.0866240234375,-333.3422546386719,-4.5557403564453125,29.2672119140625
1776018960133613800,10.09661376953125,-333.6351013183594,-4.8365020751953125,29.4822998046875
1776018960143602000,10.106601806640626,-333.7706298828125,-4.7149658203125,29.3670654296875
1776018960153589800,10.11658984375,-333.92840576171875,-4.2784271240234375,29.402084350585938
1776018960163577900,10.126577880859376,-334.1689758300781,-4.3617095947265625,29.2093505859375
1776018960173566000,10.13656591796875,-333.38140869140625,-4.480072021484375,29.329238891601562
1776018960183553800,10.1465537109375,-333.209716796875,-4.755706787109375,29.5616455078125
1776018960193542700,10.156542724609375,-333.4078674316406,-4.818695068359375,29.111648559570312
1776018960203530800,10.16653076171875,-333.81146240234375,-4.8843841552734375,29.37347412109375
1776018960213517800,10.176517822265625,-333.3598937988281,-4.83673095703125,29.407470703125
1776018960223506700,10.186506591796874,-333.6398620605469,-4.7195892333984375,29.519607543945312
1776018960233494800,10.196494873046875,-333.0130615234375,-4.744598388671875,29.215255737304688
1776018960243484000,10.20648388671875,-333.3134460449219,-5.043060302734375,29.299407958984375
1776018960253471700,10.2164716796875,-333.49053955078125,-5.017791748046875,29.248916625976562
1776018960263460900,10.2264609375,-333.52398681640625,-4.5206756591796875,29.099380493164062
1776018960273450000,10.236449951171876,-333.321044921875,-4.91607666015625,29.211654663085938
1776018960283438600,10.2464384765625,-333.2978515625,-4.7035064697265625,29.126754760742188
1776018960293427700,10.256427734375,-333.694580078125,-4.7419891357421875,29.265090942382812
1776018960303417900,10.26641796875,-333.60107421875,-4.5989990234375,29.084396362304688
1776018960313407000,10.276406982421875,-333.21551513671875,-4.7371673583984375,29.279129028320312
1776018960323395800,10.286395751953124,-333.4607849121094,-4.56231689453125,29.216354370117188
1776018960333383700,10.2963837890625,-333.80450439453125,-5.0137176513671875,29.595230102539062
1776018960343373800,10.306373779296875,-333.1087951660156,-4.869781494140625,29.4437255859375
1776018960353364000,10.316364013671874,-334.10113525390625,-4.8739471435546875,29.387771606445312
1776018960363351800,10.326351806640625,-333.75286865234375,-4.973663330078125,29.724151611328125
1776018960373341000,10.3363408203125,-333.7442321777344,-4.8962860107421875,29.584640502929688
1776018960383329800,10.346329833984376,-334.0675048828125,-4.9986114501953125,29.788650512695312
1776018960393319000,10.35631884765625,-333.9154052734375,-4.850189208984375,29.853668212890625
1776018960403307000,10.36630712890625,-333.52020263671875,-4.83837890625,29.499649047851562
1776018960413295900,10.3762958984375,-334.0562438964844,-4.78948974609375,29.497848510742188
1776018960423284700,10.38628466796875,-333.42803955078125,-4.666839599609375,29.097427368164062
1776018960433273900,10.39627392578125,-333.392578125,-4.8573455810546875,29.353866577148438
1776018960443263700,10.406263671875,-333.98370361328125,-4.853485107421875,29.435043334960938
1776018960453250800,10.416250732421876,-333.7889099121094,-5.37652587890625,29.39337158203125
1776018960463238000,10.42623779296875,-334.0257568359375,-5.0729217529296875,29.377243041992188
1776018960473228000,10.43622802734375,-334.166748046875,-5.282806396484375,29.235702514648438
1776018960483216000,10.4462158203125,-333.7620849609375,-5.135772705078125,29.384078979492188
1776018960493204700,10.456204833984375,-333.87554931640625,-5.128753662109375,29.378555297851562
1776018960503193900,10.46619384765625,-333.58636474609375,-5.18798828125,29.358047485351562
1776018960513183000,10.476182861328125,-333.56298828125,-4.9142913818359375,29.254425048828125
1776018960523171800,10.486171875,-333.3780517578125,-4.872283935546875,29.202926635742188
1776018960533162000,10.496161865234376,-332.9625244140625,-4.7155609130859375,28.865921020507812
1776018960543151900,10.50615185546875,-333.94940185546875,-4.64801025390625,29.22308349609375
1776018960553142800,10.516142822265625,-333.6109313964844,-4.919097900390625,28.9627685546875
1776018960563135000,10.526135009765625,-333.14410400390625,-4.4023590087890625,28.614852905273438
1776018960573126000,10.5361259765625,-333.1762390136719,-4.4454803466796875,28.870346069335938
1776018960583116800,10.54611669921875,-332.9866943359375,-4.475494384765625,28.953277587890625
1776018960593107000,10.55610693359375,-332.53399658203125,-4.4103546142578125,28.950653076171875
1776018960603097000,10.56609716796875,-332.1954345703125,-4.0895843505859375,28.820724487304688
1776018960613087000,10.5760869140625,-332.9414978027344,-4.1557464599609375,28.886184692382812
1776018960623074800,10.58607470703125,-332.8996887207031,-3.7501983642578125,28.7537841796875
1776018960633063700,10.596063720703125,-332.429931640625,-4.0027923583984375,28.821990966796875
1776018960643053800,10.6060537109375,-331.9134216308594,-3.655242919921875,28.7498779296875
1776018960653042700,10.616042724609375,-331.970947265625,-3.9381561279296875,28.811309814453125
1776018960663031800,10.62603173828125,-332.04931640625,-3.3748931884765625,28.592666625976562
1776018960673021700,10.636021728515624,-331.60107421875,-3.3390655517578125,28.249267578125
1776018960683011800,10.64601171875,-331.1058044433594,-3.087921142578125,28.172805786132812
1776018960693000700,10.656000732421875,-331.5378112792969,-3.1112060546875,28.14569091796875
1776018960702989800,10.66598974609375,-331.05670166015625,-3.10296630859375,27.833053588867188
1776018960712979700,10.675979736328125,-330.99444580078125,-3.030181884765625,28.071548461914062
1776018960722967800,10.6859677734375,-331.49951171875,-2.254852294921875,28.03289794921875
1776018960732955000,10.695954833984375,-330.93414306640625,-2.3047027587890625,27.716537475585938
1776018960742942700,10.705942626953124,-331.41961669921875,-2.253143310546875,27.314697265625
1776018960752931800,10.715931884765626,-330.6727600097656,-1.9497222900390625,27.223129272460938
1776018960762921000,10.7259208984375,-330.369384765625,-1.73248291015625,27.061996459960938
1776018960772909800,10.735909912109374,-329.8690185546875,-1.1989288330078125,26.858322143554688
1776018960782899000,10.74589892578125,-329.8749694824219,-1.451812744140625,27.046600341796875
1776018960792888800,10.755888916015625,-330.2669372558594,-1.27777099609375,26.67681884765625
1776018960802878000,10.7658779296875,-329.805419921875,-1.0128936767578125,26.55194091796875
1776018960812866000,10.775865966796875,-329.6541748046875,-1.0294036865234375,26.228775024414062
1776018960822856000,10.78585595703125,-329.45330810546875,-0.387725830078125,26.335983276367188
1776018960832845000,10.795844970703126,-329.45867919921875,-0.4564056396484375,26.480850219726562
1776018960842834000,10.805833984375,-328.92388916015625,-0.40399169921875,25.947463989257812
1776018960852822800,10.81582275390625,-329.19122314453125,-0.1816864013671875,26.01812744140625
1776018960862811000,10.825810791015625,-328.52801513671875,-0.051177978515625,25.855758666992188
1776018960872800000,10.835800048828125,-328.543701171875,0.0554351806640625,25.840774536132812
1776018960882790000,10.845789794921876,-328.615966796875,-0.1281280517578125,25.96435546875
1776018960892778000,10.855778076171875,-328.13421630859375,0.221435546875,25.719192504882812
1776018960902766800,10.865766845703124,-328.7269287109375,0.2673492431640625,25.793655395507812
1776018960912754700,10.875754638671875,-328.9479064941406,0.49591064453125,25.250244140625
1776018960922742800,10.88574267578125,-328.287353515625,0.3140716552734375,25.055328369140625
1776018960932731000,10.89573095703125,-328.5728454589844,0.585479736328125,25.084213256835938
1776018960942720000,10.905719970703124,-327.88275146484375,0.409912109375,25.224899291992188
1776018960952707800,10.915707763671875,-328.3837890625,0.398406982421875,24.904205322265625
1776018960962695000,10.92569482421875,-328.31243896484375,0.5016021728515625,25.217193603515625
1776018960972681700,10.935681640625,-327.7514343261719,0.5152587890625,24.70904541015625
1776018960982669800,10.945669921875,-327.7552490234375,0.39617919921875,24.731475830078125
1776018960992658000,10.955657958984375,-328.34228515625,0.59564208984375,24.901321411132812
1776018961002647000,10.96564697265625,-327.93463134765625,0.33673095703125,24.786697387695312
1776018961012637000,10.975636962890626,-328.328369140625,0.5703125,24.882461547851562
1776018961022626000,10.9856259765625,-328.5173645019531,0.57049560546875,25.0289306640625
1776018961032615000,10.995614990234374,-327.91607666015625,0.4429931640625,25.004669189453125
1776018961042604800,11.005604736328126,-328.7432556152344,0.240570068359375,24.9281005859375
1776018961052593000,11.015593017578125,-328.66070556640625,0.1030731201171875,25.436874389648438
1776018961062583000,11.0255830078125,-328.9080810546875,-0.059783935546875,25.54449462890625
1776018961072571000,11.03557080078125,-328.77545166015625,0.2293853759765625,25.829940795898438
1776018961082557000,11.045556884765626,-328.771728515625,0.172576904296875,25.85247802734375
1776018961092543700,11.055543701171874,-328.969970703125,-0.057342529296875,26.089584350585938
1776018961102531800,11.06553173828125,-328.5784912109375,0.0988006591796875,25.779388427734375
1776018961112520000,11.07552001953125,-329.4840087890625,0.0207977294921875,25.88006591796875
1776018961122508800,11.0855087890625,-329.3572082519531,-0.3397979736328125,25.631546020507812
1776018961132496000,11.095495849609375,-329.1023864746094,-0.1574554443359375,25.738693237304688
1776018961142482000,11.10548193359375,-329.5384521484375,-0.4819183349609375,25.793991088867188
1776018961152469800,11.1154697265625,-329.86138916015625,-0.322357177734375,25.94287109375
1776018961162457000,11.12545703125,-329.8990478515625,-0.2644805908203125,25.739837646484375
1776018961172445000,11.13544482421875,-330.227783203125,-0.0313873291015625,25.665390014648438
1776018961182432000,11.145431884765625,-329.080078125,-0.46124267578125,25.710128784179688
1776018961192418800,11.155418701171875,-329.44171142578125,-0.496673583984375,25.614486694335938
1776018961202404900,11.16540478515625,-329.46783447265625,-0.2154998779296875,25.644805908203125
1776018961212392700,11.175392822265625,-329.57537841796875,-0.478240966796875,25.831329345703125
1776018961222380800,11.185380859375,-330.0440979003906,-0.3269805908203125,25.875579833984375
1776018961232370000,11.195369873046875,-329.3448791503906,-0.0529022216796875,25.92193603515625
1776018961242359000,11.205359130859375,-329.14288330078125,-0.05047607421875,25.862335205078125
1776018961252348000,11.215347900390626,-329.36737060546875,0.356964111328125,25.615219116210938
1776018961262335700,11.225335693359375,-329.2505798339844,-0.0615386962890625,25.34307861328125
1776018961272322800,11.23532275390625,-329.1131591796875,0.2844696044921875,25.25238037109375
1776018961282310000,11.245309814453124,-328.79144287109375,0.32171630859375,25.131301879882812
1776018961292297700,11.255297607421875,-328.4705505371094,0.2877655029296875,24.979049682617188
1776018961302286800,11.265286865234375,-328.85699462890625,0.4126434326171875,25.020660400390625
1776018961312276000,11.27527587890625,-328.9266357421875,0.59954833984375,25.196121215820312
1776018961322264800,11.285264892578125,-328.912353515625,0.4400177001953125,25.555374145507812
1776018961332254000,11.29525390625,-329.35076904296875,0.688934326171875,25.324676513671875
1776018961342243000,11.3052431640625,-328.84320068359375,0.6894073486328125,25.22515869140625
1776018961352232000,11.31523193359375,-329.2615966796875,0.3940887451171875,25.405899047851562
1776018961362221000,11.325220947265626,-329.0163269042969,0.8421478271484375,25.43524169921875
1776018961372209000,11.335208984375,-328.908447265625,0.4473876953125,25.460479736328125
1776018961382197800,11.34519775390625,-329.15081787109375,0.3707427978515625,25.048690795898438
1776018961392185900,11.355185791015625,-328.55474853515625,0.7786407470703125,25.19476318359375
1776018961402175000,11.365175048828124,-329.090576171875,0.56842041015625,24.867813110351562
1776018961412164000,11.3751640625,-328.88507080078125,0.968353271484375,25.00494384765625
1776018961422151700,11.385151611328125,-329.11370849609375,0.22265625,25.12310791015625
1776018961432140800,11.395140869140626,-329.03265380859375,0.3084259033203125,25.107833862304688
1776018961442130000,11.4051298828125,-329.3721923828125,0.480804443359375,24.861648559570312
1776018961452119800,11.415119873046875,-329.5503234863281,0.2569580078125,25.044586181640625
1776018961462109000,11.42510888671875,-329.65625,0.4309844970703125,24.955780029296875
1776018961472097800,11.435097900390625,-329.92523193359375,0.40631103515625,25.225631713867188
1776018961482086000,11.4450859375,-330.2034606933594,0.50335693359375,25.173080444335938
1776018961492075000,11.455074951171875,-330.1759338378906,0.2096710205078125,24.900314331054688
1776018961502061800,11.465061767578124,-330.2451171875,0.2777557373046875,24.876144409179688
1776018961512049000,11.475048828125,-330.19403076171875,0.1171112060546875,25.23101806640625
1776018961522035700,11.48503564453125,-330.51806640625,0.0978546142578125,25.028976440429688
1776018961532023800,11.49502392578125,-330.76019287109375,0.5164337158203125,25.34716796875
1776018961542009900,11.505009765625,-331.12841796875,0.4024505615234375,25.245269775390625
1776018961551998000,11.514998046875,-330.9197998046875,-0.1637420654296875,25.19598388671875
1776018961561986000,11.524986083984375,-331.053955078125,-0.1285247802734375,25.324935913085938
1776018961571975000,11.534974853515624,-331.3451843261719,0.031494140625,25.708755493164062
1776018961581962800,11.544962646484375,-330.9159240722656,0.0724639892578125,25.80731201171875
1776018961591949800,11.55494970703125,-331.4625244140625,-0.20013427734375,25.488937377929688
1776018961601937000,11.56493701171875,-331.2961730957031,-0.1019439697265625,25.880661010742188
1776018961611925000,11.574925048828124,-331.3244323730469,-0.3101043701171875,25.695327758789062
1776018961621913900,11.584913818359375,-331.32769775390625,-0.373565673828125,25.809310913085938
1776018961631902000,11.59490185546875,-331.902587890625,-0.747650146484375,25.662017822265625
1776018961641891000,11.60489111328125,-331.73687744140625,-0.7538604736328125,25.57708740234375
1776018961651881000,11.614880859375,-331.53155517578125,-0.7137908935546875,25.458633422851562
1776018961661870000,11.6248701171875,-331.922607421875,-1.0074005126953125,25.63751220703125
1776018961671859000,11.63485888671875,-332.2136535644531,-0.93072509765625,25.604751586914062
1776018961681846800,11.6448466796875,-332.2454833984375,-1.4617462158203125,25.617935180664062
1776018961691835000,11.6548349609375,-332.61590576171875,-1.8029022216796875,25.310302734375
1776018961701824000,11.664823974609375,-332.49029541015625,-1.77099609375,25.329925537109375
1776018961711812000,11.67481201171875,-332.2561340332031,-2.1598968505859375,25.69219970703125
1776018961721800000,11.684800048828125,-332.243896484375,-1.8207244873046875,25.3316650390625
1776018961731788800,11.694788818359376,-332.50067138671875,-2.169189453125,25.530776977539062
1776018961741779000,11.704779052734375,-332.39837646484375,-2.116607666015625,25.584686279296875
1776018961751767000,11.71476708984375,-331.9356994628906,-1.7509918212890625,25.310440063476562
1776018961761757000,11.7247568359375,-332.5108642578125,-1.4347686767578125,25.255691528320312
1776018961771745000,11.7347451171875,-331.33404541015625,-0.9687347412109375,24.846786499023438
1776018961781731800,11.74473193359375,-331.4807434082031,-0.6749114990234375,24.625762939453125
1776018961791719000,11.754718994140624,-331.35455322265625,-0.950531005859375,23.824661254882812
1776018961801708000,11.7647080078125,-330.86676025390625,-0.3572998046875,23.35113525390625
1776018961811695900,11.77469580078125,-330.63427734375,-0.4592437744140625,22.812896728515625
1776018961821683000,11.784682861328125,-330.185302734375,-0.4865570068359375,22.4678955078125
1776018961831669800,11.794669677734374,-329.3155517578125,-0.5071868896484375,21.567062377929688
1776018961841657900,11.804657958984375,-329.53021240234375,-0.3329620361328125,20.987991333007812
1776018961851644200,11.81464404296875,-328.30535888671875,-0.16693115234375,20.26531982421875
1776018961861631000,11.824630859375,-328.24493408203125,-0.1504974365234375,19.784622192382812
1776018961871619000,11.834619140625,-328.29534912109375,0.0006866455078125,19.283248901367188
1776018961881604900,11.84460498046875,-327.2264709472656,0.4688873291015625,19.139938354492188
1776018961891592000,11.854592041015625,-327.704345703125,0.6047821044921875,18.880828857421875
1776018961901579800,11.864579833984376,-327.3131103515625,1.3680572509765625,18.895416259765625
1776018961911568000,11.87456787109375,-327.6696472167969,1.236785888671875,18.9599609375
1776018961921556000,11.884555908203126,-327.40802001953125,1.7618408203125,18.932403564453125
1776018961931545000,11.894545166015625,-327.634521484375,1.4701995849609375,19.190872192382812
1776018961941533000,11.904532958984374,-327.2824401855469,1.151641845703125,18.966903686523438
1776018961951521000,11.91452099609375,-327.9877624511719,1.456298828125,18.985061645507812
1776018961961508000,11.924508056640626,-328.0811767578125,1.1122283935546875,19.050445556640625
1776018961971496000,11.934495849609375,-328.0426025390625,1.152587890625,19.41986083984375
1776018961981484800,11.94448486328125,-328.82122802734375,1.4677581787109375,19.806869506835938
1776018961991472000,11.95447216796875,-328.6710205078125,1.48095703125,20.101455688476562
1776018962001459700,11.964459716796876,-328.96038818359375,1.12042236328125,20.445693969726562
1776018962011447800,11.97444775390625,-329.5225830078125,1.2437744140625,20.481552124023438
1776018962021433900,11.984433837890625,-329.71734619140625,1.3417510986328125,20.87274169921875
1776018962031421000,11.9944208984375,-329.85943603515625,1.5443878173828125,21.163421630859375
1776018962041409000,12.004408935546875,-330.0865478515625,1.1125030517578125,21.146194458007812
1776018962051396900,12.01439697265625,-330.17584228515625,1.1153564453125,21.1998291015625
1776018962061385000,12.024385009765625,-329.71551513671875,1.4735260009765625,21.29022216796875
1776018962071372000,12.0343720703125,-329.3671875,1.723480224609375,21.386993408203125
1776018962081361000,12.04436083984375,-329.93218994140625,1.6778411865234375,21.39007568359375
1776018962091349000,12.054348876953124,-330.0194091796875,1.670989990234375,21.389877319335938
1776018962101336800,12.0643369140625,-329.78485107421875,2.1271209716796875,21.396469116210938
1776018962111325000,12.074324951171874,-329.908447265625,1.7262725830078125,21.669906616210938
1776018962121312000,12.08431201171875,-329.501953125,1.9547119140625,21.3619384765625
1776018962131299000,12.094299072265626,-329.5208435058594,2.188812255859375,21.41326904296875
1776018962141287700,12.10428759765625,-329.79327392578125,2.1519775390625,21.696319580078125
1776018962151275800,12.11427587890625,-329.87255859375,2.1764068603515625,21.42962646484375
1776018962161263000,12.12426318359375,-330.08990478515625,2.17974853515625,21.325180053710938
1776018962171250000,12.13425,-330.17315673828125,2.48406982421875,21.16400146484375
1776018962181238000,12.144238037109375,-329.547119140625,2.3292694091796875,20.792755126953125
1776018962191224800,12.154224853515625,-328.48199462890625,2.558929443359375,20.776153564453125
1776018962201212000,12.1642119140625,-328.7517395019531,2.53521728515625,20.546478271484375
1776018962211200000,12.174199951171875,-328.20599365234375,2.941986083984375,20.6993408203125
1776018962221189000,12.184189208984375,-328.7375183105469,3.0402679443359375,20.518508911132812
1776018962231177700,12.194177734375,-328.32489013671875,3.284149169921875,20.562835693359375
1776018962241165800,12.204165771484375,-327.7513427734375,3.06085205078125,20.423629760742188
1776018962251155000,12.214155029296874,-328.0024108886719,3.193511962890625,20.305328369140625
1776018962261142000,12.22414208984375,-328.0205993652344,3.1685791015625,20.408798217773438
1776018962271129900,12.2341298828125,-327.34466552734375,2.9757080078125,20.06976318359375
1776018962281118000,12.244117919921875,-327.649169921875,3.282623291015625,19.804641723632812
1776018962291106000,12.25410595703125,-326.9996337890625,2.9678802490234375,19.9268798828125
1776018962301091800,12.264091796875,-327.30224609375,2.647491455078125,19.759384155273438
1776018962311080200,12.274080078125,-327.1605224609375,2.871917724609375,19.659622192382812
1776018962321067300,12.2840673828125,-327.5360412597656,2.7035675048828125,19.78460693359375
1776018962331055000,12.29405517578125,-327.2843933105469,3.2821502685546875,20.09527587890625
1776018962341043200,12.304043212890624,-327.8619384765625,2.936767578125,19.675216674804688
1776018962351032300,12.3140322265625,-327.4637451171875,2.934722900390625,19.9073486328125
1776018962361022200,12.324022216796875,-327.603271484375,2.7238922119140625,20.2039794921875
1776018962371010300,12.33401025390625,-327.84527587890625,2.8701934814453125,20.274261474609375
1776018962380998100,12.343998046875,-328.4488525390625,2.6711578369140625,20.474761962890625
1776018962390986200,12.353986328125,-327.844970703125,2.749481201171875,20.434188842773438
1776018962400975000,12.36397509765625,-328.3829040527344,2.6729583740234375,20.35198974609375
1776018962410963200,12.373963134765624,-328.7346496582031,2.8610076904296875,20.775405883789062
1776018962420952300,12.383952392578125,-328.89093017578125,2.77587890625,20.6817626953125
1776018962430941400,12.39394140625,-329.38287353515625,2.363067626953125,20.603271484375
1776018962440930300,12.403930419921876,-328.9248046875,2.577667236328125,20.6248779296875
1776018962450918100,12.413918212890625,-329.2542724609375,2.3205718994140625,20.997222900390625
1776018962460904400,12.423904541015625,-329.1478271484375,2.4190216064453125,20.9385986328125
1776018962470892300,12.433892333984375,-329.4781494140625,2.61566162109375,20.94976806640625
1776018962480880400,12.44388037109375,-329.30511474609375,2.1825714111328125,20.8614501953125
1776018962490869200,12.453869140625,-328.7693786621094,2.0182952880859375,20.870651245117188
1776018962500858400,12.4638583984375,-329.25927734375,2.383514404296875,20.656112670898438
1776018962510846200,12.47384619140625,-328.97222900390625,2.3418731689453125,20.23126220703125
1776018962520835000,12.4838349609375,-328.46929931640625,2.503875732421875,20.464706420898438
1776018962530825200,12.4938251953125,-328.4955139160156,2.5639190673828125,20.472335815429688
1776018962540815400,12.5038154296875,-328.14849853515625,2.1507720947265625,20.123703002929688
1776018962550806300,12.51380615234375,-328.014892578125,2.4513092041015625,19.895401000976562
1776018962560797200,12.523797119140625,-327.855224609375,2.4374237060546875,20.100189208984375
1776018962570787000,12.533787109375,-328.16839599609375,2.5253448486328125,19.736328125
1776018962580777200,12.543777099609375,-327.67486572265625,2.5131072998046875,19.509994506835938
1776018962590767000,12.55376708984375,-327.5128173828125,2.46221923828125,19.277740478515625
1776018962600757200,12.56375732421875,-327.42706298828125,2.3373565673828125,19.627029418945312
1776018962610747400,12.573747314453126,-326.95489501953125,2.751495361328125,19.431533813476562
1776018962620737300,12.5837373046875,-326.99945068359375,2.58721923828125,19.511505126953125
1776018962630727200,12.59372705078125,-326.7012634277344,2.5448455810546875,19.336227416992188
1776018962640716300,12.60371630859375,-327.0887145996094,2.2829437255859375,19.58563232421875
1776018962650704100,12.6137041015625,-327.2962951660156,2.4896392822265625,19.491409301757812
1776018962660693200,12.623693359375,-327.170166015625,2.4471282958984375,19.482864379882812
1776018962670680300,12.633680419921875,-327.4677734375,2.2743682861328125,19.647537231445312
1776018962680668400,12.64366845703125,-327.63543701171875,2.375823974609375,19.439056396484375
1776018962690657000,12.653656982421875,-327.2587890625,2.4427947998046875,19.382354736328125
1776018962700646100,12.663646240234375,-327.4605712890625,2.122833251953125,19.477218627929688
1776018962710636000,12.673635986328126,-327.3915100097656,1.8738861083984375,18.810638427734375
1776018962720626400,12.68362646484375,-327.9796142578125,1.454071044921875,18.596221923828125
1776018962730616300,12.6936162109375,-328.35546875,1.1288604736328125,18.254013061523438
1776018962740603100,12.70360302734375,-328.2093505859375,0.6330108642578125,17.990814208984375
1776018962750593300,12.71359326171875,-328.0315856933594,0.0518646240234375,18.01123046875
1776018962760583200,12.723583251953125,-328.8233337402344,-0.2817535400390625,18.039871215820312
1776018962770573000,12.733572998046874,-328.928466796875,-0.5193023681640625,18.230926513671875
1776018962780563500,12.7435634765625,-329.1435241699219,-0.8502197265625,18.695220947265625
1776018962790554400,12.753554443359375,-329.46954345703125,-0.8388214111328125,18.88909912109375
1776018962800543200,12.763543212890625,-330.25860595703125,-1.1502532958984375,19.388580322265625
1776018962810532400,12.773532470703126,-331.11236572265625,-1.9349517822265625,20.1536865234375
1776018962820522200,12.783522216796875,-331.3611145019531,-2.0039520263671875,20.581390380859375
1776018962830512400,12.793512451171875,-331.9068603515625,-2.3369293212890625,20.934478759765625
1776018962840500500,12.80350048828125,-332.4839172363281,-1.96832275390625,21.324783325195312
1776018962850489000,12.813489013671875,-332.2986145019531,-1.826873779296875,21.562057495117188
1776018962860478200,12.823478271484374,-332.26953125,-1.7974853515625,21.436416625976562
1776018962870468000,12.833468017578125,-332.5404052734375,-1.6314697265625,21.6021728515625
1776018962880458200,12.843458251953125,-332.2080078125,-0.99383544921875,22.219497680664062
1776018962890446000,12.853446044921874,-332.8583984375,-0.5579986572265625,22.292465209960938
1776018962900435200,12.863435302734375,-332.9070739746094,-0.2701263427734375,22.59381103515625
1776018962910423300,12.87342333984375,-332.0625915527344,-0.021697998046875,22.603851318359375
1776018962920412400,12.883412353515626,-331.7950439453125,0.277740478515625,21.996551513671875
1776018962930399200,12.893399169921874,-331.7813720703125,0.537994384765625,21.253768920898438
1776018962940387300,12.90338720703125,-330.7005920410156,0.4329986572265625,20.637008666992188
1776018962950375400,12.91337548828125,-330.21575927734375,0.9269256591796875,20.2333984375
1776018962960362200,12.9233623046875,-329.4486083984375,0.881744384765625,19.893905639648438
