time,seconds_elapsed,z,y,x
1776555956507337200,0.225337158203125,0.3062596595793962,-0.06640840867012739,-0.23193667839244006
1776555956517378300,0.23537841796875,-0.5698047975480556,0.0038841479569673536,0.0773915019121021
1776555956527420200,0.245420166015625,-0.8360925122231244,0.07551759779900312,0.22798662559241056
1776555956537461200,0.255461181640625,-0.7183850012093782,-0.033761692087352274,0.1376953100968152
1776555956547503400,0.26550341796875,-0.4522925168454647,-0.13214695525467396,0.20184045001007617
1776555956557544200,0.275544189453125,-0.02778700159192085,-0.49440965708494183,0.05593545690737664
1776555956567586300,0.28558642578125,0.19355857855081557,-0.09637421560585498,-0.32603593480363485
1776555956577627100,0.295627197265625,0.2244096438884735,0.3006643237903714,-0.1826601679176092
1776555956587668200,0.305668212890625,0.2358557515323162,-0.23851035769432782,-0.07609919707924127
1776555956597710000,0.3157099609375,0.3027320699751377,-0.32359482526183125,-0.25012758412137626
1776555956607751200,0.325751220703125,0.13208558045625685,-0.21542788053154943,0.014096622152626513
1776555956617793300,0.335793212890625,-0.472775332903862,-0.2532765496715903,0.333909736918658
1776555956627834400,0.34583447265625,-0.42666883076727385,-0.22721154956668613,0.13392127145081759
1776555956637876200,0.355876220703125,-0.5876292080521583,0.8432970367744564,0.1104053713068366
1776555956647917300,0.365917236328125,-0.2224801371306181,0.17015373756587504,0.29155644983574747
1776555956657959200,0.375959228515625,-0.5205974067866802,-0.234015384362638,-0.018215601778775452
1776555956668000300,0.386000244140625,-0.5259159714609384,-0.5935062833920121,0.24869272901266812
1776555956678042000,0.3960419921875,-0.2985042231470346,-0.44506665724515915,0.14996478988751769
1776555956688083200,0.406083251953125,0.20432547175884247,0.4236763709530234,0.43942587487921114
1776555956698124300,0.416124267578125,0.4888140290349722,-0.22598697620779273,0.8405921617299318
1776555956708166100,0.426166259765625,-0.616917846378684,-1.2675894937992096,2.049575737303495
1776555956718207200,0.436207275390625,-0.8689093246757984,-1.7158536319114266,2.0475871938347816
1776555956728249300,0.446249267578125,-0.2708300342798233,-1.2504139025926588,0.933903482633829
1776555956738290400,0.45629052734375,0.44507834768295285,-0.2546105747543275,0.0767237587183714
1776555956748332300,0.466332275390625,0.10319967771172522,-0.25813202687874437,-0.10716039803624153
1776555956758373400,0.476373291015625,0.32567923032045365,0.09552212882116437,-0.6179179633319377
1776555956768415200,0.486415283203125,1.7447545860946176,1.7290401534818112,-0.38771658429950473
1776555956778456300,0.496456298828125,2.111893369528651,1.2093176298335193,-0.5102864406526089
1776555956788498200,0.506498291015625,2.1233692877888677,0.09781988436952233,-0.7043292955890298
1776555956798539300,0.516539306640625,0.8407043899327517,-0.26246084986329077,0.5939356147199869
1776555956808581000,0.5265810546875,-0.7936673289477825,-0.6454480675533414,1.5589388767555354
1776555956818622200,0.536622314453125,-1.3263134854465721,-0.7844942808024585,1.7370675387233494
1776555956828663000,0.5466630859375,-1.8569038784593344,-0.4108988685749471,1.9086498477876186
1776555956838705400,0.556705322265625,-1.659920586156845,-0.09045140142813324,1.6409265473514794
1776555956848746200,0.566746337890625,-1.8085142338216305,-0.5672767403751612,1.2568658552110195
1776555956858788400,0.576788330078125,-0.38743104535639283,-1.1353447772584855,0.9346566390886902
1776555956868829200,0.5868291015625,0.6929097836911677,-0.9563388940647244,0.8761731781989336
1776555956878871300,0.596871337890625,1.2839379865318536,-0.5526818133115768,0.6116685475483536
1776555956888912100,0.606912109375,1.0709972466409206,-0.19380875391960142,-0.050209845802187916
1776555956898954200,0.616954345703125,0.10828735623955726,0.33850013344883917,-0.1325219260469079
1776555956908995000,0.6269951171875,-0.9199509451270103,0.8389999241024255,-0.19467793796956537
1776555956919037400,0.637037353515625,-0.953898222914338,1.1561286951553076,-0.8079138809651136
1776555956929078300,0.647078369140625,0.11150807185173034,1.0765447247002273,-1.1508601801678537
1776555956939120400,0.657120361328125,0.9779927997291088,1.4764605000331996,-1.890600980877876
1776555956949161200,0.6671611328125,2.3076871597856283,2.8546149396151304,-2.4578230684563516
1776555956959203300,0.677203369140625,2.552518244934082,3.176696437704563,-1.7094605698734522
1776555956969244200,0.687244140625,2.3067226986676452,2.5441291867733,-1.2159332485809922
1776555956979285200,0.69728515625,1.9044664246231315,1.1095577173121274,-0.7818190702438355
1776555956989327000,0.7073271484375,2.483913495263457,0.4398144358053803,-0.7782827128112315
1776555956999368200,0.7173681640625,2.7232605960428713,0.07148088962882757,-0.6614382483676076
1776555957009410000,0.72741015625,1.7976801205962896,0.11238178594633937,-0.18676555740982292
1776555957019451100,0.737451171875,-2.5642361552566286,-0.8933537378415465,3.038288668489456
1776555957029493200,0.7474931640625,-4.232069414234161,-2.8976062323406335,5.5739095546364785
1776555957039534300,0.757534423828125,-2.9055653746515513,-2.830316364660859,2.921281706960499
1776555957049576200,0.767576171875,-0.8030705325871705,-0.3542413079380989,-0.33449177459031343
1776555957059617300,0.7776171875,-0.3756377317100763,0.7244514616414904,-0.10297814391553402
1776555957069659100,0.7876591796875,-0.0820651197463274,-0.17644217018559574,0.7656210918977856
1776555957079700200,0.7977001953125,-0.07486497910916805,-0.75959364830181,-0.024696049839258192
1776555957089742000,0.8077421875,-0.2927192100048065,-0.9225853852838277,-0.22941227448135612
1776555957099783200,0.817783203125,0.41846506604552264,-1.2377864762097597,0.1217421733573079
1776555957109825000,0.827824951171875,0.564973724129796,-1.4123358183860777,0.3181222390696406
1776555957119866000,0.8378662109375,1.4172709367007017,-1.6101507392071186,0.7820596010014415
1776555957129907200,0.8479072265625,3.077410718566179,-1.414776051145047,0.6381260541021824
1776555957139949300,0.85794921875,2.05247613492012,-1.1155750779055058,0.3882598973959684
1776555957149990400,0.867990478515625,1.9680869561403989,-1.4152256946086883,0.3200453160867095
1776555957160032300,0.8780322265625,1.9990379747211933,-1.997438868961483,0.5689157397538424
1776555957170073300,0.8880732421875,0.9756582193017005,-2.2692929855920374,0.36815731282681224
1776555957180115200,0.898115234375,0.03206862443387508,-3.033117403331399,0.5391305500820279
1776555957190156300,0.90815625,0.789436559510231,-1.463783389289677,-0.18494243363589047
1776555957200198100,0.9181982421875,0.9655214406907557,0.2715091025851667,0.1726870554357767
1776555957210239200,0.9282392578125,-0.9567553659111261,-0.1963907332368195,1.6289286510437726
1776555957220280800,0.93828076171875,-0.7643266681730747,-1.4216899221867323,1.7008394565224647
1776555957230322000,0.948322021484375,-0.417134694224596,-0.7803295623384415,1.293629651723802
1776555957240363800,0.95836376953125,-0.6482640017569065,0.856738994410634,1.2549594370678065
1776555957250404900,0.96840478515625,-1.7540169199585913,1.581989497475326,1.1831254962176083
1776555957260446700,0.97844677734375,-2.6031349179714915,2.7067735716223713,0.16510697557032109
1776555957270487800,0.98848779296875,-3.6213650355428455,4.085283692774176,-0.5043941677436232
1776555957280530000,0.998530029296875,-4.532677331662177,4.270614541205764,-1.7411624068215488
1776555957290571000,1.008571044921875,-2.246110701316595,3.5669837492749092,-2.08497467520386
1776555957300612900,1.01861279296875,-0.9710901807337998,2.5074849249869584,-1.9775801761507987
1776555957310654000,1.028654052734375,-1.7726678444147108,1.9177533378280698,-1.658555435283482
1776555957320695800,1.03869580078125,-1.1492974608957767,1.2414892762504517,-1.66871413346529
1776555957330737000,1.04873681640625,-0.35426819594502446,0.1847973260767758,-1.7310732667446136
1776555957340778000,1.058778076171875,-0.49599604949355125,-0.5948180966429412,-1.1146198230072855
1776555957350819800,1.06881982421875,-1.4924854598999022,-1.1198762822307646,-0.43913025293350216
1776555957360861000,1.07886083984375,-0.5185749610483646,-1.0234063511654734,0.009755670338869094
1776555957370902800,1.08890283203125,0.331363121175766,-1.4540160285130141,0.08227408632189034
1776555957380944000,1.09894384765625,0.6140618724256753,-1.503737506276369,0.10940846922397612
1776555957390986000,1.108986083984375,0.5189385336637496,-0.8988117109864949,-0.22461539559364319
1776555957401027000,1.119027099609375,0.27170330998301506,-0.715394002699852,-0.11643179198950529
1776555957411069000,1.12906884765625,0.3780728499025106,-0.6522185846015811,0.08044862446039915
1776555957421110000,1.139110107421875,0.6234457868427038,-0.26187662023454905,-0.5317755111441016
1776555957431151900,1.14915185546875,0.21679507723152636,-0.3660878130763769,-0.5602066558584571
1776555957441193000,1.15919287109375,1.1857704577684403,-0.8509557348340749,0.019392098212242127
1776555957451234800,1.16923486328125,1.3212871817171572,-0.8081915288627147,0.4495166223913431
1776555957461276000,1.17927587890625,1.3076999703913927,-0.7032648812279105,0.8014505301699042
1776555957471318000,1.189318115234375,1.5377145946800708,-0.4187812923878431,0.33649522336721416
1776555957481359000,1.199359130859375,1.7590858937859535,-0.5474629096195102,-0.4172492605149746
1776555957491401000,1.20940087890625,1.9609651414364575,-0.8381731178894638,-0.9458253910958766
1776555957501442000,1.219442138671875,1.7831418921560047,-1.2316419821053743,-2.240761741504073
1776555957511484000,1.22948388671875,1.1516548376768827,-1.5196075678423047,-2.6775357867002487
1776555957521525000,1.23952490234375,1.3199813598155974,-0.8922399313807486,-2.4714804224088787
1776555957531566800,1.24956689453125,2.283168220078945,-0.18922464099973438,-2.014624250909686
1776555957541608000,1.25960791015625,2.4084920513153074,0.26295564764291046,-1.5317542249709366
1776555957551649800,1.26964990234375,2.7353683824658392,0.5888248475775122,-1.2426134579747914
1776555957561691000,1.27969091796875,2.900782232028246,1.091981582480669,-1.5246847249761224
1776555957571733000,1.28973291015625,3.1656670941680667,0.7487699103400111,-1.1128291401982306
1776555957581774000,1.299774169921875,3.9961879437386987,0.36853549848943945,-0.9151628340676426
1776555957591816000,1.30981591796875,4.488139686277508,-0.3754790340170264,-0.3903337810605764
1776555957601857000,1.31985693359375,5.894820839902758,-0.6409384811744093,-0.4036059350878
1776555957611897900,1.32989794921875,3.4203058721035715,-1.4704516150072215,-1.4553525378137826
1776555957621940000,1.33993994140625,0.12006138066351413,-0.7986269971817731,-1.2923770213142036
1776555957631980800,1.349980712890625,3.134547148761153,-0.2326908577606082,-1.6494029915347694
1776555957642023000,1.36002294921875,0.9478864152789115,0.263372411750257,-1.6788535424247384
1776555957652063700,1.370063720703125,2.7768232594043014,0.9969894688829779,-1.754640312553942
1776555957662105900,1.38010595703125,2.7333646414279937,1.9127979073777794,-1.6366782422572372
1776555957672146700,1.390146728515625,3.0633892074763773,2.695942088745534,-1.7478016987055538
1776555957682189000,1.40018896484375,3.7862557380139825,2.1116703744277356,-1.4184475792646407
1776555957692230000,1.41022998046875,3.9638007548749443,1.3303072312578559,-0.7843132251471281
1776555957702272000,1.42027197265625,3.7040666996270417,1.2452730325728654,0.1551893926680088
1776555957712312800,1.430312744140625,3.7239053725630042,1.10578097525239,1.5349007063031195
1776555957722355000,1.44035498046875,3.1651141364604234,1.9849100806474684,1.1874153023660183
1776555957732395800,1.450395751953125,2.1679583710998296,3.6001609194725748,1.458979496139288
1776555957742438000,1.46043798828125,0.9438356785833835,4.340259155318141,2.931076832526922
1776555957752478700,1.470478759765625,-0.579862081182003,4.163683275750279,2.555406952112913
1776555957762520800,1.480520751953125,-0.682987524613738,4.491008227451146,1.8433587527096271
1776555957772561700,1.490561767578125,0.7690560347825288,4.283538904708624,0.793291481372714
1776555957782604000,1.50060400390625,0.9326227951735258,3.4739904082790014,0.406442619818449
1776555957792644900,1.510644775390625,0.5919499938607216,2.998057195866108,0.9074702337384224
1776555957802687000,1.52068701171875,-0.6184627377331257,3.67622533749938,1.8771967249035835
1776555957812727800,1.530727783203125,-1.8862796105474233,4.654083404932916,2.136100174546242
1776555957822770000,1.54077001953125,-3.125816729816794,5.300816836121678,1.660147965171933
1776555957832810800,1.550810791015625,-3.1791391546815633,5.920103165197372,2.2328788792997596
1776555957842852900,1.560852783203125,-2.3252415211766957,5.2424803824871775,1.6934008309543132
1776555957852894000,1.57089404296875,-2.8667466914355755,4.232117052768171,1.5040402886152267
1776555957862935800,1.580935791015625,-4.304119920444489,3.443661320988834,0.6622773295402526
1776555957872977000,1.590976806640625,-5.893508588260412,3.150556911058724,0.14544015206992625
1776555957883019000,1.60101904296875,-5.808487541317939,3.0935327090665696,0.9186264185249805
1776555957893060000,1.61106005859375,-4.563220938485861,3.7391178470030426,0.7045557978212833
1776555957903102000,1.62110205078125,-4.292111795003712,4.042341207626461,-0.35977146953642364
1776555957913143000,1.63114306640625,-3.1023692187339065,3.2675302625790237,-1.5940531524956225
1776555957923185000,1.641184814453125,-1.761595246258378,2.2626038632169365,-1.2088029583096505
1776555957933226000,1.65122607421875,-1.372156075949967,1.0288925274915992,-1.5596645606815813
1776555957943267800,1.661267822265625,-3.049801411628723,-0.169756554941833,-1.5873463483333587
1776555957953309000,1.671308837890625,-4.536167804126441,-0.8757515917859972,-1.318313134342432
1776555957963351000,1.68135107421875,-5.305666029718518,-0.6253913679525256,-0.17015782921910286
1776555957973392100,1.69139208984375,-5.328405684792995,0.22732056289911268,-0.6667606124341487
1776555957983434000,1.70143408203125,-4.778039747208356,0.6650412412956357,-2.0567203483611345
1776555957993475000,1.71147509765625,-3.3308290147960182,0.8859268027111887,-2.475502809792757
1776555958003517000,1.721516845703125,-2.103426277695596,0.6616045448452234,-2.675758840155601
1776555958013558000,1.73155810546875,-1.4585475344628094,0.32767215770334,-2.673752761030197
1776555958023599900,1.741599853515625,-1.2239718858689068,0.1767430528283119,-3.1201644031435247
1776555958033641000,1.751640869140625,-1.355995507004857,0.21514438741505146,-3.4074002133011816
1776555958043682800,1.761682861328125,-1.3798194501847028,0.596805617198348,-3.3330221409261225
1776555958053724000,1.771723876953125,-2.3320003477871416,1.3279852180510758,-3.669748250439763
1776555958063766000,1.78176611328125,-3.3335809438526627,2.354039161115885,-4.492468070870638
1776555958073807000,1.79180712890625,-3.1305957807868716,2.7550235155284404,-4.964449038526416
1776555958083849000,1.801848876953125,-2.619596807950735,2.5853490859121084,-5.780136476102471
1776555958093890000,1.81189013671875,-1.7175924384027719,1.74920747385025,-6.625262774130702
1776555958103932000,1.821931884765625,-0.22293547968268393,0.931740167120099,-7.679447417658567
1776555958113973000,1.831972900390625,0.9494570255964994,-0.1830909605503082,-7.894035924756526
1776555958124014800,1.842014892578125,1.9186802434146404,-0.8364058159559965,-8.16184398086667
1776555958134056000,1.852055908203125,3.4197605131804942,-1.113662083891034,-8.157036872845888
1776555958144097800,1.862097900390625,2.5406629719674587,-0.30292496219873427,-8.61729759209156
1776555958154139000,1.872138916015625,1.2376543742626904,1.2288012057214974,-7.659414098933339
1776555958164181000,1.882180908203125,0.7656897732198238,1.8158692727595567,-6.172252464404702
1776555958174222000,1.89222216796875,0.7316600778460502,1.617571975249052,-5.163519073975086
1776555958184264000,1.902263916015625,-0.10701426756381988,1.6803315060228108,-4.649359883542359
1776555958194305000,1.912304931640625,-0.48833413656353947,1.5044243194967508,-4.029452499958873
1776555958204347000,1.922346923828125,0.5057242473036051,1.0307020611315965,-3.750660985280573
1776555958214388500,1.932388427734375,-0.06615560295283794,-0.128959557390213,-3.1182550623908636
1776555958224430300,1.942430419921875,-0.15465981583595276,-1.3607032463043927,-2.460828972274065
1776555958234471400,1.952471435546875,-0.0003407762616872787,-2.697289119440317,-2.0273092526987195
1776555958244513300,1.96251318359375,-0.13451017725467682,-4.166564384144545,-1.9852853437006472
1776555958254554400,1.972554443359375,-0.4318751672387123,-4.085349743747711,-2.8316318311735986
1776555958264596500,1.982596435546875,-0.6171440563499927,-4.885056937381625,-2.6988401482746003
1776555958274637600,1.992637451171875,1.418407831776142,-4.793291092354059,-2.37413385463953
1776555958284679400,2.002679443359375,2.454061962357163,-4.429719646012783,-2.284695283515751
1776555958294720500,2.012720458984375,2.7145243318796157,-4.404750624451041,-2.3422855949580668
1776555958304762400,2.022762451171875,2.6413065354555845,-4.718099950030446,-2.8199177202433345
1776555958314803500,2.032803466796875,2.696303615534305,-4.965680041626095,-2.966660771605372
1776555958324845300,2.04284521484375,3.389935868281126,-4.380292475020886,-2.711395970726013
1776555958334886400,2.052886474609375,3.309967428553104,-4.01103187712729,-2.248010981979966
1776555958344928300,2.06292822265625,1.8445815725028514,-3.128235481396317,-2.1366151383310554
1776555958354969300,2.07296923828125,1.0581178913235665,-1.724779719558358,-2.0019646758228538
1776555958365011500,2.083011474609375,1.1368588350832463,-0.08252396942973136,-1.9068530274987219
1776555958375052500,2.093052490234375,1.188819908466935,1.9365286193162201,-1.7802140220105647
1776555958385094400,2.103094482421875,-0.7243208209991455,1.5379235612556337,-0.981000749373436
1776555958395135500,2.113135498046875,-1.7829910855084656,-0.48536681119054553,-1.4681021292716263
1776555958405177300,2.12317724609375,-0.46026042698472736,-1.0407383019775152,0.8421119186431169
1776555958415218400,2.133218505859375,0.3187786571517586,-1.447695885580778,1.710724890720844
1776555958425260300,2.14326025390625,-0.5972805412337183,-1.60637633523494,1.9105898759394884
1776555958435301400,2.15330126953125,-0.2236427511692047,-0.957404477469623,2.5945219879269596
1776555958445343200,2.16334326171875,-1.7307038489103317,0.07696370495408773,2.785149189200997
1776555958455384300,2.17338427734375,-3.4881925366327167,1.550127501529455,3.2798563679277897
1776555958465426400,2.183426513671875,-3.497984739589691,2.9422192810490726,3.6721775234133003
1776555958475467500,2.193467529296875,-2.8083848110988736,3.5298663170188664,4.322853847008943
1776555958485509400,2.20350927734375,-1.7272683215036988,4.689093051254749,4.241446314388513
1776555958495550500,2.213550537109375,-0.2878980734586716,5.586663237747549,3.375587609454989
1776555958505592300,2.22359228515625,1.4089428149469196,5.630106073632836,2.8479022902339697
1776555958515633400,2.23363330078125,2.079076557075977,4.360661307355762,2.0279127715498206
1776555958525675300,2.24367529296875,2.7426167461588977,2.3839627363450826,2.1233499985665083
1776555958535716400,2.25371630859375,2.307622277855873,1.1089011530995367,2.7152795341610907
1776555958545758200,2.26375830078125,1.0158376694768667,-0.2985530307248235,3.34067294794023
1776555958555799300,2.27379931640625,-0.08032967425584793,-1.105716239453107,4.2042683841168875
1776555958565841400,2.28384130859375,-0.4857013038419187,0.5545755181036889,2.678406139793992
1776555958575882500,2.293882568359375,-1.3676419595263898,1.4489932319149375,0.7927817782849073
1776555958585924400,2.30392431640625,-1.3579500020734965,2.301572768558562,1.171061548936367
1776555958595965400,2.31396533203125,-0.9145072197031229,2.520255559232831,1.5090601626038551
1776555958606007300,2.32400732421875,-2.4261907896131274,1.924216980884224,1.8752929371088742
1776555958616048400,2.33404833984375,-0.5628466489732266,1.9147294599622486,1.5260475377619265
1776555958626090200,2.34409033203125,-1.0300947428882121,1.2819769155919551,3.3534511809706684
1776555958636131300,2.35413134765625,-3.450084339773655,1.3411971663236617,0.8162661142468451
1776555958646173200,2.364173095703125,-1.9447551803916692,3.337968657417595,-3.8092385541945695
1776555958656215600,2.374215576171875,-0.896907338669896,6.018708500856161,-8.41085965822339
1776555958666256400,2.38425634765625,-0.2775215678077191,5.180616339248418,-10.87242512807846
1776555958676298500,2.394298583984375,-0.4447929548703134,2.387191489133239,-12.647882310950756
1776555958686339300,2.40433935546875,0.1874532474130392,-1.0812161505773663,-11.700836438149214
1776555958696381400,2.41438134765625,-0.7117630988515913,-4.172947363179921,-9.532975097683071
1776555958706422300,2.42442236328125,0.4599675815179944,-5.834477722620964,-7.7409022955745455
1776555958716464400,2.43446435546875,1.9669559062838553,-6.893033420839905,-4.756516482186317
1776555958726505200,2.444505126953125,-0.21305852105170486,-6.679412297469377,-3.311500629469752
1776555958736547600,2.454547607421875,-0.8972577595427632,-4.645615144056081,-4.933441905844211
1776555958746588400,2.46458837890625,2.398996785478294,-2.7949083666712045,-7.770969517058133
1776555958756630500,2.474630615234375,3.1453631418079135,-2.8883576347410678,-6.1284378725975746
1776555958766671400,2.48467138671875,1.7209177834331988,-2.7126480166137217,-4.8203743295907975
1776555958776713500,2.49471337890625,1.5760539699465035,-2.063189252114296,-3.6977550322622057
1776555958786754300,2.50475439453125,0.4199059125036001,-0.644894817584753,-2.696812149578333
1776555958796796400,2.51479638671875,-0.7579474885299802,0.6459446188986301,-1.5573293957322836
1776555958806837200,2.524837158203125,-0.7682084780424833,1.3105121052026747,0.04105915561914444
1776555958816879400,2.53487939453125,0.24183599498569963,0.6079343294560909,2.1412650099635124
1776555958826920200,2.544920166015625,-0.9840651053801178,-0.21421616665422916,5.332619503095746
1776555958836962600,2.554962646484375,-2.828538833594322,-0.1349818864196539,7.030294358107447
1776555958847003400,2.56500341796875,-2.962323619183898,1.454324363809824,6.651966072139143
1776555958857045500,2.57504541015625,-1.3713029662519693,1.5910796896427868,6.223659411036968
1776555958867086300,2.58508642578125,0.6961746307060122,1.5806705238312482,5.734293593338132
1776555958877128400,2.59512841796875,0.7544757207661866,0.08871697885096072,5.4637698485285044
1776555958887169300,2.605169189453125,2.306749878935516,-0.6309346812933683,4.709304064634442
1776555958897211400,2.61521142578125,3.0149618611767885,-1.7041811681658028,3.9172628755837677
1776555958907252200,2.625252197265625,2.10755943197757,-2.031763601759076,2.9944559565037485
1776555958917294300,2.63529443359375,1.2191522106274961,-1.8416297369599341,2.5703759731858966
1776555958927336400,2.64533642578125,0.11174012704193591,-1.7467951520115137,2.8738837037086484
1776555958937377500,2.65537744140625,0.41785833232402797,-1.75599611107707,3.4707378362238406
1776555958947419400,2.66541943359375,1.1996055063754318,-1.4838199228852986,4.4385237147152425
1776555958957460500,2.67546044921875,1.6720865325078367,-1.0570043771237134,3.9737113235145807
1776555958967502300,2.68550244140625,-0.015297522374987601,-0.07119184355437755,2.4071418057501313
1776555958977543400,2.69554345703125,-0.43175534025132656,0.4141986407727003,1.7275591211438177
1776555958987585300,2.705585205078125,0.28100129968225956,-0.25116788695454595,1.8341911113917826
1776555958997626400,2.71562646484375,0.3687093937516212,0.23075988969802855,1.5654560035645961
1776555959007668200,2.725668212890625,1.7848568793803452,-0.7229407648175954,3.685000180107355
1776555959017709300,2.735709228515625,1.7535595315799115,-2.234674530544877,2.564624277791381
1776555959027751400,2.74575146484375,0.7431301508873701,-2.474429627603292,1.5254507409125566
1776555959037792500,2.75579248046875,1.123688387864828,-3.8910038142114876,1.2656646632164716
1776555959047834400,2.76583447265625,-1.6763938743129372,-4.889083124157786,1.285153207540512
1776555959057875500,2.77587548828125,-0.40736324179470534,-4.452019740626215,-0.21375088723003863
1776555959067917300,2.785917236328125,-1.077381248589605,-2.54345757112205,-0.32419220663309095
1776555959077958400,2.79595849609375,0.4098632419168949,5.719293592604995,2.612065243402123
1776555959088000300,2.806000244140625,-1.1112046808015554,1.25402975500226,-1.4822411292612552
1776555959098041300,2.816041259765625,-1.5192879804991184,1.8849124138474462,-3.9238954454660413
1776555959108083200,2.826083251953125,-1.2155881614703685,1.3977186794906853,-4.588949838504195
1776555959118125300,2.836125244140625,-2.320785126289725,1.3727297841846942,-3.950672100971639
1776555959128166400,2.84616650390625,-1.4420119947254657,1.0786620821803807,-2.3934715923160312
1776555959138208500,2.85620849609375,-0.049345995514467354,-1.8080331723064182,-0.5981029635325074
1776555959148249300,2.866249267578125,-0.346223421177268,-2.563812376886606,-0.06434007796347141
1776555959158291500,2.87629150390625,-0.1573713398169726,-4.002462201702595,0.6035299570173025
1776555959168332300,2.886332275390625,-0.09770108029544353,-5.01524399074018,0.993854385727644
1776555959178374400,2.89637451171875,1.0541368588633835,-2.7916578404426575,4.625468720345199
1776555959188415200,2.906415283203125,-0.7482729206033051,-5.625834387663007,0.7337427293390035
1776555959198457300,2.916457275390625,-2.4955244380801913,-4.995841955655813,-0.40208647043555973
1776555959208498200,2.926498291015625,-5.421320699855685,-4.216012597924471,-0.23508126002848148
1776555959218540500,2.93654052734375,-2.794849329960346,-4.7747640865385526,-0.1232597383134067
1776555959228581400,2.946581298828125,-2.0269757829606534,-3.7133904082894325,-0.6489648435026407
1776555959238623500,2.95662353515625,-3.472853805464506,0.20238310551941394,-1.9257171563141047
1776555959248664300,2.966664306640625,-2.3876959315240383,3.241967659038305,-2.793661581480503
1776555959258706700,2.976706787109375,-3.206502962425351,6.925604734098911,-2.8631863686054944
1776555959268748500,2.98674853515625,-3.6515702041924,9.931146148240567,-3.1205957802981135
1776555959278789600,2.99678955078125,-0.3331213630199432,12.999575103449821,-1.2690570821337401
1776555959288831500,3.00683154296875,6.8762108808547255,15.25102950388193,0.2599130650766194
1776555959298872600,3.01687255859375,4.183764525270462,10.785565175271033,0.39596111942306156
1776555959308914400,3.02691455078125,5.469424513289332,6.776829884648323,0.7143836566135287
1776555959318955500,3.03695556640625,-3.7843338300406932,3.3026673346728086,1.6240378102622925
1776555959328997400,3.046997314453125,5.323242018419504,3.7225937054425478,2.3629078194871544
1776555959339038500,3.05703857421875,3.8400744219630956,1.8270295491993427,3.508946863108873
1776555959349080600,3.06708056640625,-3.3597365448504686,-0.1675116986244917,4.953007607057691
1776555959359121700,3.07712158203125,0.21593298050947485,-1.8651772012859582,4.574254081414639
1776555959369163500,3.08716357421875,4.482703048181533,-1.4817127214729786,4.485627118934691
1776555959379204600,3.09720458984375,1.7921821077018976,-1.4028420138537883,4.422341226199269
1776555959389246500,3.10724658203125,-1.5468559325128792,-1.3257844931364058,3.1771359981656073
1776555959399287600,3.11728759765625,-1.866737436340004,-1.3929478118270635,1.2255364317718893
1776555959409329400,3.127329345703125,-1.4733394454032183,-1.553883639192581,0.81355758594051
1776555959419371300,3.137371337890625,-0.4310982645820826,0.3858949218302965,1.4389963001661001
1776555959429412400,3.147412353515625,-0.30110059631578623,3.1282272980898616,1.730476908286661
1776555959439454500,3.157454345703125,1.3000824811249971,1.6320272015810011,1.491962020547688
1776555959449495600,3.16749560546875,0.4672768816180527,0.5073234991937875,1.1826633585985749
1776555959459537400,3.177537353515625,0.06515665504336357,-0.042945407757163045,0.9787866535205394
1776555959469578500,3.18757861328125,-0.021641849900409578,-0.28418694398105143,0.6829761264368891
1776555959479620400,3.197620361328125,0.2361975507073104,-0.6456774923950434,-0.26787980617210266
1776555959489661400,3.207661376953125,-0.4376708479054272,-0.9670347678631543,-1.8694931647889315
1776555959499703300,3.217703369140625,0.5835936689257621,-0.3085094843327999,-1.6724956978306174
1776555959509744400,3.227744384765625,0.7964366475306451,0.2631570154339075,-0.8102000922061502
1776555959519786200,3.2377861328125,1.10876495949924,0.4893050274223089,-0.7902940531224012
1776555959529827600,3.24782763671875,1.45006086114645,0.6085813951879739,-0.5847974186923355
1776555959539869400,3.257869384765625,0.750150258782506,0.692446842354536,-0.060629825268685815
1776555959549910500,3.26791064453125,0.26460969846025106,0.19917641843259334,0.40600623769517985
1776555959559952400,3.277952392578125,-0.48429815904572604,-0.05724456674456596,0.9130361973024904
1776555959569994500,3.287994384765625,-1.0263386052250862,-0.11419453445672988,1.2901280733436344
1776555959580035300,3.298035400390625,-1.1483401601709424,-0.1505360139042139,1.317400987933576
1776555959590077400,3.308077392578125,-1.5083353554606438,-0.11296996109783648,1.1618164584681392
1776555959600118300,3.3181181640625,-1.6849813776552676,-0.1683481494486332,0.6281243000477552
1776555959610160600,3.32816064453125,-1.9961099584452806,-0.386947645753622,-0.046089697132259605
1776555959620201500,3.338201416015625,-2.166323317243904,-0.39218905353844163,-0.1584980788245797
1776555959630243600,3.34824365234375,-2.087707461168617,-0.23369769671559332,-0.2589969000797719
1776555959640284400,3.358284423828125,-1.4425979779198765,-0.1346112995415926,-0.3360463836211711
1776555959650326500,3.368326416015625,-0.6933879225969314,-0.24671266111135481,-0.6385805198714136
1776555959660367600,3.37836767578125,0.08221592639386653,-0.24142566061913967,-0.8768327380862087
1776555959670409500,3.388409423828125,0.7302543027013539,-0.15911153454780577,-1.174735561273992
1776555959680450600,3.398450439453125,1.2249283098109065,0.02162789444029331,-1.5653414372742176
1776555959690492400,3.408492431640625,1.3007435753822325,0.19012451244890688,-1.9568673507288097
1776555959700534500,3.418534423828125,1.5174369458049535,0.5279559528559447,-1.9411165316283703
1776555959710575600,3.42857568359375,1.6671663195014,0.5405816256731748,-1.7388585137933492
1776555959720617500,3.438617431640625,1.200947130242735,0.46913434605300425,-1.4940277209058404
1776555959730658600,3.448658447265625,0.7547627210140228,0.5483300478428602,-1.333504419863969
1776555959740700400,3.458700439453125,0.4775070376008749,0.5563859285265207,-1.0802243630610406
1776555959750741500,3.468741455078125,0.3186819187790155,0.47275838176906104,-0.85808923997581
1776555959760783400,3.478783447265625,0.2196529508806765,0.5513602093189954,-0.6590222732670605
1776555959770824400,3.488824462890625,0.18153861654177306,0.8594979377299546,-0.49382776554375885
1776555959780866300,3.4988662109375,0.1719061341911554,0.9054916271418333,-0.4476796527551487
1776555959790907400,3.508907470703125,0.3519062891192734,0.4955331081569195,-0.4795006956361234
1776555959800949500,3.518949462890625,0.4798801964730024,0.003273322582244873,-0.46724754592571405
1776555959810991600,3.52899169921875,0.5352157147258519,-0.19605740962922572,-0.3738954546200111
1776555959821032400,3.539032470703125,0.42339185492321846,-0.08181494437754154,-0.35151557276863604
1776555959831074600,3.549074462890625,0.19552607923150062,-0.012495324435830115,-0.3222475388387218
1776555959841115400,3.559115478515625,0.018126754451543093,-0.09903320568203926,-0.381104107357189
1776555959851157500,3.569157470703125,-0.07979629803150892,-0.26466800451874734,-0.44554559986852105
1776555959861198300,3.5791982421875,-0.16004560052752495,-0.3717670277565717,-0.5163091350082307
1776555959871240400,3.589240478515625,-0.15822554549351334,-0.3771674254953861,-0.6684407475408166
1776555959881281300,3.59928125,-0.11487257984876632,-0.38230186577439307,-0.9010305560797452
1776555959891323600,3.60932373046875,-0.1523445246309042,-0.36156244460642334,-1.1320678744796664
1776555959901364500,3.619364501953125,-0.3168699009209871,-0.3112584907799959,-1.3560051516160367
1776555959911406600,3.629406494140625,-0.4762409631878137,-0.14933072976768016,-1.4813888963460922
1776555959921447400,3.639447509765625,-0.6303815774552524,0.036062662506103516,-1.4853683213710784
1776555959931489500,3.649489501953125,-0.6748280374251305,0.25223522392511366,-1.4303522443309427
1776555959941531400,3.659531494140625,-0.6086480306833982,0.26566519886255263,-1.3929194625154138
1776555959951572500,3.669572509765625,-0.5863290852390229,0.11111585766375064,-1.291605306289345
1776555959961614300,3.6796142578125,-0.6739373721957206,-0.07585457466840743,-1.100677076242119
1776555959971655400,3.689655517578125,-0.8544688575215638,-0.2009983731627464,-0.8708814284663647
1776555959981697500,3.699697509765625,-1.036182538369298,-0.2862713490396738,-0.6283199687503278
1776555959991738600,3.709738525390625,-1.2092683838643132,-0.21376199314594269,-0.3975269805002957
1776555960001780500,3.719780517578125,-1.3238945877365766,0.08066869695186614,-0.17077888372689484
1776555960011821600,3.729821533203125,-1.2697164228253066,0.3967518314093351,-0.00882145822867751
1776555960021863400,3.739863525390625,-0.9449250812552868,0.6050514674961567,0.0741099229581654
1776555960031905500,3.749905517578125,-0.40469256128072734,0.7174228781789541,0.10035495580509304
1776555960041946400,3.7599462890625,0.27398236083090305,0.6447463490247726,0.09691270639672875
1776555960051988500,3.769988525390625,0.8851607867747545,0.47457039962708947,0.030425387271493673
1776555960062029300,3.780029296875,1.3824902768291532,0.2513198626458645,-0.09826784733273089
1776555960072071700,3.79007177734375,1.6414210528701543,0.06660510028600693,-0.252699407370761
1776555960082112500,3.800112548828125,1.6686819847613572,0.006555412992835044,-0.44002267172858117
1776555960092154600,3.810154541015625,1.4960603957772254,0.26193887181580067,-0.6413870286595076
1776555960102195500,3.820195556640625,1.1575205148398875,0.5518564684033394,-0.8390735738605261
1776555960112237600,3.830237548828125,0.8752794442296028,0.7434983996778726,-1.0477045607935636
1776555960122278400,3.8402783203125,0.7030730119176208,1.0602601640492677,-1.23377607152462
1776555960132320500,3.850320556640625,0.7618022642619907,1.1036463013112545,-1.3649462907016277
1776555960142362600,3.860362548828125,0.5625112795390188,0.9448217670112847,-1.693762942264974
1776555960152403700,3.87040380859375,0.59228843203485,1.0418974088847637,-1.8797233207717536
1776555960162445600,3.880445556640625,0.454121485838294,1.0796885026186704,-2.1537194178670642
1776555960172486700,3.890486572265625,0.5129220498532057,1.073189788249135,-2.309485149118304
1776555960182528500,3.900528564453125,0.7792033347874879,0.9604150574624538,-2.364692072555423
1776555960192569600,3.910569580078125,0.9553799859046935,0.7895014414399861,-2.304472289392352
1776555960202611500,3.920611572265625,1.2141227650929243,0.6161135442584753,-2.092786225737631
1776555960212652500,3.930652587890625,1.351657770061493,0.4855103113144636,-1.8095646196573971
1776555960222694000,3.94069384765625,1.3203355800807475,0.2928904749184847,-1.462763398592174
1776555960232736000,3.950736083984375,1.201936579671502,0.12134089908003806,-1.1755169939752668
1776555960242776800,3.96077685546875,1.0640174707561731,0.04207856179475784,-0.9245600463576614
1776555960252819000,3.97081884765625,0.922858941528201,0.06468202326893806,-0.697268344226852
1776555960262859800,3.98085986328125,0.7488391761839389,0.20150281555354593,-0.532672934907861
1776555960272902000,3.99090185546875,0.5831342347204684,0.5878384668886661,-0.3893890475563705
1776555960282943000,4.00094287109375,0.43540567945241926,1.1218050583362578,-0.2708622925816104
1776555960292985000,4.010985107421875,0.22876436849925666,1.5909540174365042,-0.15964286494553087
1776555960303026000,4.02102587890625,0.050667526441812515,1.8783622615516185,-0.08699092224333435
1776555960313068000,4.031068115234375,-0.26458500241041183,1.9655413633108139,-0.0038200697448104617
1776555960323110000,4.04110986328125,-0.7184849544525146,1.8615116645157337,0.20169884958229958
1776555960333151000,4.05115087890625,-1.360896723049879,1.6101906328260898,0.5158388140827417
1776555960343192800,4.06119287109375,-1.9807973846316336,1.2612807490438223,0.895363324098289
1776555960353234000,4.07123388671875,-2.573150698596239,0.8077116363912821,1.248056233550608
1776555960363276000,4.081276123046875,-2.8544050962567327,0.3113958534240722,1.4769684495553372
1776555960373317000,4.091317138671875,-2.849609678673744,-0.09170856188237667,1.4349540390379727
1776555960383359000,4.10135888671875,-2.5597207236588,-0.33209201997220517,1.2663883013159036
1776555960393400000,4.111400146484375,-2.248288483747095,-0.5276935025274754,1.042656483623758
1776555960403442000,4.12144189453125,-1.798529723162949,-0.5974748947620392,0.8435686933226882
1776555960413483000,4.13148291015625,-1.4001869693003595,-0.6519827300190926,0.5748175111435353
1776555960423524900,4.14152490234375,-0.7554863591134547,-0.6440548596292733,0.3675819606242701
1776555960433566700,4.151566650390625,-0.32563349148258564,-0.6475602374017239,0.16893581314347683
1776555960443607800,4.16160791015625,-0.21051190530881284,-0.6205243464380502,0.15310825727870686
1776555960453650000,4.17164990234375,-0.1580186247445643,-0.7356576230496168,0.16228726024078205
1776555960463691000,4.18169091796875,-0.19942469410523772,-0.8597837689340114,0.28056933800578115
1776555960473732900,4.19173291015625,-0.5383985825456679,-0.9780109199076891,0.4360365977670997
1776555960483774000,4.20177392578125,-0.8213466323815286,-0.9683791682094335,0.6392889604017138
1776555960493815800,4.21181591796875,-0.9608664544917642,-0.9548258591532707,0.7558101842403412
1776555960503858000,4.22185791015625,-1.0366517633162438,-0.8512345517754554,0.8094762349110096
1776555960513898800,4.231898681640625,-1.072131365237385,-0.7721347115755081,0.7848527388513088
1776555960523940900,4.24194091796875,-0.9357717607237398,-0.7031769106835126,0.7311054396379738
1776555960533981700,4.251981689453125,-0.6579227875925601,-0.7777823620736598,0.5880775728741661
1776555960544024000,4.262024169921875,-0.26311551437973973,-0.8393295944482088,0.43368506620489056
1776555960554065000,4.27206494140625,0.0741409026183188,-0.8702040406614542,0.3894075330611318
1776555960564107000,4.28210693359375,0.16285583564266562,-0.8634890531927346,0.3876582417083904
1776555960574147800,4.29214794921875,0.2855376279376447,-0.7778963438421488,0.5315637315569445
1776555960584190000,4.30218994140625,0.311518456890434,-0.7332879713088274,0.6522060173809529
1776555960594231800,4.312231689453125,0.17453940530419348,-0.778205555921793,0.8001710117533802
1776555960604273000,4.32227294921875,0.1811782587967813,-0.9692407534748315,0.890204991487041
1776555960614314800,4.332314697265625,0.41797772091999646,-1.3313245916068552,0.856957678662613
1776555960624355800,4.34235595703125,0.622018676649034,-1.6911059980154037,0.7234929188076407
1776555960634398000,4.35239794921875,0.7871019790828228,-2.018432411020994,0.5565638423766941
1776555960644439000,4.36243896484375,0.6767455614842474,-2.227337611785531,0.35420229110196233
1776555960654481000,4.37248095703125,0.5385236702300608,-2.3244161762684583,0.1564667921926826
1776555960664522000,4.38252197265625,0.31935119634270664,-2.2504344097346065,-0.07060724859945476
1776555960674563800,4.392563720703125,0.13005275945439934,-2.0200702413558957,-0.29146117276772854
1776555960684606000,4.40260595703125,-0.1113093344092369,-1.6587842756032942,-0.4781321837618947
1776555960694646800,4.412646728515625,-0.2167068144261837,-1.2905389922320842,-0.6005461189009249
1776555960704689000,4.42268896484375,-0.16653846967816352,-0.9187386467278004,-0.8245443324442953
1776555960714729700,4.432729736328125,-0.07004325804114342,-0.3260784587711096,-1.0543427566990256
1776555960724772000,4.442772216796875,0.11049326878599822,0.13675649487674235,-1.3852251086205243
1776555960734813000,4.45281298828125,0.3458136713325977,0.5403185908228159,-1.7789736665606497
1776555960744855000,4.46285498046875,0.48217210680246353,0.7439058114349841,-2.1414254612222314
1776555960754897000,4.47289697265625,0.5967629471004009,0.7792553572356701,-2.4804548792421817
1776555960764938000,4.48293798828125,0.600130962228775,0.6726742203921079,-2.726300986652076
1776555960774979800,4.492979736328125,0.6898714389085769,0.46424949662089343,-2.863872012782097
1776555960785021000,4.50302099609375,0.8017711404263973,0.3133978408962488,-2.9007074132263657
1776555960795062800,4.513062744140625,0.8912403258841485,0.40905426362156866,-2.9474022366449235
1776555960805103900,4.523103759765625,0.9483060289304703,0.6930722807765006,-2.9827693181023
1776555960815146000,4.53314599609375,0.9020447015583515,0.9081050245106219,-2.921757507778704
1776555960825187000,4.54318701171875,0.7162121872149407,0.9490916994154452,-2.7897382705569265
1776555960835229000,4.55322900390625,0.5499719698309898,0.7472878550887108,-2.622241477240622
1776555960845270800,4.563270751953125,0.46086621085815127,0.3845663035750389,-2.372988776257634
1776555960855312000,4.573311767578125,0.482379173681885,-0.2641553788214922,-1.901455844630301
1776555960865353700,4.583353759765625,0.5545419080950319,-0.700164284864068,-1.3619585070624947
1776555960875394800,4.593394775390625,0.689470456892252,-0.8435340604007243,-0.9319863969661295
1776555960885437000,4.60343701171875,0.9021742462221533,-0.8927519725561142,-0.5301511613452807
1776555960895478000,4.61347802734375,1.0653109446328133,-0.8604132990092038,-0.2045046642506495
1776555960905519900,4.623519775390625,1.2479973429702222,-0.8433885144501924,0.007841178487055003
1776555960915562000,4.63356201171875,1.4257657933235168,-0.7525929757595062,0.05870455629453063
1776555960925602800,4.643602783203125,1.4385432957015931,-0.5562964966773987,-0.08194642527010292
1776555960935645000,4.65364501953125,1.2637842562973498,-0.23755729475319384,-0.22910817696824667
1776555960945685800,4.663685791015625,1.0840882719475775,0.37073300853371616,-0.2817806500243023
1776555960955728000,4.673727783203125,0.8915175353903323,1.1843448088794946,-0.32343627369925376
1776555960965768700,4.683768798828125,0.7365360863845795,1.9219617493033407,-0.4345020451435819
1776555960975811000,4.69381103515625,0.598460471733287,2.393019172373414,-0.6503419770747423
1776555960985853000,4.70385302734375,0.41895723347663877,2.623584416282177,-0.788231202308461
1776555960995894000,4.71389404296875,0.0028653993684798476,2.9603432590216396,-0.6795644913624972
1776555961005935900,4.723935791015625,-0.4133517050871625,3.48485696246922,-0.3005894684558734
1776555961015977000,4.73397705078125,-0.24378303740024565,4.363187026441097,0.16503338061114772
1776555961026018800,4.744018798828125,0.75372344109416,5.588204621970653,0.695727836786583
1776555961036060000,4.754059814453125,2.3704630571722984,6.842384599098563,1.1786471086945385
1776555961046101800,4.764101806640625,3.093625355786085,6.889609876132011,0.8042666105039418
1776555961056142800,4.774142822265625,2.565121705919504,4.382020321726799,-0.017113796283025295
1776555961066185000,4.78418505859375,1.7789479475975036,1.0219885933220385,0.3355704366724938
1776555961076227000,4.79422705078125,0.10852233403921127,-1.3930968649089335,0.5017028463004156
1776555961086268000,4.804267822265625,-1.3349696701109408,-2.693600201794505,1.0890205407179891
1776555961096310000,4.81431005859375,-2.088064165651798,-3.857071733993292,1.5547741582915187
1776555961106350800,4.824350830078125,-2.080159091615677,-4.817875498512387,1.9722087122455239
1776555961116393000,4.83439306640625,-1.9660639258801935,-5.582262956961989,2.3428166330948472
1776555961126433800,4.844433837890625,-2.0575147136092187,-6.263654152294993,2.5059926406025883
1776555961136476000,4.854475830078125,-2.24526197553277,-6.673004183992743,2.4612214787229894
1776555961146518000,4.86451806640625,-2.3968659109294412,-6.745259272864461,2.4272592956274748
1776555961156559000,4.87455908203125,-2.448780807083845,-6.155343415179848,2.376901273526251
1776555961166601000,4.88460107421875,-2.64161340944767,-4.790248655918241,2.5119752221435308
1776555961176642000,4.89464208984375,-2.657579040342569,-3.1467636562556027,2.6166063939630986
1776555961186684000,4.904683837890625,-2.847814027428627,-1.1350924099326134,2.651107213979959
1776555961196725800,4.914725830078125,-2.767748557066917,1.384623051074147,2.646991595354676
1776555961206766800,4.924766845703125,-2.690437353849411,3.6788948489695787,2.8503081823319194
1776555961216808700,4.93480859375,-2.054412071418762,5.138933498772978,2.4905963340282438
1776555961226850000,4.94485009765625,-1.7003507962226867,5.4537938134372235,1.555598480286449
1776555961236892000,4.954891845703125,-0.4331991093188524,4.546447498339415,0.6062235069502144
1776555961246933000,4.96493310546875,0.830091810503602,3.1463492302358147,-0.0035645606137812134
1776555961256975000,4.97497509765625,1.6484803237318992,1.5154887343466281,-0.5309284658607095
1776555961267017200,4.985017333984375,2.271793424105644,0.15663257721364499,-0.9027884325977414
1776555961277058000,4.99505810546875,2.2607798626601694,-0.7621919942319393,-1.0661157582096754
1776555961287100200,5.00510009765625,1.9395827461898325,-1.3441425721257925,-1.0938220957808196
1776555961297141000,5.01514111328125,1.3500304611206053,-1.6606904014855621,-1.03954500053972
1776555961307183000,5.02518310546875,0.75450670042634,-1.771380727213621,-0.9493922167319804
1776555961317224000,5.035223876953125,0.27090551066882906,-1.6802134326010942,-0.9060337711945176
1776555961327266300,5.045266357421875,0.05875263321995735,-1.3957733906418084,-0.9018371962875127
1776555961337308200,5.05530810546875,0.07937931472845375,-0.7576274627953767,-0.8251673597134649
1776555961347349200,5.065349365234375,0.12928973919264972,-0.06879647285044192,-0.6830895236834883
1776555961357391000,5.07539111328125,0.27090076142847536,0.17969547289311885,-0.5977118453230709
1776555961367432200,5.08543212890625,0.5683183583825826,0.046266661134362216,-0.6749176154047251
1776555961377474000,5.09547412109375,1.083366898870468,-0.2390834814071655,-0.8342179505228996
1776555961387516000,5.105515869140625,1.2237328894812614,-0.46190088766813275,-1.0271396924749017
1776555961397557000,5.115556884765625,1.1458207977611572,-0.68397244399786,-1.2079874041430652
1776555961407599000,5.12559912109375,1.0390758486580103,-0.9651508538126945,-1.3882244365669787
1776555961417640200,5.13564013671875,1.0564443320881576,-1.1952777063041924,-1.4924968580767513
1776555961427682000,5.14568212890625,1.2131324388813227,-1.2951350878506898,-1.5215861744388937
1776555961437723100,5.15572314453125,1.1734101578891276,-1.3177064006209374,-1.5086011667899786
1776555961447765000,5.165764892578125,0.9590092823177575,-1.3738994124859571,-1.5057245884403585
1776555961457807000,5.17580712890625,0.7868014617662876,-1.3716460806012152,-1.5454104098796844
1776555961467848000,5.185847900390625,0.44484629249274726,-1.3203636371314524,-1.4887795911192894
1776555961477890000,5.19589013671875,0.22846271867156026,-1.270825991502404,-1.4091704862229526
1776555961487931100,5.20593115234375,0.16622816161997617,-1.230202889212966,-1.4044059021696447
1776555961497973200,5.21597314453125,0.05519004536755383,-1.210655308178067,-1.4705797714315354
1776555961508015000,5.22601513671875,-0.08251220592670142,-1.2977970005363224,-1.6101058771520853
1776555961518056200,5.23605615234375,-0.04711363335251808,-1.4811328757584095,-1.7399363721579313
1776555961528098000,5.24609814453125,0.07940912534482776,-1.6268004068434236,-1.8511574437618254
1776555961538139100,5.25613916015625,-0.011611527338624,-1.7267893058151005,-1.8702809541657566
1776555961548181000,5.266180908203125,-0.680667557233572,-1.9424077404826878,-1.6498418213434516
1776555961558222000,5.27622216796875,-1.1895184121251106,-2.240329195305705,-1.3258695410713552
1776555961568264000,5.286263916015625,-0.8159282605946063,-2.3427274935066698,-1.3215908408388495
1776555961578306300,5.296306396484375,0.17467797352466732,-2.458523617941141,-1.6123634468205272
1776555961588347100,5.30634716796875,1.0195125585973261,-2.581069216635823,-1.9229663963012396
1776555961598389200,5.31638916015625,1.3134300384759903,-2.733262934619188,-1.9427413563512264
1776555961608430000,5.32643017578125,1.096377187091112,-3.12621654278934,-1.6330292182303965
1776555961618472200,5.33647216796875,0.7546651789236813,-3.4595629467368125,-1.1846359007805585
1776555961628514000,5.34651416015625,0.6201654499977827,-3.6036703888982533,-0.8782047570917755
1776555961638555100,5.35655517578125,0.23304420124292372,-3.614520868736505,-0.5128748497106135
1776555961648597000,5.366596923828125,-0.5469067005088553,-3.436034771633148,-0.029192922867089507
1776555961658638000,5.37663818359375,-0.8999620500653982,-3.2244419392198322,0.27981530476808547
1776555961668680200,5.38668017578125,-0.8065431771337985,-3.046199587744474,0.34453393372036517
1776555961678722000,5.39672216796875,-0.3694289401978254,-2.8360721517086027,0.16079707648195327
1776555961688763100,5.40676318359375,0.08844108451902866,-2.7510411678940057,-0.1618747521834448
1776555961698805000,5.416804931640625,0.4467021494925022,-3.0398282991468903,-0.6131441730588674
1776555961708846000,5.42684619140625,0.28415070362389083,-3.3834681335717436,-1.0598911115411669
1776555961718888000,5.436887939453125,-0.4144990850239992,-3.646964756223559,-1.4332937046103178
1776555961728929000,5.446928955078125,-1.679749322220683,-3.8289761048436164,-1.6689530567876993
1776555961738971000,5.456970947265625,-2.772217811435461,-3.8609436069905754,-1.8405115465849637
1776555961749013200,5.46701318359375,-3.4062855300575494,-3.545650161606073,-2.0788370492316783
1776555961759054000,5.47705419921875,-2.937770777207613,-2.9189404045313596,-2.3803293482787904
1776555961769096200,5.48709619140625,-2.4487065728038546,-1.18992991553545,-2.6978043754860757
1776555961779137000,5.497136962890625,-2.4136545486450194,1.5171920311331748,-2.628223766520619
1776555961789179100,5.50717919921875,-1.57223704200685,2.7805992708116767,-1.9479023923762142
1776555961799221000,5.517220947265625,-0.1443512060557492,2.5733564503014086,-0.8638309254329651
1776555961809262000,5.527261962890625,0.5043558815598488,1.4042466199547052,0.3028865298844874
1776555961819304000,5.537303955078125,0.37865444918274876,0.8171680315226316,1.232581162651628
1776555961829345000,5.547344970703125,-0.38868484480977056,1.297818627846241,1.8198321850411592
1776555961839387100,5.55738720703125,-1.4314654662698507,2.2990461726903915,2.178955858193338
1776555961849429200,5.56742919921875,-2.1990146036207676,3.2215392035156487,2.437579614111781
1776555961859470000,5.577469970703125,-2.4523808774024247,3.744603292676806,2.825107105579972
1776555961869512200,5.58751220703125,-2.155243850955367,3.4775989541649817,3.529672548012435
1776555961879553000,5.597552978515625,-1.8749626822412013,2.5336399414628743,4.031160472920536
1776555961889595100,5.60759521484375,-1.6426351048350334,1.6859277185946702,3.985280473016202
1776555961899637000,5.617636962890625,-1.4044289907842873,1.134436576372385,3.656955696623027
1776555961909678300,5.62767822265625,-1.1989426585525274,0.6725830349773169,3.410302072222531
1776555961919720200,5.63772021484375,-1.1901900277763604,0.37831542648673055,3.2493153914526105
1776555961929761300,5.64776123046875,-1.3818664458423853,0.22112755347788332,3.2335610652208326
1776555961939803100,5.65780322265625,-1.5852613587528466,0.10127426260709763,3.322174583697319
1776555961949845000,5.667844970703125,-1.8263316300630568,0.049798926913738245,3.689526133099198
1776555961959886000,5.677885986328125,-2.087051189216971,0.22481179494857786,4.190859451967477
1776555961969928000,5.687927978515625,-2.2384318372517824,0.7195446926385164,4.4592169586539265
1776555961979969000,5.697968994140625,-2.1151918265521523,1.3129080604285002,4.553733271433413
1776555961990011100,5.70801123046875,-1.9739479571282863,1.9619851321339605,4.304389092774689
1776555962000053200,5.71805322265625,-1.5882050109893082,2.4057933137506247,3.8405888012260196
1776555962010094000,5.728093994140625,-1.1463303547184913,2.526165075537562,3.476417635425925
1776555962020136200,5.73813623046875,-0.621568813989684,2.243906469270587,3.2978570117816326
1776555962030178000,5.748177978515625,-0.2057002672433853,1.8032868545621632,3.1834885820627212
1776555962040219100,5.75821923828125,0.09069090927243233,1.524060747858882,2.9179700981944796
1776555962050261000,5.768260986328125,0.05632043763697147,1.4479840548723935,2.400236264145374
1776555962060302000,5.778302001953125,-0.446363126796484,1.4981681817114352,1.6960314717188476
1776555962070344200,5.78834423828125,-0.847404764354229,1.3795201749771833,1.0447083746522665
1776555962080386000,5.798385986328125,-1.1549427733063697,1.1894342409729957,0.46903446587510406
1776555962090427100,5.80842724609375,-1.2138171332098542,0.9231471108198165,0.04554916051477194
1776555962100469000,5.818468994140625,-1.1197200687557458,0.6613602146953343,-0.31511034390255804
1776555962110510000,5.828510009765625,-0.6871728474743664,0.46048400660753247,-0.5563594058457761
1776555962120552000,5.838552001953125,-0.49245326232016085,0.46934652749896044,-0.7464540346130728
1776555962130594000,5.848593994140625,-0.5549994426041841,0.6540367399394512,-0.897669774409756
1776555962140635100,5.85863525390625,-0.7367189686708152,0.665544222381711,-0.9317672743227332
1776555962150677200,5.86867724609375,-1.1101153511948882,0.6733849990099668,-0.8065573517896234
1776555962160718000,5.878718017578125,-1.421054546892643,0.7589829690575599,-0.5993835048623383
1776555962170760200,5.88876025390625,-1.5804121651560068,0.7423907306969165,-0.3355900181557983
1776555962180802000,5.898802001953125,-1.4625538474947213,0.5963455984711646,-0.07884981096163392
1776555962190843100,5.908843017578125,-1.4575386496812104,0.640532530722022,0.16580233742333947
1776555962200885000,5.918885009765625,-1.415004160812497,0.754796038761735,0.4925082073777914
1776555962210927000,5.928927001953125,-1.2720726305626333,0.9080617698907851,0.922195216922462
1776555962220968200,5.93896826171875,-1.266398092057556,1.3168296177864074,1.3961480691730976
1776555962231010300,5.94901025390625,-1.194822509882599,1.770067891049385,1.9516399714693426
1776555962241051100,5.959051025390625,-1.1153643577642738,2.3267507566958665,2.4092042912378906
1776555962251093200,5.96909326171875,-1.0710837558805941,2.9895886427283287,2.651917361319065
1776555962261135400,5.97913525390625,-1.034772087049484,3.381052304601669,2.812600675228238
1776555962271176400,5.989176513671875,-0.9775197753898799,3.503396827766299,3.0011721130162474
1776555962281218300,5.99921826171875,-0.7928963445752859,3.5117677657485005,3.0549519262596965
1776555962291259400,6.00925927734375,-0.017955927929282186,3.770702779573202,2.9729902668878436
1776555962301301200,6.01930126953125,0.3048987464897334,4.9832110221415755,2.4934429556310174
1776555962311343000,6.029343017578125,0.27309271851480005,6.103969201773404,2.1302634312167763
1776555962321384200,6.03938427734375,-0.4012719391822815,6.515057601571082,1.9441665668487547
1776555962331426000,6.049426025390625,-1.1885239942602812,5.618610866150259,1.818589929895103
1776555962341468400,6.059468505859375,-1.8902724795758723,4.358866240632533,1.4430207333765923
1776555962351509200,6.06950927734375,-1.6815991878710685,3.3623066875994203,0.9132247056119144
1776555962361551400,6.07955126953125,-1.1536764066323637,2.6481413499116897,0.5202591147430241
1776555962371592200,6.08959228515625,-0.7302706693142652,2.69892519620955,0.2051264128781855
1776555962381634300,6.09963427734375,-0.36703006236255165,2.9862171204686163,-0.1596340971171856
1776555962391676200,6.10967626953125,-0.3282281841509044,3.2925159430146214,-0.3670370766252279
1776555962401717200,6.11971728515625,-0.5941504265144467,3.443571596878767,-0.3339883551128208
1776555962411759000,6.129759033203125,-0.7685501310870051,3.282421834501624,-0.06403788014650344
1776555962421800200,6.13980029296875,-0.937256884714961,3.18899185565412,0.22445304463878274
1776555962431842300,6.14984228515625,-0.9919318932324648,3.16804843634665,0.5196282694935799
1776555962441884200,6.15988427734375,-1.131025598885119,3.2940450522780416,0.6969521909497678
1776555962451925200,6.16992529296875,-1.1393545974217354,3.246356249386072,0.6531108572661877
1776555962461967000,6.179967041015625,-1.12152098069787,2.9347441228628157,0.37710035160854455
1776555962472009200,6.19000927734375,-0.985251100294292,2.4976520977586505,-0.04133797256052494
1776555962482050300,6.20005029296875,-0.9014221857458352,2.3766630808562037,-0.4514375074513256
1776555962492092200,6.210092041015625,-0.7177902501866221,2.664687411043048,-0.7714829696685075
1776555962502133200,6.22013330078125,-0.5608490454152226,3.200329826748371,-0.899311477202177
1776555962512175400,6.23017529296875,-0.010956862822175025,3.710123515447974,-0.8158027345187961
1776555962522217200,6.24021728515625,0.6548550705850124,4.244169601872563,-0.6990259284839033
1776555962532258300,6.25025830078125,1.1607029442682861,4.756803482434154,-0.7432853414490819
1776555962542300200,6.260300048828125,1.4572066412478684,5.2138639443337915,-0.9315703635111451
1776555962552342300,6.27034228515625,1.4442647420883177,5.617308551380038,-1.2800456552684307
1776555962562383000,6.280383056640625,1.624796958066523,5.8382776994258165,-1.7415747870147227
1776555962572425200,6.29042529296875,1.984364429463446,5.851208492669463,-2.258893902783096
1776555962582467300,6.30046728515625,2.3910873275279996,5.767988357669115,-2.766172978313267
1776555962592508400,6.31050830078125,2.349980241113901,5.68466885394752,-3.1322075998976824
1776555962602550300,6.32055029296875,1.9913488815233111,5.651524709236622,-3.1717750556543467
1776555962612591400,6.33059130859375,1.4036042303979397,5.591681942692398,-2.8662352347820996
1776555962622633200,6.34063330078125,1.3348343532934783,5.37849219647646,-2.346500290043652
1776555962632675000,6.350675048828125,2.4000991937622427,5.1383460542738435,-1.9849413525685666
1776555962642716200,6.360716064453125,3.8333392684891816,4.662621223914623,-2.026896287983656
1776555962652758000,6.370758056640625,3.5649078197836874,3.4586470009356733,-2.238698963755369
1776555962662800400,6.38080029296875,1.9556641124188898,1.9565555083006618,-2.2511337901756168
1776555962672841200,6.39084130859375,0.8972229804903268,0.8655600142478942,-2.453558981271088
1776555962682883300,6.40088330078125,1.117300732654333,-0.09566694411933421,-2.9251269842118024
1776555962692924200,6.410924072265625,2.043651315690577,-0.8963876987099647,-3.598474866081774
1776555962702966300,6.42096630859375,3.0103195883288976,-1.4586048176079989,-4.284403997105359
1776555962713008000,6.431008056640625,3.769264563463628,-1.9146032032340763,-4.832496436800063
1776555962723049200,6.44104931640625,4.133843725542724,-1.9592197590738534,-5.239330394023656
1776555962733091000,6.451091064453125,3.828757201395929,-1.5191303057193755,-5.447863254344463
1776555962743133200,6.46113330078125,3.0954592932149767,-1.0726327388882637,-5.35230678486228
1776555962753174300,6.47117431640625,2.02202079090178,-0.860467075023055,-4.954354930013418
1776555962763216400,6.48121630859375,1.049018200675398,-0.8189677744209766,-4.3029020690873265
1776555962773257200,6.49125732421875,0.4265894819207489,-0.778541071486473,-3.5280849865600463
1776555962783299300,6.50129931640625,0.06955518226325512,-0.7261024437189102,-2.714038886450231
1776555962793341200,6.511341064453125,0.05811258175075054,-0.641500498971343,-2.01241592721045
1776555962803382300,6.52138232421875,0.3075684040904045,-0.4204980331778526,-1.5309128057107328
1776555962813424000,6.531424072265625,0.6282583016909659,0.010214520022273063,-1.0463330532446502
1776555962823466200,6.54146630859375,0.9688853641659021,0.4755670094490051,-0.4411152892708778
1776555962833507300,6.55150732421875,1.3367407714366912,0.9023118280619382,0.23223814555704592
1776555962843549200,6.561549072265625,1.6459049202859402,1.2164286308825016,1.060729242865741
1776555962853591300,6.57159130859375,1.6908429631650448,0.9543003739744425,1.6730410567536949
1776555962863632100,6.581632080078125,1.3513830447733401,0.4267980101048946,1.9694382246188817
1776555962873674200,6.59167431640625,1.0071311428647487,-0.16774842998981473,2.234656848757714
1776555962883715000,6.601715087890625,0.522253941822052,-0.6953279507488012,2.3765957147084174
1776555962893757400,6.61175732421875,-0.010147875393694265,-1.243160570463538,2.479873864483833
1776555962903799300,6.62179931640625,-0.32878888677358625,-1.857594198811054,2.604352477067709
1776555962913840400,6.63184033203125,-0.7356792503595352,-2.4401725532144307,2.6037469123899935
1776555962923882200,6.64188232421875,-0.8169663714706897,-3.019207535922527,2.5742004999101162
1776555962933924000,6.651924072265625,-0.9694564420521259,-3.5191643057405946,2.4532927315503357
1776555962943965200,6.661965087890625,-1.2097813748877495,-3.900916720938682,2.040039408803731
1776555962954007000,6.672007080078125,-1.5450748943150043,-4.137675558790565,1.5338772084742784
1776555962964049400,6.68204931640625,-1.7163117509424686,-3.928379312881827,1.5052362204015255
1776555962974090200,6.69209033203125,-2.234710186380148,-3.71330097644031,1.506945362406969
1776555962984132400,6.70213232421875,-3.3674680158853527,-3.551394842737913,1.3182581892848013
1776555962994173200,6.712173095703125,-4.078261831313371,-3.381546810120344,1.0915644530471413
1776555963004215300,6.72221533203125,-4.104212265127897,-3.389558851662278,0.6610687574680895
1776555963014257200,6.732257080078125,-3.650502867221832,-3.4089223083019253,0.07695150305964052
1776555963024298200,6.74229833984375,-2.849352489042282,-3.3150288035959004,-0.691035952643305
1776555963034340000,6.752340087890625,-1.2430921814024447,-3.1289082660913468,-1.507832958896458
1776555963044382200,6.76238232421875,0.4277263769961893,-2.9215549709439275,-2.2463920024760067
1776555963054423300,6.77242333984375,1.2838766117334366,-2.881169769063592,-2.5639266509160397
1776555963064465400,6.78246533203125,1.2353086879193782,-3.071304802906513,-2.3447741969034075
1776555963074507300,6.79250732421875,0.6524747513197362,-3.287853211900592,-1.8769675923228262
1776555963084548400,6.80254833984375,-0.1649929938018322,-3.6256641940414904,-1.2250572699528186
1776555963094590200,6.812590087890625,-1.0172129033528268,-3.809462426078319,-0.652284416379407
1776555963104632000,6.822632080078125,-1.9073112926602362,-3.8249996024280786,-0.08078392082937061
1776555963114673200,6.832673095703125,-2.5474036783993244,-3.444393434655666,0.5114255276851356
1776555963124715300,6.84271533203125,-2.543677935874462,-3.0176924551844597,0.8041652690213174
1776555963134756400,6.85275634765625,-1.7082811508305369,-2.77740368964076,0.9157545163504779
1776555963144798200,6.862798095703125,-0.9479261627674103,-2.665311095899343,1.0727591417469085
1776555963154840300,6.87284033203125,-0.5629354963004589,-2.498619481486082,1.3156392389580607
1776555963164881200,6.882881103515625,-0.6560545095026493,-2.526976976442337,1.274453826610744
1776555963174923300,6.89292333984375,-0.8438637307465076,-2.572447518762946,1.188161006166786
1776555963184965000,6.902965087890625,-1.0796554771319031,-2.7494015839934347,1.0863139121077954
1776555963195006200,6.913006103515625,-1.3354841955043375,-3.088715956434607,0.8844329108916222
1776555963205048300,6.92304833984375,-1.4022856951452791,-3.3326550611793992,0.8566239897288381
1776555963215090200,6.933090087890625,-1.8117159524723887,-3.6109622994720936,0.621907763620466
1776555963225130800,6.943130859375,-2.2231083036527037,-3.84437358046174,0.23359525925442576
1776555963235172900,6.9531728515625,-1.9242285251915454,-3.666163377690315,-0.17677286344468593
1776555963245215000,6.963215087890625,-1.2166240073241292,-3.2835026154756544,-0.8556383396923541
1776555963255256000,6.973256103515625,-0.2815758846998215,-2.6871552634388207,-1.654375080858916
1776555963265298000,6.9832978515625,0.7428976573057472,-2.1495055995643138,-2.371623917645216
1776555963275339800,6.99333984375,1.882583678638935,-1.7188000606268643,-3.0523890900343655
1776555963285380900,7.003380859375,2.8123323796808717,-1.4146873499482868,-3.5744206212773917
1776555963295422700,7.013422607421875,3.0489032937452194,-1.1964040799856186,-3.625864685049653
1776555963305463800,7.0234638671875,2.6698551690697667,-1.1260042635917662,-3.300789850363135
1776555963315505700,7.033505615234375,1.9094953587010501,-1.0169067600131034,-2.7808088219091296
1776555963325548000,7.043548095703125,1.2675976771056652,-0.5595604669094085,-2.310317508289218
1776555963335588900,7.0535888671875,0.6599474252879619,-0.014577391406893729,-2.2647367835924026
1776555963345631000,7.063630859375,0.4171665506675839,0.02395546060502529,-2.4710221572473645
1776555963355672800,7.0736728515625,0.029220249265432357,-0.3921393691778183,-2.759615227232873
1776555963365714000,7.0837138671875,-0.6084352647155523,-1.1978770751476286,-2.653608967667818
1776555963375755800,7.093755859375,-1.263948214687407,-2.484324414151907,-1.9172312136501073
1776555963385797600,7.103797607421875,-1.361696641255915,-3.4911434953927993,-1.089320254316926
1776555963395838700,7.113838623046875,-0.8964166325435042,-3.8342999302148817,-1.0274515349030493
1776555963405880800,7.123880859375,-0.9300351167678832,-3.865511645558476,-1.2322463777393102
1776555963415923000,7.1339228515625,-2.066087311643362,-3.743264737549424,-0.8735174029931425
1776555963425963800,7.1439638671875,-1.2914394482031464,-1.9386533563852308,1.070008235603571
1776555963436006000,7.154005859375,9.928651408815384,3.9013831694066523,1.690689233908057
1776555963446047700,7.1640478515625,22.16089890871048,12.86188045094013,2.2672809151172637
1776555963456088800,7.1740888671875,10.417537334042787,15.552430032992362,0.8749161638751626
1776555963466130700,7.184130615234375,-8.703043446177244,13.405620248383283,-1.4299848723232744
1776555963476172800,7.1941728515625,-13.290283558154105,16.303087072253227,0.45868543275296686
1776555963486214000,7.2042138671875,-8.957497515195607,11.586582282459736,3.2737890307128428
1776555963496256000,7.214256103515625,1.4135668214857577,-0.08852817828059197,7.106758589106798
1776555963506296800,7.224296875,4.59708024572879,-6.053130410417914,8.131654009786248
1776555963516339000,7.2343388671875,-6.973002445089817,-4.672442945227027,5.68561870201826
1776555963526380800,7.244380859375,-15.470239241039753,-2.3101456588536498,3.9830651350542903
1776555963536422000,7.254421875,-12.215572259426116,-3.1468817296773195,2.6677447527870535
1776555963546464000,7.264464111328125,0.15478198091089723,-5.022224351146817,0.9073176735252142
1776555963556505900,7.274505859375,7.456826410752535,-2.6797183914363383,0.8813397671818732
1776555963566547000,7.284546875,-1.0190767975285648,1.5498697273761033,2.9659722048193213
1776555963576588800,7.2945888671875,-5.320808653792739,5.693771028813719,4.342951463142037
1776555963586631000,7.304630859375,2.276061018422246,5.652073575291038,8.104224151068925
1776555963596671700,7.314671630859375,-0.8893494706362486,6.532580398780107,6.208862823921442
1776555963606713900,7.3247138671875,-6.83246643167436,7.317920044365525,3.740536773890257
1776555963616756000,7.334755859375,-6.640012599495053,6.374802743184566,1.3618266973763704
1776555963626797000,7.344797119140625,-3.494422663193941,2.977498391962051,2.2851818979889154
1776555963636839000,7.3548388671875,-1.1007236918628216,1.5367045408546924,3.1198107674002644
1776555963646880800,7.364880859375,0.7218342648804187,1.072878238081932,2.3556635474473238
1776555963656921900,7.374921875,2.0910925735622645,1.1416741264104842,1.0680471646636724
1776555963666963700,7.384963623046875,-0.430516153845191,2.433450551483035,0.14042495425641535
1776555963677004800,7.3950048828125,-1.1890800207078456,3.1653228107750415,1.552063438028097
1776555963687046700,7.405046630859375,-0.5459405223578214,4.519968656736612,1.9447586875230072
1776555963697089000,7.415089111328125,-2.1779162860125303,4.726031327551603,1.2695616706550121
1776555963707129900,7.4251298828125,-1.6501298445045947,3.978171810054779,-0.24427929648458957
1776555963717172000,7.435171875,-0.9463374322712421,2.9990234105497597,-1.035089482435584
1776555963727213800,7.4452138671875,-1.5408938092380762,2.295015309739113,-1.1035872646003961
1776555963737255000,7.4552548828125,-2.1293524538516997,1.636572443795204,-0.3859036896586418
1776555963747296800,7.465296875,-1.7562468709677457,1.4163690194249152,0.4909340899288654
1776555963757339000,7.4753388671875,-1.2060089436769486,1.3374638250142334,0.7810802345752715
1776555963767379700,7.485379638671875,-1.7919862928688526,1.119534775316715,0.6733002433359623
1776555963777421800,7.495421875,-1.5228320828467607,0.26432196756005283,1.1931979774206876
1776555963787464000,7.5054638671875,0.6898018808037042,-0.1977463856294751,1.2925585153609513
1776555963797505000,7.515505126953125,2.962811110439896,1.539899829764664,-1.0047919593274592
1776555963807547000,7.525546875,1.7261615293055772,3.688856563274562,-2.4117051681429147
1776555963817588700,7.535588623046875,0.22733868307769298,4.357008922328054,-1.3390011175841092
1776555963827629800,7.5456298828125,-0.6774813284128904,4.408408270175755,-0.1513987682133913
1776555963837671700,7.555671630859375,-0.9381295758962631,3.91244699973464,0.5861363391458988
1776555963847714000,7.565714111328125,-0.7573655969887971,2.8598478718325495,0.8347913664966821
1776555963857755000,7.5757548828125,-0.9653636197805404,1.6077075838387012,1.066563648107648
1776555963867797000,7.585796875,-0.8149252210319041,0.15641630411446095,1.6649550731927156
1776555963877837800,7.595837890625,0.49264966167509555,-0.6815697667703032,1.310364221164584
1776555963887880000,7.6058798828125,0.050341947749257085,-0.6112684423148632,0.41460780609548087
1776555963897921800,7.615921875,-0.5810948378473519,-0.1830313393175602,0.11709200946390629
1776555963907963000,7.625962890625,-0.5575304223865271,0.8700991189822554,0.5279015923202037
1776555963918004700,7.636004638671875,0.0571948823839426,2.3594272838950157,0.5518821873664855
1776555963928046800,7.646046875,0.5966022035807371,3.2201956799522042,0.5822615435391664
1776555963938088000,7.656087890625,2.557052381232381,3.2888957066908477,0.13782090923786164
1776555963948129800,7.6661298828125,3.0887001743435856,2.762807301272452,-0.7898059773445129
1776555963958172000,7.676171875,2.10339149864316,2.8217551648035646,-1.633793626731634
1776555963968212700,7.686212646484375,0.8372381751269101,2.6727017906725403,-1.7466951987683772
1776555963978254800,7.6962548828125,0.6237216811746359,1.3908099230155349,-1.3284218559026717
1776555963988296700,7.706296630859375,1.7791589599996804,0.5297188708752394,-0.8945815260708332
1776555963998337800,7.716337890625,2.5843776105314493,-0.39962651006281374,-0.36386487632989883
1776555964008380000,7.7263798828125,2.2621932365894315,-1.188465688201785,-0.5191612365037203
1776555964018422000,7.736422119140625,2.2193875295639036,-0.7874281422972679,-1.4422323594778774
1776555964028462800,7.746462890625,1.7484949416667221,0.3932821094721555,-2.305720243626833
1776555964038505000,7.7565048828125,0.8602385269641876,1.6365905639737843,-3.1541964366048574
1776555964048545800,7.7665458984375,0.108172205427289,1.8479557251110672,-2.910971033087373
1776555964058588000,7.776587890625,0.6426975998014212,1.7671964272662997,-3.0287247213304043
1776555964068629800,7.786629638671875,0.8315572068810463,0.7493141002193093,-2.7368934000760317
1776555964078670800,7.7966708984375,0.8465624683111905,-0.618740093369782,-1.645996105700731
1776555964088713000,7.806712890625,0.5838917750895023,-1.5235829012140631,-1.0057143348693847
1776555964098754800,7.8167548828125,0.4045516915053129,-2.0529402453005314,-0.7109580660790205
1776555964108796000,7.8267958984375,1.665638379281759,-1.7657678557679055,-1.0815694940596818
1776555964118837800,7.836837646484375,1.515818989214301,-1.1958107902675867,-1.5249924757510422
1776555964128879900,7.8468798828125,0.9599187983781099,-0.8209297221437096,-1.451381296095252
1776555964138920700,7.856920654296875,0.8344371462315321,-0.3944529068171978,-1.345148534297943
1776555964148962800,7.866962890625,1.1135574544727802,-0.12048282094597816,-1.4568728792488574
1776555964159005000,7.8770048828125,1.3049702531665563,-0.009717676416039467,-1.5566729776501655
1776555964169046000,7.8870458984375,1.2441302922785282,0.054336570343375204,-1.5127391433775423
1776555964179088000,7.897087890625,1.1499001029640437,-0.24435996050536632,-1.25789052208364
1776555964189129700,7.907129638671875,1.0753729775071144,-0.6074152740180492,-1.332591250541806
1776555964199170800,7.9171708984375,0.8878156851977109,-1.026186045011878,-1.5293939255803823
1776555964209212700,7.927212646484375,0.5782137294530868,-1.4314578674852847,-1.6851327688246964
1776555964219255000,7.937255126953125,0.8536609021395445,-1.5427327151030301,-2.0230086328953503
1776555964229296000,7.947296142578125,1.0521610287457703,-1.4681447993695735,-2.1372715564131735
1776555964239338200,7.957338134765625,1.0467933642327785,-1.3780857582598924,-2.033748053574562
1776555964249379000,7.967379150390625,1.0850170041650533,-1.2871838365852832,-1.980118170195818
1776555964259421200,7.977421142578125,1.251808571821451,-1.1989122634142637,-1.9496283393859861
1776555964269463000,7.987463134765625,1.5457809967577456,-1.0494260508239268,-1.9789134705811737
1776555964279504100,7.997504150390625,1.557531640306115,-0.9899491949826479,-1.9821645813316107
1776555964289546000,8.0075458984375,1.6561553884044289,-1.284612524792552,-1.7118986106753349
1776555964299588000,8.017588134765624,1.6163228519707917,-1.6805372577279805,-1.53861125125885
1776555964309629200,8.027629150390625,1.4499422032028435,-2.431115386533737,-1.2679659258961677
1776555964319671000,8.037671142578125,1.355628134997189,-3.2334289632737634,-1.0166434329017997
1776555964329713200,8.047713134765624,1.973179895365238,-3.763199856597185,-1.0374743317455053
1776555964339754000,8.05775390625,2.4832918562337754,-3.9297383262753485,-1.0790975509881973
1776555964349796000,8.067796142578125,1.8883999637022613,-2.9994080259531732,-1.0938567287027836
1776555964359838000,8.077837890625,0.7163385900735855,-1.8583751200556753,-0.6725818659335374
1776555964369879000,8.087879150390625,-0.4253673927798867,-1.0268827951043844,0.1708934500172734
1776555964379921200,8.097921142578125,-1.6376210760653018,-0.3829202899336815,1.3853294457778333
1776555964389963300,8.10796337890625,-1.8455796436294911,0.14437982936203478,2.9250749617636203
1776555964400004000,8.118004150390625,-1.7361118454337119,1.2757324682444333,4.02747126301378
1776555964410046200,8.128046142578125,-1.6988699100151656,3.060683455649018,4.28858099052906
1776555964420088000,8.138088134765624,-1.4671955358207225,4.642836911514401,4.120822623667121
1776555964430129200,8.148129150390625,-1.324453390663117,5.619302355545759,3.6783442293494937
1776555964440171000,8.1581708984375,-1.0212230157770217,5.928731292811036,3.0427661061644553
1776555964450212000,8.168212158203126,-0.6013434067584574,5.529813223278522,2.4486773467093705
1776555964460254200,8.178254150390625,-0.3040053047813475,4.419516231906414,2.011622584875673
1776555964470296000,8.188296142578125,-0.23209391478076577,2.8699101239025593,1.4713796896375715
1776555964480337200,8.198337158203126,-0.16248305680751798,1.216491174724698,1.0219885933220385
1776555964490379000,8.20837890625,-0.07583353188037872,-0.1858463967382908,0.6585610854960977
1776555964500421000,8.218421142578125,-0.29682006945237516,-1.424787888202071,0.5156744173012674
1776555964510462000,8.2284619140625,-0.4983271958548575,-2.2160364655703306,0.3626901334621012
1776555964520504000,8.238504150390625,-1.0087094250321387,-2.58267840539813,0.2999048106599599
1776555964530546200,8.248546142578125,-1.3626467815876007,-2.5432448051542043,0.3455214834529906
1776555964540587300,8.258587158203126,-1.3144085281193256,-2.4438714077323676,0.4454191604772582
1776555964550629000,8.268629150390625,-1.3289070090711117,-2.632484346574545,0.5333731921317055
1776555964560671000,8.2786708984375,-1.3445441386640071,-2.720385332867503,0.5484260190306232
1776555964570712000,8.288712158203126,-1.5197686036229132,-2.521475456416607,0.2682026814509183
1776555964580754000,8.29875390625,-1.4880711505889892,-2.171378408676386,-0.23871095830034464
1776555964590796000,8.308796142578124,-1.4153928678691385,-1.7768559437543152,-0.8655904093861579
1776555964600837000,8.318837158203126,-0.9368728538334369,-1.1779670905411244,-1.6241719580359757
1776555964610879200,8.328879150390625,-0.09922843599319457,-1.3215607379615306,-2.08225138771981
1776555964620920000,8.338920166015624,-0.16576858128421007,-1.9884312405109403,-2.098079363709688
1776555964630962200,8.348962158203125,1.361675890728831,-2.3628110811144114,-2.256932539582252
1776555964641004000,8.359004150390625,1.707325311410427,-2.8410037628918885,-2.3556178086094555
1776555964651045000,8.369045166015624,1.8514128798276186,-3.092787735918164,-2.9147382766664025
1776555964661087000,8.3790869140625,2.0783324607104063,-3.0073101773798463,-3.172964849960804
1776555964671129000,8.389129150390625,2.0725164679080246,-2.996130027195811,-3.272673178425431
1776555964681170000,8.399169921875,2.011841926714778,-2.9636323636949062,-3.4849031396985053
1776555964691212300,8.40921240234375,2.1545827566981313,-2.1775983061045405,-2.7868320277214047
1776555964701254100,8.419254150390625,2.2581308094561097,-1.2156529703348875,-2.2157620325431227
1776555964711295200,8.429295166015624,2.2256822457939385,-0.9101146107673644,-2.01258909182027
1776555964721337000,8.439337158203125,1.9563117626726627,-0.6362310341358185,-2.0049727715976533
1776555964731379000,8.44937890625,1.7051701792031526,-0.256833657631278,-1.8411508674018084
1776555964741420000,8.459419921875,1.3327689451962708,0.18136486741006375,-1.6848011987827718
1776555964751462000,8.4694619140625,0.9951233827501534,0.5659586435139179,-1.462580735501647
1776555964761503200,8.479503173828125,0.5695904972102492,0.698049484667182,-1.3097840831890701
1776555964771545000,8.489545166015626,0.3420026616770774,0.7811234891951083,-1.1119507499285042
1776555964781587200,8.499587158203125,-0.08082666399255395,0.7613888611555099,-1.1175921168163419
1776555964791628000,8.5096279296875,-0.5519080524601042,0.47299511313438414,-1.1933739185094834
1776555964801670100,8.519670166015626,-0.9159247583508491,0.2358732871890068,-1.2812960937209426
1776555964811712000,8.5297119140625,-1.110244165206328,-0.21744038939774035,-1.5240132554553447
1776555964821753000,8.539753173828124,-0.8921650395136326,-0.4885930797606706,-1.5305504021391272
1776555964831795200,8.549795166015626,-0.43133740710020063,-0.7918003660321236,-1.668313151448965
1776555964841837000,8.559837158203125,-0.06971124960780144,-1.2112696406841277,-2.0837939409866926
1776555964851878100,8.569878173828124,0.5045854525320231,-1.5027245298415421,-2.2088177663631736
1776555964861920000,8.579919921875,1.0847574764460324,-1.818800650036335,-2.3668033656209704
1776555964871962000,8.589962158203125,1.4604619897820055,-2.04180861043334,-2.4553408962517977
1776555964882003000,8.6000029296875,1.511670198971778,-2.1028245124101637,-2.645266671258211
1776555964892045000,8.610045166015626,1.5267187150217592,-1.846447366374731,-2.6467776603430506
1776555964902086100,8.620086181640625,1.2564246873147784,-1.1315490382373332,-2.5881442695885895
1776555964912128300,8.630128173828124,1.2157856568038463,-0.37443829279243945,-2.4524980740413067
1776555964922170000,8.640170166015626,1.6877834294639527,0.2729553558707237,-2.3691706792742013
1776555964932211200,8.650211181640625,2.7746371475368736,0.3921206644773483,-2.054426684466004
1776555964942253000,8.660253173828124,3.993602603420615,-0.3875876972228288,-1.5208049609333276
1776555964952295200,8.670295166015626,4.4279976445257665,-1.5213298615902662,-1.0208771249487996
1776555964962336000,8.6803359375,3.7001451422691343,-2.3745699079692364,-0.564383868477866
1776555964972378000,8.690378173828124,2.158346054754406,-2.632254629471898,-0.2967563565663993
1776555964982420200,8.700420166015626,0.8360558334745466,-2.6971102557420727,-0.23758871280476448
1776555964992461300,8.71046142578125,-0.05725844913944602,-2.851623941105604,-0.22365999456495045
1776555965002503200,8.720503173828124,-0.6312577757678925,-3.151871793049574,-0.3044372664578259
1776555965012544300,8.730544189453125,-1.0192185440868138,-3.290605725479126,-0.5111282252389937
1776555965022586000,8.740586181640625,-1.2368360436171293,-3.2724206649690863,-0.6826460907649249
1776555965032628000,8.7506279296875,-1.251122343122959,-3.2644957171887157,-0.7912027654651552
1776555965042669000,8.7606689453125,-1.2587630671344696,-3.2844016101419924,-0.9297855259209871
1776555965052711000,8.7707109375,-0.9851203135214746,-3.4665549975812433,-1.2571715601593256
1776555965062753300,8.780753173828124,0.33139819248914715,-3.7449364701539274,-1.590779245391488
1776555965072794000,8.790794189453125,2.087880041256547,-4.054170177108049,-2.1316019863441587
1776555965082836200,8.800836181640625,2.9977912384063004,-4.296342856702208,-2.4703584326416252
1776555965092878000,8.810878173828126,2.10370772498548,-4.348502083006501,-2.2454121976584194
1776555965102919200,8.820919189453125,0.19988076730966567,-4.155563097658753,-1.9157231471747158
1776555965112961000,8.8309609375,-1.3582459162801503,-3.953281114426255,-1.8457506162822246
1776555965123002000,8.841002197265626,-2.4435113422483203,-3.901612886509299,-1.8151310216128824
1776555965133044000,8.8510439453125,-3.0454245117187497,-4.021529890266061,-1.8398808474659918
1776555965143086000,8.861086181640625,-3.0208295841664072,-4.257618866032362,-1.9580216353304682
1776555965153127200,8.871127197265626,-2.7247937969595193,-4.18356344974041,-2.158427449427545
1776555965163169000,8.8811689453125,-2.561232881787419,-3.646450376960635,-2.3927713350921866
1776555965173211100,8.891211181640625,-2.1318507004082203,-2.4200831203877926,-2.6541809223368764
1776555965183252200,8.901252197265626,-2.009620743533969,0.41307518970072266,-2.961290184482932
1776555965193294000,8.911294189453125,-1.9256541740804909,2.560143917506933,-2.849467932115495
1776555965203335200,8.921335205078124,-1.1785410910367966,2.7038813573122025,-1.9418661809518931
1776555965213377000,8.931376953125,-0.5972966155856847,1.0327385353952645,-0.7897018593829125
1776555965223418600,8.941418701171875,-0.7522118674874305,-0.33833003757894037,-0.10916618490070104
1776555965233459700,8.951459716796874,-1.3556927246659993,-0.3439455393731594,0.1341041354707442
1776555965243501600,8.96150146484375,-2.6262106731325385,0.5588783298641443,0.1698517224119976
1776555965253543700,8.971543701171875,-3.2684663743853566,1.5395347958445549,0.3396270916521549
1776555965263584500,8.98158447265625,-3.567356966501474,2.488964348912239,0.8613722071692347
1776555965273627000,8.991626953125,-3.2454858962923288,3.1393899126172062,1.9335351365886628
1776555965283668700,9.001668701171875,-2.7402041320592163,3.016792291474342,3.5593016703397033
1776555965293709800,9.011709716796876,-2.460896192291379,2.0427081896215675,5.565931999886035
1776555965303751700,9.021751708984375,-2.1966706708431243,1.1228770714819432,6.837194629240035
1776555965313792800,9.031792724609375,-2.3647031784713266,1.482636850580573,6.637815381711721
1776555965323834600,9.041834716796876,-2.0222306342601777,1.897802290558815,6.0306707413285965
1776555965333876700,9.051876708984375,-1.2489410535611212,2.042701759880781,5.59108222323358
1776555965343917600,9.06191748046875,-0.32826179415956136,1.7485872961252926,5.453290540090203
1776555965353959700,9.071959716796876,0.4865957684636116,1.1468857235789298,5.6008782255828375
1776555965364001800,9.082001708984375,0.9309685982257128,0.5025216518700123,5.853187683787942
1776555965374042600,9.092042724609374,1.551630891829729,-0.13694471092522142,6.018363632941246
1776555965384084700,9.102084716796876,1.9462435192532836,-0.566225185495615,5.961106791236996
1776555965394125800,9.112125732421875,2.039173001232743,-0.6824456728219985,5.750694108518958
1776555965404167700,9.122167724609374,1.9157569033138453,0.14672025500833988,5.351028435489535
1776555965414209800,9.132209716796876,1.069156002688408,1.899981972685456,4.668892267008125
1776555965424251000,9.1422509765625,-0.11607362620159983,3.4849417181432245,3.8663977807432413
1776555965434292700,9.152292724609374,-1.1816823116719721,4.1265474310547114,3.0955884725525973
1776555965444334800,9.1623349609375,-2.1768507026076316,3.878468157765269,2.373973403380811
1776555965454375700,9.172375732421875,-2.6926322335451838,3.1050732169955966,1.7504986827045679
1776555965464417800,9.182417724609374,-2.662843829002976,2.1433581828504797,1.0904179864257573
1776555965474458600,9.192458740234375,-1.9981955325476823,1.3057067507475615,0.4188029196977615
1776555965484500700,9.202500732421875,-1.3126483865790068,0.6626239510208368,-0.18640666096955535
1776555965494542800,9.21254296875,-0.9197364255934953,0.490716647785902,-0.6483835364833473
1776555965504584000,9.222583984375,-0.9318843978963792,0.493622306099534,-0.8941837589249014
1776555965514625800,9.232625732421875,-1.5363454982839524,0.6134206519126891,-0.9209552998639643
1776555965524667000,9.2426669921875,-2.001741972982883,0.6559972263574599,-0.8811895450562238
1776555965534708700,9.252708740234375,-2.120800167953223,0.4339174867212772,-0.7465288534149527
1776555965544750600,9.26275048828125,-1.4270219308644532,-0.19292028064727781,-0.23601693344339728
1776555965554791700,9.272791748046876,-0.4840634735070169,-1.0216589229762554,0.6491922225177288
1776555965564833500,9.28283349609375,-0.12701076140999792,-1.19834118552804,1.5619215458281337
1776555965574876000,9.2928759765625,-0.3804332954235375,-0.6910527576476335,2.2935481597959995
1776555965584916700,9.302916748046876,-1.0225349751584232,0.18124971659779548,2.704366510480642
1776555965594958800,9.312958740234375,-1.1919967849373816,0.7661287491589784,2.959014640766382
1776555965604999700,9.322999755859374,-1.1204352312877774,0.9349369173347949,2.8675948326975105
1776555965615041800,9.333041748046876,0.08174217140227556,1.3465952259749174,2.268758732584864
1776555965625083600,9.343083740234375,1.4551736741155386,4.652449373990297,1.7109847107008098
1776555965635124700,9.353124755859374,-1.1612073866590857,11.04780741394758,1.1630778567060827
1776555965645166600,9.36316650390625,-3.6446143937051296,13.05069738792181,1.1621293238095938
1776555965655208700,9.373208740234375,-2.884168366357684,12.8124041801095,2.480336805820465
1776555965665249800,9.383249755859374,-3.0281273399591444,11.581771667307615,2.9364766457438467
1776555965675292000,9.3932919921875,-1.5006146980807185,8.637348446473478,2.3957103111535307
1776555965685332700,9.403332763671875,0.05810702879279851,4.959016492083668,1.7068454189389943
1776555965695374800,9.413374755859374,0.0027951836764812466,0.6699252139449119,1.5618313833266495
1776555965705416700,9.423416748046876,-0.9803593827299774,-2.1253969942241904,1.0531393722586333
1776555965715457800,9.433457763671875,-2.3748376189947127,-3.086590050321817,0.07528890360966324
1776555965725499600,9.443499755859374,-3.37823432457149,-2.9469565387040375,-0.9451074520848691
1776555965735541800,9.453541748046876,-3.464836503225565,-1.2199521288335322,-1.7093252530559897
1776555965745582800,9.463582763671875,-3.026244594952464,1.0018863010138273,-1.6563240229696035
1776555965755624700,9.473624755859374,-1.808564356573671,2.3545722450792788,-1.0346474377565085
1776555965765665800,9.483665771484375,-0.6330269773975015,3.9482296762555835,-0.05778904888480901
1776555965775707600,9.493707763671875,-0.026331249825656412,5.432113896548747,1.3980661777541041
1776555965785749800,9.503749755859374,-0.24187398890852926,6.360061101126671,3.2667484645515676
1776555965795790600,9.51379052734375,-0.7548360785111784,6.527051406225562,4.653585100021958
1776555965805832700,9.523832763671875,-0.9855264101043343,5.919416351976991,4.643903663963079
1776555965815873500,9.53387353515625,-0.7878729634553193,4.488917684912681,3.7508120841890573
1776555965825916000,9.543916015625,-0.15836539235562086,2.667879485082626,2.960777266524732
1776555965835957800,9.553957763671875,0.3636372050538659,1.2993302014529704,2.406139058448374
1776555965845998800,9.563998779296876,0.38617753816395994,0.8109890506267547,1.8853917217969893
1776555965856040700,9.574040771484375,0.0752852503478527,1.3587304849267006,1.4716191974818706
1776555965866081800,9.584081787109374,-0.4142725827917456,2.7759692729234695,1.1613950181856751
1776555965876123600,9.59412353515625,-0.5407280484065413,4.160505230236053,1.0197940058872104
1776555965886165500,9.60416552734375,-0.22376316267848015,4.6185009271591895,1.109351819476485
1776555965896206600,9.61420654296875,0.01500526143014431,4.1009477103739975,1.487390767109394
1776555965906248700,9.624248779296876,-0.259532395195961,3.347025531837344,1.7620479584619402
1776555965916290800,9.634290771484375,-0.8636565187141299,3.047484951379895,1.7430828534901142
1776555965926331600,9.64433154296875,-1.5952604824587702,3.2723797484368085,1.4430106503739952
1776555965936373800,9.654373779296876,-2.3056319808214902,3.7466713311225175,0.9110022072568535
1776555965946414600,9.66441455078125,-2.4004352938488123,4.290235187476873,0.21642828974574804
1776555965956456700,9.674456787109374,-1.5582137773513793,5.129898543924093,-0.9723667765408753
1776555965966498600,9.68449853515625,0.008320961360633372,5.814468369293213,-2.379400689126551
1776555965976539600,9.69453955078125,1.9106641102194786,6.182079446414113,-3.661346040536463
1776555965986581800,9.704581787109374,3.310961700287461,6.314085531893372,-4.752691955462097
1776555965996622800,9.714622802734375,3.7283655668422577,6.099806821396947,-5.453003539842367
1776555966006664700,9.724664794921875,3.345932768164575,5.8722477735668415,-5.605913297140598
1776555966016706800,9.734706787109374,2.053655115571618,5.582649910452962,-5.359547842031717
1776555966026747600,9.74474755859375,1.3773822861656546,4.955888130930066,-4.832030280593037
1776555966036789800,9.754789794921875,2.1043898620307444,3.978384576022625,-4.561695920875668
1776555966046830600,9.76483056640625,3.279615544909239,2.9178508557289837,-4.698502100113034
1776555966056873000,9.774873046875,3.7604128562271595,1.9509744932979345,-5.011344060692191
1776555966066914800,9.784914794921875,3.360016823096573,1.0082809704869986,-5.180951270291209
1776555966076956000,9.794955810546876,2.5666391247451306,0.1741384232878685,-5.18598400376141
1776555966086997800,9.804997802734375,1.7243252537891267,-0.46596331480145453,-5.185839626854658
1776555966097038800,9.815038818359374,1.0649150041177868,-0.8530278649330139,-5.257673275443911
1776555966107080700,9.825080810546876,0.6542763939142227,-0.9168401196300983,-5.397333090546727
1776555966117122600,9.83512255859375,0.5203136214092373,-0.703148269110918,-5.606369808736443
1776555966127163600,9.84516357421875,0.6928074923604727,-0.468256394174695,-5.798139750304818
1776555966137205800,9.855205810546876,0.9889508315950631,-0.3193798379153013,-5.975055237090587
1776555966147247900,9.865247802734375,1.4852332968145607,-0.3048018619865179,-6.140783559429646
1776555966157288700,9.875288818359374,2.0375050680205224,-0.31044191370010377,-6.274107157248258
1776555966167330800,9.885330810546876,2.429092356273532,-0.3678320263952017,-6.313987916737794
1776555966177371600,9.89537158203125,2.6809198761805892,-0.5610317085057497,-6.268002410632372
1776555966187413800,9.905413818359374,2.8476462696462868,-0.6334159767150879,-6.069522157770395
1776555966197455600,9.91545556640625,2.7265859410732984,-0.6021691900581121,-5.746220762497186
1776555966207496700,9.92549658203125,2.363565698873997,-0.30756197434961796,-5.15040064920485
1776555966217538800,9.935538818359374,1.6709420386478304,0.26631401816010475,-4.186517331109941
1776555966227580000,9.945579833984375,0.6663000091850757,0.5143488677859306,-2.8767183426126834
1776555966237621800,9.955621826171875,-0.27067528210952874,0.7069710422694683,-1.4960019435882568
1776555966247663600,9.96566357421875,-0.809991710152477,0.9245090468227862,-0.1984101102352142
1776555966257704700,9.97570458984375,-0.861803438193351,1.1896049213647841,1.1801739529356359
1776555966267746800,9.985746826171875,-0.87504212834239,1.7069307591348886,2.1710411395460367
1776555966277788000,9.995787841796876,-1.0938519794624297,1.722362721544504,2.9571558611571787
1776555966287829800,10.005829833984375,-1.045826565027237,1.6397236013025045,3.4391800839215514
1776555966297872000,10.015871826171875,-0.7642634667437523,1.4633335996955632,3.7232784728363155
1776555966307912700,10.02591259765625,-0.14676935484707354,0.7812959231525659,3.8078918157607315
1776555966317954800,10.035954833984375,0.769510792812705,-0.09334171604216099,3.7283348794430493
1776555966327996000,10.045995849609374,1.569641180294752,-1.1539864954948424,3.491445985470712
1776555966338038000,10.0560380859375,1.8809177912533281,-2.321643788945675,3.1369395968556404
1776555966348079900,10.066079833984375,1.889732381349802,-3.4187849461466073,2.821505866217613
1776555966358121000,10.076120849609374,1.4752970092117785,-4.364491094776988,2.5199425477609037
1776555966368162800,10.086162841796876,0.456983816466853,-4.8076375976145265,2.1595523618042467
1776555966378204000,10.096203857421875,-0.8046050486780703,-5.002705996206402,2.1127368346154687
1776555966388245800,10.106245849609374,-1.8933599241971968,-5.235443323457241,2.291413047463447
1776555966398288000,10.116287841796876,-3.187340581315756,-5.302247161185741,1.8672886404819786
1776555966408328700,10.12632861328125,-4.191069879847765,-5.170176193776727,1.6539749756254254
1776555966418371000,10.13637109375,-4.857201546728611,-4.965572489598393,1.5748349495455622
1776555966428412000,10.146411865234375,-5.110315891575813,-4.941028415450454,1.3516463718846439
1776555966438454000,10.1564541015625,-4.793538929635286,-4.821007951319217,1.0520753962889313
1776555966448495900,10.166495849609374,-4.185855360069871,-4.527772608485818,0.6590872282620519
1776555966458537000,10.176536865234375,-2.949377920632064,-4.041063442775607,0.18755172108514234
1776555966468578800,10.186578857421875,-1.4394113107077777,-3.427235963627696,-0.39637408413812514
1776555966478620000,10.196619873046876,-0.4506958953037858,-2.6681980495125055,-0.699969858270511
1776555966488661800,10.206661865234375,-0.24751111801266668,-1.9902976189047097,-0.6224789876371621
1776555966498704000,10.216703857421875,-0.5542299195364118,-1.113076392957568,-0.37877781983409076
1776555966508745000,10.226744873046876,-0.9978376101449131,-0.3016466128259897,-0.11832692155372351
1776555966518786800,10.236786865234375,-1.35674515632838,0.2124713688135147,0.04828267713189125
1776555966528828000,10.246827880859374,-1.5249746478334067,0.37787177437245845,0.11044351136013865
1776555966538869800,10.256869873046876,-1.5342641619652508,0.1445540168851614,0.18694383658617733
1776555966548911900,10.266911865234375,-1.6884233348026871,-0.3510281911104917,0.36791634367778897
1776555966558952700,10.27695263671875,-1.9837921825334428,-0.995023429507017,0.5277714631345123
1776555966568994800,10.286994873046876,-2.203573874360323,-1.6757435937106608,0.630132278869301
1776555966579035600,10.29703564453125,-2.3927871171832082,-2.1300591408163307,0.5554862032078206
1776555966589078000,10.307078125,-2.330859068797529,-2.516961778384447,0.28237580290585756
1776555966599120000,10.317119873046876,-2.1162214618608353,-2.8144033407360314,0.024103636904060838
1776555966609161000,10.327160888671875,-1.817127748388052,-3.0759499983638525,-0.23299787788316606
1776555966619202800,10.337202880859374,-1.2383780123621224,-3.3412340889543293,-0.4597067386247217
1776555966629244000,10.347243896484375,-0.4063588870577514,-3.5428713445425033,-0.7004496776767075
1776555966639285800,10.35728564453125,0.41292029139995573,-3.6524545858114954,-1.010025768327713
1776555966649327900,10.367327880859374,1.1134510714888572,-3.638777942636609,-1.374336050337553
1776555966659368700,10.37736865234375,1.6807026774227618,-3.7171985684007405,-1.6510219710387288
1776555966669410800,10.387410888671875,1.9856983084157107,-3.9234903717964884,-1.73380298396945
1776555966679452000,10.397451904296876,1.8529624473571775,-4.13537195802331,-1.5601741176389157
1776555966689494000,10.407493896484375,1.580999317394197,-4.220673575472832,-1.2559852729842067
1776555966699536000,10.417535888671875,1.9318401692390441,-3.7370430865556,-1.087283780053258
1776555966709577000,10.427576904296876,2.6360487610578534,-2.6236592350840566,-1.0129349337726832
1776555966719618800,10.437618896484375,3.3895094595625994,-1.1346101793736219,-0.8733145738974213
1776555966729660000,10.447659912109375,3.5922169747307895,0.4808405659377575,-0.8919505930453538
1776555966739701800,10.45770166015625,3.4650086449220776,1.7014041046679018,-1.0584266650117933
1776555966749743900,10.467743896484375,2.975513355624676,2.3058675431430338,-1.3289262982934713
1776555966759785000,10.477784912109374,2.2459309608355165,2.563434191223979,-1.6478104616463183
1776555966769826800,10.487826904296876,1.5987943556733428,2.4001380644679067,-1.8849235197633505
1776555966779868000,10.497867919921875,0.5742398573860525,1.9946745188146828,-1.9199958560578525
1776555966789909800,10.50790966796875,-0.6555436373710632,1.707118390661478,-1.7806141272440552
1776555966799952000,10.517951904296876,-1.367556765460968,1.9468097748339175,-1.6179060295090077
1776555966809992700,10.52799267578125,0.24865999578684567,3.615983342504501,-1.683915794250369
1776555966820034800,10.538034912109374,3.9995808010473843,6.968887410986423,-1.5979273635804652
1776555966830075600,10.54807568359375,5.163650006878376,11.221373005783557,-1.446562205375731
1776555966840118000,10.558117919921875,1.1412658378705383,14.06925016157627,-0.9166586255833507
1776555966850159900,10.568159912109374,-1.5696049399375915,14.562310742139815,-0.11410919426083564
1776555966860201000,10.578200927734375,-5.756888286983966,11.580281136488914,1.4718351783201098
1776555966870242800,10.588242919921875,-12.427868271672725,4.059486988216638,5.58179533945024
1776555966880284000,10.598283935546876,-11.705687969833612,-2.803202732285857,8.651761587229371
1776555966890325800,10.60832568359375,-6.556892417737841,-6.326500776830315,9.498594104653597
1776555966900366800,10.618366943359375,-1.3541168536514043,-8.228940664061904,8.22146638265848
1776555966910408700,10.62840869140625,-2.9452479812204837,-7.151213232383132,5.6310570907473565
1776555966920450800,10.638450927734375,-8.549408297213912,-4.921169284248352,3.3739532862514254
1776555966930492000,10.648491943359375,-7.569767145755886,-3.558320842608809,2.4435563504338265
1776555966940533800,10.65853369140625,-4.185940115743875,-3.440773490592837,2.4069664491832254
1776555966950574800,10.668574951171875,1.6231009678035972,-3.0966999409258364,4.4383118255302305
1776555966960616700,10.67861669921875,3.2912124592006204,0.30471126109361646,8.17146988734603
1776555966970658800,10.688658935546876,0.1342488959699869,5.963117546537518,8.649722190356254
1776555966980700000,10.698699951171875,-0.8761907138556242,6.5692071249097586,5.364678775179386
1776555966990742000,10.708741943359374,-3.9472225450396534,6.870039498743415,3.9499534313082694
1776555967000782800,10.718782958984375,-2.0483365508973597,6.805429371666908,2.5983000451609493
1776555967010825000,10.728824951171875,-2.7270617418915033,5.930937862944603,1.8146636963620781
1776555967020866800,10.73886669921875,-2.735193610420823,3.752826346620917,1.3519780880570411
1776555967030908000,10.748907958984375,-1.9730179828017949,2.623445884594321,0.37631431579738855
1776555967040949800,10.75894970703125,-1.326785779133439,1.5622884794443845,-0.22565292194783687
1776555967050990800,10.768990966796874,-0.9220575620174407,0.30309973424375053,-0.2845417487680912
1776555967061032700,10.77903271484375,-1.359022161349654,-0.4952116211175918,-0.16849515670388937
1776555967071073800,10.78907373046875,-1.941241619312763,-0.5058469969004392,0.0721609808474779
1776555967081116000,10.799115966796874,-0.6861825212627649,0.694638214918971,-0.40874037536680696
1776555967091158000,10.809157958984375,0.5738058498829602,2.12612530849874,-1.3066729654312133
1776555967101198800,10.81919873046875,0.2588262927532196,3.2988276103794574,-1.4031903889000414
1776555967111241000,10.829240966796876,0.08554770116508006,4.181401887792348,-0.9417524425685405
1776555967121281800,10.83928173828125,-0.5317226119130849,4.454285931992531,-0.5681792421728372
1776555967131324000,10.849323974609375,-1.2390046198278666,4.184792114752531,-0.2097562646359205
1776555967141365800,10.85936572265625,-1.3562667251616716,3.357459832090139,-0.09548691137731075
1776555967151406800,10.86940673828125,-0.45264732163250443,2.1503958264023066,0.2751981663614511
1776555967161449000,10.879448974609375,0.35521570592820645,0.8807780416458845,0.6370476112157106
1776555967171490000,10.889489990234376,0.08054711639881133,-0.42287119204998014,0.863342922720313
1776555967181532000,10.899531982421875,-0.12430851671397686,-1.5392092171519993,1.1796207029670476
1776555967191573800,10.90957373046875,0.8239479009211063,-2.032886468309164,0.7558610376447439
1776555967201614800,10.91961474609375,1.8763444919884205,-1.92256029971838,-0.050451253342628476
1776555967211656700,10.92965673828125,2.196840766713023,-0.35794279280453917,-0.9001356530666351
1776555967221697800,10.93969775390625,1.2615619040727615,1.6429291193455458,-1.0491413886636496
1776555967231740200,10.949740234375,-0.14034662832319736,2.7058894822642205,-0.455158427670598
1776555967241781200,10.95978125,0.01749824728965759,3.107256698514521,-0.05993629004657268
1776555967251823000,10.969822998046874,0.2126502325117588,2.5356480664148924,0.05587152482569217
1776555967261865200,10.979865234375,-0.38363457568287845,1.26786831074059,0.4239104719698429
1776555967271906000,10.989906005859375,-0.3605944763571024,0.6117571026146411,0.15871815131604672
1776555967281948400,10.999948486328124,-0.6199930160403251,0.11046236219108103,-0.05866495493650436
1776555967291989200,11.0099892578125,-0.2535112352102995,-0.112784375397861,0.023915128594636917
1776555967302031400,11.02003125,0.5251859036207199,-0.07795359277427195,-0.429861489328742
1776555967312072200,11.030072265625,-0.22666063768565653,0.2538891286119819,-0.20579262170195578
1776555967322114300,11.0401142578125,-0.2591857737153768,0.9688777653813362,-0.14835107108056544
1776555967332156200,11.05015625,0.5155179115653038,1.7221999321982264,-0.20695348217487333
1776555967342197200,11.060197265625,1.5990128207296133,2.594510882011056,-0.8246452355355024
1776555967352239000,11.070239013671875,1.0295517220526933,2.6781702852115035,-1.0801625498712062
1776555967362280200,11.0802802734375,1.0794026714146137,1.9464435718700288,-0.967447440317273
1776555967372322300,11.090322265625,1.1137135218173264,1.2779893072605133,-0.7138111174225806
1776555967382364200,11.1003642578125,1.2537006691783665,0.410325598731637,-0.6462129144459963
1776555967392405200,11.1104052734375,1.3653712381154297,-0.017515490685403347,-0.8768488855034112
1776555967402447000,11.120447021484376,1.00814769949615,0.5362453500345349,-1.206224632254243
1776555967412488200,11.13048828125,1.2438818704754113,1.3203750353083015,-1.4958990677356718
1776555967422530000,11.140530029296874,1.7796020275920628,1.5511697040587662,-1.6268898386925459
1776555967432571100,11.150571044921875,1.6090350330501795,1.5471578380689024,-0.9385843339264393
1776555967442613200,11.16061328125,1.7084049233406782,1.1233759609147906,-0.7953267865926027
1776555967452655400,11.1706552734375,1.5240245075017214,0.5787044355794787,-1.3669371722579002
1776555967462696200,11.1806962890625,1.3351152160614728,0.57866468809098,-1.8356652755975722
1776555967472738300,11.19073828125,0.3991396033287048,0.9136737645536661,-1.5705840141028165
1776555967482779400,11.200779296875,0.989708371964097,1.056669738341868,-1.1559990043610333
1776555967492821200,11.2108212890625,1.683195663282275,1.0645452940225602,-0.820690360429883
1776555967502862300,11.2208623046875,1.3257733872205018,0.7934744367241859,-0.29774083755910397
1776555967512904200,11.230904296875,0.9340829308539629,0.6681319007873535,-0.2924573441982269
1776555967522946000,11.240946044921875,1.019348892468214,0.5489893885344267,-0.4104512709379196
1776555967532987100,11.250987060546874,1.4292898757964372,0.39935295381844044,-1.0062415736138821
1776555967543029200,11.261029296875,0.8902963960975409,0.41892800738215447,-1.071011275166273
1776555967553070300,11.2710703125,0.7643629085302353,0.33001404465436934,-0.7590659711658955
1776555967563112200,11.2811123046875,0.8579846105575561,0.0036918402552604673,-0.45750586757957934
1776555967573153300,11.2911533203125,1.3758622369915245,-0.30625439888238903,-0.5492921708732843
1776555967583195100,11.301195068359375,1.2068179219722748,-0.4986509479165077,-0.7708937716037034
1776555967593237200,11.3112373046875,1.198195639577508,-0.6926788975447415,-0.7277639471903443
1776555967603278000,11.321278076171875,1.5007266340225933,-0.7808458412975072,-0.7175164016813039
1776555967613320200,11.3313203125,0.9576783259749412,-1.065658808222413,-0.2916226469397545
1776555967623361000,11.341361083984374,1.4454267716050146,-1.3821961161881684,0.05662409675866365
1776555967633403400,11.3514033203125,2.312622862622142,-1.5021405924737452,-0.191795368270576
1776555967643445200,11.3614453125,2.2058751370400187,-1.702978222116828,-0.4997594936802983
1776555967653486300,11.371486328125,2.1019933222830294,-2.1053432172328232,-0.6116875445097685
1776555967663528200,11.381528076171875,1.8223598038226365,-2.444697921684384,-0.6136825177192687
1776555967673569300,11.3915693359375,1.0626683942347763,-2.807426487460732,-0.3178574506536126
1776555967683611100,11.401611083984376,0.9523913254827261,-3.0687434279859063,-0.5368836479380726
1776555967693652200,11.41165234375,1.062128296008706,-3.36061040507555,-1.1638941415250301
1776555967703694300,11.4216943359375,0.965174234688282,-3.4849808811098337,-1.7540256877869367
1776555967713736200,11.431736083984376,1.3497054669499398,-4.03607922462225,-1.7256401357799767
1776555967723777300,11.44177734375,2.823229036748409,-4.155108924150467,-1.601747214129567
1776555967733819100,11.451819091796875,2.694935249790549,-3.483204519087076,-1.9308605105519294
1776555967743860200,11.461860107421876,2.1644366267144677,-3.1911645235180854,-2.2962039350017904
1776555967753902000,11.471902099609375,1.579615461820364,-2.9412048433095217,-2.4570532531276346
1776555967763943200,11.481943115234374,0.18808833044618367,-2.2571990815639493,-2.2065479217350483
1776555967773985000,11.491985107421876,-1.366892748594284,-1.4339812484830616,-1.3788617110684513
1776555967784027400,11.50202734375,-2.606688226538896,-0.6320844358503818,-0.17300182047337292
1776555967794068200,11.512068115234374,-3.544009116400778,0.1706868215292692,1.153883035120368
1776555967804110300,11.5221103515625,-3.985569519090652,1.1777473103106022,2.427881519179046
1776555967814151200,11.532151123046875,-3.7937460937693714,2.6249703176826236,3.2006200418666
1776555967824193300,11.542193359375,-3.207203804171085,4.551387292829156,3.349291430942714
1776555967834234000,11.552234130859375,-2.29358440015316,6.555844369989633,3.0954981639206407
1776555967844276200,11.562276123046875,-1.532527547430992,7.938012429127097,2.7748873229056596
1776555967854318000,11.572318115234374,-1.2626855012752114,8.410951428160072,2.194581735739857
1776555967864359200,11.582359130859375,-0.48812261270470914,7.369606976982951,1.4589691208757458
1776555967874401300,11.5924013671875,0.4248760290663689,5.311864884358644,0.7860647449895739
1776555967884442400,11.6024423828125,0.6090379067838192,3.0557009910613298,0.383315572861582
1776555967894484200,11.612484130859375,0.7362579270303249,0.9191232621312141,0.2922315726183355
1776555967904525300,11.622525390625,0.8525485569834709,-0.7787363017976283,0.3850371359571814
1776555967914567200,11.632567138671876,1.1583505359232424,-1.8749667738944291,0.548894549857825
1776555967924608300,11.642608154296875,1.3947218357622622,-2.334146127644181,0.6887346168983727
1776555967934650000,11.652650146484374,1.3912228877305983,-2.3729881917357445,0.8367617897868156
1776555967944692200,11.662692138671876,1.2549451162815093,-2.1601380527377128,0.9804209036588668
1776555967954733000,11.672733154296875,1.4051993906348943,-2.154820657107234,0.9808149444777517
1776555967964775400,11.682775390625,1.5467477959632872,-2.2246458884835243,0.9916543184000998
1776555967974816300,11.692816162109375,1.2925333809196948,-2.3117466643095015,0.8327342878364026
1776555967984858400,11.7028583984375,0.9701759154330939,-2.407676058757305,0.6958729443456977
1776555967994899200,11.712899169921876,0.8338730826079845,-2.4192905087053775,0.3555178306799382
1776555968004941300,11.72294140625,0.46191016695313153,-2.9031121362805363,-0.09430800379104912
1776555968014983200,11.732983154296875,0.06522898962721228,-3.2176059557199475,-0.2548060607938096
1776555968025024300,11.743024169921876,-0.08201243971101939,-3.447616488355398,-0.4590954383259639
1776555968035066000,11.753066162109375,-0.2616781019877642,-3.95439053697288,-0.6493333114888519
1776555968045107200,11.763107177734375,0.24994959720596668,-4.217530016750097,-0.8417246728911996
1776555968055149300,11.7731494140625,0.9457032260209322,-4.114987926164269,-1.0594344538148492
1776555968065190400,11.7831904296875,0.9068165921352803,-3.9171985781759022,-1.1542293643400072
1776555968075232300,11.793232177734374,0.4626151734173298,-3.8267496609658003,-1.325187696287036
1776555968085273300,11.8032734375,0.49904506180062885,-3.6194068872123957,-1.3934928784891962
1776555968095315200,11.813315185546875,0.33111338419839736,-3.062521192470193,-1.4788313208177686
1776555968105357000,11.823357177734374,-0.0764700762182474,-2.6835990322619674,-1.5633670684613286
1776555968115398100,11.833398193359375,-0.4640397993929684,-2.237491926053166,-1.5414819843895733
1776555968125440000,11.84343994140625,-0.78442136169672,-1.6263047322809696,-1.5724426475815474
1776555968135481000,11.853481201171874,-0.5916906122721731,-0.9328940133303403,-1.6233640026539564
1776555968145523200,11.863523193359375,-0.609050327873975,-0.20090718774795532,-1.7643594502747058
1776555968155564300,11.873564208984375,-0.7323749481171369,0.5225777669489383,-1.897771457029134
1776555968165606100,11.883606201171874,-0.5642981629557907,1.249057811808586,-2.113971052585542
1776555968175648300,11.893648193359375,-0.23674071767330168,1.9559347460538148,-2.413341098781675
1776555968185689000,11.903689208984375,0.529616871805489,2.5147096155434845,-2.434865678977966
1776555968195731200,11.913731201171874,1.3542121307194233,1.7833546581238506,-2.4877751391276717
1776555968205772300,11.923772216796875,1.7112521294653416,0.9172779265254736,-2.5854829414248464
1776555968215814100,11.933814208984375,2.037505944803357,0.6276759717583656,-2.633480079613626
1776555968225859000,11.943859130859375,2.410160861310363,0.7410270411282778,-2.61822551959753
1776555968235901200,11.953901123046874,2.1767554255396124,0.3898322612792253,-2.9289988572090864
1776555968245942000,11.96394189453125,1.9549930812895298,0.008618775263428687,-2.802292047181725
1776555968255984000,11.973984130859375,1.7463167208448052,-0.40294776344001293,-2.5245251993760465
1776555968266026200,11.984026123046876,1.4061675050146878,-0.5919751283019781,-2.167700012424588
1776555968276067300,11.9940673828125,1.1381722557693719,-0.4894844756424427,-1.697359359321743
1776555968286109200,12.004109130859375,1.0541282371655105,-0.1426455529153347,-1.2117220606267451
1776555968296150300,12.014150390625,1.4719536901332437,0.20923136397898195,-0.6537495935611426
1776555968306192100,12.024192138671875,2.3363306320764123,-0.18797288737297058,-0.5058911283031106
1776555968316233200,12.034233154296874,3.175105953642726,-0.9543401214629411,-0.41514205910265445
1776555968326275000,12.044275146484376,3.6302962377563115,-1.5409487542957068,-0.19858459001928566
1776555968336316200,12.054316162109375,3.4995582725167274,-2.2191326780200002,0.043684097295254465
1776555968346358000,12.06435791015625,2.97239083968997,-2.718347689560056,0.18683248516619205
1776555968356400000,12.074400146484376,2.2883730952456593,-2.720340909203887,0.2976243715725839
1776555968366441200,12.084441162109375,1.8920320365943013,-2.4646020610719916,0.355354529877007
1776555968376483300,12.0944833984375,1.5785745744653046,-2.000300542002916,0.20699191448912024
1776555968386524200,12.104524169921875,1.3974740570798516,-1.5739093591332434,-0.3556492750398815
1776555968396566300,12.114566162109375,1.0392799198627471,-1.7352806553065776,-1.1954932487510144
1776555968406607000,12.124607177734376,0.36938758527413007,-2.4725673408627507,-1.937511785134673
1776555968416649200,12.134649169921875,-0.5336712617628276,-2.9240502948909994,-2.3464313164606687
1776555968426690000,12.14468994140625,-1.3048387357413769,-3.0222786139309403,-2.634875333364308
1776555968436732200,12.154732177734376,-1.2391722314797342,-3.2865216710358856,-2.995134586417675
1776555968446773000,12.16477294921875,-0.44899698243141173,-3.6998821074187753,-3.636851358488202
1776555968456815400,12.1748154296875,1.059958404623717,-4.2858325686037535,-4.353465842893719
1776555968466857200,12.184857177734376,2.7781805192321536,-4.542112684005499,-4.896003863331675
1776555968476898300,12.194898193359375,3.018937486809492,-4.101358044740557,-5.361341155189275
1776555968486940200,12.204940185546874,1.5264071648545563,-3.4732729076594113,-5.274215244922042
1776555968496981200,12.214981201171875,-0.8341635899871587,-3.5382039372533556,-4.766111993527412
1776555968507023000,12.225023193359375,-3.484479945850372,-4.18710565239191,-3.918160701206326
1776555968517064200,12.235064208984374,-4.422174637460708,-4.927994161832332,-3.067619684652984
1776555968527106000,12.24510595703125,-4.184671703243255,-5.161966583836079,-2.6102596552848816
1776555968537147100,12.255147216796875,-3.4386247881263494,-4.253479282009601,-3.0296307302594183
1776555968547189200,12.265189208984374,-2.4425083026856185,-1.9305343473374843,-2.8207199765369295
1776555968557231000,12.275231201171875,-1.4212953699111939,-0.17046353416740892,-2.054241098766029
1776555968567272200,12.285272216796875,-0.035521468301489945,-0.31746494420468807,-0.8737030617583542
1776555968577314000,12.29531396484375,0.3323831118732691,-1.5923165379613637,0.49682044455371793
1776555968587355100,12.305355224609375,-0.881116479820013,-1.9535206706494093,1.232082711610198
1776555968597397000,12.31539697265625,-2.1847313728548583,-0.7948632607340812,1.3199044951871037
1776555968607438000,12.32543798828125,-3.2759991079777477,1.112601176661253,1.4055128404982387
1776555968617480000,12.33547998046875,-4.30476873974204,2.7156623959988355,1.5456597084656356
1776555968627521000,12.34552099609375,-4.622334221711754,3.2555408418387173,2.152299321936071
1776555968637563100,12.355563232421876,-3.8683834016025065,3.1264889299899337,3.5342584144979714
1776555968647604200,12.365604248046875,-3.1840403707265854,2.5766888095945117,5.61821923648417
1776555968657646000,12.37564599609375,-3.596324702310562,2.211136418569088,7.058960480621456
1776555968667688200,12.385688232421876,-3.41840734500587,1.8392554090440272,7.029723864743113
1776555968677729000,12.39572900390625,-2.9137153633594512,1.6279887398451565,6.221269885551929
1776555968687771100,12.405771240234374,-2.6675726110905407,1.598531759214401,5.393892010182142
1776555968697812000,12.41581201171875,-2.1687843005299565,1.4777292047947643,4.927742232897877
1776555968707854000,12.42585400390625,-1.729917959229648,1.2070669282972812,4.604816100677848
1776555968717895000,12.43589501953125,-1.2325509136438368,0.572840219721198,4.574539035835862
1776555968727937300,12.445937255859375,-0.6382230847358703,-0.31339082663357254,4.820952129478752
1776555968737978000,12.45597802734375,0.15025032883062958,-0.9121639445126056,5.37968520565331
1776555968748020200,12.466020263671876,0.7980437904663383,-0.8197562944501638,5.742466962921619
1776555968758061000,12.47606103515625,1.1972066285401581,0.1950952865988016,5.764488240593671
1776555968768103200,12.486103271484374,1.5450468372642994,1.747601792219281,5.443812517648935
1776555968778145000,12.49614501953125,1.195444295042753,3.296535700049996,4.679446101987361
1776555968788186000,12.50618603515625,0.46855376968607304,3.8602667306423184,3.7146453767865895
1776555968798228000,12.51622802734375,-0.89697455868721,3.5646196504920717,2.7767034324169155
1776555968808269300,12.526269287109375,-2.3507062173008917,2.970607463404536,1.985692170935869
1776555968818311200,12.536311279296875,-2.865449929623306,2.1592893269538878,1.4090911373764277
1776555968828352300,12.546352294921874,-2.4353727517172694,1.3838205025196075,0.7749481615610421
1776555968838394000,12.55639404296875,-1.3870609457455574,0.8098346198946237,0.1418443195350468
1776555968848435200,12.566435302734375,-0.5403330577395856,0.5295797546654939,-0.3720820850551128
1776555968858477000,12.57647705078125,-0.16599954049587248,0.5198462961584329,-0.7079970243163406
1776555968868518100,12.58651806640625,-0.0745101743221283,0.6215513513982296,-0.8904607928790151
1776555968878560000,12.59656005859375,-0.45491234395503993,0.8909779486209154,-1.032785881668329
1776555968888601000,12.60660107421875,-0.686170100172609,1.0512971053928135,-1.047397613736242
1776555968898643200,12.616643310546875,-0.8134170084260404,0.9855424844563007,-0.9776188518501817
1776555968908684300,12.626684326171874,-0.6055680387161672,0.7497808409482241,-0.8116158042229712
1776555968918726100,12.63672607421875,-0.2936211272805929,0.47570086496174335,-0.4696577854052186
1776555968928768300,12.646768310546875,-0.254750421616435,0.42771570947170257,-0.01316679395660758
1776555968938809000,12.65680908203125,-0.2655307588279247,0.351398777988553,0.5406687194347382
1776555968948851200,12.666851318359376,-0.3881280877098441,0.4013981959104538,1.0717163546957076
1776555968958892000,12.67689208984375,-0.4672497013501823,0.6158966866374015,1.5440120873890817
1776555968968934100,12.68693408203125,-0.5368073678314685,0.9954659125775098,1.8686774644918738
1776555968978975000,12.69697509765625,-0.26219533079490065,1.1297329287260771,2.1760756265819072
1776555968989017300,12.707017333984375,0.1352034202158451,1.1085644684910774,2.4451632011085747
1776555968999058200,12.71705810546875,0.7272361239239573,0.9996242013007401,2.6323373393192884
1776555969009100300,12.727100341796875,1.3430883868977426,0.8414525779515505,2.6983313219696283
1776555969019141000,12.73714111328125,1.660938823288679,1.010863388195634,2.489310970392823
1776555969029183200,12.747183349609376,1.753160741520673,1.2406003645867107,2.002256206115335
1776555969039224000,12.75722412109375,1.1434504884332417,1.4486165075570343,1.3865909901462494
1776555969049266200,12.76726611328125,0.5298312452085315,1.3877017278671264,1.0967547882318496
1776555969059307000,12.77730712890625,-0.32365678458213804,1.527958339819312,0.8927636629939079
1776555969069349000,12.78734912109375,-1.002386651751399,1.7781009753793477,0.9537393790908157
1776555969079391200,12.79739111328125,-1.6668522851161658,1.61020875300467,1.4627091841869055
1776555969089432300,12.807432373046876,-2.127473654367775,1.39146195718348,2.1842677008658646
1776555969099474200,12.81747412109375,-1.8823713510625064,1.5199766934156418,2.901561399707198
1776555969109515300,12.827515380859374,-2.04639652274549,2.6282214284330605,3.3226913010478016
