time,seconds_elapsed,z,y,x
1776555956394373000,0.112373046875,-0.25202399492263794,-0.05901565030217171,0.5726385116577148
1776555956404414200,0.122414306640625,-0.3670501708984375,-0.19074039161205292,0.6417549848556519
1776555956414456000,0.1324560546875,-0.4789455533027649,-0.3387058973312378,0.7403838038444519
1776555956424497200,0.1424970703125,-0.37713688611984253,-0.3826075494289398,0.805682361125946
1776555956434539300,0.152539306640625,-0.2920409142971039,-0.5009501576423645,0.7264717221260071
1776555956444580400,0.162580322265625,-0.226786270737648,-0.6553483009338379,0.5887474417686462
1776555956454622200,0.172622314453125,-0.20856492221355438,-0.7788723707199097,0.4269507825374603
1776555956464663300,0.182663330078125,-0.21184593439102173,-0.7964596152305603,0.24396632611751556
1776555956474704400,0.192704345703125,-0.18037563562393188,-0.6917883157730103,0.05889900401234627
1776555956484746200,0.202746337890625,-0.14835192263126373,-0.5486570000648499,-0.0962812602519989
1776555956494787300,0.212787353515625,-0.12994708120822906,-0.5180391669273376,-0.2508087754249573
1776555956504829200,0.2228291015625,-0.11784833669662476,-0.6312053799629211,-0.3579205870628357
1776555956514870300,0.232870361328125,-0.14722619950771332,-0.7823115587234497,-0.41321101784706116
1776555956524912000,0.242912109375,-0.16295909881591797,-0.8997529745101929,-0.5020639300346375
1776555956534953200,0.252953125,-0.16671361029148102,-1.015846848487854,-0.6294082999229431
1776555956544995300,0.262995361328125,-0.13148611783981323,-1.0549931526184082,-0.699648916721344
1776555956555036400,0.273036376953125,-0.14580939710140228,-1.047013282775879,-0.7499666810035706
1776555956565078300,0.283078369140625,-0.22106847167015076,-1.0272467136383057,-0.835334300994873
1776555956575119400,0.293119384765625,-0.22052252292633057,-0.9950594902038574,-0.8422057628631592
1776555956585160200,0.30316015625,-0.2107710838317871,-0.8975057601928711,-0.7798590660095215
1776555956595202300,0.313202392578125,-0.19723424315452576,-0.7783357501029968,-0.7080482244491577
1776555956605243100,0.3232431640625,-0.18016444146633148,-0.8226451277732849,-0.6476317644119263
1776555956615285200,0.33328515625,-0.173720121383667,-0.8710733652114868,-0.5538432002067566
1776555956625326000,0.343326171875,-0.27627527713775635,-1.060615062713623,-0.6341314315795898
1776555956635368200,0.3533681640625,-0.3568795621395111,-1.1285115480422974,-0.7127383351325989
1776555956645409300,0.3634091796875,-0.4056292474269867,-1.2826061248779297,-0.7536255717277527
1776555956655451400,0.373451416015625,-0.429249107837677,-1.4208827018737793,-0.7705094814300537
1776555956665492200,0.3834921875,-0.41399264335632324,-1.5076195001602173,-0.7400674223899841
1776555956675534300,0.393534423828125,-0.41809871792793274,-1.6370714902877808,-0.9194033741950989
1776555956685575200,0.4035751953125,-0.3790610432624817,-1.6058094501495361,-1.0367933511734009
1776555956695616300,0.4136162109375,-0.1672196239233017,-1.6673004627227783,-0.9504121541976929
1776555956705658000,0.423658203125,0.12790976464748383,-1.6754114627838135,-0.810302197933197
1776555956715699200,0.43369921875,0.30045464634895325,-1.7444038391113281,-0.8048267364501953
1776555956725741000,0.443740966796875,0.2557542622089386,-1.7709083557128906,-0.9554399251937866
1776555956735782100,0.4537822265625,0.1600290834903717,-1.916504979133606,-1.1100249290466309
1776555956745824300,0.46382421875,0.11354760080575943,-1.870622158050537,-1.003956913948059
1776555956755865300,0.473865234375,-0.03903475031256676,-1.8723007440567017,-1.1921310424804688
1776555956765907200,0.4839072265625,-0.11820174008607864,-1.4676414728164673,-1.272137999534607
1776555956775948300,0.4939482421875,-0.1229376420378685,-0.962429404258728,-1.0288020372390747
1776555956785990100,0.503990234375,-0.18253439664840698,-0.47501471638679504,-0.5414928197860718
1776555956796031200,0.51403125,-0.09244710952043533,-0.31163352727890015,-0.04384308680891991
1776555956806073000,0.524072998046875,0.09869541972875595,-0.23299676179885864,0.283065527677536
1776555956816114200,0.5341142578125,0.1770365685224533,-0.36388447880744934,0.357556015253067
1776555956826155300,0.5441552734375,0.007192665245383978,-0.7267271280288696,0.10093806684017181
1776555956836197000,0.554197021484375,-0.21834325790405273,-1.2310142517089844,-0.17524266242980957
1776555956846238200,0.56423828125,-0.3754386007785797,-1.395505666732788,-0.3879011273384094
1776555956856280300,0.5742802734375,-0.35910171270370483,-1.4090204238891602,-0.5111886858940125
1776555956866321400,0.5843212890625,-0.26106753945350647,-1.1819913387298584,-0.5568147897720337
1776555956876363300,0.59436328125,-0.17371612787246704,-0.9019955992698669,-0.4907369613647461
1776555956886404400,0.604404296875,-0.16984230279922485,-0.6957689523696899,-0.4217986464500427
1776555956896446200,0.6144462890625,-0.14357846975326538,-0.7628592848777771,-0.46128904819488525
1776555956906487300,0.6244873046875,-0.06094031408429146,-0.8923406004905701,-0.5801552534103394
1776555956916529200,0.634529052734375,-0.07118496298789978,-0.922317385673523,-0.666854202747345
1776555956926570200,0.6445703125,-0.27145254611968994,-1.0537015199661255,-0.6747326254844666
1776555956936612000,0.654612060546875,-0.6315097808837891,-0.5580872297286987,-0.4049171209335327
1776555956946653200,0.664653076171875,-0.8804641962051392,-0.28798171877861023,-0.3186682462692261
1776555956956695300,0.6746953125,-0.9213700890541077,0.1389850527048111,-0.16175614297389984
1776555956966736400,0.684736328125,-0.750980019569397,0.36416542530059814,0.003328418591991067
1776555956976777200,0.694777099609375,-0.5919935703277588,0.6957873106002808,0.16341929137706757
1776555956986819300,0.7048193359375,-0.4361378848552704,1.1148439645767212,0.2554733157157898
1776555956996860200,0.714860107421875,-0.33332788944244385,1.4534763097763062,0.33205756545066833
1776555957006902300,0.72490234375,-0.06886588037014008,1.0748616456985474,0.6364328861236572
1776555957016943000,0.734943115234375,0.5724137425422668,0.5611461400985718,1.1447603702545166
1776555957026985200,0.744985107421875,0.963565468788147,0.4207581579685211,1.4466516971588135
1776555957037026000,0.755026123046875,0.7391800880432129,0.2953442931175232,1.2779103517532349
1776555957047068200,0.765068115234375,0.44689252972602844,0.15574271976947784,0.8684978485107422
1776555957057109000,0.77510888671875,0.25543203949928284,0.004836034029722214,0.5281522274017334
1776555957067151400,0.7851513671875,0.11390126496553421,-0.054380152374506,0.35934510827064514
1776555957077192200,0.795192138671875,0.029020199552178383,-0.134528249502182,0.29423004388809204
1776555957087234300,0.805234375,0.05771709233522415,-0.08815808594226837,0.2976796329021454
1776555957097275100,0.815275146484375,0.22079043090343475,0.06342265009880066,0.3016783595085144
1776555957107317200,0.825317138671875,0.4002677798271179,0.3045545816421509,0.3125016987323761
1776555957117358000,0.835358154296875,0.5374602675437927,0.8662349581718445,0.2606917917728424
1776555957127399200,0.845399169921875,0.5899719595909119,1.0325837135314941,0.25458061695098877
1776555957137441300,0.855441162109375,0.5756356120109558,1.102846384048462,0.25661900639533997
1776555957147482000,0.865482177734375,0.5678304433822632,1.1837292909622192,0.18288938701152802
1776555957157524200,0.875524169921875,0.5554062128067017,1.1046254634857178,0.07346569746732712
1776555957167565300,0.8855654296875,0.39932981133461,0.7979597449302673,0.04310273006558418
1776555957177607400,0.895607421875,0.019644808024168015,0.6556705236434937,0.1889083981513977
1776555957187648300,0.905648193359375,-0.3725663721561432,0.8411067128181458,0.4414397180080414
1776555957197690400,0.9156904296875,-0.4217512309551239,0.4344731569290161,0.644811749458313
1776555957207731200,0.925731201171875,-0.25122103095054626,-0.12472515553236008,0.6552761197090149
1776555957217773000,0.93577294921875,-0.15270832180976868,-0.6181841492652893,0.5380690693855286
1776555957227814000,0.94581396484375,-0.284000039100647,-0.9491000175476074,0.2701699733734131
1776555957237856000,0.95585595703125,-0.40166595578193665,-1.133222222328186,-0.212905615568161
1776555957247896800,0.965896728515625,-0.4156970679759979,-1.1029736995697021,-0.5288441181182861
1776555957257939000,0.97593896484375,-0.35745561122894287,-0.9805015921592712,-0.7168926000595093
1776555957267979800,0.985979736328125,-0.29606494307518005,-0.968039333820343,-0.6580939888954163
1776555957278022000,0.99602197265625,-0.15839949250221252,-0.4639892280101776,-0.34320688247680664
1776555957288062700,1.006062744140625,0.1767643839120865,0.3341609239578247,0.014890000224113464
1776555957298105000,1.01610498046875,0.4298807978630066,0.5914052724838257,0.4710894823074341
1776555957308146000,1.02614599609375,0.518153965473175,0.6742396950721741,0.8525583148002625
1776555957318188000,1.03618798828125,0.6424849629402161,0.8613059520721436,1.1419628858566284
1776555957328228900,1.046228759765625,0.7716277241706848,1.0013525485992432,1.3166916370391846
1776555957338270000,1.05627001953125,0.8578190803527832,0.8090334534645081,1.2868599891662598
1776555957348311800,1.066311767578125,0.8358892798423767,0.5215129852294922,1.2145735025405884
1776555957358353000,1.076352783203125,0.7384471893310547,0.33041998744010925,1.1473065614700317
1776555957368394800,1.086394775390625,0.6580143570899963,0.2617461085319519,1.0571391582489014
1776555957378435800,1.096435791015625,0.4758722484111786,0.2604734003543854,0.9975197315216064
1776555957388477700,1.106477783203125,0.2777935266494751,0.30230259895324707,0.9212862253189087
1776555957398518800,1.116518798828125,0.14317846298217773,0.34103161096572876,0.7992016077041626
1776555957408561000,1.126560791015625,-0.0006450176006183028,0.44392311573028564,0.7095776796340942
1776555957418602000,1.13660205078125,-0.10134925693273544,0.22329913079738617,0.5720446109771729
1776555957428643800,1.146643798828125,-0.10407154262065887,0.1578812450170517,0.46393436193466187
1776555957438685000,1.156684814453125,-0.1314283311367035,0.05515965819358826,0.33136436343193054
1776555957448726800,1.166726806640625,-0.15744981169700623,-0.15018950402736664,0.20058102905750275
1776555957458768000,1.176767822265625,-0.24823270738124847,-0.3962187170982361,0.07295862585306168
1776555957468809700,1.186809814453125,-0.3399122953414917,-0.6155806183815002,-0.013791445642709732
1776555957478850800,1.196850830078125,-0.3564110994338989,-0.746938943862915,-0.11184131354093552
1776555957488892700,1.206892578125,-0.29726442694664,-0.6526774168014526,-0.471990168094635
1776555957498933800,1.216933837890625,-0.0844738706946373,-0.5646777749061584,-0.7350742816925049
1776555957508975900,1.226975830078125,0.0787733718752861,-0.657885730266571,-0.7802907228469849
1776555957519017000,1.237016845703125,0.1562362015247345,-0.6780804991722107,-0.6255635023117065
1776555957529058800,1.247058837890625,0.12539148330688477,-0.4960174858570099,-0.4247763156890869
1776555957539100000,1.257099853515625,0.0681670680642128,-0.3498581349849701,-0.028873194009065628
1776555957549141800,1.267141845703125,-0.1544678658246994,-0.39757025241851807,0.38127651810646057
1776555957559182800,1.277182861328125,-0.44028764963150024,-0.5285125970840454,0.731174886226654
1776555957569225000,1.287224853515625,-0.7763210535049438,-0.6094061136245728,1.0564714670181274
1776555957579265800,1.297265869140625,-1.0638633966445923,-0.49501001834869385,1.3679007291793823
1776555957589308000,1.307307861328125,-1.2611924409866333,-0.09322261810302734,1.600126028060913
1776555957599348700,1.3173486328125,-1.1015095710754395,0.6633310914039612,1.7051496505737305
1776555957609389800,1.327389892578125,-0.620234489440918,-0.17795509099960327,0.49913790822029114
1776555957619432000,1.337431884765625,-0.11652102321386337,-0.13681857287883759,0.18405984342098236
1776555957629473000,1.34747314453125,0.4827437400817871,-0.6724180579185486,-0.6406476497650146
1776555957639515000,1.357514892578125,0.9782472252845764,-0.8116707801818848,-1.097758412361145
1776555957649556000,1.367555908203125,1.3331129550933838,-0.8351367115974426,-1.1966536045074463
1776555957659597800,1.377597900390625,1.4458149671554565,-0.8917869329452515,-1.0654487609863281
1776555957669639000,1.387638916015625,1.4356690645217896,-0.8621041178703308,-0.8319666981697083
1776555957679680800,1.3976806640625,1.4835187196731567,-0.7455109357833862,-0.5747416019439697
1776555957689721900,1.407721923828125,1.5439302921295166,-0.619994044303894,-0.29216209053993225
1776555957699763700,1.417763671875,1.6799851655960083,-0.5144140720367432,-0.028318990021944046
1776555957709805000,1.42780517578125,1.9832632541656494,-0.43299537897109985,0.18728893995285034
1776555957719847000,1.437846923828125,2.201263904571533,-0.5977747440338135,0.35091009736061096
1776555957729888000,1.447887939453125,2.1955840587615967,-1.0241854190826416,0.5499011874198914
1776555957739929900,1.457929931640625,2.047528028488159,-1.7933404445648193,0.8591229915618896
1776555957749971000,1.467970947265625,2.257962465286255,-2.692667007446289,1.2229704856872559
1776555957760012800,1.4780126953125,2.5931506156921387,-2.859328269958496,1.4893949031829834
1776555957770054000,1.488053955078125,2.8919990062713623,-2.7315475940704346,1.6538203954696655
1776555957780095700,1.498095703125,3.1104025840759277,-2.5561723709106445,1.7568844556808472
1776555957790136800,1.50813671875,3.2235870361328125,-2.5279364585876465,1.7118301391601562
1776555957800179000,1.518178955078125,3.4327073097229004,-2.6924922466278076,1.632354736328125
1776555957810220000,1.528219970703125,3.463890314102173,-2.7902021408081055,1.470365285873413
1776555957820262000,1.538261962890625,3.4043641090393066,-2.9685025215148926,1.2526761293411255
1776555957830303000,1.548302978515625,3.222660779953003,-2.9777376651763916,0.9376825094223022
1776555957840344800,1.5583447265625,2.9274497032165527,-3.062413454055786,0.607895016670227
1776555957850386000,1.568385986328125,2.6290295124053955,-3.281818389892578,0.28728824853897095
1776555957860427800,1.578427734375,2.437364101409912,-3.4941818714141846,0.10320867598056793
1776555957870468900,1.58846875,2.6479299068450928,-3.585885763168335,0.07727721333503723
1776555957880510700,1.5985107421875,3.148138999938965,-3.411271333694458,0.20732443034648895
1776555957890551800,1.6085517578125,3.7466342449188232,-3.213606834411621,0.6053125262260437
1776555957900594000,1.618593994140625,4.407201766967773,-2.6715641021728516,1.1781803369522095
1776555957910635000,1.628635009765625,5.029348373413086,-1.8418464660644531,1.6972695589065552
1776555957920676900,1.6386767578125,5.574916362762451,-0.8500946164131165,2.047351360321045
1776555957930718000,1.648718017578125,5.74147891998291,-0.09675983339548111,2.2678182125091553
1776555957940759800,1.658759765625,5.676126956939697,0.28085857629776,2.3410284519195557
1776555957950801000,1.66880078125,5.507585048675537,0.5350937843322754,2.2009811401367188
1776555957960842800,1.6788427734375,5.324793338775635,0.518310546875,1.8634282350540161
1776555957970883800,1.6888837890625,5.19866418838501,0.4413757920265198,1.5093936920166016
1776555957980925700,1.69892578125,5.151700973510742,0.6046707034111023,1.1937174797058105
1776555957990966800,1.708966796875,5.119905948638916,1.0078115463256836,0.9904429316520691
1776555958001009000,1.7190087890625,5.000564098358154,1.4543263912200928,0.8542869687080383
1776555958011050000,1.729050048828125,4.8216423988342285,1.8751047849655151,0.70009845495224
1776555958021091800,1.739091796875,4.65625,2.0614805221557617,0.6081887483596802
1776555958031133000,1.7491328125,4.526832580566406,2.1201539039611816,0.5120627284049988
1776555958041174800,1.7591748046875,4.399986743927002,1.9584956169128418,0.4396570026874542
1776555958051216000,1.7692158203125,4.101314067840576,1.5035851001739502,0.431974858045578
1776555958061257700,1.7792578125,3.65437650680542,1.0485514402389526,0.4939330220222473
1776555958071298800,1.789298828125,3.1983487606048584,0.6023218035697937,0.4605068862438202
1776555958081340700,1.799340576171875,2.820621967315674,0.3133147656917572,0.3553037643432617
1776555958091381800,1.8093818359375,2.394260883331299,0.20458349585533142,0.01510065607726574
1776555958101423900,1.819423828125,2.087303400039673,0.17014376819133759,-0.4668137729167938
1776555958111465000,1.82946484375,1.9614975452423096,0.4755428433418274,-0.8320937752723694
1776555958121506800,1.8395068359375,1.9840070009231567,0.9710319638252258,-0.8097234964370728
1776555958131548000,1.8495478515625,2.0651445388793945,1.5913585424423218,-0.47386449575424194
1776555958141589800,1.85958984375,2.092348098754883,1.8746669292449951,0.05649576708674431
1776555958151630800,1.869630859375,1.9974040985107422,1.9774272441864014,0.5960937738418579
1776555958161672700,1.879672607421875,1.758245587348938,1.9953439235687256,0.9136967658996582
1776555958171713800,1.8897138671875,1.5009719133377075,1.8466359376907349,1.237758994102478
1776555958181756000,1.899755859375,1.350049614906311,1.4974805116653442,1.7303715944290161
1776555958191796700,1.909796630859375,1.1352957487106323,1.342818021774292,2.195420265197754
1776555958201838800,1.9198388671875,0.8334146738052368,0.9898117780685425,2.5756852626800537
1776555958211880000,1.9298798828125,0.48526522517204285,0.5405298471450806,2.829364538192749
1776555958221922300,1.93992236328125,0.19489865005016327,0.10212983191013336,2.8047032356262207
1776555958231963400,1.94996337890625,0.04484124109148979,-0.5114259719848633,2.4413394927978516
1776555958242005200,1.960005126953125,-0.2727455198764801,-1.2909231185913086,1.793216586112976
1776555958252046300,1.97004638671875,-0.6470325589179993,-2.255051612854004,1.145570993423462
1776555958262088200,1.980088134765625,-1.175440788269043,-2.7495615482330322,0.6419733762741089
1776555958272129300,1.99012939453125,-1.8393590450286865,-3.028789758682251,0.21204328536987305
1776555958282171100,2.000171142578125,-2.4533653259277344,-3.238175868988037,-0.2566365897655487
1776555958292212200,2.010212158203125,-2.9805517196655273,-3.4371492862701416,-0.7680002450942993
1776555958302254300,2.02025439453125,-3.1839423179626465,-3.6000874042510986,-1.2021211385726929
1776555958312295400,2.03029541015625,-3.0321953296661377,-3.408614158630371,-1.5302762985229492
1776555958322337300,2.040337158203125,-2.733684539794922,-2.9776430130004883,-1.7851871252059937
1776555958332378400,2.05037841796875,-2.500568151473999,-2.770420789718628,-1.9835377931594849
1776555958342420200,2.060420166015625,-2.449544906616211,-2.8066983222961426,-2.1499459743499756
1776555958352461300,2.07046142578125,-2.4780633449554443,-2.646409749984741,-2.214003562927246
1776555958362503200,2.080503173828125,-2.666060447692871,-2.170880079269409,-2.1524267196655273
1776555958372544300,2.090544189453125,-2.5967979431152344,-1.6961249113082886,-1.7646079063415527
1776555958382586400,2.10058642578125,-2.539111852645874,-1.8767924308776855,-1.3392714262008667
1776555958392627200,2.110627197265625,-2.409497022628784,-1.917402982711792,-0.9494619369506836
1776555958402669300,2.12066943359375,-2.442584753036499,-1.6802538633346558,-0.6695312261581421
1776555958412710400,2.13071044921875,-2.767582893371582,-1.8897788524627686,-0.6213700771331787
1776555958422752300,2.140752197265625,-3.2270238399505615,-1.9157023429870605,-0.7828460335731506
1776555958432793300,2.15079345703125,-3.5760836601257324,-1.872635841369629,-0.8145059943199158
1776555958442835500,2.16083544921875,-3.4254720211029053,-2.042630910873413,-0.6699418425559998
1776555958452876300,2.170876220703125,-2.965942621231079,-2.1121480464935303,-0.25455984473228455
1776555958462918400,2.18091845703125,-2.456332206726074,-2.116626024246216,0.11093690246343613
1776555958472959200,2.190959228515625,-2.0404610633850098,-2.1875956058502197,0.34743812680244446
1776555958483001300,2.20100146484375,-1.841026782989502,-2.172018527984619,0.3779691457748413
1776555958493042400,2.21104248046875,-1.6492040157318115,-1.8423335552215576,0.3143076002597809
1776555958503084500,2.22108447265625,-1.4715373516082764,-1.5476763248443604,0.22072598338127136
1776555958513125400,2.23112548828125,-1.4092199802398682,-1.1273906230926514,0.07463002949953079
1776555958523167500,2.24116748046875,-1.5385619401931763,-0.9086282253265381,-0.18424440920352936
1776555958533208300,2.251208251953125,-1.4391858577728271,-0.9261539578437805,-0.5644239783287048
1776555958543250400,2.26125048828125,-1.2402037382125854,-1.1374142169952393,-0.689711332321167
1776555958553291300,2.271291259765625,-0.8874552845954895,-1.4213589429855347,-0.7709276080131531
1776555958563333400,2.28133349609375,-0.6410194039344788,-1.5377699136734009,-0.8439075350761414
1776555958573374200,2.291374267578125,-0.24174737930297852,-1.5142651796340942,-0.9909326434135437
1776555958583416600,2.30141650390625,0.5624399185180664,-0.8673449754714966,-1.410803198814392
1776555958593457400,2.31145751953125,1.9293075799942017,-0.571369469165802,-1.9866970777511597
1776555958603499500,2.32149951171875,3.3760299682617188,-0.29285478591918945,-2.158050060272217
1776555958613540400,2.331540283203125,4.473615646362305,-0.08194439858198166,-2.302943468093872
1776555958623582500,2.34158251953125,4.982717990875244,-0.4648989737033844,-2.302314043045044
1776555958633623300,2.351623291015625,4.504189491271973,-0.39530816674232483,-2.2894582748413086
1776555958643665400,2.36166552734375,3.1823856830596924,0.43817174434661865,-2.093719482421875
1776555958653707300,2.371707275390625,1.9594428539276123,1.5930289030075073,-1.3289881944656372
1776555958663748400,2.381748291015625,1.4494988918304443,2.6977698802948,-0.3770306408405304
1776555958673790500,2.39179052734375,1.5704008340835571,3.404294490814209,0.3128114342689514
1776555958683831600,2.40183154296875,2.067047119140625,3.4308807849884033,0.5192378163337708
1776555958693873400,2.411873291015625,2.366570234298706,2.9572153091430664,0.20777849853038788
1776555958703914500,2.42191455078125,2.531482696533203,2.6233127117156982,-0.38221314549446106
1776555958713956400,2.431956298828125,2.7325234413146973,1.8114155530929565,-1.2006808519363403
1776555958723997400,2.44199755859375,2.8382272720336914,0.987388551235199,-1.829686164855957
1776555958734039300,2.452039306640625,2.6593399047851562,0.9817519783973694,-2.1157898902893066
1776555958744080400,2.462080322265625,2.3696367740631104,1.302376627922058,-1.947819471359253
1776555958754122200,2.472122314453125,2.132033586502075,1.5367577075958252,-1.4336658716201782
1776555958764163300,2.482163330078125,1.9477648735046387,1.8350929021835327,-0.7348247170448303
1776555958774205400,2.492205322265625,1.6637989282608032,1.8377822637557983,-0.055021971464157104
1776555958784246500,2.50224658203125,1.1124180555343628,1.5126219987869263,0.5781493782997131
1776555958794288400,2.512288330078125,0.21000197529792786,0.9860998392105103,1.1157547235488892
1776555958804329500,2.52232958984375,-0.8637254238128662,0.8121210932731628,1.4670521020889282
1776555958814371300,2.532371337890625,-1.6112861633300781,0.617687463760376,1.5443670749664307
1776555958824412400,2.542412353515625,-1.9852832555770874,-0.1174754947423935,1.3536320924758911
1776555958834454300,2.552454345703125,-2.1243367195129395,-1.1710244417190552,1.0166785717010498
1776555958844495400,2.562495361328125,-2.1866683959960938,-1.934883952140808,0.8080371618270874
1776555958854537200,2.572537109375,-2.346717119216919,-1.984481692314148,0.7763820290565491
1776555958864578300,2.582578369140625,-2.3679697513580322,-1.619781732559204,0.8910683989524841
1776555958874620400,2.592620361328125,-2.0748066902160645,-0.8240387439727783,1.0165919065475464
1776555958884661500,2.60266162109375,-1.4218164682388306,-0.049011752009391785,1.207802176475525
1776555958894703400,2.612703369140625,-0.4805181324481964,0.315273255109787,1.3061878681182861
1776555958904744400,2.622744384765625,0.45726555585861206,0.5834267139434814,1.3937387466430664
1776555958914786300,2.632786376953125,1.108728289604187,0.5935104489326477,1.4620131254196167
1776555958924828400,2.642828369140625,1.5096501111984253,0.7347365617752075,1.42611825466156
1776555958934869200,2.652869140625,1.7958794832229614,0.9535104632377625,1.296341061592102
1776555958944911400,2.662911376953125,2.14768648147583,1.2642673254013062,1.1141425371170044
1776555958954952200,2.6729521484375,2.625641107559204,1.0576773881912231,0.6524502038955688
1776555958964994300,2.682994384765625,3.0174171924591064,0.4628874957561493,-0.020976921543478966
1776555958975035400,2.693035400390625,3.2019219398498535,-0.04006832465529442,-0.6964781284332275
1776555958985077500,2.703077392578125,2.9491560459136963,0.2344370037317276,-1.1885908842086792
1776555958995118300,2.713118408203125,2.816758394241333,0.07053781300783157,-1.985541820526123
1776555959005160400,2.723160400390625,3.09513783454895,0.4036382734775543,-2.592116355895996
1776555959015201300,2.733201171875,3.6452391147613525,-0.09841126203536987,-3.1499266624450684
1776555959025243400,2.743243408203125,4.556979656219482,-0.4125896990299225,-3.7530405521392822
1776555959035284200,2.7532841796875,5.376953125,-1.5192569494247437,-3.8484203815460205
1776555959045326300,2.763326416015625,5.9035773277282715,-1.730457067489624,-3.640462636947632
1776555959055367400,2.773367431640625,5.7968525886535645,-1.8906248807907104,-3.304236650466919
1776555959065409500,2.783409423828125,3.7355730533599854,-1.2962875366210938,-2.6212821006774902
1776555959075450400,2.793450439453125,2.565342426300049,-1.3776808977127075,-1.6943057775497437
1776555959085492500,2.803492431640625,1.8211432695388794,-1.9380263090133667,-0.7718746066093445
1776555959095533300,2.813533203125,1.4608525037765503,-2.531221628189087,0.11626935005187988
1776555959105575400,2.823575439453125,1.4367716312408447,-2.912222385406494,0.6496493816375732
1776555959115617300,2.8336171875,1.3671715259552002,-3.1856000423431396,0.8313512802124023
1776555959125658400,2.843658447265625,1.3416427373886108,-2.839764356613159,0.8861168026924133
1776555959135700500,2.853700439453125,1.250455617904663,-2.3476359844207764,0.9248740077018738
1776555959145741600,2.863741455078125,1.17628014087677,-2.0642216205596924,1.0161000490188599
1776555959155783400,2.873783447265625,1.0163050889968872,-1.8635048866271973,1.0797200202941895
1776555959165824500,2.883824462890625,1.696293830871582,-0.7680689692497253,1.2230205535888672
1776555959175866400,2.893866455078125,1.8516432046890259,-1.4837559461593628,0.8512181639671326
1776555959185907500,2.903907470703125,1.9769585132598877,-1.368005633354187,1.0891939401626587
1776555959195949300,2.91394921875,2.3010454177856445,-1.0811398029327393,0.03714630380272865
1776555959205990400,2.923990478515625,2.6099212169647217,-1.5541632175445557,0.09063376486301422
1776555959216032500,2.934032470703125,2.7886903285980225,-1.8831877708435059,-0.20542292296886444
1776555959226073600,2.944073486328125,2.769990921020508,-2.4171576499938965,-0.5663145184516907
1776555959236115500,2.954115478515625,2.8257155418395996,-3.004561424255371,-1.213401436805725
1776555959246156500,2.964156494140625,3.1846303939819336,-3.3558647632598877,-1.6495318412780762
1776555959256198400,2.974198486328125,3.6271371841430664,-4.349118709564209,-2.222217559814453
1776555959266240300,2.984240234375,3.8435118198394775,-4.899313926696777,-1.69346284866333
1776555959276281600,2.994281494140625,3.1905736923217773,-4.734553337097168,1.0743790864944458
1776555959286323500,3.004323486328125,2.944535970687866,-4.2542266845703125,2.519784688949585
1776555959296364500,3.014364501953125,2.7406601905822754,-2.803196668624878,2.324430227279663
1776555959306406400,3.024406494140625,2.211545944213867,-1.8753665685653687,1.1464364528656006
1776555959316447500,3.034447509765625,1.5288206338882446,-0.6792051196098328,1.3647429943084717
1776555959326489300,3.0444892578125,0.7457304000854492,0.7230751514434814,0.9705759882926941
1776555959336530400,3.054530517578125,0.18378235399723053,-0.26051947474479675,0.3357905149459839
1776555959346572300,3.064572265625,-0.38327866792678833,-1.0564464330673218,0.21055111289024353
1776555959356613400,3.07461328125,-0.8826898336410522,0.9441249370574951,-0.1304490864276886
1776555959366655500,3.084655517578125,-0.938820481300354,0.6644203662872314,0.1528657078742981
1776555959376696600,3.094696533203125,-0.831821858882904,-0.429292768239975,0.17174485325813293
1776555959386738400,3.104738525390625,-0.7314997911453247,-0.9400843977928162,0.14210174977779388
1776555959396779500,3.114779541015625,-0.5927120447158813,-1.3127663135528564,-0.02718980982899666
1776555959406821400,3.1248212890625,-0.13202834129333496,-0.7941849827766418,-0.16134575009346008
1776555959416863500,3.134863525390625,0.17384690046310425,0.03804778307676315,-0.3775142729282379
1776555959426904300,3.144904296875,0.26203322410583496,0.29141345620155334,0.2899625897407532
1776555959436946400,3.154946533203125,0.23769618570804596,0.29875847697257996,0.7459226250648499
1776555959446987300,3.1649873046875,0.17988960444927216,0.529155433177948,0.8153795003890991
1776555959457029600,3.175029541015625,0.11353455483913422,0.642573356628418,0.6486949324607849
1776555959467070500,3.185070556640625,0.017619207501411438,0.6972795128822327,0.4633801579475403
1776555959477112600,3.195112548828125,-0.07882184535264969,0.6999029517173767,0.24171222746372223
1776555959487153400,3.2051533203125,-0.10434504598379135,1.126139760017395,0.02575995773077011
1776555959497195500,3.215195556640625,-0.11572632938623428,1.4417821168899536,0.06439629942178726
1776555959507236600,3.225236572265625,-0.21207177639007568,1.8998700380325317,0.20120128989219666
1776555959517278500,3.235278564453125,-0.2911926805973053,2.468062400817871,0.36476650834083557
1776555959527319600,3.245319580078125,-0.2457200139760971,2.686180830001831,0.5370924472808838
1776555959537361400,3.255361328125,-0.08606910705566406,2.5826048851013184,0.6198097467422485
1776555959547402500,3.265402587890625,0.06090249866247177,2.254228115081787,0.529751718044281
1776555959557444600,3.275444580078125,0.16314391791820526,1.754001498222351,0.3147464990615845
1776555959567486500,3.285486572265625,0.2076866179704666,1.2929593324661255,0.019533220678567886
1776555959577527600,3.295527587890625,0.22479422390460968,0.8727471828460693,-0.2814580500125885
1776555959587569400,3.3055693359375,0.20305697619915009,0.4606885015964508,-0.419761598110199
1776555959597610500,3.315610595703125,0.23318079113960266,0.003346528159454465,-0.38360917568206787
1776555959607652400,3.32565234375,0.2921692728996277,-0.47917139530181885,-0.19597643613815308
1776555959617693400,3.335693359375,0.3459773659706116,-0.9794496297836304,0.04790254309773445
1776555959627735300,3.3457353515625,0.3330730199813843,-1.3075313568115234,0.25167909264564514
1776555959637776400,3.3557763671875,0.3121989071369171,-1.3847814798355103,0.3711450397968292
1776555959647818500,3.365818603515625,0.3005790114402771,-1.226037859916687,0.4381161034107208
1776555959657859600,3.375859619140625,0.2880251407623291,-0.8897541165351868,0.49091991782188416
1776555959667901400,3.3859013671875,0.21127815544605255,-0.44779935479164124,0.4757388234138489
1776555959677942500,3.395942626953125,-0.0018956380663439631,-0.09781098365783691,0.38447070121765137
1776555959687984400,3.405984375,-0.2729330062866211,0.17142528295516968,0.23944240808486938
1776555959698026500,3.416026611328125,-0.39604800939559937,0.505987286567688,0.1763705015182495
1776555959708067300,3.4260673828125,-0.46574851870536804,0.6517769694328308,0.16424965858459473
1776555959718109400,3.436109375,-0.5021539330482483,0.6284122467041016,0.129074364900589
1776555959728150300,3.446150390625,-0.45899367332458496,0.5182482004165649,0.06027932092547417
1776555959738192600,3.456192626953125,-0.3123110234737396,0.3745823800563812,-0.002427204977720976
1776555959748233500,3.4662333984375,-0.12466896325349808,0.2058706134557724,-0.03435051813721657
1776555959758275600,3.476275634765625,0.01332699041813612,0.04216423258185387,-0.039440084248781204
1776555959768316400,3.48631640625,0.0548001304268837,-0.08923613280057907,-0.04499783366918564
1776555959778358500,3.496358642578125,0.055630773305892944,-0.1468120813369751,-0.0687955766916275
1776555959788399400,3.5063994140625,0.07275143265724182,-0.11317609250545502,-0.11782357096672058
1776555959798441500,3.51644140625,0.1409454047679901,-0.01793958619236946,-0.15164092183113098
1776555959808483300,3.5264833984375,0.20103271305561066,0.07580581307411194,-0.15033064782619476
1776555959818524400,3.5365244140625,0.2175040990114212,0.10415356606245041,-0.10929054021835327
1776555959828566500,3.54656640625,0.2194031924009323,0.07664124667644501,-0.06928347051143646
1776555959838607600,3.556607666015625,0.22998899221420288,0.006774283014237881,-0.06015121936798096
1776555959848649500,3.5666494140625,0.24053138494491577,-0.09524529427289963,-0.0804373174905777
1776555959858690600,3.576690673828125,0.23343992233276367,-0.2097519040107727,-0.11613592505455017
1776555959868732400,3.586732421875,0.252994179725647,-0.301901251077652,-0.1414111852645874
1776555959878773500,3.5967734375,0.28418219089508057,-0.3746987581253052,-0.16565261781215668
1776555959888815400,3.6068154296875,0.296962708234787,-0.45108968019485474,-0.1903291940689087
1776555959898856400,3.6168564453125,0.2791759669780731,-0.5322772264480591,-0.21598848700523376
1776555959908898600,3.626898681640625,0.2629709243774414,-0.6122497916221619,-0.2316926121711731
1776555959918939600,3.636939697265625,0.26129257678985596,-0.661247193813324,-0.23388199508190155
1776555959928981500,3.6469814453125,0.2728794813156128,-0.6593939065933228,-0.21912595629692078
1776555959939023600,3.657023681640625,0.2658596336841583,-0.6140551567077637,-0.2049475610256195
1776555959949064400,3.667064453125,0.22766005992889404,-0.5637917518615723,-0.18259458243846893
1776555959959106600,3.6771064453125,0.16036809980869293,-0.5306755900382996,-0.15808497369289398
1776555959969147400,3.6871474609375,0.10032287240028381,-0.5305014252662659,-0.11267408728599548
1776555959979189500,3.697189453125,0.07214290648698807,-0.5625203251838684,-0.04909510910511017
1776555959989230300,3.707230224609375,0.0812237486243248,-0.6436237096786499,0.024652881547808647
1776555959999272700,3.717272705078125,0.1082891896367073,-0.7584820985794067,0.08442753553390503
1776555960009313500,3.7273134765625,0.14495399594306946,-0.860744297504425,0.13278228044509888
1776555960019355600,3.737355712890625,0.18531100451946259,-0.9231461882591248,0.1631779968738556
1776555960029397500,3.7473974609375,0.23000550270080566,-0.9207764863967896,0.1743968427181244
1776555960039438600,3.7574384765625,0.25708693265914917,-0.8374754786491394,0.14246153831481934
1776555960049480400,3.76748046875,0.26612091064453125,-0.7155706286430359,0.07313759624958038
1776555960059521500,3.777521484375,0.2593705952167511,-0.5719159841537476,-0.02045813761651516
1776555960069563400,3.7875634765625,0.25228631496429443,-0.45056718587875366,-0.11516919732093811
1776555960079604500,3.7976044921875,0.23754490911960602,-0.3617939054965973,-0.19803905487060547
1776555960089646600,3.807646484375,0.21634215116500854,-0.31931567192077637,-0.27180010080337524
1776555960099687700,3.817687744140625,0.20631003379821777,-0.3051058351993561,-0.3204629719257355
1776555960109729500,3.8277294921875,0.17431534826755524,-0.30872881412506104,-0.37627750635147095
1776555960119770600,3.8377705078125,0.09117598086595535,-0.25483229756355286,-0.4288078248500824
1776555960129812500,3.8478125,0.10257058590650558,-0.26070669293403625,-0.4073653817176819
1776555960139854300,3.857854248046875,0.10904792696237564,-0.27936771512031555,-0.3981955647468567
1776555960149895400,3.8678955078125,0.11173026263713837,-0.3643702268600464,-0.4118725061416626
1776555960159937300,3.877937255859375,0.05866624414920807,-0.4741979241371155,-0.48092907667160034
1776555960169978400,3.887978271484375,-0.027698205783963203,-0.5730470418930054,-0.5897285342216492
1776555960180020500,3.8980205078125,-0.1259147822856903,-0.6579366326332092,-0.7381824254989624
1776555960190061600,3.9080615234375,-0.21241958439350128,-0.6898655295372009,-0.9054065942764282
1776555960200103400,3.918103515625,-0.29788947105407715,-0.6653569936752319,-1.0702413320541382
1776555960210144500,3.92814453125,-0.3707823157310486,-0.61962890625,-1.232316255569458
1776555960220186000,3.93818603515625,-0.42078423500061035,-0.5832629203796387,-1.3632493019104004
1776555960230228000,3.94822802734375,-0.45251473784446716,-0.5478338003158569,-1.4611427783966064
1776555960240269000,3.95826904296875,-0.47804832458496094,-0.5178396701812744,-1.5132008790969849
1776555960250311000,3.968310791015625,-0.49337801337242126,-0.5019882917404175,-1.5285402536392212
1776555960260352000,3.97835205078125,-0.5052788853645325,-0.48068833351135254,-1.508839726448059
1776555960270393900,3.988393798828125,-0.5006297826766968,-0.4385067820549011,-1.4860963821411133
1776555960280435000,3.99843505859375,-0.4802401065826416,-0.33152440190315247,-1.4911491870880127
1776555960290476800,4.008476806640625,-0.45009738206863403,-0.16320383548736572,-1.546876311302185
1776555960300518000,4.018517822265625,-0.4307023882865906,0.021154819056391716,-1.6136937141418457
1776555960310560000,4.02856005859375,-0.43173062801361084,0.1708737462759018,-1.6419365406036377
1776555960320601900,4.038601806640625,-0.4502635598182678,0.2254491001367569,-1.5950273275375366
1776555960330643000,4.048642822265625,-0.4652787446975708,0.14842861890792847,-1.453856348991394
1776555960340684800,4.058684814453125,-0.4588988721370697,-0.03164501115679741,-1.2247049808502197
1776555960350726000,4.068725830078125,-0.4332158863544464,-0.242290660738945,-0.9406479597091675
1776555960360767700,4.078767822265625,-0.4021887183189392,-0.40293705463409424,-0.6638370752334595
1776555960370808800,4.088808837890625,-0.38527125120162964,-0.47898417711257935,-0.44628000259399414
1776555960380850700,4.0988505859375,-0.3917270302772522,-0.5038285255432129,-0.29756003618240356
1776555960390891800,4.108891845703125,-0.4084972143173218,-0.45087289810180664,-0.21183742582798004
1776555960400934000,4.118933837890625,-0.4386806786060333,-0.3875059187412262,-0.1593419909477234
1776555960410975000,4.12897509765625,-0.4669746458530426,-0.28432998061180115,-0.12646234035491943
1776555960421016800,4.139016845703125,-0.47591114044189453,-0.17892687022686005,-0.09140714257955551
1776555960431059000,4.149058837890625,-0.48999661207199097,-0.08941962569952011,-0.04229845479130745
1776555960441099800,4.159099853515625,-0.4908996820449829,-0.03375370055437088,0.0036887445021420717
1776555960451142000,4.169141845703125,-0.4820880889892578,0.003868241561576724,0.033718813210725784
1776555960461182700,4.1791826171875,-0.45100367069244385,-0.031033815816044807,0.0722542256116867
1776555960471224800,4.189224853515625,-0.40622979402542114,-0.11832504719495773,0.10766840726137161
1776555960481265700,4.199265625,-0.34300634264945984,-0.2460462599992752,0.14207299053668976
1776555960491308000,4.20930810546875,-0.2983134686946869,-0.37098872661590576,0.1794818788766861
1776555960501350000,4.219349853515625,-0.2682229280471802,-0.5136651992797852,0.20353901386260986
1776555960511391000,4.229390869140625,-0.27134576439857483,-0.6183929443359375,0.1979927122592926
1776555960521432800,4.239432861328125,-0.2897162437438965,-0.6749702095985413,0.18142545223236084
1776555960531474000,4.249473876953125,-0.31317707896232605,-0.6613640785217285,0.1679581105709076
1776555960541515800,4.259515869140625,-0.34073173999786377,-0.6066710352897644,0.15729641914367676
1776555960551556900,4.269556884765625,-0.3478597104549408,-0.5503150820732117,0.12810949981212616
1776555960561598700,4.2795986328125,-0.34292805194854736,-0.5204533338546753,0.1001279354095459
1776555960571639800,4.289639892578125,-0.30740097165107727,-0.493064284324646,0.05721082538366318
1776555960581682000,4.299681884765625,-0.26580610871315,-0.48843705654144287,0.018704179674386978
1776555960591724000,4.30972412109375,-0.234538733959198,-0.508518636226654,0.021328458562493324
1776555960601764900,4.319764892578125,-0.1941060870885849,-0.4692353904247284,0.030219687148928642
1776555960611807000,4.329806884765625,-0.15048165619373322,-0.3727445602416992,0.04952387511730194
1776555960621847800,4.339847900390625,-0.09403541684150696,-0.2077031284570694,0.0826067253947258
1776555960631890000,4.349889892578125,-0.04337223991751671,-0.032280441373586655,0.10420230031013489
1776555960641930800,4.3599306640625,0.013409548439085484,0.114150270819664,0.11659345775842667
1776555960651973000,4.36997314453125,0.07776643335819244,0.20781205594539642,0.11623073369264603
1776555960662014000,4.380013916015625,0.14830158650875092,0.24983753263950348,0.09910447895526886
1776555960672056000,4.39005615234375,0.19605526328086853,0.23448413610458374,0.08193481713533401
1776555960682098000,4.400097900390625,0.24401426315307617,0.1717509925365448,0.061282265931367874
1776555960692139000,4.410138916015625,0.2901575267314911,0.0871596708893776,0.002930276095867157
1776555960702180900,4.420180908203125,0.31020474433898926,-0.000015446334145963192,-0.044859085232019424
1776555960712222000,4.430221923828125,0.2996934950351715,-0.09768901020288467,-0.10662417858839035
1776555960722263800,4.440263916015625,0.2433069348335266,-0.187092125415802,-0.15866315364837646
1776555960732305000,4.450304931640625,0.15624819695949554,-0.2586299479007721,-0.16767475008964539
1776555960742347000,4.460346923828125,0.06397418677806854,-0.33937567472457886,-0.1200459823012352
1776555960752388900,4.470388916015625,-0.021462680771946907,-0.435043066740036,-0.026388464495539665
1776555960762430000,4.480429931640625,-0.07400178909301758,-0.5325965285301208,0.09357655793428421
1776555960772471800,4.490471923828125,-0.07413574308156967,-0.600424587726593,0.19469864666461945
1776555960782513000,4.500512939453125,-0.04912120848894119,-0.628379762172699,0.25919774174690247
1776555960792554800,4.5105546875,-0.04174584895372391,-0.6019995808601379,0.2799576222896576
1776555960802595800,4.520595947265625,-0.058880094438791275,-0.551338255405426,0.291917085647583
1776555960812637700,4.5306376953125,-0.09804720431566238,-0.5042948722839355,0.29904288053512573
1776555960822678800,4.5406787109375,-0.1414354294538498,-0.4702726900577545,0.2972061038017273
1776555960832721000,4.550720947265625,-0.17988693714141846,-0.47400379180908203,0.2683124244213104
1776555960842763000,4.560762939453125,-0.16156545281410217,-0.5135799646377563,0.20371131598949432
1776555960852803800,4.570803955078125,-0.09570015966892242,-0.5850072503089905,0.12350409477949142
1776555960862846000,4.580845947265625,-0.027003122493624687,-0.6594309210777283,0.061406634747982025
1776555960872886800,4.59088671875,0.031570177525281906,-0.7187821269035339,0.03224156051874161
1776555960882929000,4.600928955078125,0.0833558738231659,-0.7471311688423157,0.04117140546441078
1776555960892969700,4.6109697265625,0.12648603320121765,-0.7372497916221619,0.08918447047472
1776555960903011800,4.62101171875,0.1855991631746292,-0.6986967921257019,0.1712857335805893
1776555960913054000,4.631053955078125,0.27286747097969055,-0.6474115252494812,0.26739975810050964
1776555960923095000,4.641094970703125,0.39039090275764465,-0.6047506332397461,0.37911269068717957
1776555960933137000,4.651136962890625,0.5364088416099548,-0.5659017562866211,0.5011166334152222
1776555960943178000,4.661177978515625,0.6635209918022156,-0.4885057508945465,0.6142863035202026
1776555960953219800,4.6712197265625,0.712431788444519,-0.37092268466949463,0.7007165551185608
1776555960963261000,4.681260986328125,0.6514720320701599,-0.22174997627735138,0.7413369417190552
1776555960973302800,4.691302734375,0.49799832701683044,-0.08051428198814392,0.7682729959487915
1776555960983345000,4.701344970703125,0.3295334279537201,0.02431146427989006,0.752111554145813
1776555960993385700,4.7113857421875,0.18866366147994995,0.08136995881795883,0.6753203868865967
1776555961003428000,4.721427978515625,0.06263728439807892,0.15327078104019165,0.5495688319206238
1776555961013469000,4.731468994140625,-0.04778456687927246,0.3048382103443146,0.42906641960144043
1776555961023511000,4.741510986328125,-0.19166450202465057,0.5636287331581116,0.3456476926803589
1776555961033552000,4.7515517578125,-0.3252563774585724,0.8045414686203003,0.28586769104003906
1776555961043594000,4.761593994140625,-0.41275161504745483,0.9155367016792297,0.21845723688602448
1776555961053634800,4.771634765625,-0.5476910471916199,1.0454318523406982,0.10972516238689423
1776555961063677000,4.781677001953125,-0.5306348204612732,1.0686123371124268,0.016528377309441566
1776555961073718800,4.79171875,-0.4953080117702484,0.9257164001464844,-0.04905542731285095
1776555961083759900,4.801759765625,-0.46999359130859375,0.6206493973731995,-0.04290512204170227
1776555961093802000,4.811802001953125,-0.4647620916366577,0.24225471913814545,0.06481281667947769
1776555961103843000,4.821843017578125,-0.47301921248435974,-0.1222449541091919,0.18999657034873962
1776555961113885000,4.831885009765625,-0.4514116644859314,-0.4114759564399719,0.19623689353466034
1776555961123926000,4.841926025390625,-0.3584233820438385,-0.5925703644752502,0.08122721314430237
1776555961133968000,4.8519677734375,-0.1565304845571518,-0.6630911827087402,-0.11573085933923721
1776555961144009700,4.862009765625,0.14352281391620636,-0.5834985971450806,-0.34029287099838257
1776555961154050800,4.87205078125,0.43647530674934387,-0.4538857340812683,-0.56456458568573
1776555961164092700,4.8820927734375,0.6820419430732727,-0.35200464725494385,-0.6794030070304871
1776555961174133800,4.8921337890625,0.9615896940231323,-0.47396862506866455,-0.5001243352890015
1776555961184175900,4.90217578125,1.2539794445037842,-0.39162155985832214,-0.05814160034060478
1776555961194218000,4.912218017578125,1.4167231321334839,-0.4418828785419464,0.6326099634170532
1776555961204258800,4.9222587890625,1.3438971042633057,-0.5445098876953125,1.3606326580047607
1776555961214301000,4.932301025390625,1.0482481718063354,-0.5620361566543579,1.7169697284698486
1776555961224342000,4.942342041015625,0.7078709006309509,-0.42731139063835144,1.7576130628585815
1776555961234384100,4.952384033203125,0.4197717010974884,-0.11225143820047379,1.5618795156478882
1776555961244425000,4.962425048828125,0.2598257064819336,0.2556583881378174,1.3288140296936035
1776555961254467000,4.972467041015625,0.21486729383468628,0.5921208262443542,1.1562905311584473
1776555961264509200,4.98250927734375,0.22991842031478882,0.8074661493301392,1.0277072191238403
1776555961274550300,4.99255029296875,0.26130110025405884,0.8587583899497986,0.8913379311561584
1776555961284592000,5.002592041015625,0.28028813004493713,0.7284349799156189,0.6982230544090271
1776555961294633200,5.01263330078125,0.2820031940937042,0.45322367548942566,0.45926958322525024
1776555961304675000,5.022675048828125,0.2755466103553772,0.10806149244308472,0.19513380527496338
1776555961314716200,5.032716064453125,0.26886263489723206,-0.20327961444854736,-0.008775915019214153
1776555961324758000,5.042758056640625,0.24718981981277466,-0.4104900658130646,-0.10079345852136612
1776555961334800100,5.052800048828125,0.18384040892124176,-0.5233665704727173,-0.08727604895830154
1776555961344841000,5.062841064453125,0.10233010351657867,-0.5322926640510559,-0.025076057761907578
1776555961354883000,5.072883056640625,0.04641490429639816,-0.4156877398490906,0.0484229251742363
1776555961364924200,5.082924072265625,0.03587597608566284,-0.146632581949234,0.11338008940219879
1776555961374966300,5.09296630859375,0.030971763655543327,0.1801719069480896,0.13275271654129028
1776555961385008000,5.103008056640625,-0.0015267902053892612,0.4639125466346741,0.09862671047449112
1776555961395049200,5.11304931640625,-0.045166678726673126,0.6936314702033997,0.05284617096185684
1776555961405091000,5.123091064453125,-0.09033895283937454,0.8645030856132507,0.03736921027302742
1776555961415132200,5.133132080078125,-0.12114986032247543,0.9892300963401794,0.05656927078962326
1776555961425174000,5.143174072265625,-0.1408785581588745,1.052919626235962,0.05734877660870552
1776555961435215000,5.153215087890625,-0.14625254273414612,1.0371893644332886,-0.0002516687090974301
1776555961445257200,5.16325732421875,-0.1352451741695404,0.972003161907196,-0.08072946965694427
1776555961455299000,5.173299072265625,-0.12312139570713043,0.8398829698562622,-0.1527823507785797
1776555961465340200,5.183340087890625,-0.09955242276191711,0.6382164359092712,-0.18979710340499878
1776555961475382000,5.193382080078125,-0.05934028699994087,0.4182840585708618,-0.184963196516037
1776555961485423000,5.203423095703125,-0.008834504522383213,0.21600580215454102,-0.17362771928310394
1776555961495465000,5.21346484375,0.028738437220454216,0.03495665267109871,-0.19865423440933228
1776555961505507000,5.223507080078125,0.04300818592309952,-0.1077544242143631,-0.24334926903247833
1776555961515548000,5.2335478515625,0.034809645265340805,-0.19317078590393066,-0.25618889927864075
1776555961525590300,5.24359033203125,0.008480836637318134,-0.23508122563362122,-0.2534511685371399
1776555961535631000,5.253631103515625,-0.038360703736543655,-0.32789239287376404,-0.27937838435173035
1776555961545673200,5.263673095703125,-0.09151047468185425,-0.4888168275356293,-0.3129435181617737
1776555961555714000,5.273714111328125,-0.14957989752292633,-0.5863087773323059,-0.28804564476013184
1776555961565756200,5.283756103515625,-0.18650995194911957,-0.5170599222183228,-0.15523645281791687
1776555961575798000,5.293798095703125,-0.19111695885658264,-0.27907106280326843,0.014586132951080799
1776555961585839000,5.303839111328125,-0.20214563608169556,0.004795287735760212,0.09520161896944046
1776555961595881000,5.313880859375,-0.2043696492910385,0.20913511514663696,0.04309021309018135
1776555961605922000,5.323922119140625,-0.18146993219852448,0.26576218008995056,-0.07494375109672546
1776555961615964200,5.333964111328125,-0.1207924634218216,0.22607414424419403,-0.19512608647346497
1776555961626006000,5.344006103515625,-0.03879852965474129,0.05213164538145065,-0.3018735647201538
1776555961636047000,5.354047119140625,0.03411456197500229,-0.289309561252594,-0.3932807147502899
1776555961646089000,5.3640888671875,0.09169050306081772,-0.6999695301055908,-0.46579378843307495
1776555961656130000,5.374130126953125,0.1391911804676056,-1.041852593421936,-0.5093292593955994
1776555961666172000,5.384171875,0.17894817888736725,-1.1989071369171143,-0.5303307175636292
1776555961676214300,5.39421435546875,0.1893177330493927,-1.171776533126831,-0.5446025729179382
1776555961686255000,5.404255126953125,0.18829374015331268,-0.9910743236541748,-0.5290462970733643
1776555961696297200,5.414297119140625,0.16753919422626495,-0.7158465385437012,-0.49051138758659363
1776555961706338000,5.424338134765625,0.1423685997724533,-0.4545150399208069,-0.4293082356452942
1776555961716380200,5.434380126953125,0.10246299207210541,-0.3002093732357025,-0.3686526119709015
1776555961726421000,5.4444208984375,0.03814046084880829,-0.2831307649612427,-0.2641022205352783
1776555961736463000,5.454463134765625,-0.036917004734277725,-0.36001941561698914,-0.13810621201992035
1776555961746505000,5.4645048828125,-0.08634447306394577,-0.41400331258773804,-0.02257455140352249
1776555961756546000,5.474546142578125,-0.13217215240001678,-0.3798796832561493,0.06494490802288055
1776555961766588200,5.484588134765625,-0.3119163513183594,-0.357109934091568,0.16334737837314606
1776555961776629200,5.494629150390625,-0.5400022268295288,-0.301817387342453,0.24480842053890228
1776555961786671000,5.504671142578125,-0.6708673238754272,-0.1738777905702591,0.2756020128726959
1776555961796713200,5.514713134765625,-0.641523540019989,-0.03172117844223976,0.24202008545398712
1776555961806754000,5.524754150390625,-0.538189172744751,0.05649203807115555,0.2076708972454071
1776555961816796200,5.534796142578125,-0.41781482100486755,0.08036035299301147,0.22023490071296692
1776555961826837000,5.5448369140625,-0.29352056980133057,0.08164692670106888,0.29366835951805115
1776555961836879000,5.554879150390625,-0.1400681585073471,0.10249868035316467,0.40160176157951355
1776555961846921200,5.564921142578125,0.05010204762220383,0.14175979793071747,0.4724237322807312
1776555961856962300,5.57496240234375,0.24164244532585144,0.06490869075059891,0.44804835319519043
1776555961867004200,5.585004150390625,0.34549427032470703,-0.2182585597038269,0.2681446373462677
1776555961877045200,5.595045166015625,0.3300900161266327,-0.5806865692138672,0.0720137432217598
1776555961887087000,5.605087158203125,0.2565945088863373,-0.8128119111061096,0.007800132501870394
1776555961897129000,5.61512890625,0.19557109475135803,-0.8533052802085876,0.08557002991437912
1776555961907170000,5.625170166015625,0.16927984356880188,-0.7516313791275024,0.26108884811401367
1776555961917212000,5.6352119140625,0.1721171736717224,-0.5861974358558655,0.4310927987098694
1776555961927253000,5.6452529296875,0.21159400045871735,-0.40931135416030884,0.5387876033782959
1776555961937295000,5.655295166015625,0.28323543071746826,-0.30851230025291443,0.5443480014801025
1776555961947337200,5.665337158203125,0.3854507505893707,-0.3307454288005829,0.4392806887626648
1776555961957378000,5.6753779296875,0.5059571862220764,-0.40829455852508545,0.31686636805534363
1776555961967420200,5.685420166015625,0.61067134141922,-0.4859052002429962,0.23204176127910614
1776555961977461000,5.6954609375,0.6296098828315735,-0.5428798198699951,0.18605536222457886
1776555961987503000,5.705503173828125,0.5551117062568665,-0.5919221639633179,0.213171124458313
1776555961997545000,5.715544921875,0.4507719576358795,-0.5179528594017029,0.30141711235046387
1776555962007586000,5.7255859375,0.3923640549182892,-0.3472706079483032,0.40449875593185425
1776555962017628200,5.735628173828125,0.40415334701538086,-0.12922483682632446,0.42516860365867615
1776555962027670300,5.745670166015625,0.4277611970901489,0.09792789816856384,0.36646801233291626
1776555962037711000,5.755711181640625,0.3915563225746155,0.25200721621513367,0.22203359007835388
1776555962047753200,5.765753173828125,0.2992610037326813,0.3190312385559082,0.1269526183605194
1776555962057794000,5.7757939453125,0.20145854353904724,0.3000541031360626,0.11369487643241882
1776555962067836200,5.785836181640625,0.13582494854927063,0.22432711720466614,0.14930373430252075
1776555962077878000,5.7958779296875,0.10438765585422516,0.1324315369129181,0.24242569506168365
1776555962087919000,5.805919189453125,0.12514379620552063,0.061163753271102905,0.3083929717540741
1776555962097961200,5.815961181640625,0.17972661554813385,0.04735127091407776,0.3228997588157654
1776555962108002300,5.826002197265625,0.24619193375110626,0.09646901488304138,0.25394731760025024
1776555962118044200,5.836044189453125,0.269356369972229,0.17614467442035675,0.20642641186714172
1776555962128086000,5.8460859375,0.2544653117656708,0.2606654167175293,0.17437154054641724
1776555962138127000,5.856127197265625,0.21328698098659515,0.2974388599395752,0.19234015047550201
1776555962148169000,5.8661689453125,0.15567348897457123,0.2580408751964569,0.2391052544116974
1776555962158210000,5.8762099609375,0.08614260703325272,0.13339294493198395,0.2864847481250763
1776555962168252000,5.886251953125,0.040472324937582016,-0.01726660504937172,0.31292009353637695
1776555962178294300,5.896294189453125,0.008479238487780094,-0.14071477949619293,0.3349819779396057
1776555962188335000,5.906335205078125,-0.00010093380114994943,-0.21434985101222992,0.39972981810569763
1776555962198377200,5.916377197265625,0.005113002844154835,-0.23339304327964783,0.4500252306461334
1776555962208419000,5.926419189453125,0.03783499822020531,-0.20439761877059937,0.5079673528671265
1776555962218460400,5.93646044921875,0.0964953824877739,-0.14607171714305878,0.5311437845230103
1776555962228502300,5.946502197265625,0.15519917011260986,-0.09818915277719498,0.502852737903595
1776555962238543400,5.95654345703125,0.17332623898983002,-0.029164809733629227,0.46514344215393066
1776555962248585200,5.966585205078125,0.14762887358665466,0.05905160307884216,0.46804603934288025
1776555962258627000,5.976626953125,0.09748927503824234,0.15298022329807281,0.4738740921020508
1776555962268668200,5.986668212890625,0.06277443468570709,0.18327021598815918,0.49796319007873535
1776555962278710000,5.9967099609375,0.11717509478330612,0.10521909594535828,0.4424205720424652
1776555962288751000,6.006751220703125,0.25377926230430603,0.030060430988669395,0.40566733479499817
1776555962298793200,6.016793212890625,0.40378209948539734,0.044197555631399155,0.4370553493499756
1776555962308835300,6.02683544921875,0.5135306715965271,0.150238499045372,0.42190515995025635
1776555962318876200,6.036876220703125,0.4900597333908081,0.24456927180290222,0.36367595195770264
1776555962328918300,6.046918212890625,0.37100788950920105,0.27121737599372864,0.24376845359802246
1776555962338960100,6.056960205078125,0.258860319852829,0.2412477731704712,0.1733211874961853
1776555962349001200,6.067001220703125,0.26583433151245117,0.19207650423049927,0.10282251983880997
1776555962359043000,6.07704296875,0.3722337484359741,0.12532968819141388,0.10711020976305008
1776555962369084200,6.087084228515625,0.5255476832389832,0.1007055714726448,0.19049938023090363
1776555962379126300,6.097126220703125,0.6805726885795593,0.13331064581871033,0.3072792589664459
1776555962389168400,6.10716845703125,0.7554011344909668,0.1900130808353424,0.4051773250102997
1776555962399209200,6.117209228515625,0.7573995590209961,0.2370692789554596,0.3914010524749756
1776555962409251300,6.127251220703125,0.7172654271125793,0.2986559271812439,0.38474902510643005
1776555962419292200,6.137292236328125,0.6848233342170715,0.3471188247203827,0.39838919043540955
1776555962429334300,6.147334228515625,0.6614881753921509,0.34910765290260315,0.43835151195526123
1776555962439376100,6.157376220703125,0.656831681728363,0.3147986829280853,0.4855363368988037
1776555962449417200,6.167417236328125,0.6759560704231262,0.28454092144966125,0.5275919437408447
1776555962459459300,6.177459228515625,0.725368082523346,0.26097726821899414,0.5526317358016968
1776555962469501200,6.187501220703125,0.7921058535575867,0.2413998395204544,0.588853120803833
1776555962479542300,6.197542236328125,0.8591221570968628,0.21113674342632294,0.6675397157669067
1776555962489584000,6.207584228515625,0.92194002866745,0.17330573499202728,0.7695915102958679
1776555962499625200,6.217625244140625,0.9802160859107971,0.15005022287368774,0.8692831993103027
1776555962509667000,6.2276669921875,1.0186755657196045,0.17397019267082214,0.9026132225990295
1776555962519709200,6.237709228515625,1.010709524154663,0.2730054259300232,0.9084415435791016
1776555962529750000,6.24775,0.9590943455696106,0.4065110385417938,0.8628492951393127
1776555962539792400,6.25779248046875,0.8698107600212097,0.5016093254089355,0.7928107976913452
1776555962549834200,6.267834228515625,0.7886331081390381,0.5326859951019287,0.7032742500305176
1776555962559875300,6.277875244140625,0.7672223448753357,0.5054354667663574,0.599306583404541
1776555962569917200,6.287917236328125,0.7930331826210022,0.43922051787376404,0.5311080813407898
1776555962579959000,6.297958984375,0.8615992069244385,0.3438947796821594,0.5238701701164246
1776555962590000000,6.308000244140625,0.9487018585205078,0.26116156578063965,0.584062397480011
1776555962600042200,6.318042236328125,1.0354881286621094,0.20861420035362244,0.6900492906570435
1776555962610083300,6.328083251953125,1.0819451808929443,0.24507899582386017,0.8102909922599792
1776555962620125200,6.338125244140625,1.0728358030319214,0.38542890548706055,0.8688469529151917
1776555962630167300,6.348167236328125,0.9666515588760376,0.6430748105049133,0.7776060104370117
1776555962640208100,6.3582080078125,0.7639426589012146,0.9627300500869751,0.490108460187912
1776555962650250200,6.368250244140625,0.5262784361839294,1.184783935546875,0.13463370501995087
1776555962660292000,6.3782919921875,0.26215997338294983,1.2428327798843384,-0.18383827805519104
1776555962670333200,6.388333251953125,-0.0020666129421442747,1.1844112873077393,-0.40053728222846985
1776555962680375300,6.398375244140625,-0.2472745031118393,1.1255162954330444,-0.4891510605812073
1776555962690416400,6.40841650390625,-0.46602335572242737,1.0861358642578125,-0.45505112409591675
1776555962700458200,6.418458251953125,-0.6459558606147766,1.0441386699676514,-0.3587741255760193
1776555962710500400,6.428500244140625,-0.8039060831069946,1.0066949129104614,-0.3496970236301422
1776555962720541200,6.438541259765625,-0.9925920963287354,0.9082804322242737,-0.5207982063293457
1776555962730583300,6.448583251953125,-1.1997284889221191,0.7390229105949402,-0.8417966961860657
1776555962740625200,6.458625244140625,-1.3689236640930176,0.5048906207084656,-1.211694598197937
1776555962750666200,6.468666259765625,-1.450846791267395,0.24100568890571594,-1.5160763263702393
1776555962760708400,6.478708251953125,-1.474323034286499,-0.033903371542692184,-1.6854270696640015
1776555962770749400,6.48874951171875,-1.4740359783172607,-0.295134961605072,-1.7188520431518555
1776555962780791300,6.498791259765625,-1.4659311771392822,-0.4874093532562256,-1.6672251224517822
1776555962790833200,6.508833251953125,-1.441140055656433,-0.5734073519706726,-1.5696791410446167
1776555962800874200,6.518874267578125,-1.4069818258285522,-0.5417367815971375,-1.4719387292861938
1776555962810916000,6.528916015625,-1.366949439048767,-0.41128313541412354,-1.4235475063323975
1776555962820958200,6.538958251953125,-1.3163658380508423,-0.2020827978849411,-1.4387540817260742
1776555962830999000,6.5489990234375,-1.2906274795532227,0.0672895610332489,-1.5159953832626343
1776555962841041400,6.55904150390625,-1.2646430730819702,0.3399128317832947,-1.6284425258636475
1776555962851083300,6.569083251953125,-1.2460172176361084,0.556187093257904,-1.7458975315093994
1776555962861124400,6.579124267578125,-1.2298924922943115,0.7100831866264343,-1.834908366203308
1776555962871166200,6.589166259765625,-1.22221040725708,0.8211953043937683,-1.8595829010009766
1776555962881207300,6.599207275390625,-1.2234615087509155,0.8812581300735474,-1.8209280967712402
1776555962891249200,6.609249267578125,-1.1916894912719727,0.9637300968170166,-1.704243540763855
1776555962901291000,6.619291015625,-1.1225980520248413,1.0559897422790527,-1.5469365119934082
1776555962911332000,6.62933203125,-1.0209438800811768,1.178054928779602,-1.336844563484192
1776555962921374200,6.639374267578125,-0.9077131748199463,1.3238887786865234,-1.105282187461853
1776555962931416300,6.649416259765625,-0.8220943808555603,1.3898768424987793,-0.9062260389328003
1776555962941457200,6.65945703125,-0.7510036826133728,1.3660314083099365,-0.737684965133667
1776555962951499300,6.669499267578125,-0.7462062835693359,1.303678274154663,-0.5905205607414246
1776555962961541000,6.679541015625,-0.8300228714942932,1.156693458557129,-0.45878809690475464
1776555962971582200,6.689582275390625,-0.9565746784210205,0.8128942251205444,-0.38465315103530884
1776555962981624000,6.6996240234375,-1.1299477815628052,0.3203228712081909,-0.3536693751811981
1776555962991665200,6.7096650390625,-1.2930792570114136,-0.1711810678243637,-0.3357764184474945
1776555963001707300,6.719707275390625,-1.4174525737762451,-0.6038336753845215,-0.32506757974624634
1776555963011749400,6.729749267578125,-1.5309079885482788,-0.9137393236160278,-0.3273552358150482
1776555963021790200,6.739790283203125,-1.6598784923553467,-0.930312991142273,-0.37314242124557495
1776555963031832300,6.749832275390625,-1.8195626735687256,-0.6402433514595032,-0.45824533700942993
1776555963041874200,6.759874267578125,-1.9743927717208862,-0.15615125000476837,-0.5568840503692627
1776555963051915300,6.769915283203125,-2.044297933578491,0.3113277852535248,-0.6317766308784485
1776555963061957000,6.77995703125,-1.984712839126587,0.604994535446167,-0.6420276761054993
1776555963071999200,6.789999267578125,-1.7936296463012695,0.6799862384796143,-0.6437909603118896
1776555963082040300,6.800040283203125,-1.4889720678329468,0.5059494972229004,-0.6437169313430786
1776555963092082200,6.810082275390625,-1.1343811750411987,0.12190007418394089,-0.6494075655937195
1776555963102124300,6.820124267578125,-0.8606694936752319,-0.39364343881607056,-0.6818957328796387
1776555963112165000,6.8301650390625,-0.7300209403038025,-0.9240894317626953,-0.7530404925346375
1776555963122207200,6.840207275390625,-0.6947351098060608,-1.2097662687301636,-0.8322122693061829
1776555963132248000,6.850248046875,-0.6901515126228333,-1.227990746498108,-0.8797560930252075
1776555963142290200,6.860290283203125,-0.7289782762527466,-1.0221822261810303,-0.852075457572937
1776555963152332300,6.870332275390625,-0.7660990357398987,-0.7561963200569153,-0.7410847544670105
1776555963162373400,6.880373291015625,-0.7997992038726807,-0.5146974325180054,-0.5730685591697693
1776555963172415200,6.890415283203125,-0.83877032995224,-0.3376624584197998,-0.3933406472206116
1776555963182457000,6.90045703125,-0.8651116490364075,-0.22862066328525543,-0.22414734959602356
1776555963192498200,6.910498291015625,-0.8777653574943542,-0.14441177248954773,-0.07006004452705383
1776555963202540000,6.9205400390625,-0.8738396167755127,-0.11862678080797195,0.056472331285476685
1776555963212582100,6.93058203125,-0.8309581875801086,-0.2632460296154022,0.1268727332353592
1776555963222623000,6.940623046875,-0.7996865510940552,-0.461416631937027,0.12444419413805008
1776555963232664800,6.950664794921875,-0.7891028523445129,-0.6334072947502136,0.06233954057097435
1776555963242706700,6.960706787109375,-0.8157307505607605,-0.6967995762825012,0.005793706979602575
1776555963252747800,6.970747802734375,-0.8548986911773682,-0.6346427202224731,-0.024894697591662407
1776555963262790000,6.980789794921875,-0.9107866883277893,-0.41648271679878235,-0.04080894961953163
1776555963272832000,6.99083203125,-0.9521876573562622,-0.06572335213422775,-0.036202479153871536
1776555963282872800,7.000872802734375,-0.9540534615516663,0.30284056067466736,-0.027159715071320534
1776555963292915000,7.0109150390625,-0.8743501305580139,0.5433464050292969,-0.04160177335143089
1776555963302955800,7.020955810546875,-0.7100203037261963,0.5199158787727356,-0.1534537374973297
1776555963312998000,7.030997802734375,-0.5548354983329773,0.22639451920986176,-0.30194228887557983
1776555963323039700,7.041039794921875,-0.5218362808227539,-0.28805920481681824,-0.49426084756851196
1776555963333080800,7.051080810546875,-0.5974774956703186,-0.8493443727493286,-0.6503966450691223
1776555963343123000,7.061123046875,-0.7239627838134766,-1.3248944282531738,-0.7444334030151367
1776555963353164800,7.071164794921875,-0.8739458918571472,-1.6761573553085327,-0.7760320901870728
1776555963363206000,7.081205810546875,-0.9731536507606506,-1.9364850521087646,-0.8139283061027527
1776555963373247700,7.091247802734375,-1.0232030153274536,-2.081882953643799,-0.8506519794464111
1776555963383289900,7.101289794921875,-1.0817880630493164,-1.9905184507369995,-0.8241963982582092
1776555963393330700,7.11133056640625,-1.1753315925598145,-1.6274406909942627,-0.6572843790054321
1776555963403372800,7.121372802734375,-1.2744970321655273,-1.2001657485961914,-0.3522304892539978
1776555963413415000,7.131414794921875,-1.3312737941741943,-0.7383856177330017,-0.09938038140535355
1776555963423456000,7.1414560546875,-1.493765950202942,0.8282976746559143,-0.5765144228935242
1776555963433497900,7.151497802734375,-1.8346830606460571,3.6343729496002197,-1.7481242418289185
1776555963443540000,7.1615400390625,-2.4055991172790527,5.128061294555664,-1.9578229188919067
1776555963453580800,7.171580810546875,-2.9419755935668945,3.838256359100342,-0.9415294528007507
1776555963463623000,7.181622802734375,-3.4378697872161865,1.4363154172897339,0.010290986858308315
1776555963473664800,7.191664794921875,-3.4970216751098633,-0.7432326078414917,0.07419513165950775
1776555963483705900,7.201705810546875,-2.6805994510650635,-2.056757688522339,-0.9266927242279053
1776555963493748000,7.211748046875,-1.6980916261672974,-3.5185368061065674,-1.4824230670928955
1776555963503789000,7.2217890625,-1.037434697151184,-4.80010986328125,-1.77842378616333
1776555963513831000,7.231830810546875,-0.9312704205513,-5.575457572937012,-2.0425772666931152
1776555963523872800,7.241872802734375,-1.0306681394577026,-5.3234429359436035,-2.047746181488037
1776555963533913900,7.251913818359375,-1.2317341566085815,-2.837536573410034,-1.8664300441741943
1776555963543955700,7.261955810546875,-1.7072148323059082,0.9243267774581909,-1.6089717149734497
1776555963553997800,7.271997802734375,-2.1506288051605225,2.8204281330108643,-0.6611664891242981
1776555963564038700,7.28203857421875,-2.076481342315674,2.4338290691375732,-0.29082971811294556
1776555963574081000,7.2920810546875,-1.8935751914978027,1.4197438955307007,0.307573527097702
1776555963584123000,7.302122802734375,-1.5408778190612793,0.06860888749361038,-0.3182962238788605
1776555963594164000,7.3121640625,-1.2315460443496704,-1.5565632581710815,-0.9379432201385498
1776555963604205800,7.322205810546875,-1.0624148845672607,-2.3620152473449707,-1.111961841583252
1776555963614247700,7.33224755859375,-0.760547935962677,-2.334055185317993,-1.3813145160675049
1776555963624288800,7.342288818359375,-0.5763266682624817,-1.8690069913864136,-1.6273053884506226
1776555963634330600,7.35233056640625,-0.5920055508613586,-1.0891119241714478,-1.5744688510894775
1776555963644373000,7.362373046875,-0.7127487063407898,-0.1723557859659195,-1.2637910842895508
1776555963654413800,7.372413818359375,-0.9088354110717773,0.39081302285194397,-0.7211129069328308
1776555963664456000,7.3824560546875,-0.9269872307777405,0.4386202394962311,-0.449654757976532
1776555963674496800,7.392496826171875,-1.0281423330307007,0.27770137786865234,-0.5344226360321045
1776555963684539000,7.402538818359375,-1.1738897562026978,-0.12950153648853302,-0.5929549336433411
1776555963694580700,7.412580810546875,-1.2528258562088013,-0.24565929174423218,-0.62762850522995
1776555963704621800,7.422621826171875,-1.1398215293884277,-0.18251308798789978,-0.5941451191902161
1776555963714663700,7.43266357421875,-0.8790556788444519,-0.18710437417030334,-0.5097433924674988
1776555963724706000,7.4427060546875,-0.5722142457962036,-0.3615507483482361,-0.5341216921806335
1776555963734747000,7.452746826171875,-0.3681146502494812,-0.4886988401412964,-0.6412404775619507
1776555963744789000,7.4627890625,-0.3008359968662262,-0.4823671877384186,-0.6924232244491577
1776555963754830800,7.472830810546875,-0.34335070848464966,-0.47358009219169617,-0.6088425517082214
1776555963764872000,7.482871826171875,-0.3663580119609833,-0.4492417275905609,-0.519359290599823
1776555963774913800,7.492913818359375,-0.38466352224349976,-0.3458825647830963,-0.5411985516548157
1776555963784955600,7.50295556640625,-0.5834623575210571,-0.010310428217053413,-0.4543893337249756
1776555963794996700,7.512996826171875,-0.8193238973617554,0.2233436107635498,-0.20740193128585815
1776555963805038800,7.523038818359375,-0.8524932861328125,0.06077493354678154,-0.18478502333164215
1776555963815081000,7.5330810546875,-0.7355248928070068,-0.33925503492355347,-0.4756147265434265
1776555963825121800,7.543121826171875,-0.6431241035461426,-0.5797885656356812,-0.6806605458259583
1776555963835164000,7.553163818359375,-0.6168504357337952,-0.5410496592521667,-0.699125349521637
1776555963845205800,7.563205810546875,-0.5800228714942932,-0.38965269923210144,-0.638394832611084
1776555963855246800,7.573246826171875,-0.49335405230522156,-0.4035184383392334,-0.5670772790908813
1776555963865288700,7.583288818359375,-0.3644200265407562,-0.2841819226741791,-0.5204548835754395
1776555963875329800,7.593329833984375,-0.2601921558380127,-0.10815762728452682,-0.3258017897605896
1776555963885372000,7.603371826171875,-0.1853400319814682,0.08345255255699158,-0.1573677808046341
1776555963895413800,7.613413818359375,-0.15029416978359222,0.16539135575294495,-0.21208828687667847
1776555963905454800,7.623454833984375,-0.1465636044740677,0.1435776650905609,-0.3332298994064331
1776555963915496700,7.63349658203125,-0.14649996161460876,0.019515911117196083,-0.3291019797325134
1776555963925538800,7.643538818359375,-0.16019393503665924,0.08953973650932312,-0.3558635711669922
1776555963935580000,7.653579833984375,-0.12337999045848846,0.256058931350708,-0.3486866056919098
1776555963945622000,7.6636220703125,-0.133688822388649,0.28065988421440125,-0.289566308259964
1776555963955664000,7.673663818359375,-0.1595185548067093,0.1240503117442131,-0.20912259817123413
1776555963965705000,7.683705078125,0.013680924661457539,-0.01842401549220085,-0.2795323133468628
1776555963975746800,7.693746826171875,0.1815708577632904,0.018554508686065674,-0.36025646328926086
1776555963985789000,7.703788818359375,0.2659025192260742,0.1833581030368805,-0.23973402380943298
1776555963995829800,7.713829833984375,0.3271371126174927,0.36958763003349304,-0.023612918332219124
1776555964005871900,7.723871826171875,0.30616340041160583,0.5515313148498535,0.13784761726856232
1776555964015914000,7.7339140625,0.3296050727367401,0.6588391661643982,0.274358332157135
1776555964025955000,7.743955078125,0.35463106632232666,0.6464767456054688,0.35464704036712646
1776555964035997000,7.753996826171875,0.45241406559944153,0.36661794781684875,0.3246515989303589
1776555964046038000,7.7640380859375,0.5087026357650757,0.12766048312187195,0.2656910717487335
1776555964056080000,7.774079833984375,0.5738957524299622,0.012349343858659267,0.3484930098056793
1776555964066121700,7.784121826171875,0.6635478734970093,-0.03537210449576378,0.4222969114780426
1776555964076162800,7.794162841796875,0.7159767150878906,-0.04878724738955498,0.5231567025184631
1776555964086204700,7.80420458984375,0.7603892087936401,-0.0368187353014946,0.6636645197868347
1776555964096247000,7.8142470703125,0.7241235971450806,0.16015398502349854,0.755315899848938
1776555964106287900,7.824287841796875,0.6731722950935364,0.2706053853034973,0.8517297506332397
1776555964116330000,7.834330078125,0.6993721723556519,0.24235297739505768,0.96675705909729
1776555964126371800,7.844371826171875,0.7175626754760742,0.233698770403862,1.0263843536376953
1776555964136413000,7.854412841796875,0.7011370658874512,0.2494383305311203,1.0349518060684204
1776555964146454800,7.864454833984375,0.6992848515510559,0.24396313726902008,1.0822111368179321
1776555964156496600,7.87449658203125,0.700844943523407,0.19651386141777039,1.1522397994995117
1776555964166537700,7.884537841796875,0.7505874633789062,0.12704263627529144,1.2083139419555664
1776555964176579800,7.894579833984375,0.8014639616012573,0.0840269923210144,1.2889512777328491
1776555964186622000,7.9046220703125,0.8366307020187378,0.09834680706262589,1.36620032787323
1776555964196662800,7.914662841796875,0.8753283023834229,0.055261123925447464,1.3981294631958008
1776555964206705000,7.924704833984375,0.9050899147987366,0.004120176658034325,1.375009536743164
1776555964216746800,7.934746826171875,0.9445502758026123,-0.012484099715948105,1.4196059703826904
1776555964226788000,7.9447880859375,0.9930663704872131,0.0007291734800674021,1.5415366888046265
1776555964236830000,7.954829833984375,1.0452041625976562,0.011782890185713768,1.637282371520996
1776555964246871000,7.96487109375,1.1251157522201538,0.031069235876202583,1.7063043117523193
1776555964256913200,7.9749130859375,1.2258721590042114,0.10047813504934311,1.7802685499191284
1776555964266955300,7.984955322265625,1.3160202503204346,0.15649427473545074,1.8982598781585693
1776555964276996000,7.99499609375,1.4501577615737915,0.13855068385601044,2.0394697189331055
1776555964287038200,8.0050380859375,1.5991294384002686,0.10473546385765076,2.1990597248077393
1776555964297080000,8.015080078125,1.7766014337539673,0.12349344044923782,2.3476526737213135
1776555964307121200,8.02512109375,1.9595345258712769,0.1614818423986435,2.41154408454895
1776555964317163000,8.0351630859375,2.0718460083007812,0.2345142364501953,2.3257765769958496
1776555964327205000,8.045205078125,2.1431241035461426,0.3037252724170685,2.0364997386932373
1776555964337246200,8.05524609375,2.1396453380584717,0.28217071294784546,1.764243483543396
1776555964347288000,8.0652880859375,2.1067285537719727,0.1905481070280075,1.7098186016082764
1776555964357330200,8.075330078125,2.1433708667755127,0.1550399214029312,1.8145780563354492
1776555964367371000,8.08537109375,2.285043478012085,0.19974559545516968,1.9512840509414673
1776555964377413000,8.0954130859375,2.523057460784912,0.30394843220710754,1.9757001399993896
1776555964387455000,8.105455078125,2.7778780460357666,0.42699047923088074,1.8805395364761353
1776555964397496000,8.11549609375,2.9491498470306396,0.5205116271972656,1.783360481262207
1776555964407538200,8.1255380859375,2.978363275527954,0.6128026843070984,1.7158209085464478
1776555964417580000,8.135580078125,2.877032995223999,0.6682659387588501,1.6568012237548828
1776555964427621000,8.14562109375,2.6565003395080566,0.6924482583999634,1.5564959049224854
1776555964437663000,8.1556630859375,2.374509811401367,0.6735163927078247,1.4388667345046997
1776555964447704000,8.1657041015625,2.1548521518707275,0.599763035774231,1.3630732297897339
1776555964457746000,8.175745849609376,2.0226991176605225,0.48607829213142395,1.3308444023132324
1776555964467788300,8.185788330078125,1.9645161628723145,0.4015205204486847,1.3327670097351074
1776555964477829000,8.1958291015625,1.9431251287460327,0.4046667814254761,1.3413641452789307
1776555964487871200,8.205871337890626,1.9692696332931519,0.4569563567638397,1.3640681505203247
1776555964497913000,8.2159130859375,2.0296194553375244,0.5539460182189941,1.4115365743637085
1776555964507954200,8.2259541015625,2.108757257461548,0.6459997892379761,1.4451690912246704
1776555964517996000,8.23599609375,2.1492245197296143,0.7032976746559143,1.4650222063064575
1776555964528038100,8.2460380859375,2.1213111877441406,0.7605154514312744,1.4862619638442993
1776555964538079000,8.256078857421874,2.1062357425689697,0.7923953533172607,1.4485156536102295
1776555964548121000,8.26612109375,2.1060376167297363,0.8037510514259338,1.3871655464172363
1776555964558163200,8.2761630859375,2.074302911758423,0.7574911713600159,1.304875135421753
1776555964568204300,8.286204345703124,1.9984747171401978,0.6032248735427856,1.257483720779419
1776555964578246100,8.29624609375,1.9165090322494507,0.3760002553462982,1.2449334859848022
1776555964588288000,8.3062880859375,1.7201822996139526,0.1251845508813858,1.2377527952194214
1776555964598329000,8.3163291015625,1.4695179462432861,-0.05892856419086456,1.2040544748306274
1776555964608371000,8.326370849609376,1.2742453813552856,-0.29902851581573486,1.3001115322113037
1776555964618412000,8.336412109375,1.0766944885253906,-0.23044918477535248,1.2168078422546387
1776555964628454100,8.3464541015625,0.9115813970565796,0.0785888209939003,1.052246332168579
1776555964638496300,8.356496337890626,0.7640313506126404,0.41929739713668823,0.9150168895721436
1776555964648537000,8.366537109375,0.7034057974815369,0.6173651814460754,0.9298256635665894
1776555964658579200,8.3765791015625,0.734551727771759,0.653849184513092,0.9646984338760376
1776555964668621000,8.38662109375,0.8897138833999634,0.5157826542854309,0.9575896263122559
1776555964678662100,8.396662109375,0.9540372490882874,0.3498261868953705,0.8534605503082275
1776555964688704000,8.4067041015625,0.8298436403274536,0.16825692355632782,0.6549136638641357
1776555964698746000,8.41674609375,0.6380606293678284,0.06456993520259857,0.4166813790798187
1776555964708787200,8.426787109375,0.4170385003089905,0.013001286424696445,0.1954967975616455
1776555964718829000,8.4368291015625,0.20001591742038727,0.05265548825263977,0.051058921962976456
1776555964728871200,8.44687109375,0.012957610189914703,0.18245795369148254,-0.037221137434244156
1776555964738912000,8.456912109375,-0.14638064801692963,0.39040717482566833,-0.08785475790500641
1776555964748954000,8.4669541015625,-0.2795512080192566,0.6046403646469116,-0.13228373229503632
1776555964758995000,8.476994873046875,-0.36940813064575195,0.8589661121368408,-0.15377038717269897
1776555964769037000,8.487037109375,-0.43302494287490845,1.1170378923416138,-0.11074861884117126
1776555964779079200,8.4970791015625,-0.43801915645599365,1.3127543926239014,0.0007518103811889887
1776555964789120300,8.507120361328125,-0.4060942530632019,1.4415611028671265,0.170076385140419
1776555964799162000,8.517162109375,-0.32530325651168823,1.4542840719223022,0.39812207221984863
1776555964809204200,8.527204345703124,-0.2117396742105484,1.3665574789047241,0.6232055425643921
1776555964819245000,8.5372451171875,-0.10570751875638962,1.2496390342712402,0.8252885937690735
1776555964829287200,8.547287109375,-0.03449326381087303,1.0455464124679565,0.9690870046615601
1776555964839329000,8.5573291015625,-0.0479038767516613,0.8248156309127808,1.0334982872009277
1776555964849370000,8.5673701171875,-0.08555565029382706,0.630542516708374,0.9962459206581116
1776555964859412200,8.577412109375,-0.12149900197982788,0.4738072454929352,0.8632117509841919
1776555964869454000,8.5874541015625,-0.12504340708255768,0.2981182336807251,0.6515255570411682
1776555964879495200,8.5974951171875,-0.12178422510623932,0.13197720050811768,0.4444962441921234
1776555964889537000,8.607537109375,-0.12893055379390717,-0.0714038759469986,0.29734379053115845
1776555964899578000,8.617578125,-0.1829349249601364,-0.26661863923072815,0.21882741153240204
1776555964909620000,8.627619873046875,-0.29257646203041077,-0.38304510712623596,0.19293296337127686
1776555964919662000,8.637662109375,-0.44027990102767944,-0.33472898602485657,0.19319023191928864
1776555964929703000,8.647702880859375,-0.5694850087165833,-0.10991957783699036,0.11764088273048401
1776555964939745300,8.657745361328125,-0.620236337184906,0.24657462537288666,-0.14992478489875793
1776555964949787100,8.667787109375,-0.6008282899856567,0.5506287813186646,-0.4679048955440521
1776555964959828200,8.677828125,-0.5609879493713379,0.6705522537231445,-0.7198886275291443
1776555964969870000,8.6878701171875,-0.535045325756073,0.6218081712722778,-0.8554201126098633
1776555964979912000,8.697911865234374,-0.5043579936027527,0.48335975408554077,-0.9102295637130737
1776555964989953000,8.707953125,-0.44531968235969543,0.3206139802932739,-0.8852145075798035
1776555964999995000,8.717994873046875,-0.3722132444381714,0.16833680868148804,-0.802393913269043
1776555965010036000,8.728035888671876,-0.29709160327911377,0.08900471031665802,-0.6939401626586914
1776555965020078000,8.738078125,-0.21215912699699402,0.051952946931123734,-0.5444819331169128
1776555965030120200,8.7481201171875,-0.14207644760608673,0.043968524783849716,-0.38660311698913574
1776555965040161000,8.7581611328125,-0.07387901842594147,0.030412234365940094,-0.2600449025630951
1776555965050203100,8.768203125,-0.03717000409960747,0.13842950761318207,-0.18274956941604614
1776555965060245000,8.778244873046875,-0.04874729737639427,0.4850772023200989,-0.26202335953712463
1776555965070286000,8.7882861328125,-0.12371128797531128,0.9443271160125732,-0.523844301700592
1776555965080328000,8.798327880859375,-0.22927500307559967,1.2405701875686646,-0.7639282941818237
1776555965090370300,8.808370361328125,-0.31726929545402527,1.2001886367797852,-0.818372905254364
1776555965100411100,8.8184111328125,-0.3266870379447937,0.9210854172706604,-0.7157346606254578
1776555965110453200,8.828453369140625,-0.24186642467975616,0.5236272811889648,-0.5810223817825317
1776555965120494000,8.838494140625,-0.14222398400306702,0.09429693967103958,-0.4872854948043823
1776555965130536200,8.8485361328125,-0.047274038195610046,-0.24195963144302368,-0.4259316027164459
1776555965140578000,8.858578125,0.010962902568280697,-0.4380788207054138,-0.3426249921321869
1776555965150619100,8.868619140625,0.0020066918805241585,-0.5439583659172058,-0.2330676019191742
1776555965160661200,8.8786611328125,-0.0836016833782196,-0.6073610186576843,-0.16360464692115784
1776555965170703000,8.888703125,-0.34653106331825256,-0.6930993795394897,-0.07455013692378998
1776555965180744200,8.898744140625,-0.7049267292022705,-0.7927066683769226,0.013074256479740143
1776555965190786000,8.9087861328125,-0.9769353866577148,-0.8323068022727966,0.026498185470700264
1776555965200827100,8.9188271484375,-0.9760855436325073,-0.8373036980628967,0.004605138208717108
1776555965210869000,8.928868896484374,-0.8153896331787109,-0.8095293045043945,0.029348300769925117
1776555965220910800,8.938910888671876,-0.6584921479225159,-0.7324888706207275,0.2119292914867401
1776555965230951700,8.94895166015625,-0.5689105987548828,-0.6675247550010681,0.5534602403640747
1776555965240993800,8.958993896484374,-0.43852517008781433,-0.5496476888656616,0.8493209481239319
1776555965251035600,8.96903564453125,-0.17299121618270874,-0.40636828541755676,1.0125598907470703
1776555965261076700,8.97907666015625,0.24338442087173462,-0.2548690438270569,1.013540267944336
1776555965271118600,8.98911865234375,0.798662543296814,-0.2371094822883606,0.7696173191070557
1776555965281160700,8.99916064453125,1.3431613445281982,-0.5610137581825256,0.24727770686149597
1776555965291201800,9.009201904296875,1.7273973226547241,-1.2756991386413574,-0.19522036612033844
1776555965301244000,9.019243896484374,1.7901544570922852,-2.0244288444519043,-0.11122692376375198
1776555965311284700,9.02928466796875,1.5708309412002563,-2.4971439838409424,0.29606202244758606
1776555965321326800,9.039326904296875,1.1736100912094116,-2.6942555904388428,0.6937369704246521
1776555965331368700,9.04936865234375,0.7323501110076904,-2.6407930850982666,0.8736885786056519
1776555965341409800,9.059409912109375,0.38335856795310974,-2.364826202392578,0.8197710514068604
1776555965351451600,9.06945166015625,0.1862684041261673,-1.9780889749526978,0.5727987885475159
1776555965361493800,9.07949365234375,0.15916116535663605,-1.4482972621917725,0.24587634205818176
1776555965371534800,9.089534912109375,0.23631799221038818,-0.888983964920044,0.007983357645571232
1776555965381576700,9.09957666015625,0.3753605782985687,-0.3600495159626007,-0.10776454955339432
1776555965391617800,9.10961767578125,0.5155943632125854,0.1351676732301712,0.01679948717355728
1776555965401659600,9.11965966796875,0.5687883496284485,0.46224433183670044,0.2920076251029968
1776555965411701800,9.12970166015625,0.4886453151702881,0.5480740070343018,0.4788520634174347
1776555965421742600,9.13974267578125,0.339744508266449,0.4999943673610687,0.5587186813354492
1776555965431784700,9.14978466796875,0.20987680554389954,0.3782990872859955,0.5333544611930847
1776555965441826800,9.159826904296875,0.12755396962165833,0.22363336384296417,0.3925430178642273
1776555965451868000,9.169867919921876,0.07662846148014069,0.09690417349338531,0.18168431520462036
1776555965461909800,9.17990966796875,0.04254932329058647,0.06761446595191956,0.004071973264217377
1776555965471950800,9.189950927734374,0.019665846601128578,0.11815673112869263,-0.13794775307178497
1776555965481992700,9.19999267578125,-0.019645340740680695,0.19902335107326508,-0.18821598589420319
1776555965492034600,9.21003466796875,-0.03729171305894852,0.2570866644382477,-0.12751348316669464
1776555965502075600,9.22007568359375,0.00041438787593506277,0.23573370277881622,0.05818314477801323
1776555965512117500,9.230117431640625,0.08340167999267578,0.11971175670623779,0.2700687646865845
1776555965522158600,9.24015869140625,0.19149699807167053,-0.010033725760877132,0.4063113033771515
1776555965532200700,9.25020068359375,0.28978440165519714,-0.023562051355838776,0.4581395983695984
1776555965542242800,9.260242919921875,0.37608522176742554,0.07422762364149094,0.37608522176742554
1776555965552283600,9.27028369140625,0.4326009452342987,0.18628305196762085,0.22960203886032104
1776555965562325800,9.28032568359375,0.4377749562263489,0.2303069680929184,0.1408764272928238
1776555965572367600,9.29036767578125,0.39332011342048645,0.21141131222248077,0.1757100373506546
1776555965582408700,9.30040869140625,0.31663599610328674,0.10881116986274719,0.23502449691295624
1776555965592450600,9.310450439453126,0.23149101436138153,-0.03870212286710739,0.22681637108325958
1776555965602491600,9.32049169921875,0.14753592014312744,-0.18366223573684692,0.19472208619117737
1776555965612533800,9.33053369140625,0.05691121891140938,-0.42791059613227844,0.2501949369907379
1776555965622575900,9.340575927734376,-0.025707760825753212,-0.6672906875610352,0.7023024559020996
1776555965632616700,9.35061669921875,0.0006415555253624916,-0.7020553350448608,1.0584763288497925
1776555965642658800,9.360658935546875,0.41150179505348206,-0.6013377904891968,0.7788105607032776
1776555965652700700,9.37070068359375,0.8895671963691711,-0.026491528376936913,0.23052509129047394
1776555965662741800,9.38074169921875,0.9817306399345398,0.8114143013954163,-0.38860365748405457
1776555965672783600,9.39078369140625,0.777804434299469,1.503988265991211,-0.6408734917640686
1776555965682824700,9.40082470703125,0.6128711104393005,1.7282203435897827,-0.5866451263427734
1776555965692866800,9.41086669921875,0.4907417595386505,1.4749443531036377,-0.23567616939544678
1776555965702908700,9.42090869140625,0.329728901386261,0.9100428819656372,0.3503183424472809
1776555965712949800,9.43094970703125,0.10847987234592438,0.12412753701210022,0.845434844493866
1776555965722991600,9.44099169921875,-0.20167586207389832,-0.657291054725647,1.0455037355422974
1776555965733033700,9.45103369140625,-0.4513442814350128,-1.1302024126052856,1.0697425603866577
1776555965743074600,9.461074462890625,-0.4460943937301636,-1.0432281494140625,1.0259428024291992
1776555965753116700,9.47111669921875,-0.17156828939914703,-0.396785169839859,0.9666728973388672
1776555965763157800,9.48115771484375,0.27460360527038574,0.42270705103874207,0.8068336844444275
1776555965773200000,9.491199951171875,0.7491799592971802,0.8713948130607605,0.3965313732624054
1776555965783241700,9.50124169921875,1.1398062705993652,0.7796305418014526,0.06468711793422699
1776555965793282800,9.51128271484375,1.303966760635376,0.4747084677219391,0.24071913957595825
1776555965803324700,9.52132470703125,1.172532320022583,0.23048433661460876,0.6450002789497375
1776555965813365800,9.53136572265625,0.9045703411102295,0.08730641007423401,0.8947976231575012
1776555965823407600,9.54140771484375,0.6532667279243469,0.02744520641863346,0.892201840877533
1776555965833449700,9.55144970703125,0.5617027282714844,0.049848251044750214,0.7974955439567566
1776555965843490800,9.56149072265625,0.6774658560752869,0.08234068006277084,0.7324246764183044
1776555965853532700,9.57153271484375,0.9058907628059387,0.06932927668094635,0.715714693069458
1776555965863573800,9.58157373046875,1.172552227973938,0.0820796862244606,0.8191587924957275
1776555965873615600,9.59161572265625,1.4336938858032227,0.26173412799835205,0.9833024740219116
1776555965883657700,9.60165771484375,1.6345081329345703,0.5840144157409668,1.0710408687591553
1776555965893698800,9.61169873046875,1.739624261856079,0.920512318611145,1.0502660274505615
1776555965903740700,9.62174072265625,1.7472985982894897,1.1832664012908936,0.9826582074165344
1776555965913782800,9.63178271484375,1.650285243988037,1.296860694885254,0.9297609329223633
1776555965923823900,9.641823974609375,1.4660727977752686,1.1976547241210938,0.9215759634971619
1776555965933865700,9.65186572265625,1.310831904411316,0.8807281255722046,0.9306714534759521
1776555965943906800,9.66190673828125,1.2319543361663818,0.5595575571060181,0.9479401707649231
1776555965953948700,9.67194873046875,1.1825143098831177,0.37989434599876404,0.926275908946991
1776555965963990800,9.68199072265625,1.1525706052780151,0.3907800018787384,0.7989640235900879
1776555965974031600,9.692031494140625,1.1382789611816406,0.571139931678772,0.6504011750221252
1776555965984073700,9.70207373046875,1.1599770784378052,0.8389588594436646,0.571204662322998
1776555965994114600,9.712114501953126,1.217592477798462,1.078094482421875,0.583177387714386
1776555966004157000,9.722156982421875,1.2267920970916748,1.1869770288467407,0.5675723552703857
1776555966014198800,9.73219873046875,1.090785026550293,1.1299885511398315,0.4677584171295166
1776555966024239900,9.742239990234374,0.8580036759376526,1.0040771961212158,0.2773780822753906
1776555966034281700,9.75228173828125,0.6182456612586975,0.9078345894813538,0.07890120893716812
1776555966044322800,9.76232275390625,0.4211810529232025,0.8856238126754761,-0.04594991356134415
1776555966054364700,9.77236474609375,0.2668974697589874,0.8412856459617615,-0.13239799439907074
1776555966064406500,9.782406494140625,0.1384233832359314,0.6925888657569885,-0.2348726987838745
1776555966074447600,9.792447509765625,0.009905627928674221,0.4411212205886841,-0.3580199182033539
1776555966084489700,9.80248974609375,-0.1263936311006546,0.15183134377002716,-0.4764792025089264
1776555966094530800,9.81253076171875,-0.28288522362709045,-0.1179114580154419,-0.5963866710662842
1776555966104572700,9.82257275390625,-0.4886426627635956,-0.3289581835269928,-0.7391225099563599
1776555966114614800,9.83261474609375,-0.7409827709197998,-0.4736727476119995,-0.8951206803321838
1776555966124655600,9.842655517578125,-1.021231770515442,-0.5231809020042419,-1.0679705142974854
1776555966134697700,9.85269775390625,-1.3114467859268188,-0.4738445281982422,-1.2362494468688965
1776555966144739600,9.862739501953126,-1.604785680770874,-0.3355977237224579,-1.3756872415542603
1776555966154780700,9.87278076171875,-1.885589361190796,-0.1160815954208374,-1.4928261041641235
1776555966164822800,9.88282275390625,-2.1224913597106934,0.1282770186662674,-1.5765506029129028
1776555966174864000,9.89286376953125,-2.329890012741089,0.3888161778450012,-1.5994956493377686
1776555966184905700,9.90290576171875,-2.476757526397705,0.5874584317207336,-1.580643653869629
1776555966194947800,9.91294775390625,-2.57440185546875,0.6913113594055176,-1.5243582725524902
1776555966204988700,9.92298876953125,-2.6582484245300293,0.6181050539016724,-1.4854494333267212
1776555966215030800,9.93303076171875,-2.675607919692993,0.3345004916191101,-1.5125212669372559
1776555966225071900,9.94307177734375,-2.6097261905670166,-0.10848306864500046,-1.606513261795044
1776555966235114000,9.953114013671875,-2.4404001235961914,-0.6048142910003662,-1.7341910600662231
1776555966245155800,9.96315576171875,-2.169285535812378,-0.9888652563095093,-1.8605316877365112
1776555966255197000,9.973197021484374,-1.8202852010726929,-1.2544727325439453,-1.9407503604888916
1776555966265238800,9.98323876953125,-1.4524496793746948,-1.4106825590133667,-1.9658701419830322
1776555966275280000,9.99327978515625,-1.1397924423217773,-1.5298986434936523,-1.9155550003051758
1776555966285322000,10.003322021484376,-0.9341269135475159,-1.6081788539886475,-1.8861126899719238
1776555966295363800,10.01336376953125,-0.8930473923683167,-1.6026911735534668,-1.9192112684249878
1776555966305405000,10.023405029296875,-0.964900016784668,-1.4466935396194458,-1.991978645324707
1776555966315446800,10.03344677734375,-1.087192416191101,-1.1023201942443848,-2.067487955093384
1776555966325487900,10.04348779296875,-1.2044944763183594,-0.5877090692520142,-2.13198184967041
1776555966335529700,10.05352978515625,-1.2974859476089478,0.028194086626172066,-2.1657326221466064
1776555966345571800,10.06357177734375,-1.3377691507339478,0.6366581916809082,-2.1397809982299805
1776555966355612700,10.07361279296875,-1.3405287265777588,1.0902373790740967,-2.0679240226745605
1776555966365655000,10.083655029296875,-1.311134934425354,1.253081202507019,-1.9465539455413818
1776555966375696000,10.09369580078125,-1.3138518333435059,1.240983486175537,-1.8093534708023071
1776555966385738000,10.103738037109375,-1.3229873180389404,1.0131224393844604,-1.6961917877197266
1776555966395779800,10.11377978515625,-1.2976206541061401,0.61290043592453,-1.5811989307403564
1776555966405821000,10.123821044921876,-1.2910515069961548,0.09985069930553436,-1.4638121128082275
1776555966415862800,10.13386279296875,-1.3015086650848389,-0.4714476764202118,-1.3536765575408936
1776555966425903900,10.14390380859375,-1.3100947141647339,-0.9532998204231262,-1.29790198802948
1776555966435945700,10.15394580078125,-1.3191720247268677,-1.3260499238967896,-1.2740541696548462
1776555966445987800,10.16398779296875,-1.3344570398330688,-1.4617196321487427,-1.3027981519699097
1776555966456029000,10.17402880859375,-1.3267048597335815,-1.2798569202423096,-1.382338523864746
1776555966466070800,10.18407080078125,-1.2773463726043701,-0.8205260634422302,-1.4313606023788452
1776555966476112000,10.19411181640625,-1.152214527130127,-0.2821001410484314,-1.3576198816299438
1776555966486153700,10.20415380859375,-1.0021392107009888,0.17958654463291168,-1.138535737991333
1776555966496195800,10.21419580078125,-0.9022352695465088,0.48770150542259216,-0.8057953119277954
1776555966506236700,10.224236572265625,-0.9284274578094482,0.6335662603378296,-0.45649030804634094
1776555966516278800,10.23427880859375,-1.076757788658142,0.7188729047775269,-0.18045100569725037
1776555966526319600,10.244319580078125,-1.2657299041748047,0.7518860101699829,0.00219524372369051
1776555966536362000,10.254362060546875,-1.413145661354065,0.7399076223373413,0.12255068123340607
1776555966546403800,10.26440380859375,-1.4630810022354126,0.6357284784317017,0.1806989461183548
1776555966556445000,10.27444482421875,-1.3936982154846191,0.4324299693107605,0.1994670331478119
1776555966566486800,10.28448681640625,-1.2644838094711304,0.13413091003894806,0.22018615901470184
1776555966576528000,10.29452783203125,-1.1044338941574097,-0.17701418697834015,0.22271323204040527
1776555966586569700,10.30456982421875,-0.938821017742157,-0.4637146592140198,0.19990672171115875
1776555966596611800,10.31461181640625,-0.777283251285553,-0.695999026298523,0.18384572863578796
1776555966606652700,10.324652587890625,-0.6337540149688721,-0.836390495300293,0.19956983625888824
1776555966616695000,10.334695068359375,-0.524436354637146,-0.9005721211433411,0.2453165501356125
1776555966626735900,10.34473583984375,-0.4591073989868164,-0.9062340259552002,0.291995108127594
1776555966636778000,10.354778076171876,-0.4719584882259369,-0.871576726436615,0.32274290919303894
1776555966646819800,10.36481982421875,-0.5267540812492371,-0.8001014590263367,0.3257557451725006
1776555966656861000,10.37486083984375,-0.564271092414856,-0.6905941367149353,0.299500972032547
1776555966666902800,10.38490283203125,-0.536555290222168,-0.6092508435249329,0.2599109411239624
1776555966676944000,10.39494384765625,-0.40999898314476013,-0.5878496766090393,0.22742517292499542
1776555966686986000,10.404986083984374,-0.241841658949852,-0.582046389579773,0.19072628021240234
1776555966697027800,10.41502783203125,-0.11756338179111481,-0.5568935871124268,0.11955888569355011
1776555966707069000,10.42506884765625,-0.08479291945695877,-0.49272820353507996,0.023446470499038696
1776555966717110800,10.43511083984375,-0.18159136176109314,-0.400147944688797,-0.12883734703063965
1776555966727151900,10.44515185546875,-0.3700640797615051,-0.29630011320114136,-0.2860317528247833
1776555966737193700,10.45519384765625,-0.6184288859367371,-0.18179403245449066,-0.39298564195632935
1776555966747235800,10.46523583984375,-0.9089653491973877,-0.08924199640750885,-0.4596450924873352
1776555966757276700,10.475276611328125,-1.2087379693984985,0.009411877952516079,-0.47021305561065674
1776555966767319000,10.485319091796875,-1.4882450103759766,0.10062248259782791,-0.42594999074935913
1776555966777360000,10.49535986328125,-1.7578165531158447,0.1881248950958252,-0.3763430118560791
1776555966787402000,10.505402099609375,-2.0234925746917725,0.3434678912162781,-0.44506800174713135
1776555966797443800,10.51544384765625,-2.356276750564575,0.7249955534934998,-0.8016972541809082
1776555966807485000,10.52548486328125,-2.727210521697998,1.438684105873108,-1.366895079612732
1776555966817526800,10.53552685546875,-3.1430418491363525,2.2366552352905273,-1.835117220878601
1776555966827567900,10.54556787109375,-3.502458333969116,2.5618093013763428,-1.8115098476409912
1776555966837609700,10.555609619140625,-3.662437915802002,2.2562170028686523,-1.2532106637954712
1776555966847651800,10.56565185546875,-3.5177199840545654,1.24710214138031,-0.8061423301696777
1776555966857693000,10.57569287109375,-2.861281633377075,-0.9757854342460632,-0.7435929179191589
1776555966867734800,10.58573486328125,-1.8938244581222534,-3.6030218601226807,-0.9742045402526855
1776555966877776000,10.59577587890625,-0.9511722326278687,-5.368559837341309,-1.391160488128662
1776555966887818000,10.60581787109375,-0.015778429806232452,-5.817389965057373,-1.7148879766464233
1776555966897858800,10.61585888671875,0.6569643020629883,-5.003627300262451,-2.153430938720703
1776555966907901000,10.62590087890625,0.9549983739852905,-3.7455904483795166,-2.387890577316284
1776555966917942800,10.63594287109375,0.8026080131530762,-2.00939679145813,-2.3246631622314453
1776555966927983900,10.64598388671875,0.35064777731895447,-0.07587825506925583,-2.095928907394409
1776555966938026000,10.65602587890625,-0.2767311930656433,1.7953788042068481,-1.8425668478012085
1776555966948067000,10.666067138671876,-0.945397138595581,2.6364998817443848,-1.0587444305419922
1776555966958109000,10.67610888671875,-1.2941993474960327,0.9204265475273132,-1.1864265203475952
1776555966968150800,10.68615087890625,-1.446321725845337,-0.06390707939863205,-0.7581002116203308
1776555966978192000,10.69619189453125,-1.513924241065979,-0.5551313757896423,-0.6355229020118713
1776555966988233700,10.706233642578125,-1.4969918727874756,-0.24772165715694427,-0.8871064186096191
1776555966998274800,10.71627490234375,-1.3820743560791016,-0.0024855281226336956,-1.2526159286499023
1776555967008316700,10.726316650390626,-1.1749895811080933,-0.2810223400592804,-1.4662693738937378
1776555967018359000,10.736359130859375,-1.058242678642273,-0.5838903188705444,-1.4604159593582153
1776555967028399900,10.74639990234375,-0.9995466470718384,-0.5550141930580139,-1.167600393295288
1776555967038442000,10.75644189453125,-0.9131694436073303,-0.28141355514526367,-0.8909575939178467
1776555967048482800,10.76648291015625,-0.8127110004425049,-0.024056600406765938,-0.7598161101341248
1776555967058525000,10.77652490234375,-0.7399566173553467,0.06436087936162949,-0.7949653267860413
1776555967068565800,10.786565673828125,-0.7990260720252991,0.046238601207733154,-0.8621054291725159
1776555967078608000,10.79660791015625,-0.9164507389068604,0.13283555209636688,-0.7923434376716614
1776555967088649700,10.806649658203124,-0.9620528221130371,0.00869229156523943,-0.650274932384491
1776555967098690800,10.81669091796875,-0.9068721532821655,-0.21845696866512299,-0.5626396536827087
1776555967108733000,10.82673291015625,-0.8040788769721985,-0.49958717823028564,-0.6442338228225708
1776555967118774000,10.83677392578125,-0.665505588054657,-0.6729515194892883,-0.8276726603507996
1776555967128815900,10.84681591796875,-0.5766140818595886,-0.7482457160949707,-0.970572829246521
1776555967138857700,10.856857666015625,-0.5297200679779053,-0.7538415789604187,-1.0142664909362793
1776555967148898800,10.86689892578125,-0.497354120016098,-0.6875054240226746,-1.0042463541030884
1776555967158940700,10.876940673828125,-0.4576708972454071,-0.7068572640419006,-0.8838938474655151
1776555967168981800,10.886981689453124,-0.39593374729156494,-0.7551007270812988,-0.7745897173881531
1776555967179023600,10.897023681640626,-0.34728339314460754,-0.5317070484161377,-0.6881280541419983
1776555967189066000,10.90706591796875,-0.3271743953227997,-0.052131909877061844,-0.5974194407463074
1776555967199106800,10.91710693359375,-0.3725154995918274,0.35947614908218384,-0.47316381335258484
1776555967209149000,10.92714892578125,-0.43720290064811707,0.4635913670063019,-0.31723520159721375
1776555967219189800,10.937189697265625,-0.41857168078422546,0.18686628341674805,-0.2821238338947296
1776555967229232400,10.947232421875,-0.38326483964920044,-0.15631529688835144,-0.41135984659194946
1776555967239273200,10.957273193359375,-0.3433813452720642,-0.31774255633354187,-0.5579397082328796
1776555967249315300,10.9673154296875,-0.2200671136379242,-0.41674476861953735,-0.6514906883239746
1776555967259357200,10.977357177734374,-0.17234674096107483,-0.4022766053676605,-0.6689285635948181
1776555967269398300,10.987398193359375,-0.15462499856948853,-0.3053026497364044,-0.6053429245948792
1776555967279440100,10.997440185546875,-0.13876773416996002,-0.21917308866977692,-0.4719848334789276
1776555967289481200,11.007481201171874,-0.10322971642017365,-0.02070607803761959,-0.35700392723083496
1776555967299523000,11.017523193359375,-0.03588290140032768,-0.019184879958629608,-0.20632894337177277
1776555967309564200,11.027564208984375,-0.017352093011140823,-0.00806218758225441,-0.12418639659881592
1776555967319606300,11.037606201171876,-0.059660665690898895,0.013461479917168617,-0.1619763821363449
1776555967329648400,11.0476484375,-0.12191418558359146,0.16126026213169098,-0.149021178483963
1776555967339689200,11.057689208984375,-0.13433890044689178,0.16237398982048035,-0.08636391907930374
1776555967349731300,11.0677314453125,-0.05054999142885208,0.01954946666955948,-0.10675147920846939
1776555967359772200,11.077772216796875,-0.009382583200931549,-0.09010379016399384,-0.125243678689003
1776555967369814300,11.087814208984375,0.009128783829510212,-0.11111000925302505,-0.0173286572098732
1776555967379856100,11.097856201171876,0.024265125393867493,-0.03839079663157463,0.1206907331943512
1776555967389897200,11.107897216796875,0.021100757643580437,0.05770191177725792,0.24950623512268066
1776555967399939300,11.117939208984374,0.010493653826415539,0.13499057292938232,0.3829074203968048
1776555967409980400,11.12798046875,0.0945747122168541,0.18438315391540527,0.40664657950401306
1776555967420022300,11.138022216796875,0.1621319204568863,0.054604124277830124,0.4148877263069153
1776555967430063400,11.1480634765625,0.19927635788917542,-0.039733562618494034,0.49240168929100037
1776555967440105200,11.158105224609375,0.20994924008846283,-0.05703878402709961,0.5950766801834106
1776555967450147000,11.16814697265625,0.21296340227127075,-0.0006090649403631687,0.6783308386802673
1776555967460188200,11.178188232421874,0.22456279397010803,0.007207312621176243,0.6777681112289429
1776555967470230300,11.188230224609375,0.27917197346687317,-0.0029949909076094627,0.7179368138313293
1776555967480271400,11.198271240234375,0.3266228437423706,0.02953924983739853,0.7312976121902466
1776555967490313200,11.208313232421874,0.40655550360679626,0.03045804053544998,0.8095524907112122
1776555967500354300,11.218354248046875,0.40662315487861633,0.018280204385519028,0.9307383298873901
1776555967510396200,11.228396240234375,0.34214216470718384,0.04701358079910278,0.9701547026634216
1776555967520438300,11.238438232421874,0.35358601808547974,0.15928658843040466,1.01591956615448
1776555967530479000,11.24847900390625,0.41491782665252686,0.17305965721607208,1.1013867855072021
1776555967540521200,11.258521240234375,0.486074298620224,0.1535988748073578,1.1525932550430298
1776555967550562000,11.26856201171875,0.539452314376831,0.12863893806934357,1.1775909662246704
1776555967560604400,11.2786044921875,0.5778856873512268,0.14494866132736206,1.172630786895752
1776555967570645200,11.288645263671874,0.603421151638031,0.15438531339168549,1.2277116775512695
1776555967580687400,11.298687255859376,0.6434175968170166,0.15215331315994263,1.273552656173706
1776555967590729200,11.308729248046875,0.6797228455543518,0.17299868166446686,1.318015217781067
1776555967600770300,11.318770263671874,0.750244677066803,0.11621608585119247,1.324310064315796
1776555967610812200,11.328812255859376,0.8417375683784485,0.07261108607053757,1.2986785173416138
1776555967620853200,11.338853271484375,0.8979558348655701,0.09187133610248566,1.3100578784942627
1776555967630895000,11.34889501953125,0.9290570616722107,0.08764223754405975,1.386077880859375
1776555967640937200,11.358937255859376,1.0159919261932373,0.12109339982271194,1.4634453058242798
1776555967650978300,11.368978271484375,1.151257872581482,0.19027060270309448,1.5674450397491455
1776555967661020200,11.379020263671874,1.3090012073516846,0.16742095351219177,1.7139908075332642
1776555967671061200,11.389061279296875,1.4202622175216675,0.20004893839359283,1.8482282161712646
1776555967681103000,11.39910302734375,1.5183660984039307,0.30324217677116394,1.9900857210159302
1776555967691144200,11.409144287109376,1.5723921060562134,0.4002169072628021,2.159686803817749
1776555967701186300,11.419186279296875,1.7080903053283691,0.44204264879226685,2.3070528507232666
1776555967711228200,11.429228271484375,1.8677880764007568,0.5430254936218262,2.380964756011963
1776555967721269200,11.439269287109376,1.9060883522033691,0.6218464970588684,2.5569145679473877
1776555967731311400,11.449311279296875,1.8772212266921997,0.7777224183082581,2.7874224185943604
1776555967741352200,11.459352294921874,1.8208460807800293,0.9695789217948914,2.927896499633789
1776555967751394300,11.469394287109376,1.7660696506500244,1.0676546096801758,2.9494121074676514
1776555967761435400,11.479435302734375,1.7505226135253906,1.0446478128433228,2.877892255783081
1776555967771477200,11.489477294921874,1.8115583658218384,0.8992011547088623,2.7469894886016846
1776555967781519000,11.49951904296875,1.9813580513000488,0.6939204335212708,2.634716749191284
1776555967791560200,11.509560302734375,2.229910373687744,0.5039246678352356,2.5491442680358887
1776555967801602000,11.51960205078125,2.4713470935821533,0.43069225549697876,2.4541423320770264
1776555967811643100,11.52964306640625,2.601548194885254,0.5163096785545349,2.320448160171509
1776555967821685200,11.539685302734375,2.4917125701904297,0.7280637621879578,2.1271812915802
1776555967831726300,11.549726318359374,2.2345266342163086,0.9204923510551453,2.0109448432922363
1776555967841768200,11.559768310546875,1.8934366703033447,0.9737100005149841,1.9296748638153076
1776555967851810300,11.569810302734375,1.575856328010559,0.9052984714508057,1.922857403755188
1776555967861851100,11.57985107421875,1.3699703216552734,0.8317318558692932,1.897005319595337
1776555967871893200,11.589893310546875,1.2714228630065918,0.7370239496231079,1.8619991540908813
1776555967881934000,11.59993408203125,1.2947410345077515,0.6558294892311096,1.782983660697937
1776555967891976200,11.60997607421875,1.4241490364074707,0.5967824459075928,1.7084686756134033
1776555967902017000,11.62001708984375,1.622252106666565,0.6155683994293213,1.6379585266113281
1776555967912059400,11.630059326171875,1.7846369743347168,0.6653788089752197,1.5013245344161987
1776555967922100200,11.640100341796876,1.882562518119812,0.7241694331169128,1.316980242729187
1776555967932142300,11.650142333984375,1.8939759731292725,0.7254418730735779,1.1397581100463867
1776555967942184200,11.66018408203125,1.8551238775253296,0.6271967887878418,1.0567220449447632
1776555967952225300,11.670225341796876,1.7653881311416626,0.5158710479736328,1.06657075881958
1776555967962267100,11.68026708984375,1.6388726234436035,0.3460223972797394,1.1154096126556396
1776555967972308200,11.69030810546875,1.4523357152938843,0.14083755016326904,1.1809718608856201
1776555967982350000,11.70035009765625,1.2250216007232666,-0.032642100006341934,1.2268251180648804
1776555967992391200,11.71039111328125,1.077934741973877,-0.16866731643676758,1.1096473932266235
1776555968002433300,11.720433349609374,0.9882034659385681,-0.2388724982738495,0.8710081577301025
1776555968012475100,11.73047509765625,0.9425052404403687,-0.22791226208209991,0.5973243713378906
1776555968022516200,11.74051611328125,0.9243600368499756,-0.24128586053848267,0.37197914719581604
1776555968032558000,11.75055810546875,0.9273462295532227,-0.18221241235733032,0.29116714000701904
1776555968042599200,11.76059912109375,0.945180356502533,-0.09745678305625916,0.3764681816101074
1776555968052641300,11.770641357421875,0.9643269181251526,0.03356994315981865,0.5253626108169556
1776555968062682000,11.78068212890625,0.9615162014961243,0.2514117360115051,0.6332086324691772
1776555968072724200,11.79072412109375,0.908866822719574,0.45376724004745483,0.7581239342689514
1776555968082765300,11.800765380859374,0.8324556946754456,0.610447108745575,0.8320618271827698
1776555968092807200,11.81080712890625,0.7300110459327698,0.7283090353012085,0.8105320334434509
1776555968102849300,11.820849365234375,0.6092225909233093,0.8080371618270874,0.7466995120048523
1776555968112890400,11.830890380859374,0.5033078789710999,0.8481611609458923,0.6760871410369873
1776555968122932200,11.84093212890625,0.40068483352661133,0.8964200019836426,0.685682475566864
1776555968132973300,11.850973388671875,0.30830296874046326,0.9493623375892639,0.7335717082023621
1776555968143015200,11.86101513671875,0.22214624285697937,0.9919217824935913,0.783117949962616
1776555968153056300,11.87105615234375,0.13876080513000488,0.9903765916824341,0.8383859992027283
1776555968163098400,11.881098388671875,0.09367749094963074,0.8873887062072754,0.8999367356300354
1776555968173140200,11.89114013671875,0.053458698093891144,0.7820849418640137,0.982974112033844
1776555968183181300,11.901181396484375,0.03207138180732727,0.7524969577789307,1.0494258403778076
1776555968193223200,11.91122314453125,0.025596439838409424,0.7395417094230652,1.03439462184906
1776555968203264300,11.92126416015625,0.015044995583593845,0.7437966465950012,0.9180731177330017
1776555968213306000,11.93130615234375,-0.03957643732428551,0.728345513343811,0.7393196225166321
1776555968223351300,11.941351318359375,-0.08606111258268356,0.6187423467636108,0.5323464274406433
1776555968233393200,11.95139306640625,-0.13263633847236633,0.43480977416038513,0.32828280329704285
1776555968243434200,11.961434326171876,-0.17856308817863464,0.24363742768764496,0.15135250985622406
1776555968253476000,11.97147607421875,-0.2118089199066162,0.08739455789327621,0.0033044503070414066
1776555968263518200,11.981518310546875,-0.2461266815662384,-0.010774084366858006,-0.09629298001527786
1776555968273559000,11.99155908203125,-0.29912838339805603,-0.04288488253951073,-0.10890384763479233
1776555968283601200,12.00160107421875,-0.40270084142684937,0.0028365328907966614,-0.017129186540842056
1776555968293642000,12.01164208984375,-0.45077916979789734,0.16312368214130402,0.14751781523227692
1776555968303684400,12.021684326171876,-0.38263311982154846,0.44706618785858154,0.2541617155075073
1776555968313725200,12.03172509765625,-0.2677976191043854,0.8153350353240967,0.2360418289899826
1776555968323767300,12.041767333984374,-0.15601463615894318,1.2041703462600708,0.09946773201227188
1776555968333808000,12.05180810546875,-0.050151050090789795,1.4848417043685913,-0.08352099359035492
1776555968343850200,12.061850341796875,0.004062652122229338,1.6429370641708374,-0.24051620066165924
1776555968353892000,12.07189208984375,0.005546831991523504,1.6917791366577148,-0.3083873987197876
1776555968363933200,12.08193310546875,-0.014286793768405914,1.6724244356155396,-0.3060246407985687
1776555968373975000,12.09197509765625,-0.028928587213158607,1.6426172256469727,-0.3251194953918457
1776555968384016100,12.10201611328125,-0.0435703806579113,1.6115416288375854,-0.4676545560359955
1776555968394058200,12.112058349609375,-0.035173434764146805,1.5221704244613647,-0.7165812849998474
1776555968404099300,12.122099365234375,-0.03837055712938309,1.3450672626495361,-0.984779417514801
1776555968414141200,12.13214111328125,-0.11286237090826035,1.0519483089447021,-1.169776439666748
1776555968424182300,12.142182373046875,-0.24416978657245636,0.7725958228111267,-1.1859567165374756
1776555968434224000,12.15222412109375,-0.3808083236217499,0.5897764563560486,-0.9993304014205933
1776555968444265200,12.16226513671875,-0.5111077427864075,0.650941789150238,-0.6768008470535278
1776555968454307000,12.17230712890625,-0.6911502480506897,1.0604134798049927,-0.4499429166316986
1776555968464349000,12.182348876953125,-0.9332656264305115,1.5973418951034546,-0.48479971289634705
1776555968474390000,12.19239013671875,-1.1529293060302734,1.8876166343688965,-0.7416725158691406
1776555968484432100,12.20243212890625,-1.2297433614730835,1.7586860656738281,-1.0616962909698486
1776555968494473200,12.21247314453125,-1.1612247228622437,1.2114306688308716,-1.3767153024673462
1776555968504515000,12.22251513671875,-0.9714817404747009,0.5004479289054871,-1.493316650390625
1776555968514556200,12.23255615234375,-0.7191557288169861,-0.14842435717582703,-1.312779426574707
1776555968524598000,12.242597900390624,-0.4131678640842438,-0.6695698499679565,-0.8418678045272827
1776555968534639000,12.25263916015625,-0.24759674072265625,-0.9620893001556396,-0.2308952659368515
1776555968544681000,12.262680908203125,-0.3134878873825073,-1.1608567237854004,0.20633026957511902
1776555968554723000,12.27272314453125,-0.38127943873405457,-1.1794610023498535,0.21625134348869324
1776555968564764200,12.28276416015625,-0.3172948658466339,-1.1017990112304688,-0.09844481199979782
1776555968574806300,12.29280615234375,-0.2446129471063614,-1.036419153213501,-0.2893045246601105
1776555968584847000,12.30284716796875,-0.29869934916496277,-0.9224835634231567,-0.11584936827421188
1776555968594889200,12.31288916015625,-0.46230506896972656,-0.8626468777656555,0.3189540207386017
1776555968604930000,12.322929931640624,-0.5794878602027893,-0.8816157579421997,0.6724303364753723
1776555968614972200,12.33297216796875,-0.4971373379230499,-0.9344605803489685,0.8216168880462646
1776555968625013000,12.343012939453125,-0.1271377056837082,-0.9379333853721619,0.7753508687019348
1776555968635055000,12.35305517578125,0.5969738960266113,-1.1355726718902588,0.4798007011413574
1776555968645096000,12.363095947265625,1.4493588209152222,-1.5715912580490112,0.07424227148294449
1776555968655138300,12.37313818359375,2.0622005462646484,-1.9624963998794556,0.027232952415943146
1776555968665180200,12.38318017578125,2.2597219944000244,-2.1724207401275635,0.26490914821624756
1776555968675221200,12.39322119140625,2.037114381790161,-2.2865943908691406,0.4829680025577545
1776555968685263000,12.40326318359375,1.5126826763153076,-2.3763949871063232,0.5811342597007751
1776555968695304200,12.41330419921875,0.8615584373474121,-2.388629674911499,0.6330000758171082
1776555968705346000,12.423345947265625,0.2664351463317871,-2.3076086044311523,0.6688957810401917
1776555968715387100,12.43338720703125,-0.07582206279039383,-2.1095244884490967,0.6406478881835938
1776555968725429000,12.443428955078126,-0.09974417090415955,-1.8042320013046265,0.5777365565299988
1776555968735470000,12.453469970703125,0.10904659330844879,-1.4152506589889526,0.5072413682937622
1776555968745512200,12.46351220703125,0.375457763671875,-0.9144501686096191,0.43865644931793213
1776555968755553300,12.47355322265625,0.5350381135940552,-0.37103426456451416,0.4233555197715759
1776555968765595100,12.48359521484375,0.4966992437839508,0.11806858330965042,0.4282245934009552
1776555968775637200,12.49363720703125,0.3466421067714691,0.44370952248573303,0.4362388253211975
1776555968785678000,12.503677978515626,0.18893103301525116,0.5166785717010498,0.43452295660972595
1776555968795720200,12.51372021484375,0.052500493824481964,0.34737128019332886,0.4456608295440674
1776555968805761000,12.523760986328124,-0.018544921651482582,0.054121825844049454,0.41664063930511475
1776555968815803100,12.53380322265625,-0.026917101815342903,-0.16066691279411316,0.34239834547042847
1776555968825844000,12.543843994140625,-0.015149657614529133,-0.19488400220870972,0.20730498433113098
1776555968835886300,12.55388623046875,0.0010109359864145517,-0.08030975610017776,0.05577830970287323
1776555968845927200,12.56392724609375,0.014021010138094425,0.07703033834695816,-0.030474819242954254
1776555968855969300,12.57396923828125,0.019061841070652008,0.184123232960701,-0.031207719817757607
1776555968866010000,12.584010009765626,0.03188682720065117,0.18244437873363495,0.04561435803771019
1776555968876052200,12.59405224609375,0.05535007268190384,0.07121239602565765,0.18330350518226624
1776555968886093000,12.604093017578125,0.11501260846853256,-0.07958510518074036,0.3452575206756592
