time,seconds_elapsed,roll,rotationRateZ,quaternionY,rotationRateY,quaternionZ,quaternionW,yaw,devicelocation,accelerationZ,pitch,gravityX,gravityZ,quaternionX,rotationRateX,accelerationX,gravityY,accelerationY
1776555956688206000,0.4062060546875,1.0434708938927018,0.2981657385826111,0.4636505102055035,-0.21043479442596436,4.9933845759117105e-17,0.8548769746742003,0.23759436162304956,left,-0.16813713312149048,-0.40943994845998044,7.774009030884504,-4.527037572209537,-0.2328379652056614,0.12793515622615814,-0.8531435132026672,3.9039845840767025,0.3785458505153656
1776555956728205800,0.446205810546875,0.4980406894720051,0.3197699189186096,0.23518076881618427,-0.21253244578838348,-0.10699912206947362,0.8985292284495009,-0.035000340972681836,left,-0.005800724029541016,-0.7586375002846742,3.400024423836171,-6.252789643931388,-0.35480478838595253,0.134002223610878,-0.40319183468818665,6.746320764616131,0.0930253267288208
1776555956768205800,0.486205810546875,0.1200048218939033,0.36775723099708557,0.11195896773401533,-0.23687848448753357,-0.15214143784353432,0.8965616819466894,-0.2816964249463,left,-0.004271447658538818,-0.8517378470046539,0.7733012711368501,-6.412955071446299,-0.40061885178946716,0.17742310464382172,-0.11987026035785675,7.378781048041581,0.026623308658599854
1776555956808205800,0.526205810546875,0.020408883801886275,0.4172440469264984,0.07990063230277604,-0.26656752824783325,-0.1582542162747057,0.8947993607084321,-0.340725178590355,left,0.0004316568374633789,-0.8611627430690139,0.1303951522844378,-6.388250253778696,-0.40976305744523545,0.24131327867507935,-0.05087742209434509,7.439331670594215,0.015347063541412354
1776555956848205800,0.566205810546875,-0.024956166197722188,0.6183459162712097,0.06166010031159948,-0.364629864692688,-0.15392594417816985,0.8960218366729835,-0.35168388028474845,left,0.0006158351898193359,-0.8588613629121786,-0.15986969597134737,-6.404689347404241,-0.4118856113548117,0.38272225856781006,-0.016777411103248596,7.42460697967112,0.0439339280128479
1776555956888206000,0.6062060546875,-0.030236955589183417,1.0296077728271484,0.05031946087060692,-0.4926356375217438,-0.13638160640053512,0.9020165132059925,-0.313688866616875,left,0.003952980041503906,-0.8436087813064727,-0.1970901136778295,-6.516199172821641,-0.4064901721368267,0.5839938521385193,-0.00019466131925582886,7.326028532019257,0.051657259464263916
1776555956928206000,0.6462060546875,-0.013721901561148506,1.2327091693878174,0.046987325802807164,-0.5541271567344666,-0.11850764731106152,0.9079623303824128,-0.26559635328882414,left,-0.00010484457015991211,-0.8271949258806828,-0.09109059438081457,-6.637918257564306,-0.39918984232941707,0.6441574692726135,0.005718758329749107,7.2180416200309985,0.029232561588287354
1776555956968205800,0.686205810546875,0.001338373780378292,1.4358105659484863,0.0436354987715073,-0.6156187057495117,-0.10058394961086863,0.9135275475498603,-0.2187525614473154,left,-0.004154503345489502,-0.810273883312446,0.0090470271667029,-6.7597180063277476,-0.3917221377820386,0.7043211460113525,0.012229952961206436,7.104682951876521,0.0073555707931518555
1776555957008205800,0.726205810546875,0.04390718542974745,1.3930197954177856,0.04025864332183879,-0.6795610189437866,-0.0574643453496528,0.9248958003306567,-0.10631636097247565,left,-0.00827878713607788,-0.7696407691987257,0.3091280180899426,-7.035963051393628,-0.37369097398722034,0.6756186485290527,-0.011322515085339546,6.82422525755167,-0.040844738483428955
1776555957048205800,0.766205810546875,0.06009629086284722,1.250738501548767,0.036916587005517844,-0.6657360196113586,-0.03381492733143539,0.9304452201264233,-0.04916447514635176,left,-0.012919902801513672,-0.745026138303701,0.4329480206346139,-7.195563246241211,-0.3629952339748377,0.6735947728157043,-0.01067233458161354,6.64882075985074,-0.054402828216552734
1776555957088205800,0.806205810546875,0.0728608224586535,1.1134532690048218,0.031948933645746594,-0.6700358390808105,-0.006826094725840457,0.9366608718987262,0.012546314850543031,left,-0.004379391670227051,-0.7124417785393592,0.5402480463372543,-7.401668587154149,-0.34871073642086076,0.7414997220039368,-0.01283470168709755,6.410446303495764,-0.04236555099487305
1776555957128205800,0.846205810546875,0.0808180179504305,1.0133966207504272,0.025801134166956743,-0.6215259432792664,0.02206668553650928,0.9433651424312742,0.07495262190831758,left,-0.025767624378204346,-0.6706687119136495,0.620216157271713,-7.657514987313747,-0.3300146793967477,0.8246694207191467,0.00034190714359283447,6.094931324315071,-0.017661631107330322
1776555957168206000,0.8862060546875,0.08537901684152077,0.9659110307693481,0.022805848664533307,-0.5508228540420532,0.03955274126286238,0.9473039526314625,0.11186796735945727,left,-0.012825191020965576,-0.642141020880289,0.6696940355375409,-7.824709290552139,-0.3170658377639679,0.8296244144439697,-0.002741783857345581,5.87331452601552,-0.025814354419708252
1776555957208205800,0.926205810546875,0.08863364099308248,0.8500332832336426,0.019214556391189335,-0.5153834819793701,0.060306174788056034,0.9517743084462552,0.1542530297295772,left,-0.00421297550201416,-0.6054435109610156,0.713763405823335,-8.031863263735175,-0.30019948885238334,0.7952722311019897,-0.0037730559706687927,5.581227768695354,-0.03491473197937012
1776555957248205800,0.966205810546875,0.08832401171300291,0.6763584613800049,0.015054080036527025,-0.44893813133239746,0.08109770126510835,0.9559653211356905,0.19495007431754516,left,-0.012471377849578857,-0.5657562760182494,0.7302499187871814,-8.246341296195983,-0.2816504404517247,0.7382966876029968,0.00412287563085556,5.2568981994181865,-0.059172213077545166
1776555957288205800,1.006205810546875,0.08560563471607248,0.5333296060562134,0.012400575990248637,-0.3952443599700928,0.09171516202922696,0.9584215975207521,0.21456640206801006,left,-0.013385415077209473,-0.541171833493915,0.7186655717164278,-8.374555003654956,-0.2699309850647454,0.7047374248504639,0.0021795183420181274,5.051805250418186,-0.055651456117630005
1776555957328205800,1.046205810546875,0.08018570435720404,0.40808233618736267,0.009039399210159877,-0.356431245803833,0.10257053431010055,0.9612534216445683,0.23359597942399027,left,-0.01042318344116211,-0.5118113510933172,0.6848544875293969,-8.522541917598247,-0.2557138590239536,0.6381151080131531,-0.003706894814968109,4.802878420388699,-0.04107397794723511
1776555957368205800,1.086205810546875,0.07448989068511062,0.3505951762199402,0.006119265240380682,-0.35065799951553345,0.11162600137533746,0.9637639398694801,0.24902033287135086,left,-0.009228885173797607,-0.48417971293337275,0.6459332207217812,-8.655375686073302,-0.24220072684273186,0.593716025352478,-0.0031483396887779236,4.564824282029271,-0.01683253049850464
1776555957408206000,1.1262060546875,0.06926724886588452,0.3195377588272095,0.0036567078966612946,-0.29707789421081543,0.1184118567908731,0.9655516029309708,0.2603843334618759,left,-0.021282494068145752,-0.46288389488975445,0.6073121424371376,-8.753639076426625,-0.2316791625968212,0.6103353500366211,0.006512578576803207,4.378967363896965,-0.01853194832801819
1776555957448205800,1.166205810546875,0.06383099393946022,0.28848034143447876,0.0011935499908519523,-0.2434978038072586,0.12517807876249631,0.9671789763658908,0.27175441750736123,left,-0.033769190311431885,-0.4416422782864019,0.5655229555103928,-8.847655915251373,-0.2211191346455866,0.6269546747207642,0.016496531665325165,4.191605009637772,-0.020077824592590332
1776555957488205800,1.206205810546875,0.05887401467707587,0.19700917601585388,-0.00039981324200994003,-0.190871000289917,0.13273466963250477,0.9694887359877893,0.28441346721215394,left,-0.012394487857818604,-0.41119949063299316,0.5289239211052655,-8.973613368216157,-0.20608954277199548,0.6514427065849304,0.011289138346910477,3.9198075916305184,-0.02517932653427124
1776555957528205800,1.246205810546875,0.05656242578503484,0.19724085927009583,-0.0006376347595687771,-0.19216133654117584,0.13645139352717825,0.9710498339172149,0.2904097343861582,left,-0.013813018798828125,-0.3908328444569847,0.512586680418998,-9.052650664573907,-0.1960685038808548,0.6457804441452026,0.007121682167053223,3.7359278187900777,-0.019703984260559082
1776555957568205800,1.286205810546875,0.05326540762911315,0.19843392074108124,-0.0011506966565891837,-0.20556676387786865,0.14135883570756638,0.9727522826996107,0.2984754231685483,left,-0.0025902986526489258,-0.3659538560995534,0.4875357527274638,-9.144294344526529,-0.18376457998847295,0.6453444957733154,-0.007846374064683914,3.5092134050905703,-0.04633578658103943
1776555957608205800,1.326205810546875,0.047627335772092834,0.14155857264995575,-0.0024470388674451915,-0.22487598657608032,0.14633146070331296,0.9745562475384772,0.30620536835113554,left,-0.0033663511276245117,-0.33801376322739385,0.4404693195175379,-9.241251328456402,-0.16976841760238506,0.6394840478897095,-0.01686631329357624,3.2520217278018593,-0.06134495139122009
1776555957648206000,1.3662060546875,0.04231112103987372,0.13547664880752563,-0.003922539890900554,-0.21558472514152527,0.14910651736589312,0.9757281351800867,0.3101022854709376,left,-0.014250576496124268,-0.31945672570274314,0.3938199426759034,-9.302161431971191,-0.16033209211121333,0.5983555316925049,-0.02133812941610813,3.0797865077868103,-0.06348109245300293
1776555957688206000,1.4062060546875,0.036950733648095965,0.12939471006393433,-0.005397664462612528,-0.20629346370697021,0.15186667629006315,0.9768022544715238,0.3140794842030069,left,-0.025489985942840576,-0.3009197127183236,0.3460011567287147,-9.35958778502345,-0.15087970190388733,0.5572269558906555,-0.02569068782031536,2.906678596590459,-0.06552818417549133
1776555957728205800,1.446205810546875,0.029757515713900028,0.037200357764959335,-0.006596722043337138,-0.08960385620594025,0.1546121156400568,0.9787510200440621,0.31736909132260605,left,-0.021557211875915527,-0.2685972035989723,0.28131652137758206,-9.450838081744312,-0.134528255219943,0.5491756200790405,-0.027170907706022263,2.6024811302378774,-0.08127126097679138
1776555957768205800,1.486205810546875,0.02763824019807203,0.01367853581905365,-0.005949078252538964,-0.00659237802028656,0.1546428687922081,0.9800993754073971,0.3164313392224334,left,-0.01859992742538452,-0.2480667876072026,0.2627083400846459,-9.502826627656816,-0.12431924030712264,0.5201333165168762,-0.026580145582556725,2.4078306647971273,-0.06640061736106873
1776555957808205800,1.526205810546875,0.02539506561928819,-0.027865342795848846,-0.0049582976234162504,-0.016761304810643196,0.15436121729400518,0.9816617981838761,0.3147758576022332,left,-0.01570647954940796,-0.2227693874889965,0.24286047919522968,-9.561237315571308,-0.11174962886854019,0.5062978863716125,-0.02682669274508953,2.166597165749222,-0.051909178495407104
1776555957848205800,1.566205810546875,0.02243958378004912,-0.06856470555067062,-0.004190944766475116,-0.009420294314622879,0.1531517055935057,0.9832477748524237,0.3112533921683158,left,0.00431513786315918,-0.1967346526706572,0.21579417482698335,-9.615058922129869,-0.09874638104137765,0.45676475763320923,-0.023778673261404037,1.9168864918656645,-0.034140437841415405
1776555957888206000,1.6062060546875,0.019106616443663082,-0.06687354296445847,-0.004557472236460508,-0.045240744948387146,0.1520050798670739,0.9841421828542223,0.30823164280335785,left,0.006067514419555664,-0.18211931388509806,0.18426195882475002,-9.642707976555824,-0.0913123777629809,0.41746458411216736,-0.027562808245420456,1.7761241223484276,-0.029331743717193604
1776555957928206000,1.6462060546875,0.016078666235104715,-0.08415369689464569,-0.004631477027709511,0.03873942792415619,0.15060135481942247,0.9850979971593249,0.3047440385060746,left,-0.022764384746551514,-0.16556679290678566,0.15551493482794612,-9.671294604092836,-0.08294422816052992,0.35182660818099976,0.007347088307142258,1.616247740907967,-0.04515521228313446
1776555957968205800,1.686205810546875,0.01574542869435966,-0.13707232475280762,-0.003429193701406228,0.060332976281642914,0.14826709833474977,0.986070094134692,0.2996710747460154,left,0.004614591598510742,-0.1500925054993879,0.152667628238583,-9.695194535118342,-0.07530535926417918,0.3646889925003052,0.0012923385947942734,1.4663845116987824,-0.06522395461797714
1776555958008205800,1.726205810546875,0.01667092694490679,-0.22161982953548431,-0.0015693863275036914,0.0982406884431839,0.144526264503224,0.9871695405736843,0.2918696719621437,left,-0.0065607428550720215,-0.13485567776140253,0.16199412251310422,-9.716262457588314,-0.06786760526615784,0.3438982367515564,0.019056925550103188,1.3184776772543787,-0.06146696209907532
1776555958048205800,1.766205810546875,0.017917069797790876,-0.26317551732063293,0.0002939800794646097,0.046640850603580475,0.1402068512916593,0.9882197910208186,0.28296470359124687,left,-0.002243638038635254,-0.12146840706366965,0.1744024810515344,-9.732830146029592,-0.06134888314330679,0.35126519203186035,0.0025864094495773315,1.1882711154777557,-0.064520463347435
1776555958088205800,1.806205810546875,0.01758376674062666,-0.31998756527900696,0.0018498380651295505,-0.022662930190563202,0.13343034645654572,0.9897006589716879,0.26892161748124876,left,-0.011806845664978027,-0.10226234091036546,0.17152816772423685,-9.753909758937358,-0.05182266274694818,0.37381136417388916,-0.0045775920152664185,1.0011040645949543,-0.0448325052857399
1776555958128205800,1.846205810546875,0.01638506758074341,-0.29200759530067444,0.0026232833456951918,0.0005463957786560059,0.1269760256778792,0.9909346250363974,0.25559347077498945,left,-0.004116535186767578,-0.08625687764410309,0.1600780962913297,-9.768879364532232,-0.043805182155653474,0.31586819887161255,-0.01693272590637207,0.8448425126507878,-0.002261415123939514
1776555958168206000,1.8862060546875,0.014812202137626716,-0.20709393918514252,0.0027681879376868328,-0.017588507384061813,0.12259830886768186,0.991730626949173,0.2465448488799353,left,0.0010587573051452637,-0.07445866363966702,0.14485032381745985,-9.778405317768454,-0.03784728939216268,0.2501215934753418,-0.020298734307289124,0.7295156131632625,0.016897112131118774
1776555958208205800,1.926205810546875,0.013883338502456962,-0.16344746947288513,0.0030705023840596757,0.03983910009264946,0.11853708402499388,0.9924053033144781,0.23820843107347656,left,-0.000503242015838623,-0.06428265435783857,0.13586349155977367,-9.785452313670515,-0.032731751826699365,0.20150893926620483,-0.006752892397344112,0.629963498173654,0.012918733060359955
1776555958248205800,1.966205810546875,0.014644027362978294,-0.15862905979156494,0.0037689736834692717,0.0781116634607315,0.11597452193635574,0.9927688255865471,0.23302548359369504,left,0.004951655864715576,-0.060226736894620964,0.14334337158692068,-9.787820211845636,-0.030754664175197007,0.16944804787635803,0.005580098368227482,0.5902655844377354,0.007463324815034866
1776555958288205800,2.006205810546875,0.01658193921354809,-0.18485796451568604,0.00514706868043493,0.0577225461602211,0.11248397933930676,0.9932415752553879,0.22599212485244508,left,0.008924543857574463,-0.054779203531833395,0.1623619329121895,-9.790593768212199,-0.028145084749918954,0.1745566576719284,0.0028144177049398422,0.5369319075265899,-0.002852577716112137
1776555958328205800,2.046205810546875,0.01765743800385263,-0.16492411494255066,0.006158405417203424,0.0036226361989974976,0.10805033676055016,0.9938128259245066,0.21702193301962341,left,-0.002064824104309082,-0.04831234828296832,0.17294930483484638,-9.793680628311634,-0.02496666905900444,0.14415565133094788,0.005061665549874306,0.47359804746359585,0.01731637865304947
1776555958368205800,2.086205810546875,0.017522375763207365,-0.1315011978149414,0.006316195127156244,0.008661799132823944,0.10580801126832723,0.9940918593346418,0.21247089669729882,left,-0.015376031398773193,-0.045146369105942975,0.171651958500687,-9.795153623473643,-0.023371905795993717,0.09585855156183243,0.014102475717663765,0.4425843023775145,0.006747674196958542
1776555958408206000,2.1262060546875,0.017401762889079436,-0.09807829558849335,0.006473940566738859,0.01370096392929554,0.10356490758442392,0.9943631426410885,0.2079209605840097,left,-0.028697550296783447,-0.041979801378276685,0.170494057169836,-9.796526665392518,-0.021776962825321242,0.04756145179271698,0.023129066452383995,0.4115603646909818,-0.0038199760019779205
1776555958448205800,2.166205810546875,0.019145708686570846,-0.11316800862550735,0.0075543529881962924,0.010464858263731003,0.10054088987024333,0.9946951337104216,0.2018439696593531,left,0.01679551601409912,-0.03906759331226434,0.18760054692924022,-9.797371299523114,-0.020396550382768993,0.08397730439901352,0.003983179107308388,0.38302480975408104,-0.0182963814586401
1776555958488205800,2.206205810546875,0.018899701710141225,-0.09666011482477188,0.007554019110806513,-0.011397404596209526,0.09910800117030404,0.9948578866470582,0.19893698196489074,left,0.011471211910247803,-0.037209651910738224,0.18520345919225364,-9.798111888757347,-0.01944920676923666,0.04409222677350044,0.0034272558987140656,0.3648179027384147,-0.017665725201368332
1776555958528205800,2.246205810546875,0.018659114457547914,-0.080152228474617,0.007553661851079839,-0.033259667456150055,0.0976747965384886,0.9950177214477427,0.19603061375740627,left,0.006143331527709961,-0.03535100202208164,0.18285848523499443,-9.79881682215631,-0.018501803270447228,0.004207152873277664,0.0028660129755735397,0.3466027758836746,-0.01703423075377941
1776555958568205800,2.286205810546875,0.018631432117146064,-0.009167436510324478,0.00746683544737668,0.012130660004913807,0.09654629259155122,0.9951102902608603,0.19378337490653905,left,-0.02649509906768799,-0.03728801454080508,0.1825743893302977,-9.798132347023486,-0.019455715225191312,-0.11365965753793716,-0.011360112577676773,0.3655858183709904,-0.006356591358780861
1776555958608205800,2.326205810546875,0.022074807669164902,0.056053999811410904,0.008515843284225137,0.10433145612478256,0.09784065008894582,0.994824098045443,0.1966233685478795,left,-0.025658369064331055,-0.050227236341695396,0.21618936642333864,-9.79189608298242,-0.026071197773393912,-0.3424341082572937,-0.00703449547290802,0.4923538935989141,-0.021373003721237183
1776555958648206000,2.3662060546875,0.028287064506475057,0.05618065595626831,0.010745097217821232,0.1889858990907669,0.09929654561648607,0.9944017206711553,0.19999258288027846,left,0.010040462017059326,-0.0665227280978632,0.2767508939624764,-9.781045018622278,-0.03449691209092172,-0.447404146194458,-0.008939532563090324,0.6518841650154441,-0.055710215121507645
1776555958688206000,2.4062060546875,0.03631693210821176,-0.02019905298948288,0.013752895193067867,0.23888501524925232,0.09955370036849563,0.9939467949058692,0.20120946781430102,left,0.013833999633789062,-0.08559239222258459,0.35476569713838396,-9.764307234311103,-0.04438176421107008,-0.5620266795158386,-0.02513265050947666,0.8383502280220388,-0.07928197085857391
1776555958728205800,2.446205810546875,0.04351089781311023,-0.11419377475976944,0.016223806803446858,0.1878025233745575,0.09810418976794519,0.9934615951701818,0.19922426308981478,left,-0.008345842361450195,-0.10848287695758357,0.42405400862637904,-9.739774850600957,-0.05609349609721507,-0.744369387626648,-0.04582759737968445,1.0617682305246592,-0.0791916474699974
1776555958768205800,2.486205810546875,0.04888262357252049,-0.16403335332870483,0.01757112283419066,0.17486712336540222,0.09542616289583114,0.9927597401315381,0.1950260666090443,left,-0.0029961466789245605,-0.13766329016220277,0.4746505156585946,-9.702269588071108,-0.07080382709903847,-0.89829021692276,-0.02582215890288353,1.345755706410855,-0.07461550086736679
1776555958808205800,2.526205810546875,0.05304691320607539,-0.17751111090183258,0.01817776195957076,0.1634654551744461,0.09187745360187109,0.9917010684225791,0.1893448258654712,left,0.0013585686683654785,-0.1721961134837394,0.5122787104483694,-9.648027125751971,-0.08807424629844555,-0.958754301071167,-0.007426351308822632,1.6803342825017868,-0.060014016926288605
1776555958848205800,2.566205810546875,0.058077564169570106,-0.17376083135604858,0.019170075795899136,0.1569264978170395,0.08842712084459127,0.9901968875629927,0.18422146803657363,left,0.015033483505249023,-0.208859984819667,0.5568557745279744,-9.577356091201304,-0.1064107080127304,-0.9828271269798279,-0.0007129758596420288,2.033357885213196,-0.029885709285736084
1776555958888206000,2.6062060546875,0.06317826990939789,-0.07212980091571808,0.020057463958065947,0.16770152747631073,0.0860291739840789,0.9881621432275278,0.1815246392125598,left,-0.00813150405883789,-0.24693794164023405,0.6003733196172862,-9.490198032230138,-0.12542829811295153,-0.994183361530304,0.007867585867643356,2.3970978199891744,0.0010151863098144531
1776555958928206000,2.6462060546875,0.07049619365358235,0.01687362790107727,0.021798345868152522,0.16059452295303345,0.08542933586741874,0.9856114938311631,0.1830162800595929,left,0.00745004415512085,-0.2843640151340094,0.6630183571659028,-9.389437564364075,-0.14421072724310052,-0.9287941455841064,-0.003648623824119568,2.751227045854926,-0.004986077547073364
1776555958968205800,2.686205810546875,0.07756022188552333,0.0980917364358902,0.023266330056506405,0.13018082082271576,0.08665095922169806,0.9828937821943281,0.18828484331358844,left,-0.009239554405212402,-0.3174546716580383,0.7218765696521848,-9.288632672834396,-0.16084216513718297,-0.7778656482696533,0.002093113958835602,3.0611402595058084,-0.0050394535064697266
1776555959008205800,2.726205810546875,0.08578889113998114,0.14183193445205688,0.025320681282962866,0.14325736463069916,0.0890442150058347,0.980348353712624,0.19606353537425825,left,-0.0006946921348571777,-0.3437848184982619,0.7911023007653654,-9.198866477191448,-0.17420449038790023,-0.6167094111442566,0.005458012223243713,3.30535935023576,-0.00677075982093811
1776555959048205800,2.766205810546875,0.093657772889584,0.1462824046611786,0.027323234063827105,0.1349586546421051,0.09165464577716717,0.9780718953544449,0.2041676050116665,left,-0.0020180344581604004,-0.36494234689662586,0.8567288383428007,-9.120677322095633,-0.18500891557568402,-0.5146153569221497,0.013922043144702911,3.4999487331390378,0.0021873116493225098
1776555959088205800,2.806205810546875,0.10127597950832751,0.10268688201904297,0.029476179340807315,0.11075243353843689,0.09393911098880266,0.976197201336756,0.21140963274219587,left,0.0047605037689208984,-0.3809073758302027,0.9204194394215941,-9.057136870077251,-0.1932503474172508,-0.37341007590293884,0.02527555823326111,3.6457495352149007,-0.006171554327011108
1776555959128205800,2.846205810546875,0.10787388284588802,0.02375663071870804,0.03156070464364759,0.13589532673358917,0.09509591794086542,0.9747721629581223,0.21598521466803255,left,0.004421830177307129,-0.39286073980405645,0.9753952575165777,-9.006895460093022,-0.19944936012366565,-0.3075406551361084,0.035775817930698395,3.754307232828438,-0.016790688037872314
1776555959168206000,2.8862060546875,0.11218412787452581,-0.028069481253623962,0.0327885196514383,0.032087936997413635,0.09489750251802129,0.9734474807163688,0.21743095667429832,left,0.012359917163848877,-0.4052899996835543,1.0089058974523097,-8.955543458518385,-0.20571648105789708,-0.35624581575393677,0.030440278351306915,3.866617853234708,0.014030218124389648
1776555959208205800,2.926205810546875,0.11623549417655495,-0.053389087319374084,0.033889937847328834,0.07237014174461365,0.0943394584704902,0.9720282817856223,0.2182210130860034,left,-0.006821095943450928,-0.4186389729816027,1.039100690838322,-8.899319466993212,-0.2123969341038245,-0.3645150363445282,0.03836223483085632,3.986573435436189,0.006391733884811401
1776555959248205800,2.966205810546875,0.11965853452210158,-0.05232102796435356,0.03479982414038932,0.019737735390663147,0.09315787341153145,0.9706037072604765,0.21767872688054085,left,0.018548429012298584,-0.432328386057851,1.0629426080662756,-8.840694844067096,-0.21917794344360375,-0.31756311655044556,0.01584203541278839,4.108850154061615,0.020704597234725952
1776555959288205800,3.006205810546875,0.12167861674001493,0.01758245751261711,0.0350476539170278,0.02084944397211075,0.09320774630305013,0.9694907114487786,0.21906451728432558,left,-0.012562155723571777,-0.44203508431199795,1.0759075227752328,-8.798525681379436,-0.22399041487637333,-0.21323564648628235,0.024465538561344147,4.19508729879558,0.008801013231277466
1776555959328205800,3.046205810546875,0.12428107607471489,0.04713987559080124,0.035574670361340134,0.01638633757829666,0.09427282731840185,0.9686564721567918,0.22238387033816187,left,-0.0000641942024230957,-0.44799508497163526,1.0956828481514007,-8.77072991195917,-0.2270499415099908,-0.15284639596939087,0.017672866582870483,4.247842152905464,0.005482524633407593
1776555959368205800,3.086205810546875,0.1260108829540845,0.09756571799516678,0.035592004298222873,0.0010347440838813782,0.09601427106375163,0.9678693767409976,0.22683699619413894,left,-0.022139012813568115,-0.4530669389978127,1.1081308993794023,-8.747335007846354,-0.22965897662915333,-0.1338944435119629,0.022489815950393677,4.292617114177346,-0.0002264082431793213
1776555959408206000,3.1262060546875,0.12884921444261188,0.07623068988323212,0.0360901785554065,-0.0284495260566473,0.09792165782430329,0.9670687044539436,0.23187881715513906,left,0.017444849014282227,-0.45773137021431487,1.1303691808030008,-8.724202554062009,-0.23213561407655275,-0.1301817148923874,0.00915779173374176,4.333697604845464,-0.015293747186660767
1776555959448205800,3.166205810546875,0.13002168172785836,0.10383389890193939,0.03569179197377979,-0.0459711030125618,0.10012246845268924,0.9661993877824978,0.23720847435421896,left,0.000034689903259277344,-0.4630741016507554,1.13757896605134,-8.69978882829547,-0.23486232126825127,-0.1676415055990219,0.015829741954803467,4.380636173892021,-0.01923978328704834
1776555959488205800,3.206205810546875,0.13065015377494102,0.15134400129318237,0.034788399360130444,-0.08321119844913483,0.10310687654441109,0.9651785485954029,0.24410251591943627,left,0.0021260976791381836,-0.4690381735063459,1.139622308447212,-8.673013634094595,-0.23788468418108902,-0.20901702344417572,0.022902414202690125,4.432886001089215,-0.010145843029022217
1776555959528205800,3.246205810546875,0.13066162188470656,0.2380611002445221,0.03310342425808633,-0.1697412133216858,0.10775962425760639,0.9638816073901387,0.25439584551557276,left,0.007914125919342041,-0.47577708868696006,1.1358037730723618,-8.643186066585779,-0.24129716237448973,-0.2130555510520935,0.026639528572559357,4.4917339113771915,-0.013327598571777344
1776555959568205800,3.286205810546875,0.12873455042518833,0.3206378221511841,0.030052254508216265,-0.27156320214271545,0.11449741283297667,0.9624667110416006,0.2684683796070933,left,0.0017899274826049805,-0.4816384768338727,1.1157464889496564,-8.619100257599353,-0.24422334874816293,-0.2059798389673233,0.0391368642449379,4.5427530277356505,-0.013649076223373413
1776555959608205800,3.326205810546875,0.12685155786059613,0.3267168700695038,0.026724251797547168,-0.2697544991970062,0.12247587310750079,0.9609215475601686,0.2850849710098578,left,0.004914581775665283,-0.486782043313826,1.09654421422109,-8.597893803441524,-0.24681010680682453,-0.15815959870815277,0.04691208153963089,4.587395594799518,-0.0417669415473938
1776555959648206000,3.3662060546875,0.12323357883210077,0.3263072073459625,0.022651584257358442,-0.3368107080459595,0.1306116129374729,0.9594810108941993,0.3014834340194994,left,-0.010696113109588623,-0.49067403656106595,1.0632273432917891,-8.584020760911702,-0.24864360019457446,-0.16036921739578247,0.06303134560585022,4.621094743044674,-0.01964700222015381
1776555959688206000,3.4062060546875,0.12060185542695542,0.34268811345100403,0.01886737940611117,-0.31373330950737,0.1392034013594508,0.9578649956468062,0.31911545099884364,left,-0.011794447898864746,-0.4945989784180107,1.0384428114514797,-8.568717393317819,-0.2505214908137753,-0.16882173717021942,0.06971688568592072,4.655008410823345,-0.023418843746185303
1776555959728205800,3.446205810546875,0.11794409252342875,0.31327009201049805,0.015061773777439507,-0.3363858759403229,0.14746236806124707,0.9561372441329401,0.33613870054287454,left,0.0013457536697387695,-0.4991555356219093,1.013159097917378,-8.550294432398676,-0.252644886054469,-0.15627460181713104,0.06977663189172745,4.694289450854063,-0.01791873574256897
1776555959768205800,3.486205810546875,0.11405544757148606,0.29254350066185,0.010890566700820408,-0.38370856642723083,0.15549957265583925,0.9545858850537265,0.3522448111410319,left,0.005236029624938965,-0.5022037237871942,0.978269424713403,-8.539913908159733,-0.2539034396963101,-0.09661196172237396,0.06717899441719055,4.720512856391072,-0.0032132863998413086
1776555959808205800,3.526205810546875,0.10962789242787901,0.2854531705379486,0.0067497322113736985,-0.3335995376110077,0.16333217082518697,0.9532802885420291,0.3675775328465855,left,-0.012452840805053711,-0.5030815551611506,0.9399952967029064,-8.540039580366015,-0.2540346631212787,-0.03842910751700401,0.06920860707759857,4.728056695899367,-0.0008252859115600586
1776555959848205800,3.566205810546875,0.10503739237074973,0.28804776072502136,0.0028286865832216532,-0.3659304976463318,0.17076284905249925,0.9521927652786321,0.38187071334831185,left,-0.0005319714546203613,-0.5022679577010324,0.9011854543805122,-8.54808727774322,-0.25329991509262006,0.038028839975595474,0.05414649099111557,4.721064937315881,0.00550764799118042
1776555959888206000,3.6062060546875,0.09775470350639523,0.258552223443985,-0.0018438504232615286,-0.446794331073761,0.1784952341183327,0.9516088201262779,0.39565626521189856,left,-0.026293575763702393,-0.49695911555100497,0.8413434184886515,-8.579246970638632,-0.2501534516281812,0.16856077313423157,0.05063953995704651,4.675366723719239,-0.015597164630889893
1776555959928206000,3.6462060546875,0.0884409182845561,0.22715775668621063,-0.006886646278948612,-0.40746521949768066,0.18544216603328326,0.9514535157385153,0.40706528123276364,left,-0.04374098777770996,-0.4891018249275599,0.7646239706192165,-8.623037012526392,-0.24556063545531268,0.21573349833488464,0.03606851398944855,4.607489996062219,-0.023506730794906616
1776555959968205800,3.686205810546875,0.07951084451903848,0.21457640826702118,-0.011447944964557609,-0.34541115164756775,0.19157583357745112,0.9514446974620177,0.41688592187774565,left,-0.03879827260971069,-0.4806427837760383,0.6906612010467797,-8.66806390273273,-0.24066712866974185,0.1888795644044876,0.0020973682403564453,4.534097135332226,-0.027899503707885742
1776555960008205800,3.726205810546875,0.07214687324446024,0.15847840905189514,-0.015128937166901628,-0.27823173999786377,0.1969908123005107,0.9514576300617815,0.4256861304102452,left,-0.012395501136779785,-0.47241789356151476,0.629478637266159,-8.709816301313042,-0.2359958758206951,0.164717435836792,0.002241186797618866,4.4624248147845265,-0.03799086809158325
1776555960048205800,3.766205810546875,0.06584948678967556,0.10322323441505432,-0.01800314752898025,-0.1708010882139206,0.20056513720015762,0.9516403601864963,0.4310470180323776,left,-0.005516171455383301,-0.4654307107422288,0.5766550653016195,-8.744507090944051,-0.23201313718709787,0.11821553856134415,-0.014909204095602036,4.401300483997166,-0.011165916919708252
1776555960088205800,3.806205810546875,0.06174440407875425,0.011733293533325195,-0.0197639860439855,-0.16409629583358765,0.20205167237353416,0.951824850410663,0.43286309069078877,left,0.05300503969192505,-0.46169910303716216,0.5417630905427039,-8.763132296437025,-0.2298128998576863,0.014940030872821808,-0.049893539398908615,4.368568134957552,0.051165878772735596
1776555960128205800,3.846205810546875,0.05936290554340624,0.10025668144226074,-0.021254989919627088,-0.012197062373161316,0.20348099143931303,0.9514759386416456,0.435346715031474,left,-0.016429483890533447,-0.4623686266576524,0.5207185124156997,-8.761476345923542,-0.22986356398723531,-0.0071168821305036545,-0.07208168506622314,4.37444550255835,0.04276001453399658
1776555960168206000,3.8862060546875,0.06019639300165667,0.0889168381690979,-0.020907224458730916,-0.03462732583284378,0.20547979631114743,0.951483252452946,0.4394336865282849,left,-0.004263579845428467,-0.458519684326028,0.5290299387630075,-8.77778099951446,-0.22808029195916224,0.20842184126377106,-0.10710819065570831,4.3406312035009265,-0.022415637969970703
1776555960208205800,3.926205810546875,0.05912722435150453,0.039792727679014206,-0.0206365141160003,-0.008050579577684402,0.20636429735825082,0.9522384903685408,0.44037923636667686,left,0.03634512424468994,-0.450425585062104,0.5217037971260026,-8.813125284618138,-0.2241200268582117,0.2708204388618469,-0.11943286657333374,4.269312518696487,-0.011427432298660278
1776555960248205800,3.966205810546875,0.052299025741851905,0.001025814563035965,-0.022460631714627477,-0.1069343239068985,0.20706974935130332,0.9535287438163493,0.4393364757532776,left,-0.017293810844421387,-0.4384098982621404,0.4641625855224207,-8.867073147904872,-0.21771679560600155,0.2654182016849518,-0.09372751414775848,4.162925735381245,-0.0009056627750396729
1776555960288205800,4.006205810546875,0.04529614587839457,0.013373448513448238,-0.024618988774513847,-0.04508645832538605,0.20704239910312475,0.9545658031589865,0.43706511949005555,left,-0.026480793952941895,-0.4297804962580297,0.403668332799524,-8.9056621140182,-0.21291194418484088,0.16913965344429016,-0.09291243553161621,4.086149369692802,0.032859593629837036
1776555960328205800,4.046205810546875,0.041073430665326885,0.09194213151931763,-0.02604936309637937,-0.01721195876598358,0.20772214014737606,0.955059267320183,0.4371697429167363,left,-0.010041773319244385,-0.4242642023869314,0.3669787340341136,-8.929673104202747,-0.20984471062456952,0.15366165339946747,-0.08993631601333618,4.0369109992712735,0.004119962453842163
1776555960368205800,4.086205810546875,0.040750354740414316,0.13858605921268463,-0.026072022660444328,0.017528407275676727,0.2097063113243671,0.9551452428338827,0.4409253071861633,left,-0.020546138286590576,-0.41944155308799397,0.3648826385376975,-8.949140021216868,-0.20746349593212288,0.08651483803987503,-0.10087759047746658,3.993763054679334,-0.002132624387741089
1776555960408206000,4.1262060546875,0.041576763478793986,0.13666754961013794,-0.025850967019101962,0.04137653857469559,0.21224812265156634,0.9549347191088214,0.44619592830342897,left,-0.00041234493255615234,-0.4160576252890648,0.37283776226062326,-8.9622870875597,-0.20586952624350088,0.07633437216281891,-0.0737631693482399,3.9634319215625524,-0.038536667823791504
1776555960448205800,4.166205810546875,0.041299000983492686,0.07800069451332092,-0.026034732964979795,-0.013715215027332306,0.21403305687681617,0.9548310478842158,0.4496848230761394,left,0.03241610527038574,-0.4132872524505651,0.37080030161626637,-8.97332636796832,-0.20447459811835417,0.03845186159014702,-0.08718906342983246,3.938566360375285,-0.042309582233428955
1776555960488205800,4.206205810546875,0.039704884256878646,0.05760420113801956,-0.02675067840619589,-0.023926623165607452,0.21517116761146393,0.9548152651170637,0.45158245001175007,left,0.04462587833404541,-0.4111448325942193,0.35682942473515866,-8.98231689915359,-0.20325767774941905,0.07087694108486176,-0.07908506691455841,3.9193163009822367,-0.08051112294197083
1776555960528205800,4.246205810546875,0.03819830530137199,0.045545198023319244,-0.027128601189008627,-0.005427218973636627,0.21611546076466065,0.9550631727228726,0.45295273153537546,left,0.0028139352798461914,-0.40684737496887363,0.3439365158164874,-8.999592443603277,-0.2010286882011092,0.1029682531952858,-0.0742170512676239,3.8806487166747448,-0.09135061502456665
1776555960568205800,4.286205810546875,0.038050746137053906,0.022121243178844452,-0.026862020139890436,0.04254288226366043,0.21646282707720493,0.9553396697779267,0.45342140589817853,left,-0.018397390842437744,-0.40341547517200455,0.3431131436696276,-9.012898499900102,-0.1993702764509471,0.033695824444293976,-0.06952094286680222,3.8497175718382,-0.08455756306648254
1776555960608205800,4.326205810546875,0.03835094615500481,0.04253150895237923,-0.02661714534031221,0.024817058816552162,0.2169777113095003,0.9554055866242955,0.45444194641285407,left,-0.022355377674102783,-0.40160430856718154,0.3460855836091563,-9.01974734288156,-0.19852555675338604,-0.009811211377382278,-0.07595719397068024,3.833375508846342,-0.06571376323699951
1776555960648206000,4.3662060546875,0.03948306574113048,0.026604797691106796,-0.02612830643071034,0.03303771838545799,0.21745037365915612,0.9553472125776286,0.45562771085287745,left,-0.0017020106315612793,-0.40101979765925755,0.35638515156637873,-9.021586833268403,-0.19835417454198312,-0.020978238433599472,-0.08331793546676636,3.8280990297481416,-0.07826820015907288
1776555960688206000,4.4062060546875,0.03795430118009869,0.014978375285863876,-0.02663887387013986,0.04298081248998642,0.2174521242035034,0.9555226416460911,0.4552095777595604,left,-0.03678220510482788,-0.39943386814231785,0.3428228189535439,-9.02817673305273,-0.19743722550138315,0.01076342910528183,-0.06672731041908264,3.813775320841372,-0.07209193706512451
1776555960728205800,4.446205810546875,0.038878799295004464,0.009565422311425209,-0.025880551395421066,0.1036389172077179,0.21734571194196,0.9558054002584936,0.455003672374762,left,-0.03648346662521362,-0.39679769316785407,0.35155875432323663,-9.037870444071292,-0.19628303883903006,0.015764761716127396,-0.06923939287662506,3.789945240181684,-0.07464867830276489
1776555960768205800,4.486205810546875,0.040584809500821044,0.034051112830638885,-0.02463650030151401,0.11167080700397491,0.21715200195386872,0.9561908858469502,0.4547120371867802,left,-0.042538344860076904,-0.39323904401062604,0.3675218279348686,-9.050676734152436,-0.1947741353069567,0.08238086104393005,-0.0784878209233284,3.7577342846676705,-0.07190734148025513
1776555960808205800,4.526205810546875,0.04327218843083319,0.028569383546710014,-0.022624005452523004,0.13310196995735168,0.2172443806067241,0.9568087042008256,0.4550014807850938,left,-0.06754004955291748,-0.3865291741221846,0.39292496659755705,-9.074642716151475,-0.19185969753489748,0.11600757390260696,-0.078451007604599,3.6968712351649997,-0.059627920389175415
1776555960848205800,4.566205810546875,0.04742562692595074,0.04018423706293106,-0.019990842791909314,0.16768530011177063,0.2173834575394743,0.9573468182132898,0.4556931707155954,left,-0.061780691146850586,-0.3802252362522927,0.43170868809800594,-9.096030372095107,-0.18929308846018503,0.11842501163482666,-0.07562124729156494,3.6395384056150912,-0.06703111529350281
1776555960888206000,4.6062060546875,0.05219423082998445,-0.004433710128068924,-0.016909560326178196,0.19676442444324493,0.2169904662443432,0.9580269430679065,0.4553416151030915,left,-0.05658864974975586,-0.37346503767249456,0.47635173008590936,-9.118231097987294,-0.1865841977834521,0.11077667027711868,-0.07719606161117554,3.5778956039115783,-0.06713065505027771
1776555960928206000,4.6462060546875,0.05664869858469353,-0.04241881147027016,-0.014479316969072155,0.20179378986358643,0.21544871827153605,0.9583768993654117,0.4529460765262074,left,-0.1440146565437317,-0.3728235960267801,0.5170935633841902,-9.118308254876732,-0.18677797973015192,-0.22443434596061707,-0.08273445069789886,3.572038110055029,0.0012351572513580322
1776555960968205800,4.686205810546875,0.0611033118662904,-0.011451413854956627,-0.013765827869449538,0.016890764236450195,0.2148834479547178,0.9572770859588617,0.453536824666143,left,-0.1740344762802124,-0.38489408022844435,0.555033381406404,-9.072215196743606,-0.19301875949505556,-0.30778536200523376,-0.05683082714676857,3.682014442294836,-0.013018280267715454
1776555961008205800,4.726205810546875,0.06311284258661531,-0.0834396630525589,-0.013830816451119847,0.13665860891342163,0.21353678300234255,0.9565097511365934,0.4519338506319147,left,-0.2019851803779602,-0.3953679476113535,0.5707994346085935,-9.032096536844968,-0.19824209872394707,-0.22602829337120056,0.02901444584131241,3.7770094785019754,0.08084377646446228
1776555961048205800,4.766205810546875,0.06932894596075209,-0.04182211682200432,-0.011668009039335113,0.2165689766407013,0.211425637413337,0.9559352898564794,0.4495623854354195,left,0.0010259151458740234,-0.40466429900616896,0.624473084063828,-8.992956366589665,-0.20334868176475066,-0.23095251619815826,0.10224130004644394,3.860978386043012,0.13661330938339233
1776555961088205800,4.806205810546875,0.07794481548549004,-0.028456533327698708,-0.008318449004193998,0.20139330625534058,0.21000922034526304,0.9553424448476433,0.4490616827283088,left,0.1627436876296997,-0.4119331013320304,0.6997272816862911,-8.959025455415249,-0.2077200535513326,-0.11411730200052261,0.15473683178424835,3.9264009985461827,0.09660354256629944
1776555961128205800,4.846205810546875,0.08351164813617089,-0.012606974691152573,-0.005791296150735489,0.0833362489938736,0.20898794040520854,0.9552630960250063,0.44830285061917025,left,0.13187843561172485,-0.4138029642737747,0.7489758081756531,-8.947659427270292,-0.20919555796048436,0.02702685445547104,0.15900962054729462,3.9431975273072717,0.061478376388549805
1776555961168206000,4.8862060546875,0.08658062903203377,-0.0213027186691761,-0.004290445004722043,-0.025363482534885406,0.20860363852606972,0.9553028336531723,0.44815516612785,left,0.07461625337600708,-0.41363014517451774,0.7764913724150508,-8.945997631537914,-0.20943409618543216,0.05583157762885094,0.14591917395591736,3.941645621690154,0.03291279077529907
1776555961208205800,4.926205810546875,0.0882650098768003,0.007671855390071869,-0.0035669158768572235,-0.0016615521162748337,0.20872521737438776,0.9552276900401508,0.4487908256860721,left,0.008710920810699463,-0.41375733633169026,0.7915145348280668,-8.94417743037343,-0.20966908265016806,0.015670213848352432,0.14877769351005554,3.9427877774626015,0.020672619342803955
1776555961248205800,4.966205810546875,0.09045373805081837,0.06654244661331177,-0.0028302756257411097,-0.09693098813295364,0.2098370100332455,0.9549254394271608,0.45161023603814443,left,0.07866030931472778,-0.4138699681303918,0.8110488910552114,-8.941981381633877,-0.2099471607222207,0.003938456065952778,0.12054217606782913,3.9437990003317593,0.005023479461669922
1776555961288205800,5.006205810546875,0.08901338153560717,0.1310824155807495,-0.004247618062327178,-0.21168792247772217,0.21274348144959013,0.9542088016703034,0.45747537823657236,left,0.10536879301071167,-0.4148621634151271,0.797820137778297,-8.939238220405578,-0.21025612173995975,-0.07119572162628174,0.0881691426038742,3.9527056526258586,-0.014373779296875
1776555961328205800,5.046205810546875,0.0866082211385121,0.18208996951580048,-0.0066793733792273125,-0.1904357522726059,0.2169800414786934,0.9529661838733229,0.4661283586224076,left,0.1260550618171692,-0.41806717979942754,0.77521777228266,-8.928464312934874,-0.21149558145455388,-0.10109084844589233,0.05873031169176102,3.9814495165511965,-0.06825387477874756
1776555961368205800,5.086205810546875,0.0824970886447703,0.18091705441474915,-0.009837086009273814,-0.1859230250120163,0.22129746563694433,0.9517760008587269,0.4745250918187786,left,0.13247525691986084,-0.4206957651311975,0.7376402482341975,-8.921115119215845,-0.21225677312083874,-0.06388489902019501,0.0395485982298851,4.004993473745882,-0.11616519093513489
1776555961408206000,5.1262060546875,0.07890088149677552,0.1667010337114334,-0.012444883208559132,-0.15633341670036316,0.22549767863113546,0.9508214307025916,0.4825862477972297,left,0.15625900030136108,-0.4210486070068152,0.7054419330060482,-8.92230111413002,-0.21197729804861623,0.005356639623641968,0.03579149395227432,4.008151645515859,-0.15499404072761536
1776555961448205800,5.166205810546875,0.07545337717603465,0.12572532892227173,-0.014643635003650223,-0.14497171342372894,0.22898307446922547,0.9501616459273832,0.48905954297177495,left,0.18468016386032104,-0.42002536185903816,0.6749869543138891,-8.928765341708063,-0.21105741488906155,0.003556017531082034,0.03565286844968796,3.9989913107216357,-0.16289451718330383
1776555961488205800,5.206205810546875,0.0718627889018831,0.08496048301458359,-0.017014437618108273,-0.12220370024442673,0.2315343646043312,0.9494583943579112,0.4937582581835892,left,0.1739574670791626,-0.4214082539073412,0.6425254581049085,-8.925606585416197,-0.2112609977169395,-0.08492964506149292,0.04614446312189102,4.011370315301418,-0.1588345170021057
1776555961528205800,5.246205810546875,0.06850875607189119,0.039511099457740784,-0.01947021255374924,-0.11448033899068832,0.23326769316943677,0.948638033865122,0.4970357372429919,left,0.15245401859283447,-0.42559733970987956,0.6114294415628537,-8.91086903501153,-0.21282161910660763,-0.13254983723163605,0.04965139180421829,4.048821801817417,-0.1627979278564453
1776555961568205800,5.286205810546875,0.0649778174623385,0.02198350429534912,-0.022092758416955408,-0.09127433598041534,0.234149772045979,0.9477918498483543,0.49865392683272436,left,0.15198266506195068,-0.43186311121254056,0.5783033439652994,-8.88748172968328,-0.215351901149566,-0.15401697158813477,0.04527048021554947,4.104706770646572,-0.16101482510566711
1776555961608205800,5.326205810546875,0.061179182976659884,-0.0063139162957668304,-0.02463395181067184,-0.05268391594290733,0.23460014094249354,0.9471281029776291,0.4992188045533052,left,0.11898517608642578,-0.4373612877850525,0.5431508551066742,-8.866953905439376,-0.21749557809404998,-0.11571124941110611,0.031664200127124786,4.153612840373814,-0.16865351796150208
1776555961648206000,5.3662060546875,0.060776853397634015,-0.04734697565436363,-0.025177787691813797,0.05343956872820854,0.23391421592038317,0.9468643003572403,0.4980191257129024,left,0.1449773907661438,-0.4412809461377432,0.5385903422581032,-8.85085324998796,-0.21931293024898998,-0.07857391983270645,-0.0030610784888267517,4.1884012451604,-0.17960254848003387
1776555961688206000,5.4062060546875,0.061212151542812974,-0.12281063199043274,-0.024851951354903964,-0.05593893304467201,0.23210935880336714,0.9470568725516183,0.49449813050475844,left,0.22909724712371826,-0.44345473787264633,0.541884817226231,-8.84150908305943,-0.22043335936889494,-0.0056320056319236755,-0.05109918862581253,4.207666794383526,-0.1723206341266632
1776555961728205800,5.446205810546875,0.05650629200512642,-0.14034578204154968,-0.026538331287594724,0.6934277415275574,0.22902666306439654,0.9476166114850147,0.48708795066942,left,-0.12970739603042603,-0.44571859527562824,0.4997328248690813,-8.834428184887766,-0.22105480469179722,-0.35913902521133423,0.05652588978409767,4.227709465458989,-0.12560546398162842
1776555961768205800,5.486205810546875,0.05986884845426752,-0.27447736263275146,-0.023927287092559413,-0.084445059299469,0.22381403823021576,0.9487144774873244,0.4769532986089765,left,0.13034296035766602,-0.44660261911075955,0.5292123826578259,-8.828964074262975,-0.2219810872980969,0.06470397114753723,-0.06703734397888184,4.235530368342995,-0.07144057750701904
1776555961808205800,5.526205810546875,0.048229668592144,-0.2930991053581238,-0.02752492314378776,0.03522387892007828,0.21830353828948257,0.9504618450958415,0.4624156006527214,left,-0.0752367377281189,-0.44381850977900733,0.42698381500057875,-8.846269429329038,-0.2195635628926103,-0.03318638354539871,-0.05494629219174385,4.210888971300423,0.11632105708122253
1776555961848205800,5.566205810546875,0.04414453368563307,-0.2107965350151062,-0.02857776607745591,-0.05647875368595123,0.2134695779465127,0.951293040542689,0.45151081662071346,left,-0.01915210485458374,-0.44656864598916685,0.3903296163421124,-8.836337233379483,-0.2205799062460472,-0.018955018371343613,-0.11071501672267914,4.235229631830752,0.2317727506160736
1776555961888206000,5.6062060546875,0.03775027256934162,-0.1362459808588028,-0.030938671975155128,-0.004610229283571243,0.2107870626925047,0.9518538607998895,0.44445418648538526,left,-0.05741840600967407,-0.44744284404115353,0.33368031207695603,-8.834948993891476,-0.2204217498718625,-0.05524848774075508,-0.0898759514093399,4.242960518343747,0.26671022176742554
1776555961928206000,5.6462060546875,0.034332145065718744,-0.066529281437397,-0.032417060697071856,-0.03790059685707092,0.20930569942854307,0.9519337238261022,0.4407167721198794,left,-0.015433013439178467,-0.44986852537037775,0.3031252522774972,-8.825726407516003,-0.22127432967943764,-0.029489651322364807,-0.08495999872684479,4.264394059255719,0.24574482440948486
1776555961968205800,5.686205810546875,0.03107421782501346,-0.077397920191288,-0.033826928482499956,-0.07139667868614197,0.20810543168960047,0.9520015194385554,0.43756691736175896,left,-0.016441822052001953,-0.4517971561064159,0.2741140791854821,-8.818429820767044,-0.22190297551704383,-0.10227317363023758,-0.07930311560630798,4.281417674770951,0.25152817368507385
1776555962008205800,5.726205810546875,0.0279861329565134,-0.031792957335710526,-0.03545309050726959,0.0006506815552711487,0.20718905126092643,0.9517690404656547,0.4351789823058087,left,-0.028663992881774902,-0.45574153771249376,0.24640628030961378,-8.802284741652011,-0.22349818332314067,-0.07998671382665634,-0.079930879175663,4.316184159986674,0.27033936977386475
1776555962048205800,5.766205810546875,0.029324667172388134,-0.07541467249393463,-0.03497197527770834,0.09884597361087799,0.206107370654233,0.9516125548985153,0.4334378124263516,left,0.005868434906005859,-0.45903888556772227,0.2577695319755934,-8.787673447975516,-0.22523385547793648,-0.13140985369682312,-0.03554810583591461,4.345196319459379,0.2609843313694
1776555962088205800,5.806205810546875,0.031585757384690945,-0.0838402584195137,-0.03424339524290449,0.11992844939231873,0.203920810481766,0.9512335158817774,0.42985644547212104,left,-0.0028076171875,-0.46615443578554216,0.2766551419704221,-8.75594326171577,-0.2289072414460619,-0.2192353904247284,-0.017446961253881454,4.407641669717431,0.2772209644317627
1776555962128205800,5.846205810546875,0.036085265138345375,-0.06286564469337463,-0.03268573318908445,0.11355995386838913,0.20169360525327848,0.9506242301655169,0.42687379212785,left,0.042905211448669434,-0.4749572193985488,0.314637611824274,-8.715496685037017,-0.2335914557275334,-0.16207164525985718,0.000054001808166503906,4.484585208666324,0.2410145401954651
1776555962168206000,5.8862060546875,0.03976688887137965,-0.042418330907821655,-0.03126272307222455,0.16895483434200287,0.2004713871879259,0.9502942596829635,0.42554112758082396,left,-0.04301029443740845,-0.4795616985658168,0.345897988615185,-8.693554317820071,-0.23616674127760082,-0.07831504195928574,0.0539461113512516,4.5246939316928385,0.19372999668121338
1776555962208205800,5.926205810546875,0.041497987035118165,-0.04509960487484932,-0.03036393047373482,-0.04685084521770477,0.19937622888721576,0.9503524409442208,0.42376095044933954,left,-0.07369470596313477,-0.4808448825361512,0.36070568164661526,-8.687134513905644,-0.23697562390934218,0.002873837947845459,0.037224702537059784,4.535854500393569,0.17762020230293274
1776555962248205800,5.966205810546875,0.03729492105364065,-0.0502416267991066,-0.032044781268056224,-0.08669765293598175,0.19892782660136923,0.9505724846896577,0.42171908294698723,left,-0.21439576148986816,-0.48012467912342194,0.32431174135953184,-8.691835823464393,-0.23624740435496094,0.028313085436820984,0.020274262875318527,4.529591348345577,0.19416221976280212
1776555962288205800,6.006205810546875,0.03411743881151471,0.0520499050617218,-0.033479534744170474,-0.09883376955986023,0.19920851484985216,0.9505966321026635,0.4214882101478376,left,-0.3150233030319214,-0.479659441524672,0.29676384575311093,-8.694927359738946,-0.23571420474657548,0.023106474429368973,-0.052122823894023895,4.525544411042333,0.19415050745010376
1776555962328205800,6.046205810546875,0.03256396721761565,0.08661451190710068,-0.03452012733152758,-0.0699853003025055,0.20133199578548602,0.9503535910388285,0.4254623494707386,left,-0.33638983964920044,-0.4780721052036248,0.2834897006982006,-8.7025471870929,-0.23473803723466596,0.005271486937999725,-0.017318589612841606,4.511728943918645,0.17658594250679016
1776555962368205800,6.086205810546875,0.03540620004932647,0.0999528095126152,-0.03389348361300205,0.028260841965675354,0.20285641955618441,0.9497251780288811,0.4295381799012997,left,-0.2926655411720276,-0.480393777914804,0.30785156841333955,-8.691214476695656,-0.23605639170699902,-0.05695372819900513,0.030122973024845123,4.531931773991882,0.1489761769771576
1776555962408206000,6.1262060546875,0.03664226065171481,0.11416700482368469,-0.0340069888536101,-0.014250267297029495,0.20481750387409167,0.9491071975803449,0.43408700840452824,left,-0.34350311756134033,-0.48192517175972716,0.3183395716147497,-8.683881649589537,-0.2368307206624936,-0.026777395978569984,0.12045188248157501,4.545244552290439,0.168468177318573
1776555962448205800,6.166205810546875,0.039197870250687016,0.1945345103740692,-0.03334712505412343,-0.10472016036510468,0.20779309365033422,0.9487140005927476,0.44082868184011514,left,-0.3125532865524292,-0.4796558024524601,0.34093444792367517,-8.693324016195534,-0.23590631205933654,0.1477828472852707,0.1178225502371788,4.525512554599344,0.15014681220054626
1776555962488205800,6.206205810546875,0.03520976318438181,0.2157842516899109,-0.03543858778686489,-0.26486441493034363,0.21268139314485318,0.948575713668691,0.44959742024019783,left,-0.38212937116622925,-0.472110533979598,0.3074552260395139,-8.728491775688529,-0.23176468557700988,0.161620631814003,0.13982021808624268,4.459740690267086,0.11646878719329834
1776555962528205800,6.246205810546875,0.02801278917533897,0.21236464381217957,-0.03921972681049268,-0.28092727065086365,0.21818910167867858,0.948141246579222,0.4590141071709712,left,-0.4142830967903137,-0.4657007351349537,0.2454247219263576,-8.758874054470658,-0.22777955874821126,0.15457306802272797,0.14889994263648987,4.403666920867562,0.0483817458152771
1776555962568205800,6.286205810546875,0.019682982623588103,0.11784715950489044,-0.04335300135700619,-0.28956514596939087,0.2225711345875896,0.9477903311676807,0.46591795774969125,left,-0.41078275442123413,-0.46042779258980115,0.17291193196652457,-8.783708051475882,-0.22422318711902964,0.054373472929000854,0.11780431121587753,4.357402597820759,0.03166350722312927
1776555962608205800,6.326205810546875,0.012787296803934048,0.08039233088493347,-0.047113498557411856,-0.13483697175979614,0.22543226864855204,0.9471401322786774,0.4703288850012986,left,-0.32302695512771606,-0.4604297408167772,0.11233849479388446,-8.784683033987879,-0.22335202371103227,-0.006506726145744324,0.1330357939004898,4.357419841216505,0.039383888244628906
1776555962648206000,6.3662060546875,0.011730623023234257,0.06547997146844864,-0.04822560371011113,0.003126293420791626,0.22663333458605234,0.9465116586582317,0.4727994531247477,left,0.0034030675888061523,-0.46336043436230623,0.10290565406805835,-8.771989556631445,-0.22456018243751913,-0.13619700074195862,0.06483341008424759,4.383148156712949,0.10929945111274719
1776555962688206000,6.4062060546875,0.009455766886754612,0.11187915503978729,-0.04937914937253404,-0.17209048569202423,0.22871073914422133,0.9463591265219053,0.47647140864525533,left,0.15675121545791626,-0.46045937816082233,0.08307027820087969,-8.784879433342814,-0.22283961327876387,0.18805617094039917,0.021673813462257385,4.35768024571836,0.1442924439907074
1776555962728205800,6.446205810546875,0.005039396983553528,0.15304124355316162,-0.05098239066081502,-0.2107541561126709,0.23218373098525097,0.9466409472128623,0.4822017435806849,left,0.222450852394104,-0.4508247023793321,0.04448183267735876,-8.82673646134138,-0.21762919976902534,0.2719520330429077,-0.0443589873611927,4.272836016647517,0.15376117825508118
1776555962768205800,6.486205810546875,0.0019818901398624415,0.14914673566818237,-0.05152600449958746,-0.09805716574192047,0.236006598391296,0.9472530850388918,0.4887942365878861,left,0.2395809292793274,-0.4371151585794423,0.017608305226633092,-8.884578409457205,-0.21061249808246382,0.4098026752471924,-0.03811894357204437,4.151426143984496,0.10949033498764038
1776555962808205800,6.526205810546875,0.0010449765821790326,0.09463956952095032,-0.05037686752727729,-0.042768750339746475,0.2396218065785565,0.9484138182072174,0.4951742254570802,left,0.2461269497871399,-0.41821526285693605,0.00936454356710019,-8.961461158129572,-0.2013822349562422,0.5192142724990845,-0.047135237604379654,3.98277667350173,0.03680649399757385
1776555962848205800,6.566205810546875,0.0020676317414525655,-0.02389989048242569,-0.04758170678387741,0.06939785182476044,0.24056884535499667,0.950279432775395,0.49631045274847463,left,0.2575639486312866,-0.398070171865801,0.01869114458536496,-9.039856649452448,-0.1919155375499864,0.4360507130622864,-0.054509956389665604,3.8014512613192197,-0.017838209867477417
1776555962888206000,6.6062060546875,0.006630981201588314,-0.04019208997488022,-0.04372165841034078,0.18852612376213074,0.23976168876169068,0.9517705264790678,0.4948464173587387,left,0.2869222164154053,-0.3851924244469761,0.06026246239417232,-9.087879214343427,-0.1863747097054454,0.1727459728717804,-0.060884036123752594,3.684726039341092,-0.06195938587188721
1776555962928206000,6.6462060546875,0.01422902685168174,0.05043309926986694,-0.039805502346496664,0.14550116658210754,0.2391482351352729,0.9521542972900132,0.4949066446584711,left,0.3768020272254944,-0.38266340976222013,0.1294423633379396,-9.096447720724344,-0.18607999516240717,0.01157127320766449,-0.0812922790646553,3.661730363678932,-0.1176692545413971
1776555962968205800,6.686205810546875,0.023179835425532022,0.11258052289485931,-0.03605189141059624,0.18968571722507477,0.2401855460049518,0.9517449022167456,0.4989068198680138,left,0.40533512830734253,-0.38375804743076614,0.21076361504755914,-9.090911713907122,-0.1875972860118823,-0.021328497678041458,-0.09781969338655472,3.6716865250259634,-0.1795111745595932
1776555963008205800,6.726205810546875,0.030060595435665683,0.029206126928329468,-0.03297051355412232,0.03711739182472229,0.2414337996188945,0.9515222855935324,0.5027986894177571,left,0.4117358326911926,-0.3823537656461296,0.27346522335531187,-9.094391372716427,-0.18769129819888067,0.10067436099052429,-0.11427335441112518,3.6589132604315875,-0.23736368119716644
1776555963048205800,6.766205810546875,0.026161962797572765,-0.11186850070953369,-0.03384511207964791,-0.15349160134792328,0.24094908261372322,0.9522859974507166,0.5006193143185158,left,0.3180181384086609,-0.3760344298976684,0.23860764405634252,-9.118320529836415,-0.18425398534724166,0.196793794631958,-0.10350893437862396,3.6013439917773007,-0.2447195202112198
1776555963088205800,6.806205810546875,0.018475634663039364,-0.1521872580051422,-0.036072337636171285,-0.1394881010055542,0.2390240502189194,0.9535119761730255,0.4946778176440774,left,0.23128116130828857,-0.36870680239676584,0.16899788206163793,-9.14602511384189,-0.17994799358927943,0.20408858358860016,-0.10758041590452194,3.5344095134064553,-0.24430398643016815
1776555963128205800,6.846205810546875,0.010644313604777371,-0.17450135946273804,-0.03808781856959724,-0.09020043164491653,0.2362083426208663,0.9550398058227522,0.48686284442742017,left,0.11711376905441284,-0.3601506575448179,0.09768628458511083,-9.176972040769458,-0.17508270658387431,0.20647378265857697,-0.11375905573368073,3.456012853039801,-0.21002645790576935
1776555963168206000,6.8862060546875,0.0067670830429313635,-0.12044285237789154,-0.038491902602245553,-0.011068515479564667,0.2337415812420683,0.9563557844067926,0.48062365231343074,left,0.09606695175170898,-0.3524651662095545,0.06228230518344789,-9.203571293881534,-0.17107553593260977,0.16870637238025665,-0.12578943371772766,3.3853780588462947,-0.1765979379415512
1776555963208205800,6.926205810546875,0.005049543301675008,-0.08189046382904053,-0.03818789938533695,0.02612265571951866,0.23177224585000591,0.9573934095788494,0.4759172846237659,left,0.08897626399993896,-0.3462467511214813,0.04658012469743844,-9.224538094064593,-0.1679915003316907,0.13988417387008667,-0.10132113844156265,3.3280800083488224,-0.14655113220214844
1776555963248205800,6.966205810546875,0.007554755162866476,0.06670714914798737,-0.036384847333979044,0.05875394865870476,0.23172119475059363,0.9578636836819353,0.4760096530202042,left,0.101260244846344,-0.3409954551639544,0.06982044560331852,-9.241741157799959,-0.16576634106423893,0.14340054988861084,-0.1006399542093277,3.2795930408164855,-0.1353553682565689
1776555963288205800,7.006205810546875,0.01477931883458192,0.12630203366279602,-0.032615529011864514,0.1952398419380188,0.23324112197600028,0.9579564146212861,0.48016378257104275,left,0.19072049856185913,-0.33543510625978407,0.13685297752115874,-9.259086260354518,-0.16387253513020086,0.17154404520988464,-0.0790361613035202,3.228153653219342,-0.1697835922241211
1776555963328205800,7.046205810546875,0.02458322795499143,0.22446545958518982,-0.02714272977538091,0.11461696028709412,0.23632437599688208,0.9581345968298012,0.4876629193859614,left,0.31266194581985474,-0.3238136201401648,0.2285269795468077,-9.294178032001852,-0.15934885940241422,0.44926199316978455,-0.048509061336517334,3.1203222240537403,-0.21242035925388336
1776555963368205800,7.086205810546875,0.029462275065011388,0.15872767567634583,-0.022771371383809396,-0.10063241422176361,0.2401624139620395,0.9588860436330733,0.49530843491694576,left,0.2758558988571167,-0.30216240873797473,0.27579660717863586,-9.358298914256691,-0.1494691099934514,0.6156740188598633,0.01038346253335476,2.9183155506312843,-0.1740853488445282
1776555963408206000,7.1262060546875,0.026990750988215753,0.45837265253067017,-0.02191684928352839,0.5771081447601318,0.24517302725558915,0.9592646573177892,0.5042643146852327,left,-0.04064762592315674,-0.280391669263917,0.2543211450873874,-9.420239529863,-0.13864015557692044,0.13813376426696777,0.17416229844093323,2.713814430044591,-0.0727064311504364
1776555963448205800,7.166205810546875,0.029980294600331643,-0.009744197130203247,-0.0180687105987397,-0.39266741275787354,0.2506769159439278,0.959532676380417,0.5149275223188615,left,0.2900317907333374,-0.2555733660787556,0.2844139211373404,-9.48385187807381,-0.12701046100598318,0.7507380843162537,0.17554301023483276,2.4791230461165306,-0.09159407019615173
1776555963488205800,7.206205810546875,0.010798131974862221,0.03726173937320709,-0.024018947792171553,-0.2790253162384033,0.2513587947194616,0.9610055503716408,0.5129056570722929,left,0.040051281452178955,-0.23080562628211954,0.10308348571984097,-9.546045007136463,-0.1127397823492736,0.48192185163497925,0.1825961321592331,2.2433875599630175,0.10634641349315643
1776555963528205800,7.246205810546875,-0.001562990771334369,-0.12921112775802612,-0.02750585961467591,-0.3793568015098572,0.25130421865636804,0.9620975671903783,0.5108254864515358,left,-0.006075561046600342,-0.21218909458782734,-0.014983908114861695,-9.586696750998497,-0.10226391294763466,0.463483601808548,0.03755059838294983,2.0652844708278773,0.16068074107170105
1776555963568205800,7.286205810546875,-0.017206229509443175,-0.1356234848499298,-0.03281970176581773,-0.3365318775177002,0.24957376947460191,0.9633327636714495,0.5053029067721618,left,-0.14157235622406006,-0.1965857376981686,-0.16547730672005562,-9.61634194767773,-0.0928755401805232,0.3842763602733612,0.003937141969799995,1.9154544132359326,0.241944819688797
1776555963608205800,7.326205810546875,-0.024205730506611515,-0.015441417694091797,-0.034384459442008936,-0.026711970567703247,0.24865876308906396,0.9641995143989008,0.502563403754345,left,-0.2558234930038452,-0.18294591687552358,-0.23339297814797608,-9.640171736076473,-0.0854735546710553,0.2868041694164276,-0.07680825889110565,1.784095685749501,0.2669612169265747
1776555963648206000,7.3662060546875,-0.021955124809343772,0.14555016160011292,-0.032255946877515713,-0.0105882678180933,0.25001319787342297,0.9642950841237978,0.5054592181930445,left,-0.08392572402954102,-0.1735333415651435,-0.2120554449563846,-9.657034608072042,-0.08116543944113377,0.2715732157230377,-0.0838499516248703,1.6932525085248051,0.25211477279663086
1776555963688206000,7.4062060546875,-0.019888711553933364,0.12154918909072876,-0.030254197208696525,0.06766490638256073,0.2525354135905123,0.9640722976216594,0.5107483327626771,left,-0.11179280281066895,-0.1638027734599404,-0.192418158077728,-9.6734672719568,-0.0766491969933396,0.17943087220191956,-0.029993917793035507,1.5991827704690396,0.22955039143562317
1776555963728205800,7.446205810546875,-0.017028257593507207,0.15665742754936218,-0.02829357983566532,0.0613078773021698,0.2553376916260331,0.9636123863581697,0.5167103470445366,left,-0.12936222553253174,-0.15741542097902772,-0.16491746261389925,-9.683993926668167,-0.07384570688987684,0.14541488885879517,0.0042072441428899765,1.537350437542796,0.23803803324699402
1776555963768205800,7.486205810546875,-0.008960856189480145,0.18682554364204407,-0.023959531295064264,0.30259186029434204,0.2587088844426053,0.9629654284036575,0.5242408188850132,left,-0.0872841477394104,-0.15176734342936782,-0.08686470204778016,-9.69353741556108,-0.07206297595247764,0.11077725887298584,0.026399997994303703,1.4826223836638033,0.18475858867168427
1776555963808205800,7.526205810546875,-0.0008711639019194385,0.17747250199317932,-0.01961090439818337,0.016053885221481323,0.26286195519133565,0.9620808953242601,0.5333617930365508,left,0.018583714962005615,-0.14578041133428335,-0.008452555275982012,-9.702625561901927,-0.07013687028034095,0.18938100337982178,0.05635453015565872,1.4245591940127311,0.11293193697929382
1776555963848205800,7.566205810546875,0.004314779789523627,0.09834674745798111,-0.01666550233370516,0.039834052324295044,0.2653223704796167,0.9615825254803825,0.5387521210382057,left,0.019530534744262695,-0.14094982867292746,0.04189380721184425,-9.709307231622933,-0.06844972867394052,0.1355610340833664,0.006811024621129036,1.377673524197191,0.07135525345802307
1776555963888206000,7.6062060546875,0.004721399844149629,0.000027194619178771973,-0.016041732756583004,-0.047396279871463776,0.26658388210875383,0.9613724742625083,0.5413214937410974,left,-0.10796451568603516,-0.13708094565990708,0.0458666243995307,-9.714546885842084,-0.06662303039387991,0.1267392784357071,-0.013864314183592796,1.3400987035624683,0.04611988365650177
1776555963928206000,7.6462060546875,0.004342101719352209,-0.10105092823505402,-0.015787707867156026,0.058158911764621735,0.2651856062235199,0.9618488594698484,0.5383337501784582,left,-0.22957372665405273,-0.13454282979542811,0.042196543884929265,-9.717933021149038,-0.0653761448029839,-0.04521586000919342,-0.011624917387962341,1.3154374327756464,0.11163178086280823
1776555963968205800,7.686205810546875,0.000440846957558725,-0.1626085489988327,-0.016960946014588116,0.08569972217082977,0.2629519550107449,0.9626055311639952,0.5333510965648188,left,-0.5808129906654358,-0.13042587515127693,0.0042865373353226455,-9.72335738428533,-0.06292119703974276,-0.0025113187730312347,0.033216316252946854,1.2754178493373096,0.1612243801355362
1776555964008205800,7.726205810546875,0.004005058270479749,0.05709578096866608,-0.01567832014188863,-0.02794019877910614,0.26167782889414165,0.9628180133681357,0.5310156525397037,left,-0.35363519191741943,-0.13429602099393514,0.0389224769505905,-9.718271459323168,-0.06527057277916815,-0.00800673384219408,-0.03801397606730461,1.3130389933317899,0.18699151277542114
1776555964048205800,7.766205810546875,0.005204018171219925,0.09851135313510895,-0.014945628282554088,0.047749005258083344,0.2626386252899453,0.9626133636325596,0.5330578531878334,left,-0.3741503953933716,-0.13260530520126737,0.050585743609606285,-9.720423668920994,-0.06459832538657316,0.040000367909669876,-0.045059479773044586,1.2966061833165585,0.23009739816188812
1776555964088205800,7.806205810546875,0.009800384134227316,0.11172687262296677,-0.012494619280791638,0.10830006003379822,0.2648386521161563,0.9621028381154674,0.5378716419815021,left,-0.36407583951950073,-0.1296245774728432,0.0953011338810902,-9.723909757471084,-0.06373734579308982,0.1175428032875061,0.016175737604498863,1.267626026417315,0.1517723947763443
1776555964128205800,7.846205810546875,0.016671443806696676,0.12235110998153687,-0.008269616286073804,0.12466669082641602,0.266909715247986,0.9617663769102713,0.5424310069034013,left,-0.22659116983413696,-0.12165834969804136,0.16227513141157104,-9.732813779416679,-0.06079646095735844,0.3294777572154999,0.0857178121805191,1.1901201043453067,0.06023881584405899
1776555964168206000,7.8862060546875,0.01770671590414137,-0.009889364242553711,-0.0057729892632286915,0.03824208676815033,0.2677536867490672,0.961977007460277,0.5438750020806844,left,-0.31578946113586426,-0.10644989238264112,0.1726516735951416,-9.749611184960603,-0.053617439000756884,0.3291780352592468,0.10755780339241028,1.0419465087234974,0.012155912816524506
1776555964208205800,7.926205810546875,0.021144703614368963,0.09015711396932602,-0.002562306083375318,0.024270737543702126,0.2683648513670114,0.9620971598017017,0.5450475699666272,left,-0.2777825593948364,-0.0946516455050572,0.20641519231339917,-9.760571554914117,-0.04840213507940221,0.32425543665885925,0.02497982233762741,0.9268302563119679,-0.08757831901311874
1776555964248205800,7.966205810546875,0.019625125585795787,-0.07081034034490585,-0.0013405213878153262,-0.1232011690735817,0.26927162730955645,0.9621853747493658,0.546531673166733,left,-0.37920790910720825,-0.07992276840979701,0.19183011079039425,-9.773463769713043,-0.041112545708537666,0.40669015049934387,-0.038015663623809814,0.7829405485544353,-0.21798041462898254
1776555964288205800,8.006205810546875,0.014006007011105928,-0.2885833978652954,-0.0023121532593484958,-0.20529863238334656,0.265674185821502,0.9634360401337345,0.5386167617016405,left,-0.3967028856277466,-0.06810925815067073,0.13702910127304493,-9.782953482592106,-0.03468214306172323,0.20363196730613708,-0.1079384908080101,0.6674074589703232,-0.22067072987556458
1776555964328205800,8.046205810546875,0.009323987296458018,-0.2588289678096771,-0.003606225951594288,-0.060448452830314636,0.25944908255580024,0.9652410392169938,0.5254622833472113,left,-0.2909383773803711,-0.06243236766451598,0.09125763977710157,-9.787118785578011,-0.03134996903744619,0.12175962328910828,-0.1595936417579651,0.611854790835455,-0.08332516998052597
1776555964368205800,8.086205810546875,0.009306264704764778,-0.08900068700313568,-0.003073953528584605,0.06270205974578857,0.25582126020391993,0.9662607362456679,0.5179066373403843,left,-0.04537498950958252,-0.05913365644693282,0.09110247661485336,-9.789085117214917,-0.02976755237653988,0.04505588114261627,-0.13609132170677185,0.5795652171272784,0.08549975603818893
1776555964408206000,8.1262060546875,0.01029553641298045,0.09262579679489136,-0.002095178531321848,0.01622665300965309,0.2560382781317171,0.9662592707415757,0.5183360230258387,left,0.0502738356590271,-0.055175606902472536,0.10080932110962457,-9.79120751619637,-0.02798147731817276,0.1037558987736702,-0.05557577684521675,0.5408134251350537,0.1895887553691864
1776555964448205800,8.166205810546876,0.013247983855698992,0.1551555097103119,-0.00039202332974415984,0.05145782604813576,0.2593873781265259,0.9653968645630678,0.5253173911679299,left,0.15141189098358154,-0.05228229206184295,0.1297370537018869,-9.792390588501096,-0.026960469325727005,0.14301787316799164,0.008968732319772243,0.512480662761256,0.1594563126564026
1776555964488205800,8.206205810546875,0.015921576809852196,0.030458085238933563,0.0019543005304289494,0.06922419369220734,0.2610208986167374,0.9650512411412909,0.5286555342644834,left,0.2268487811088562,-0.04385438456583389,0.1559806526435539,-9.795979552903772,-0.02324257703772607,0.27873045206069946,0.03269222006201744,0.4299268096499145,0.16119928658008575
1776555964528205800,8.246205810546876,0.01983013354639396,0.06286917626857758,0.00531503342842185,0.11707986891269684,0.26163931563161286,0.9649780548420208,0.52986086472194,left,0.3548983931541443,-0.03248583797931291,0.19435186608666552,-9.799548643562197,-0.018270554259399215,0.2725425958633423,0.019376421347260475,0.31852124832458795,0.13186872005462646
1776555964568205800,8.286205810546875,0.02384136680814223,0.0917636901140213,0.00843626521849394,0.11826114356517792,0.26327987025321437,0.9645757580232921,0.5331937088451768,left,0.43807119131088257,-0.023249447456898917,0.23371864817207677,-9.801213361904024,-0.014353227508120034,0.13981576263904572,0.03629268705844879,0.22797869801428167,0.07208596915006638
1776555964608205800,8.326205810546876,0.024776992223041052,0.17446665465831757,0.00944054048634814,-0.0026146918535232544,0.2655698951294583,0.9639659690398656,0.5378899822956766,left,0.4561436176300049,-0.01883228256378109,0.24291138739855958,-9.801901344168186,-0.012368391044452923,0.04983707517385483,0.05485460162162781,0.18467074055504054,0.05614878609776497
1776555964648206000,8.3662060546875,0.02416108508892413,0.23956093192100525,0.009417551230755883,0.002152180764824152,0.26961046233506303,0.962858658562585,0.5462350976959252,left,0.4379269480705261,-0.01642156697047333,0.2368843456613831,-9.802465992313623,-0.01116413577971091,0.048562921583652496,0.06776991486549377,0.16103336945585905,0.004478234797716141
1776555964688206000,8.4062060546875,0.023937263730866947,0.25040286779403687,0.009792834909063939,-0.03745538741350174,0.27448734189902163,0.9614958815507951,0.5563146096869631,left,0.40817558765411377,-0.012494483324329193,0.23470365888774394,-9.803075064122677,-0.00929290339533255,0.14572514593601227,0.04302574694156647,0.12252588021405972,-0.057682789862155914
1776555964728205800,8.446205810546875,0.02279544237753196,0.21160879731178284,0.010209773971870163,-0.017198553308844566,0.27893237658518155,0.9602394589544451,0.5654641749287042,left,0.2905192971229553,-0.005270589689036319,0.22352449508439748,-9.80396587548256,-0.005710158138939577,0.17370472848415375,0.033731184899806976,0.05168662665674928,-0.08608320355415344
1776555964768205800,8.486205810546876,0.021699846131618693,0.21584005653858185,0.010558323065902665,-0.025052936747670174,0.2829845982691793,0.959062867215474,0.57383208443118,left,0.22181236743927002,0.001075253718545701,0.21278600598694755,-9.804335293316841,-0.0025548023380779932,0.1367831975221634,0.04614013805985451,-0.010544597935077036,-0.10576283186674118
1776555964808205800,8.526205810546875,0.022146169258918415,0.2110656499862671,0.011394563678756003,0.03423517942428589,0.28704747187820306,0.9578483853959889,0.582264536067451,left,0.19676876068115234,0.005488808662959796,0.21715874117845668,-9.804097392907739,-0.0005495547664829836,0.06826629489660263,0.06779828667640686,-0.053826520195696496,-0.11835244297981262
1776555964848205800,8.566205810546874,0.023405437552690315,0.1771407425403595,0.012196540172065206,-0.020362213253974915,0.29075272639825056,0.956720455197161,0.5899916280537382,left,0.2538701891899109,0.0068772490644381165,0.2295025831133127,-9.803732066726685,-0.0001124465152125286,-0.0020892173051834106,0.06665968894958496,-0.06744220869727433,-0.1332090049982071
1776555964888206000,8.6062060546875,0.02109043820015459,0.11719120293855667,0.011014537183294136,-0.038001276552677155,0.29354657900342623,0.9558813225199095,0.5958396635214944,left,0.21477282047271729,0.006364787686774613,0.20680705944150685,-9.804270411387085,-0.000053256980308450416,-0.04248081147670746,0.09474265575408936,-0.06241679088384844,-0.16144199669361115
1776555964928206000,8.6462060546875,0.01972591799761616,0.07657814025878906,0.009863061262655896,-0.08379779756069183,0.2952535986455208,0.9553668909214028,0.5994432521270604,left,0.23748844861984253,0.0029804196344642435,0.1934318103659898,-9.804698281410335,-0.0014883253061941826,-0.0979083999991417,0.049103744328022,-0.029227852616575546,-0.14784324169158936
1776555964968205800,8.686205810546875,0.017439183738292372,0.08116979151964188,0.008071830577355712,-0.025002971291542053,0.2967960687593928,0.9549007229446849,0.6027104164614874,left,0.20869559049606323,-0.0017163230142147048,0.17101108504757284,-9.805144271612166,-0.0034075256104118515,-0.09819132834672928,0.027845023199915886,0.016831407136580673,-0.1537540853023529
1776555965008205800,8.726205810546874,0.015252814108571872,-0.022589221596717834,0.00664911190895008,-0.07184964418411255,0.2974740370022902,0.954697084965771,0.6041435750104125,left,0.2001880407333374,-0.00424821805090232,0.14957189071294852,-9.805420750465988,-0.004296693540807454,-0.02782517671585083,0.013193474151194096,0.041660701708868146,-0.15249305963516235
1776555965048205800,8.766205810546875,0.01535635961972323,-0.11289940029382706,0.006490080770945826,0.03766945004463196,0.2961792450170256,0.9550972541373114,0.6014443623867786,left,0.24969631433486938,-0.005694933311547388,0.15058611838994546,-9.805334825748204,-0.004993919170370463,-0.019967101514339447,-0.0069586606696248055,0.055847952153859654,-0.14003325998783112
1776555965088205800,8.806205810546874,0.014368358519903432,-0.19373849034309387,0.005979014843805757,-0.07665777951478958,0.29331620858812435,0.9559836575007463,0.5954497512928743,left,0.24804562330245972,-0.00606137594188301,0.14089806079403497,-9.805457575345038,-0.005004699965800231,-0.026617389172315598,-0.02726433053612709,0.059441464867489406,-0.09386919438838959
1776555965128205800,8.846205810546875,0.007567628276836361,-0.22452443838119507,0.0026672139951770834,0.24481120705604553,0.28940991835515506,0.9571920648242989,0.5872532001398153,left,-0.1068219542503357,-0.006596759189087085,0.07421078951675444,-9.806156079003214,-0.004252306309285756,-0.22316284477710724,0.03883546590805054,0.06469167701327241,-0.10968776047229767
1776555965168206000,8.8862060546875,0.01642642780271299,-0.18683555722236633,0.005565140108788025,-0.25857987999916077,0.28541518803539845,0.9583347228824107,0.5790514064539651,left,0.3338291645050049,-0.01615419277394546,0.1610600017344579,-9.804047708547115,-0.010085328616708565,-0.018284425139427185,-0.07270505279302597,0.15841166091645137,-0.0032906848937273026
1776555965208205800,8.926205810546875,0.005251686146351456,-0.2857099771499634,-0.00004201240805495186,-0.12070341408252716,0.2801868057255874,0.9598983601457383,0.5680518644944569,left,-0.10615140199661255,-0.018289660430647073,0.05149262475487776,-9.80487480702102,-0.009514079238520778,-0.11069952696561813,-0.017278648912906647,0.17935034924987703,0.06173180416226387
1776555965248205800,8.966205810546874,0.004884360671037762,-0.30215877294540405,-0.0009422968835538814,0.009129807353019714,0.2747847497100489,0.9614281633155031,0.5568328180161929,left,-0.1286798119544983,-0.02394433594581493,0.04788532097791321,-9.80372212985456,-0.012181976393389195,-0.16506744921207428,-0.06884470582008362,0.23479133717119693,0.16874456405639648
1776555965288205800,9.006205810546875,0.0040346496621696095,-0.20018121600151062,-0.0021672146345427155,0.0681825578212738,0.2698022261145307,0.9627932834510504,0.5465028681236619,left,-0.16486650705337524,-0.030457120342530643,0.03954796560490504,-9.80202234019935,-0.015207300229481404,-0.16082198917865753,-0.053544782102108,0.29863619722994045,0.24331827461719513
1776555965328205800,9.046205810546875,0.002460616007266171,-0.0779539942741394,-0.00359643620737227,-0.041514426469802856,0.26702855489197946,0.9635215850729285,0.5407499509015522,left,-0.15506422519683838,-0.03580865993947126,0.024114932332921307,-9.800333656460046,-0.017581497892247184,-0.17418497800827026,-0.0668751671910286,0.3510879950063303,0.2642977237701416
1776555965368205800,9.086205810546875,0.004982059428418859,-0.014460302889347076,-0.003494046286195041,0.09901165962219238,0.26650494568928645,0.9635767335263206,0.5397770605858349,left,-0.05589526891708374,-0.044218157505737404,0.048809381586848756,-9.796942844977975,-0.021970947746623462,-0.14824120700359344,-0.07424868643283844,0.4334907492091879,0.16232359409332275
1776555965408206000,9.1262060546875,0.00579766487157119,0.03754478320479393,-0.00345800720875942,-0.023349054157733917,0.26660281866699037,0.9635171467282155,0.5400232916036821,left,-0.09774798154830933,-0.04687390798672701,0.05679292768666055,-9.795714179965852,-0.023358648130721974,-0.029750555753707886,-0.0938454195857048,0.45950774545390155,0.16480253636837006
1776555965448205800,9.166205810546876,0.007861971685130519,-0.04591827467083931,-0.0028110601411155257,0.10877030342817307,0.26706336338858255,0.9633546343090217,0.5410562903059127,left,-0.12624090909957886,-0.049383493217401334,0.07700484068207443,-9.794391991451382,-0.024841299063430057,-0.10274656862020493,-0.07900387793779373,0.4840898865899071,0.11004848033189774
1776555965488205800,9.206205810546875,0.007971626414422285,-0.16770146787166595,-0.0033807912452267688,-0.09263093024492264,0.264815180772053,0.9639057345386213,0.5364502864120309,left,-0.10526341199874878,-0.05451350040323085,0.07805802126312628,-9.791770995298027,-0.02733458937500113,-0.1861189603805542,-0.04052470624446869,0.5343301275303587,0.15384693443775177
1776555965528205800,9.246205810546876,0.01107606859678153,-0.19560673832893372,-0.003182382910892054,0.19219395518302917,0.26183352430658124,0.9645492711144017,0.5304987569797052,left,-0.08159703016281128,-0.06504305539408084,0.1083872546837665,-9.78531319746077,-0.03282916491475373,-0.2540903687477112,0.004419343546032906,0.6374049002207816,0.12700478732585907
1776555965568205800,9.286205810546875,0.017925553533276968,-0.16411469876766205,-0.0009450712317451234,0.0959949865937233,0.2581700634772344,0.9653453259100576,0.5233103122195929,left,0.002566695213317871,-0.07421760368281416,0.17529634288502857,-9.778082661685348,-0.038152932107691176,-0.15282708406448364,0.03919760137796402,0.7271581633169204,0.13551779091358185
1776555965608205800,9.326205810546876,0.008022913731122981,-0.032675474882125854,-0.005185195674679551,-0.43054381012916565,0.2574155039833737,0.9656529179438504,0.5213091519284344,left,-0.616325318813324,-0.07031606416417707,0.07848266728282906,-9.782101249676943,-0.03499633936284944,0.39397740364074707,0.030241506174206734,0.6889969941616058,-0.0976867750287056
1776555965648206000,9.3662060546875,0.011346541845201978,-0.01275695115327835,-0.0031200645365090994,0.15284261107444763,0.25571467224618033,0.966151832686495,0.5178623702582329,left,-0.5322595238685608,-0.06719724634541899,0.11101808724454604,-9.783887548571824,-0.03392375390322986,0.026206552982330322,0.06415422260761261,0.6584841478023677,0.021367579698562622
1776555965688206000,9.4062060546875,0.015747941727001356,0.05061008781194687,-0.0012842443484760626,0.09809163212776184,0.25544213743514776,0.9661675448408675,0.5174932746413894,left,-0.3403506278991699,-0.06951594088062889,0.15405521927261726,-9.78175112106502,-0.03560659102455021,-0.14526903629302979,0.12861625850200653,0.6811696615368127,0.13462868332862854
1776555965728205800,9.446205810546875,0.0221107153533676,0.12123780697584152,0.0011181859582963041,0.19117066264152527,0.25745688794873944,0.9655168179290092,0.5219965810633761,left,-0.3757990598678589,-0.07407993226051979,0.21621976156160233,-9.777363115239142,-0.03862592675468981,-0.0959332212805748,0.10350342094898224,0.7258117171440273,0.14605721831321716
1776555965768205800,9.486205810546876,0.02817778772238136,0.2646620273590088,0.0037242590218239907,-0.015887752175331116,0.261574720765469,0.9643479636507852,0.5308043371200407,left,-0.24647867679595947,-0.07521678306271941,0.27551196328466754,-9.775040225249528,-0.03997220199025262,0.08412342518568039,0.046979375183582306,0.7369293965511023,0.12376730144023895
1776555965808205800,9.526205810546875,0.02454650330381912,0.18838033080101013,0.0031146804329701704,-0.0996185913681984,0.26597843668245713,0.9633470485733515,0.5395764325361533,left,-0.2819365859031677,-0.06536071742755908,0.24018088472243396,-9.782762343934177,-0.034759573948573805,0.3272629976272583,0.07018574327230453,0.640513460695371,0.050237543880939484
1776555965848205800,9.566205810546874,0.017843341722273726,0.15748153626918793,0.0018178031624053732,-0.3023855984210968,0.2696258229505511,0.9625972018067117,0.5466550424483198,left,-0.3027949333190918,-0.050166094727051073,0.17475403443556278,-9.79275357659459,-0.02655592026639102,0.3946252465248108,0.02675248682498932,0.4917550509229302,-0.007098056375980377
1776555965888206000,9.6062060546875,0.010954986817587187,0.19766566157341003,0.00023384498118978023,-0.04243841767311096,0.27296947103106656,0.9618304573090237,0.5532636797940925,left,-0.3446044921875,-0.03686943994832422,0.10735659646177664,-9.799397252392769,-0.019228312122638296,0.3258596658706665,0.05488758534193039,0.3614838264122605,-0.06388445198535919
1776555965928206000,9.6462060546875,0.008695491030998443,0.37711361050605774,0.0013689751912652186,-0.18729498982429504,0.27900385799681104,0.9602274528340176,0.5656355137029917,left,-0.20121514797210693,-0.02010944361051568,0.0852553488886915,-9.804296714872121,-0.0108682515553971,0.5726199150085449,-0.024015245959162712,0.19719302606303243,-0.12215705215930939
1776555965968205800,9.686205810546875,-0.003979611290294436,0.2832498550415039,-0.0010631732735622947,-0.3761599063873291,0.28511415270554263,0.9584869116027711,0.5782665997178172,left,-0.28209418058395386,0.005920501827531372,-0.039025841426942494,-9.806400409153103,0.003404698934756883,0.6641049385070801,-0.007379242219030857,-0.05805991541517432,-0.11287994682788849
1776555966008205800,9.726205810546874,-0.018078440916357744,0.15569284558296204,-0.004226763958725516,-0.247530996799469,0.2896583513292296,0.9569657239024256,0.588110910308022,left,-0.29328644275665283,0.030525450646580417,-0.1771966783473268,-9.800479786932469,0.017225980191868266,0.5289574265480042,0.011654885485768318,-0.29930589491873977,-0.09052915126085281
1776555966048205800,9.766205810546875,-0.026797718574487456,0.022913038730621338,-0.006165032619647036,-0.20577895641326904,0.2907811503342526,0.9564231542766768,0.590911664002723,left,-0.07921624183654785,0.04568162344801107,-0.2624902586208656,-9.792902045154571,0.025747540348222346,0.2220364511013031,0.030808541923761368,-0.4478278655868023,0.06991948187351227
1776555966088205800,9.806205810546874,-0.03303732370407077,0.27606236934661865,-0.009086611189812892,-0.19478271901607513,0.2931266734046818,0.9556586623173035,0.5959886406026905,left,0.08261370658874512,0.04564450975096923,-0.3235891261734068,-9.791090611818433,0.02665999910600123,-0.17617198824882507,-0.014887962490320206,-0.44746429297141727,0.23973551392555237
1776555966128205800,9.846205810546875,-0.04251872692881519,0.47502100467681885,-0.015532145607210047,-0.23981797695159912,0.30078546285993624,0.9533252877034275,0.6119217166680756,left,0.10916697978973389,0.03145399531335478,-0.4166344530848786,-9.792940623599291,0.021394846431581824,-0.43592900037765503,-0.02080800011754036,-0.30840744873043147,0.2476271539926529
1776555966168206000,9.8862060546875,-0.047751436838317736,0.45756614208221436,-0.021008040618370957,-0.035685598850250244,0.30978105355352,0.9504925687256365,0.6303812553228795,left,0.11130613088607788,0.010900025419013469,-0.46807584997601803,-9.794889419579505,0.012580632547391597,-0.5038325786590576,-0.013923116028308868,-0.10689058638522402,0.19440406560897827
1776555966208205800,9.926205810546875,-0.04714286814117237,0.29374945163726807,-0.024173702450928865,0.12096156179904938,0.3168013626360929,0.9481816539391682,0.644636338437596,left,0.10851413011550903,-0.01148522450529491,-0.4621119000703096,-9.795108615288138,0.002020473468001112,-0.5870389938354492,-0.011727023869752884,0.11262913917037658,0.13802781701087952
1776555966248205800,9.966205810546874,-0.036024000714466105,0.03010702133178711,-0.022698911612982015,0.35037168860435486,0.3196475933254385,0.9472011403242523,0.6502938846969858,left,0.29383617639541626,-0.03528245939543138,-0.3529785214606672,-9.794187993311882,-0.010960625885580437,-0.5240010023117065,-0.02282712236046791,0.34593097756933416,0.036586303263902664
1776555966288205800,10.006205810546875,-0.022779412577749056,-0.14700795710086823,-0.019205409289435645,0.34028467535972595,0.31798736223081736,0.9476571816461877,0.6468872458901801,left,0.42684662342071533,-0.052932371562640745,-0.2230575351597741,-9.790373987981676,-0.021470581852786483,-0.3482992649078369,-0.008696475997567177,0.5188469098575413,-0.004406161606311798
1776555966328205800,10.046205810546875,-0.009937693071753635,-0.20377007126808167,-0.014774017386374334,0.33242934942245483,0.3141053789274359,0.9488348645145408,0.6390576913143011,left,0.4839576482772827,-0.06405820273783054,-0.09725396671560592,-9.786053202173113,-0.028842323959291618,-0.230250284075737,-0.011166068725287914,0.6277668649122119,-0.021217666566371918
1776555966368205800,10.086205810546875,0.0011496405961444985,-0.18264581263065338,-0.010601515240305844,0.25659048557281494,0.3100621802713804,0.9500370260961521,0.6309797007203213,left,0.47013986110687256,-0.07187015171381943,0.011245044671877985,-9.781327342694997,-0.03433236600278315,-0.16640165448188782,-0.014104243367910385,0.7041988741423935,-0.0413515567779541
1776555966408206000,10.1262060546875,0.0100784882013401,-0.1180637925863266,-0.0071060338805333835,0.20220153033733368,0.3070461922452728,0.9508942427124587,0.6250575993570454,left,0.39290475845336914,-0.0774113889138607,0.09853858143235557,-9.776785023090243,-0.03836932257306897,-0.10947947204113007,-0.015675608068704605,0.7583885102957487,-0.07328146696090698
1776555966448205800,10.166205810546876,0.016231901365392546,-0.11357951164245605,-0.004575783787888386,0.11275775730609894,0.3047947130498527,0.951531689041097,0.6206408067066441,left,0.2793051600456238,-0.080569219178542,0.15865726970797403,-9.773550278952717,-0.040825088182530125,-0.06487907469272614,-0.025115538388490677,0.7892596685733646,-0.097993403673172
1776555966488205800,10.206205810546875,0.019793364598731707,-0.13467690348625183,-0.0033055032297958954,0.09072130918502808,0.3022654922882913,0.952245973771475,0.615560949331492,left,0.1658347249031067,-0.08406177504074216,0.19340859388718382,-9.770107445022463,-0.04303747721025839,-0.11866439878940582,-0.03788340836763382,0.8233939203001558,-0.11405909061431885
1776555966528205800,10.246205810546876,0.02258825827065153,-0.11784742027521133,-0.002875661007769559,0.1187681183218956,0.29967670684445347,0.9528941466616708,0.6104217930986409,left,0.09904932975769043,-0.09079734861350006,0.2205839481204748,-9.763762459909916,-0.04667313003434739,-0.22773152589797974,-0.04110541194677353,0.8891949376616627,-0.11926786601543427
1776555966568205800,10.286205810546875,0.027213885404996647,-0.15302720665931702,-0.002336339327159589,0.09602782130241394,0.2968974710854174,0.953429797237514,0.6051638132784213,left,0.17521393299102783,-0.1027950292023943,0.26543553655883295,-9.751271227127313,-0.053085598217832666,-0.3472428321838379,-0.05345676839351654,1.0063005372595042,-0.13318540155887604
1776555966608205800,10.326205810546876,0.027026314677377726,-0.18882015347480774,-0.004436642008821656,-0.029511377215385437,0.2934140971225725,0.9540804817570275,0.598304221557142,left,0.151167631149292,-0.11766468495655064,0.2631729984543286,-9.735285137966274,-0.06015730202705239,-0.37957528233528137,-0.03885927051305771,1.1512356624167412,-0.15303297340869904
1776555966648206000,10.3662060546875,0.025955982058462262,-0.16421587765216827,-0.006966249547824734,-0.008315347135066986,0.2900665147098004,0.9546139972954621,0.5917107516689578,left,0.12854349613189697,-0.13286219933175702,0.25226961938505993,-9.716948101764917,-0.06726818612089407,-0.3578317165374756,-0.04841599613428116,1.2991032608292996,-0.16553926467895508
1776555966688206000,10.4062060546875,0.02755914936309777,-0.09704127162694931,-0.0081704577614813,0.08184412121772766,0.2874982618652481,0.954841390599433,0.586960102671636,left,0.21402782201766968,-0.14757711475718904,0.267291430091206,-9.69637059316039,-0.07453805099305744,-0.3486438989639282,-0.07586836814880371,1.4419896367631853,-0.15840156376361847
1776555966728205800,10.446205810546875,0.02886655034737028,-0.08756036311388016,-0.009066284561897897,0.02782003954052925,0.28577181826884673,0.9548963495679015,0.5838727819655802,left,0.26097995042800903,-0.15893421657975332,0.27947752418108285,-9.679017891821264,-0.08015747922765015,-0.23416626453399658,-0.08775708824396133,1.5520587618529795,-0.15919414162635803
1776555966768205800,10.486205810546876,0.02720735690054218,-0.07881774008274078,-0.010540529617982856,-0.0365547277033329,0.28431648872936205,0.95510707724403,0.5808977134213671,left,0.14468145370483398,-0.16452610649644134,0.2631775650315918,-9.670641108620167,-0.08260391234286663,-0.061052143573760986,-0.06568676233291626,1.6061808126628399,-0.16929839551448822
1776555966808205800,10.526205810546875,0.03327391981875564,-0.09875615686178207,-0.007984767887648635,0.10566286742687225,0.28320091498376493,0.9552665761112128,0.5792087021942505,left,0.42907965183258057,-0.16740767342275964,0.3216846077263355,-9.664200846439599,-0.08484764503854407,-0.001483779400587082,-0.01084163784980774,1.634051108624041,-0.096452996134758
1776555966848205800,10.566205810546874,0.02595167949107092,-0.22820213437080383,-0.01052325521174542,-0.41339147090911865,0.2804869355713224,0.9563313736473994,0.5727016671093247,left,0.1918066143989563,-0.16255053729631275,0.25111601063683625,-9.674117260298132,-0.081526330084324,0.24215161800384521,0.04355084151029587,1.5870656316958367,0.002257704734802246
1776555966888206000,10.6062060546875,0.02457205070995284,-0.23593640327453613,-0.010601544478381854,0.08679318428039551,0.2765500041302894,0.9575584687722264,0.5642942938386025,left,0.04548609256744385,-0.16083092450851202,0.2378357829010114,-9.677168464562296,-0.08055630729518186,0.000893905758857727,0.03493468835949898,1.570421955408901,0.11401002109050751
1776555966928206000,10.6462060546875,0.031383774239876885,-0.3844355344772339,-0.007047022712688008,0.14998620748519897,0.27073181233069193,0.9591167187123187,0.5527783904822422,left,0.06329506635665894,-0.16212113775627435,0.30368412826927377,-9.673290746346115,-0.08215693782043064,0.055749375373125076,-0.026462115347385406,1.5829099733211098,0.1626245230436325
1776555966968205800,10.686205810546875,0.03867960346669833,-0.6111444234848022,-0.002675205461194579,0.45656347274780273,0.2602140391640024,0.9619543720770003,0.53151038357175,left,-0.1840367317199707,-0.16220725976564,0.3742448160469532,-9.670681440630554,-0.0832184126495221,-0.03403327986598015,-0.018186237663030624,1.583743501535803,0.2657581567764282
1776555967008205800,10.726205810546874,0.056514994719438744,-0.4583836793899536,0.006574261692506546,0.5231757164001465,0.24854851478076362,0.9647200138888029,0.5089693257164621,left,-0.13015007972717285,-0.16451977438932178,0.5464482161516323,-9.658786420175433,-0.08657779058479638,0.004157140851020813,-0.008332304656505585,1.6061195839948952,0.31718751788139343
1776555967048205800,10.766205810546875,0.07047548579169491,-0.33086758852005005,0.01421292825836337,0.32602459192276,0.24038339539114026,0.9666327151616964,0.4932262615829833,left,-0.1413683295249939,-0.16281062157335885,0.6814242938850075,-9.652941201278567,-0.0873782757629504,0.06082930788397789,0.050921179354190826,1.5895824368223548,0.2427413910627365
1776555967088205800,10.806205810546874,0.07955977741299959,-0.14351962506771088,0.019015426629058925,0.1495305448770523,0.23518213549410166,0.9677286689631127,0.48330934518548807,left,-0.0896407961845398,-0.16302901296042674,0.769057496087253,-9.646006433579325,-0.08848139886147556,-0.01808173581957817,0.06428052484989166,1.5916957757145165,0.20481039583683014
1776555967128205800,10.846205810546875,0.08152148246184003,-0.020304769277572632,0.019775662729819656,0.03456592559814453,0.23334189851577578,0.9680136722036169,0.4798600266241838,left,-0.13510608673095703,-0.1658797106532161,0.7876059100169688,-9.63991746905446,-0.09005503560309891,-0.10366903245449066,0.04555463045835495,1.6192743952527642,0.17764902114868164
1776555967168206000,10.8862060546875,0.08049559914094352,0.06382237374782562,0.01860019438273172,-0.07974783331155777,0.23413859035494716,0.9676289580980885,0.48171229392402604,left,-0.1164664626121521,-0.17082717022233843,0.7770623772360384,-9.632617375174163,-0.09234303219081642,-0.14295732975006104,0.030618466436862946,1.667106406007707,0.14188668131828308
1776555967208205800,10.926205810546875,0.07965172709443276,0.04911496117711067,0.01721895634706027,-0.0566982626914978,0.2354560517626019,0.9670197438572273,0.4847766451689216,left,-0.08620059490203857,-0.17769183776937694,0.7680047721639275,-9.621634793388843,-0.09558586772296447,-0.17639842629432678,0.009578600525856018,1.733406239736825,0.10967527329921722
1776555967248205800,10.966205810546874,0.0777160393981106,0.03896161541342735,0.015177090166386749,-0.07239551842212677,0.23665930755105485,0.9663925488955344,0.48756539860242304,left,-0.10898244380950928,-0.18567936040134933,0.7482800079312175,-9.608992753958702,-0.09923392854796326,-0.20586445927619934,0.023873187601566315,1.8104475399717688,0.10758021473884583
1776555967288205800,11.006205810546875,0.07806914851653701,0.007428675889968872,0.014329004948691267,-0.027521297335624695,0.23715170389651255,0.9658901491048711,0.489104261773894,left,-0.1054229736328125,-0.1933895450571712,0.7505619813885539,-9.594525837188959,-0.10300480202931545,-0.15152797102928162,0.03356026113033295,1.8847043240547179,0.09993372857570648
1776555967328205800,11.046205810546875,0.07700419975529153,-0.03009256348013878,0.012961921325620667,-0.028508441522717476,0.23706047176360762,0.9655842355139566,0.4892384379844953,left,-0.21324676275253296,-0.20030854263669512,0.7393230136893689,-9.582088964942097,-0.10621405387768179,-0.20230862498283386,0.053178995847702026,1.9512460037156938,0.11035840213298798
1776555967368205800,11.086205810546875,0.07743489066083109,-0.0632721334695816,0.0121008014188388,0.031801603734493256,0.2360748590872319,0.9653247552479148,0.4878468041132349,left,-0.29126620292663574,-0.2096808881653779,0.7420025350969285,-9.56311596892476,-0.11077162209652741,-0.27149295806884766,0.05295385420322418,2.041232564111054,0.12729838490486145
1776555967408206000,11.1262060546875,0.07900873180021364,-0.08974294364452362,0.011509790231405225,0.06254420429468155,0.23434772281019275,0.9650340488554503,0.48526503991159337,left,-0.3325013518333435,-0.22198600540958086,0.7550127502523363,-9.536173601463437,-0.11686733518728375,-0.30645397305488586,0.06086207926273346,2.1591040335148572,0.16212880611419678
1776555967448205800,11.166205810546876,0.080687225766141,-0.004117451608181,0.010818670232278407,0.03988543152809143,0.23325690846812938,0.9645070929662048,0.48409617512296876,left,-0.34379518032073975,-0.23493520129432702,0.7687000609517097,-9.506226791489123,-0.12328941291965347,-0.3400470018386841,0.07835057377815247,2.282791787981987,0.17594054341316223
1776555967488205800,11.206205810546875,0.08113832877983193,-0.03138776123523712,0.009076421404674882,-0.08348102867603302,0.23302022747383508,0.9635735110079767,0.484778789586339,left,-0.23929363489151,-0.2507299050575178,0.769969642496109,-9.468757184794544,-0.13094023654809236,-0.4361562728881836,0.08801019191741943,2.4331388551853594,0.13332517445087433
1776555967528205800,11.246205810546876,0.07475452296647649,0.03835775703191757,0.0034325765740346272,-0.27765920758247375,0.23336502778325754,0.9622497035126392,0.48605605023796195,left,-0.2367662787437439,-0.27117026772968256,0.7056452735584229,-9.421908924379943,-0.14001626055784888,-0.5656609535217285,0.06692055612802505,2.626800747980177,0.10829421877861023
1776555967568205800,11.286205810546875,0.06394329671721363,0.02098921500146389,-0.004718780837452257,-0.24504226446151733,0.23483023168086836,0.9604546062760074,0.4890490595001645,left,-0.26221585273742676,-0.29365357874376435,0.5998175123654306,-9.367670553714037,-0.14953080633121837,-0.5479170680046082,0.06446144729852676,2.83854789417237,0.04097285866737366
1776555967608205800,11.326205810546876,0.05229705761728741,-0.006459537893533707,-0.01270219246987638,-0.2966797351837158,0.23565348620058785,0.9589505812778493,0.4901753938955872,left,-0.30429863929748535,-0.31259596278766044,0.4877826036280021,-9.318646702826022,-0.15722561844633817,-0.4306586682796478,0.04123377054929733,3.015837474967539,0.0005776286125183105
1776555967648206000,11.3662060546875,0.04269429661797758,-0.04808548465371132,-0.019185268291054974,-0.21797975897789001,0.2357274405258971,0.9577502674308889,0.4897334133595822,left,-0.3563252091407776,-0.3283724175373296,0.39619653561413287,-9.274207257118821,-0.1636427888499797,-0.3462505340576172,0.023667708039283752,3.1626725885272022,-0.03279450535774231
1776555967688206000,11.4062060546875,0.03327166182742475,-0.02771284431219101,-0.0251541149779938,-0.21469342708587646,0.23562989797193112,0.9567656700559164,0.48867603912635754,left,-0.4522281885147095,-0.3411652438834923,0.30742165256347503,-9.236333161276578,-0.1686574318067204,-0.29089316725730896,-0.016763340681791306,3.2811621898293493,-0.023382127285003662
1776555967728205800,11.446205810546875,0.025887741616874155,-0.10029856860637665,-0.030103682715761363,-0.034214943647384644,0.2343828250906027,0.9558730994947923,0.4855643593181682,left,-0.377957820892334,-0.3552154985824686,0.23799663601852952,-9.191355370908974,-0.1745424400099186,-0.4631156027317047,-0.03435584157705307,3.4106787965804335,0.06936874985694885
1776555967768205800,11.486205810546876,0.02146585027503854,-0.012486197054386139,-0.03407878607205746,-0.14246615767478943,0.2332073202247434,0.954568023905228,0.48327228602699723,left,-0.09255170822143555,-0.3725944787525899,0.19604924458907916,-9.131672178840637,-0.18235383031631883,-0.359407514333725,-0.09366342425346375,3.5699455216899514,0.08624115586280823
1776555967808205800,11.526205810546875,0.010154019860091222,-0.051153987646102905,-0.040565723525921436,-0.2948738932609558,0.23356605117708956,0.9535653776858368,0.482386978639752,left,0.03531533479690552,-0.38251802780989586,0.0923787070957478,-9.097432055586577,-0.18578072935212903,-0.24483710527420044,-0.08942162990570068,3.660407590642571,0.08548158407211304
1776555967848205800,11.566205810546874,-0.0024997762324515623,0.0033100061118602753,-0.04771078284258463,-0.25491243600845337,0.23370483581480953,0.952466922421794,0.48073062903025304,left,0.16240030527114868,-0.39336357391247917,-0.022642097001115323,-9.057638974380493,-0.18950620160606996,-0.2978280186653137,-0.08977069705724716,3.7588621196538208,0.09751945734024048
1776555967888206000,11.6062060546875,-0.010682096217276569,0.08260439336299896,-0.053090043549037735,-0.215594083070755,0.23541740369691974,0.9509379469160959,0.4831800339037441,left,0.27640432119369507,-0.4040892508449486,-0.09631680459650233,-9.01631678391099,-0.19359038416112267,-0.22034460306167603,-0.07024437189102173,3.855793676881492,0.008840084075927734
1776555967928206000,11.6462060546875,-0.014754753825940964,0.08947108685970306,-0.05636945011869279,-0.11684311181306839,0.23758435413313211,0.9495422749414273,0.48726678009239294,left,0.3859277367591858,-0.4121704573655568,-0.13257220406257547,-8.984398966124653,-0.1968390298314944,-0.16581736505031586,-0.04776756465435028,3.9285339189216493,-0.0649975836277008
1776555967968205800,11.686205810546875,-0.014743894620742735,0.16339638829231262,-0.05766512378361562,-0.015970326960086823,0.23989404499059613,0.9482506428718014,0.4924400882383629,left,0.44972917437553406,-0.418852304244676,-0.13208467627395876,-8.957953442269563,-0.19986551007750816,-0.14104034006595612,-0.03520769253373146,3.9884848220154643,-0.13180652260780334
1776555968008205800,11.726205810546874,-0.014203691865391667,0.21242362260818481,-0.058732815324262985,-0.13035866618156433,0.24367186014717904,0.9468442399120639,0.5007219296313257,left,0.4821774363517761,-0.4229746761322491,-0.12701093493993393,-8.941506749859451,-0.20164442261905266,-0.05386146903038025,-0.023583171889185905,4.02538276630193,-0.20446234941482544
1776555968048205800,11.766205810546875,-0.018015919931624776,0.16103167831897736,-0.06134676009588719,-0.21918708086013794,0.24798596399953554,0.9457308363259598,0.50901954706173,left,0.42968088388442993,-0.42277114478220745,-0.16111175018800422,-8.941776798972487,-0.20083035275836159,0.08526070415973663,-0.0015909522771835327,4.023562565137445,-0.2524532079696655
1776555968088205800,11.806205810546874,-0.02824105425032713,0.05434145778417587,-0.06565767908066882,-0.4412488341331482,0.2517642425216487,0.9456082190160991,0.5144863982088472,left,0.3739379048347473,-0.414083403035233,-0.2535101209654473,-8.974265694645046,-0.19526609920787488,0.3472578525543213,0.002871209755539894,3.9457153553470965,-0.2555496394634247
1776555968128206000,11.8462060546875,-0.04864255526336482,-0.08831905573606491,-0.07321329257514281,-0.374001681804657,0.25351418644114376,0.9466543918877112,0.5135156242997333,left,0.181735098361969,-0.39774040781521725,-0.43961018193755297,-9.03043474111259,-0.1849750627642367,0.3725663125514984,0.0680924579501152,3.7984699074208734,-0.18558913469314575
1776555968168206000,11.8862060546875,-0.06011875851562196,-0.05156188830733299,-0.0764725409522166,-0.16016411781311035,0.2535257583062918,0.9481005223508513,0.5109612885607613,left,0.10643595457077026,-0.38174373731866135,-0.5467952029583976,-9.084290834462642,-0.17601706049237123,0.3769380748271942,0.0362216979265213,3.653362348306179,-0.16439832746982574
1776555968208205800,11.926205810546875,-0.06533572987009416,0.03708791360259056,-0.07727488273294676,-0.12246391177177429,0.2543076831499125,0.9491682722191415,0.5114056526939396,left,0.07924103736877441,-0.36764398952232735,-0.5974840279165655,-9.131811879572272,-0.16862903763230133,0.3241886794567108,0.042547959834337234,3.5246854072496294,-0.15773627161979675
1776555968248205800,11.966205810546874,-0.0650330181363036,0.10592299699783325,-0.07616271228552786,0.0833873301744461,0.25629718121397344,0.9496360264737318,0.5154835554023814,left,0.048527657985687256,-0.3569287199039876,-0.5971399271866307,-9.169155814060568,-0.1634087110495886,0.2325383573770523,0.06352248042821884,3.42642581628859,-0.1959977149963379
1776555968288205800,12.006205810546875,-0.05930446243407629,0.100061796605587,-0.07296557778333053,0.07145153731107712,0.25818037858419257,0.9498537607225389,0.5203122307790081,left,0.1864771842956543,-0.3498915959980717,-0.5460200173348188,-9.196268277391791,-0.16061388884536165,0.14016327261924744,0.03266351297497749,3.361680372394621,-0.18382394313812256
1776555968328205800,12.046205810546875,-0.05969243423988127,-0.0007457062602043152,-0.07274931136812407,-0.03535480797290802,0.25956327217400893,0.9499170911943423,0.5230735771660527,left,0.15011918544769287,-0.34490606762327997,-0.5505808589769527,-9.212671715182065,-0.15808862819286945,0.12764866650104523,0.025695377960801125,3.315709771597385,-0.19109438359737396
1776555968368205800,12.086205810546875,-0.05783996852712258,-0.16135874390602112,-0.07081903484163603,0.12832006812095642,0.2580792103955302,0.9509276170636062,0.5201462593513446,left,0.17238056659698486,-0.3383192608678152,-0.5347647195553407,-9.235278683787584,-0.15529481461668204,0.24665862321853638,0.018505282700061798,3.254847891138494,-0.2182420790195465
1776555968408206000,12.1262060546875,-0.05453286100242079,-0.23367071151733398,-0.06705089288620644,0.26354891061782837,0.2536324751246779,0.9532118573238624,0.5111389334748578,left,0.16021090745925903,-0.3261196093447875,-0.5063465439204127,-9.275957315656543,-0.1502063859514447,0.2827214002609253,0.03706919029355049,3.1417525500953194,-0.13211274147033691
1776555968448205800,12.166205810546876,-0.04436320018731244,-0.18161626160144806,-0.05978183970406718,0.33407437801361084,0.2493188598936763,0.955714141057565,0.5034138041812716,left,0.24371349811553955,-0.3109761634567083,-0.41405126819126303,-9.327091290566324,-0.14448810166215303,0.4350253641605377,0.007262680679559708,3.0007185240298506,-0.10422630608081818
1776555968488205800,12.206205810546875,-0.043021575885844286,-0.1179012805223465,-0.05580228577104899,0.22639772295951843,0.24601169559691025,0.9583969490263369,0.4963055369833786,left,-0.1953519582748413,-0.2874144235370195,-0.40446649743989105,-9.395679673624038,-0.1335655490188838,0.4964759945869446,0.07359796017408371,2.779927070638537,-0.04357790946960449
1776555968528205800,12.246205810546876,-0.012978852327912686,-0.014134399592876434,-0.038686571671123916,0.1050017699599266,0.24610959660995768,0.9603047135335558,0.5000490357822572,left,0.44823384284973145,-0.2630891019623599,-0.12289607436647638,-9.468417577576636,-0.12549262813556722,1.089895248413086,-0.03202858939766884,2.550362528204918,-0.07254382967948914
1776555968568205800,12.286205810546875,-0.0070880896171539535,0.004028979688882828,-0.030713199784795177,0.1978004276752472,0.2461789808133405,0.9629112463300763,0.49981202460007035,left,0.1613977551460266,-0.22122714736884938,-0.06781578211686573,-9.567411035770178,-0.10608721249759398,1.0332574844360352,0.05390140786767006,2.1518441255144776,0.061741575598716736
1776555968608205800,12.326205810546876,-0.0027531953867659226,0.07757411897182465,-0.024472862249823937,0.1594056338071823,0.24674768213998582,0.9645637681253838,0.5006255026511317,left,0.016750037670135498,-0.18714721594547673,-0.02652812867120374,-9.635379825624822,-0.09018555637758384,0.6057950258255005,-0.002920848084613681,1.8245928235717117,0.23354440927505493
1776555968648206000,12.3662060546875,-0.002950069424109256,0.09334206581115723,-0.02243750657808248,0.18060100078582764,0.24833173200500425,0.9649935927243845,0.5035005810108968,left,-0.15931159257888794,-0.1689212122127195,-0.028518462238204662,-9.667027009776234,-0.08133480131903909,0.2709599435329437,0.01280638761818409,1.6486844680018722,0.23081573843955994
1776555968688206000,12.4062060546875,-0.00003729716986046607,0.03217528015375137,-0.019812567844801888,0.04527254402637482,0.2496032177865577,0.9651157534766319,0.506156777532624,left,-0.06808912754058838,-0.1582779524468849,-0.00036116499455220033,-9.684068745470046,-0.07653349196529666,0.22208410501480103,-0.046988893300294876,1.545703839868307,0.23085102438926697
1776555968728205800,12.446205810546875,0.0009916110539280065,0.0025977306067943573,-0.018319989277646723,0.12215924263000488,0.24964129660222414,0.9654233066937223,0.5061538751818792,left,-0.19002288579940796,-0.15029995713116345,0.009614774305635364,-9.696087100043892,-0.07281151281178491,0.13278527557849884,-0.06355628371238708,1.4683959976516663,0.2352798730134964
1776555968768205800,12.486205810546876,0.0051156274802311415,0.0985419750213623,-0.015710621605875916,0.08108697086572647,0.2507381184579226,0.9653507193065108,0.5086156817561467,left,-0.10439378023147583,-0.1446532936339561,0.04964302853255067,-9.704102064195276,-0.07058100590197325,0.1594262570142746,-0.06863304227590561,1.413622351065278,0.21704301238059998
1776555968808205800,12.526205810546875,0.010724479895632105,0.08374305069446564,-0.012305731105387971,0.14776712656021118,0.25243900255474955,0.9651359479466676,0.5123953014128371,left,-0.10882723331451416,-0.13807758533301795,0.10416827614870854,-9.712755910772085,-0.06808696718670744,0.173217311501503,-0.052640657871961594,1.3497799934908747,0.1654260903596878
1776555968848205800,12.566205810546874,0.0182712149900442,0.03803517296910286,-0.007962316749254792,0.15045996010303497,0.2535941695785366,0.9650230036436797,0.5151571272284359,left,-0.046842753887176514,-0.13182150391715944,0.17761501335725188,-9.71994611453712,-0.06600965249042509,0.1522628366947174,-0.009183954447507858,1.2889867943540214,0.12276241183280945
1776555968888206000,12.6062060546875,0.021489986517098127,-0.27849796414375305,-0.005655208019015421,0.061907120048999786,0.2508697902695393,0.965869492153636,0.5096088429877594,left,-0.08413577079772949,-0.12730318837494722,0.20902334725148974,-9.725047237068415,-0.06425411410507344,-0.013812080025672913,0.07269947975873947,1.2450485761672259,0.15000566840171814
1776555968928206000,12.6462060546875,0.021695652393311973,-0.34781837463378906,-0.005261275044390188,0.013486012816429138,0.24470851699194635,0.967417216149976,0.4969000703285385,left,-0.0842176079750061,-0.12822946994914927,0.2109983371188864,-9.723847213628888,-0.06476181656726433,0.002686820924282074,0.09102959930896759,1.2540582504443825,0.19384093582630157
1776555968968205800,12.686205810546875,0.020477534679142862,-0.2950548231601715,-0.005340844860898284,0.03927276283502579,0.23794987161935585,0.9691235720802701,0.4828462981728687,left,-0.061347246170043945,-0.12776565696500486,0.19916529425038024,-9.724677234712242,-0.06442760673990348,-0.006097815930843353,0.05492591857910156,1.2495470566302538,0.22993411123752594
1776555969008205800,12.726205810546874,0.018105037782373053,-0.18416763842105865,-0.006028562636543505,-0.07955798506736755,0.23334731882829468,0.9702959078750483,0.4731646569924011,left,-0.01858067512512207,-0.12647494079905455,0.17612203485313802,-9.726727152979374,-0.06354995996930152,0.04555007442831993,-0.008886653929948807,1.236991526439786,0.2031809687614441
1776555969048205800,12.766205810546875,0.012036666152158978,-0.11243785172700882,-0.008675297899650759,-0.07740745693445206,0.23036898487285626,0.9710562713279431,0.46661613934938384,left,-0.15649259090423584,-0.12568321697516102,0.11710550826629623,-9.728592946851252,-0.06248636405802791,-0.04575010761618614,-0.010764354839920998,1.2292889892384409,0.1697673350572586
1776555969088205800,12.806205810546874,0.005706002437874015,0.0010905265808105469,-0.01198388266722588,-0.24516016244888306,0.22954784062971464,0.9711805214265748,0.4645665220962383,left,-0.2236054539680481,-0.12827738353257143,0.055496736696548754,-9.725917590162158,-0.06302850953094719,-0.06443079560995102,-0.10258112847805023,1.254524260520935,0.1142103374004364
1776555969128206000,12.8462060546875,-0.0021846859249206236,0.0424073189496994,-0.01603306377079435,-0.03120310604572296,0.23016870235502054,0.9709815077307384,0.4653606324925555,left,-0.4299280643463135,-0.12995518806304682,-0.021243753960914907,-9.72393430739045,-0.06293069885558274,-0.04454769939184189,-0.061851438134908676,1.2708410429410635,0.07974196970462799
1776555969168206000,12.8862060546875,0.00040504708278757406,0.1854904443025589,-0.015195223884720199,0.19635866582393646,0.23199774084311942,0.9704613592331994,0.469337401550689,left,-0.41323864459991455,-0.1324873316043229,0.003937366562981333,-9.72070774655938,-0.06442789601343547,-0.09833641350269318,-0.02977457270026207,1.2954593513689934,0.08361278474330902
1776555969208205800,12.926205810546875,0.007497382752929825,0.13492634892463684,-0.012138959312687167,0.2429470717906952,0.23510652786941869,0.9696592968174578,0.47624763878828197,left,-0.40691429376602173,-0.133844441764486,0.07286596447878982,-9.718668349686265,-0.0658670939759241,-0.0589212141931057,0.07637503743171692,1.3086502568535505,0.07040251791477203
1776555969248205800,12.966205810546874,0.018465382753136365,0.16784951090812683,-0.007320698739276782,0.20367096364498138,0.23786781970171528,0.9688675361576792,0.48275829975626444,left,-0.3369155526161194,-0.1361943920717336,0.17939652647916227,-9.71418272870481,-0.06827095407048038,-0.013162124902009964,0.07471342384815216,1.331485627387464,0.02293422818183899
1776555969288205800,13.006205810546875,0.026648399227284826,0.05097004026174545,-0.0031594157124672584,0.1606093943119049,0.2393803722527662,0.9685405974745704,0.4863816440422222,left,-0.2955853343009949,-0.13351883866966702,0.2589749439762905,-9.71591583610773,-0.06794236364474475,0.12851697206497192,0.1108781024813652,1.3054856553427874,0.017376884818077087
1776555969328205800,13.046205810546875,0.028267524430149356,-0.0042360760271549225,-0.0014333048511276734,-0.06339293718338013,0.23991204051736315,0.9686665198069498,0.4873492232532828,left,-0.3467480540275574,-0.12544875409062906,0.27499469794491305,-9.725698394453525,-0.06422862608094257,0.23243537545204163,0.09218648076057434,1.227007892563939,-0.04825199395418167
1776555969368205800,13.086205810546875,0.023110002021845034,-0.02028670534491539,-0.0028085148271775567,-0.11999425292015076,0.23974360516873983,0.9690243719732853,0.48642011287314885,left,-0.43730777502059937,-0.1163781622503525,0.22507868399014694,-9.737713826417922,-0.059218836264855274,0.23197993636131287,0.0856759175658226,1.1387054858632386,-0.11337771266698837
1776555969408206000,13.1262060546875,0.01966018788069052,0.1340869814157486,-0.003094695471636019,-0.09295450150966644,0.24139452391354566,0.9689780462454721,0.4893314277279989,left,-0.3882383108139038,-0.10424099562822173,0.19174170185457914,-9.751533092933892,-0.05292082200767776,0.44129762053489685,0.022825123742222786,1.0204046851314603,-0.16058534383773804
1776555969448205800,13.166205810546876,0.01581597811142244,0.1472530961036682,-0.002829487651769358,-0.08723627775907516,0.2432917393264499,0.9689662569219206,0.4926780190723967,left,-0.3380860686302185,-0.08607678791415614,0.15452111975131555,-9.769120772072672,-0.04365154678370961,0.38931572437286377,-0.013542458415031433,0.843083028697595,-0.0452180877327919
1776555969488205800,13.206205810546875,0.017040725271483495,0.14701345562934875,-0.0005912865227309382,0.10793281346559525,0.24687619565179358,0.9683500643289434,0.4998646351386644,left,-0.1518349051475525,-0.07151129041388041,0.16667727536065502,-9.7801653131783,-0.036742088238399764,0.36460041999816895,0.03275243192911148,0.7006886740643531,-0.05993209779262543
1776555969528205800,13.246205810546876,0.020740672113087055,-0.012708008289337158,0.003008100925283656,0.0785364881157875,0.2477879396497085,0.9683442770143971,0.5016138044790054,left,0.08721661567687988,-0.05669044196218612,0.20305523262731728,-9.788789933660626,-0.030025903562171153,0.3593190312385559,0.028009308502078056,0.5556456315532327,0.04293891787528992
1776555969568205800,13.286205810546875,0.020484049376725433,0.01361454650759697,0.004718878574577824,-0.008192986249923706,0.24736242708876205,0.9686412514143261,0.5004841795635155,left,0.13934475183486938,-0.042016286821817586,0.20068861309383063,-9.795939805415273,-0.022886941885027524,0.3132462501525879,-0.008084140717983246,0.41191783635914325,0.13685905933380127
1776555969608205800,13.326205810546876,0.020936140088761695,0.059624798595905304,0.006108249649460357,-0.03470698744058609,0.24794769210504092,0.9685807670026929,0.5015582030579627,left,0.23016786575317383,-0.03248926409828345,0.20519008923154322,-9.799326525244116,-0.01833228716199891,0.19070884585380554,-0.056334078311920166,0.31855485833324493,0.18968690931797028
1776555969648206000,13.3662060546875,0.019572010121973543,0.1578729748725891,0.00605503647056379,-0.014771861955523491,0.2500531039954254,0.9680862374611323,0.5058105889923936,left,0.25691354274749756,-0.02732742898146691,0.19185197556233033,-9.801111070573329,-0.015676387062149525,0.07591333985328674,-0.08025383204221725,0.26795721878986806,0.20770412683486938
1776555969688206000,13.4062060546875,0.01820583314234561,0.11991473287343979,0.005767826863993391,-0.07611092925071716,0.2530716433977953,0.9673303051329236,0.5119856461090818,left,0.2993730306625366,-0.02399540791789221,0.17847700048144904,-9.802202372941375,-0.013910683874088418,0.06970354169607162,-0.07905583828687668,0.23529203496864065,0.14671248197555542
1776555969728205800,13.446205810546875,0.01726021166854034,0.07553419470787048,0.005127067050599808,0.043420664966106415,0.2547704284246585,0.9668806877857892,0.5155000495836055,left,0.26900362968444824,-0.025243769119722228,0.1692025560545735,-9.802065010297298,-0.014403813523929419,-0.10190808027982712,-0.08291115611791611,0.24753057163180783,0.10895673930644989
1776555969768205800,13.486205810546876,0.020112133266146682,0.11025814712047577,0.005597464351712303,0.09168441593647003,0.2566377758713916,0.9663222359371736,0.5195015755545724,left,0.3657904863357544,-0.032084076230809076,0.1971178784675896,-9.79962053975463,-0.018084864615652726,-0.14173606038093567,-0.07766366004943848,0.3145833608863875,0.039887893944978714
