time,seconds_elapsed,z,y,x
1776019989382973700,0.0609736328125,-0.04790227860212326,0.02431466057896614,0.43496638536453247
1776019989393034500,0.071034423828125,-0.10101769119501114,0.055152200162410736,0.412773460149765
1776019989403094500,0.081094482421875,-0.1224398985505104,0.014505173079669476,0.34656327962875366
1776019989413155600,0.091155517578125,-0.09732308983802795,-0.07516372948884964,0.25606587529182434
1776019989423215600,0.101215576171875,-0.05018647015094757,-0.152592733502388,0.14711807668209076
1776019989433275400,0.111275390625,0.0030072415247559547,-0.1881651133298874,0.07357248663902283
1776019989443336400,0.12133642578125,0.023302393034100533,-0.1843826323747635,0.038716502487659454
1776019989453396500,0.131396484375,0.02864709123969078,-0.19678948819637299,0.054192665964365005
1776019989463457500,0.14145751953125,0.010775948874652386,-0.24680711328983307,0.12049951404333115
1776019989473517600,0.151517578125,-0.029884129762649536,-0.25837910175323486,0.23220553994178772
1776019989483578400,0.161578369140625,-0.10332079231739044,-0.17969200015068054,0.3273965120315552
1776019989493638400,0.171638427734375,-0.1850081980228424,-0.04736538603901863,0.3986208736896515
1776019989503699500,0.181699462890625,-0.25564587116241455,0.03976339101791382,0.42715850472450256
1776019989513759500,0.191759521484375,-0.270399808883667,0.0459592342376709,0.4073467254638672
1776019989523820500,0.201820556640625,-0.226468026638031,-0.0027976506389677525,0.3264255225658417
1776019989533880600,0.211880615234375,-0.1528739631175995,-0.0869162529706955,0.203046053647995
1776019989543940600,0.221940673828125,-0.07189922034740448,-0.20834974944591522,0.10067441314458847
1776019989554001700,0.232001708984375,-0.008460063487291336,-0.3272700011730194,0.0549231693148613
1776019989564061700,0.242061767578125,0.024534104391932487,-0.4293516278266907,0.08262243866920471
1776019989574122800,0.252122802734375,0.02616821974515915,-0.49083656072616577,0.1707983762025833
1776019989584182500,0.2621826171875,-0.0016820525052025914,-0.4790337085723877,0.2878400385379791
1776019989594243600,0.27224365234375,-0.04683994501829147,-0.3708004355430603,0.3829455077648163
1776019989604303600,0.2823037109375,-0.08230152726173401,-0.24388456344604492,0.4086894989013672
1776019989614364700,0.29236474609375,-0.11124476790428162,-0.20228919386863708,0.33867472410202026
1776019989624424400,0.302424560546875,-0.1269688606262207,-0.19899219274520874,0.22594551742076874
1776019989634485500,0.312485595703125,-0.1207093745470047,-0.20148704946041107,0.13177719712257385
1776019989644545500,0.322545654296875,-0.11042611300945282,-0.22853223979473114,0.11424987763166428
1776019989654605600,0.33260546875,-0.08903267234563828,-0.313250869512558,0.18665243685245514
1776019989664666600,0.34266650390625,-0.07092024385929108,-0.39915376901626587,0.31537339091300964
1776019989674726400,0.352726318359375,-0.07797682285308838,-0.4398711323738098,0.4598517417907715
1776019989684787500,0.362787353515625,-0.12064998596906662,-0.42803043127059937,0.5459421873092651
1776019989694847500,0.372847412109375,-0.15820561349391937,-0.40132665634155273,0.555892288684845
1776019989704908500,0.382908447265625,-0.1740357130765915,-0.3457430303096771,0.5014500617980957
1776019989714968300,0.39296826171875,-0.18366436660289764,-0.2786835730075836,0.3820544183254242
1776019989725029400,0.403029296875,-0.2047502100467682,-0.2351805567741394,0.24544358253479004
1776019989735089700,0.413089599609375,-0.2314433455467224,-0.22388502955436707,0.1289404034614563
1776019989745150500,0.423150390625,-0.25730210542678833,-0.23901018500328064,0.04694007709622383
1776019989755210800,0.433210693359375,-0.2777453362941742,-0.2791288495063782,0.006159359123557806
1776019989765270500,0.4432705078125,-0.2879766523838043,-0.316163569688797,-0.0030804784037172794
1776019989775331600,0.45333154296875,-0.2837536931037903,-0.30721187591552734,-0.03431722894310951
1776019989785391600,0.4633916015625,-0.26998087763786316,-0.2822263538837433,-0.09109395742416382
1776019989795452700,0.47345263671875,-0.25843316316604614,-0.2518676519393921,-0.1588924378156662
1776019989805512700,0.4835126953125,-0.27336230874061584,-0.24806439876556396,-0.18556825816631317
1776019989815574000,0.493573974609375,-0.31179383397102356,-0.3266651928424835,-0.19444990158081055
1776019989825634000,0.503634033203125,-0.3477957844734192,-0.4440576136112213,-0.19579453766345978
1776019989835694800,0.51369482421875,-0.35937121510505676,-0.4540324807167053,-0.19933733344078064
1776019989845755000,0.5237548828125,-0.3394497036933899,-0.3362478017807007,-0.1688675880432129
1776019989855816000,0.53381591796875,-0.3266414999961853,-0.2057262659072876,-0.07278072834014893
1776019989865876000,0.5438759765625,-0.32139480113983154,-0.08210498839616776,0.026202842593193054
1776019989875935700,0.553935791015625,-0.2561393678188324,0.04041692987084389,0.02544836886227131
1776019989885996800,0.563996826171875,-0.09836918115615845,0.18270562589168549,-0.18765512108802795
1776019989896056800,0.574056884765625,0.1446586549282074,0.41601186990737915,-0.6527585983276367
1776019989906118000,0.584117919921875,0.4634118676185608,0.9771393537521362,-1.2760088443756104
1776019989916178000,0.594177978515625,0.7017402648925781,1.9791537523269653,-1.9894484281539917
1776019989926238700,0.60423876953125,0.9479191303253174,2.932211399078369,-2.752352237701416
1776019989936298800,0.614298828125,1.3753756284713745,3.273329973220825,-3.4352915287017822
1776019989946359800,0.62435986328125,1.960726261138916,3.2353131771087646,-3.7954063415527344
1776019989956419800,0.634419921875,2.3818178176879883,3.1671011447906494,-3.562115430831909
1776019989966481000,0.64448095703125,2.341517448425293,2.787895917892456,-2.736193895339966
1776019989976541000,0.654541015625,1.861965537071228,1.9733959436416626,-1.5592759847640991
1776019989986601700,0.664601806640625,0.8147400617599487,1.0002713203430176,-0.3206091821193695
1776019989996662000,0.674662109375,-0.21024031937122345,0.11372629553079605,0.8535492420196533
1776019990006722000,0.68472216796875,-0.42915481328964233,-1.441827416419983,1.956021785736084
1776019990016783000,0.694783203125,-0.4421212375164032,-2.3900983333587646,2.679520606994629
1776019990026843000,0.7048427734375,-0.4098692834377289,-2.8326051235198975,3.020494222640991
1776019990036904000,0.714904052734375,-1.1715357303619385,-5.912295341491699,1.6905139684677124
1776019990046964000,0.7249638671875,-2.2123923301696777,-10.518743515014648,-0.45450305938720703
1776019990057025000,0.73502490234375,-2.1241462230682373,-11.735634803771973,-0.5395753383636475
1776019990067084800,0.745084716796875,-1.4809942245483398,-12.094908714294434,0.8176106810569763
1776019990077145900,0.755145751953125,-0.9171271324157715,-9.853736877441406,1.5916123390197754
1776019990087206000,0.765205810546875,-0.12964321672916412,-5.756190299987793,1.0961922407150269
1776019990097267000,0.775266845703125,0.6429677605628967,-2.633345127105713,0.05691548064351082
1776019990107327000,0.785326904296875,0.7192034125328064,-1.5984714031219482,-0.9077581763267517
1776019990117386800,0.79538671875,0.7158353328704834,-0.6083589196205139,-1.7103432416915894
1776019990127447800,0.80544775390625,0.8189486861228943,-1.1332170963287354,-1.8670694828033447
1776019990137507800,0.8155078125,0.8456575274467468,-1.5428166389465332,-1.9136948585510254
1776019990147569000,0.82556884765625,0.7861281037330627,-0.5383838415145874,-1.7976678609848022
1776019990157628700,0.835628662109375,0.7883606553077698,0.9033961892127991,-1.3464924097061157
1776019990167689700,0.845689697265625,0.7594032883644104,1.9936753511428833,-1.0573478937149048
1776019990177749800,0.855749755859375,0.6505609750747681,2.5011720657348633,-0.9970219731330872
1776019990187810800,0.865810791015625,0.4293212592601776,2.33199405670166,-1.0590459108352661
1776019990197870800,0.875870849609375,0.26543301343917847,1.8651707172393799,-1.0344327688217163
1776019990207932000,0.885931884765625,0.28593453764915466,1.4560463428497314,-0.8757501840591431
1776019990217992000,0.895991943359375,0.2634987533092499,0.9750626087188721,-0.6588282585144043
1776019990228052700,0.906052734375,0.06847919523715973,0.5707502961158752,-0.4544636309146881
1776019990238113000,0.916113037109375,-0.20045773684978485,0.45704159140586853,-0.34502795338630676
1776019990248173000,0.926173095703125,-0.3638184368610382,0.4296554923057556,-0.42343541979789734
1776019990258233900,0.93623388671875,-0.42791858315467834,0.42081621289253235,-0.505391538143158
1776019990268294000,0.9462939453125,-0.42154404520988464,0.4958494305610657,-0.36970508098602295
1776019990278355000,0.95635498046875,-0.35293301939964294,0.47054407000541687,-0.11761211603879929
1776019990288415000,0.9664150390625,-0.2938542664051056,0.3150530159473419,0.05909287929534912
1776019990298476000,0.97647607421875,-0.31071287393569946,0.00023036343918647617,0.18595895171165466
1776019990308535800,0.986535888671875,-0.38706594705581665,-0.31077703833580017,0.32726308703422546
1776019990318596900,0.996596923828125,-0.39036163687705994,-0.4404439628124237,0.440570205450058
1776019990328657000,1.006656982421875,-0.2867894172668457,-0.43959203362464905,0.4431404173374176
1776019990338718000,1.016718017578125,-0.20702242851257324,-0.3782977759838104,0.37308916449546814
1776019990348777700,1.02677783203125,-0.1960669755935669,-0.10520338267087936,0.3221103847026825
1776019990358838800,1.0368388671875,-0.20392516255378723,0.11685391515493393,0.2396288365125656
1776019990368898800,1.04689892578125,-0.23738618195056915,0.2937663793563843,0.1219480112195015
1776019990378958800,1.056958740234375,-0.34226441383361816,0.473264217376709,0.032330773770809174
1776019990389020000,1.06702001953125,-0.42230305075645447,0.6144916415214539,-0.02852245420217514
1776019990399079700,1.07707958984375,-0.4714386463165283,0.704359233379364,-0.05151965096592903
1776019990409140700,1.087140625,-0.46457886695861816,0.7607178688049316,-0.02239372208714485
1776019990419201000,1.097200927734375,-0.39989545941352844,0.8017483949661255,0.014680941589176655
1776019990429261800,1.10726171875,-0.29617252945899963,0.7747116684913635,-0.009403355419635773
1776019990439322000,1.117322021484375,-0.22908803820610046,0.6201937794685364,-0.03092808835208416
1776019990449382700,1.127382568359375,-0.24444995820522308,0.4469660520553589,-0.0011760519118979573
1776019990459443000,1.13744287109375,-0.2821824252605438,0.2281482219696045,0.05080246180295944
1776019990469504000,1.14750390625,-0.3140844404697418,0.04258154705166817,0.10219747573137283
1776019990479564000,1.15756396484375,-0.3034892976284027,-0.12622025609016418,0.10771900415420532
1776019990489623800,1.167623779296875,-0.28493374586105347,-0.28487515449523926,0.08178994059562683
1776019990499684900,1.177684814453125,-0.2599828541278839,-0.2995952367782593,0.0470050573348999
1776019990509745000,1.187744873046875,-0.21598155796527863,-0.23119033873081207,0.031744878739118576
1776019990519806000,1.197805908203125,-0.15947167575359344,-0.22001385688781738,0.02443157322704792
1776019990529866000,1.207865966796875,-0.11012011021375656,-0.24064430594444275,0.02883084863424301
1776019990539926800,1.2179267578125,-0.12681333720684052,-0.2327917069196701,0.07901386171579361
1776019990549986800,1.22798681640625,-0.07601433992385864,-0.4180406630039215,0.09680377691984177
1776019990560047900,1.2380478515625,0.06686984747648239,-0.5847654342651367,0.0352645143866539
1776019990570108000,1.24810791015625,0.07166832685470581,-0.7427628040313721,0.06066308170557022
1776019990580169000,1.2581689453125,0.05327547341585159,-0.9772080779075623,0.1293444037437439
1776019990590228700,1.268228759765625,-0.04339274764060974,-1.1459720134735107,0.2292393147945404
1776019990600289800,1.278289794921875,-0.03395237401127815,-1.2891314029693604,0.31335604190826416
1776019990610349800,1.288349853515625,0.17633429169654846,-1.5205891132354736,0.3782961666584015
1776019990620409900,1.298409912109375,0.4893084466457367,-1.9590548276901245,0.5370599627494812
1776019990630471000,1.308470947265625,0.8668102025985718,-2.428676128387451,0.7751156687736511
1776019990640531000,1.318531005859375,1.3654232025146484,-2.807161331176758,1.0238357782363892
1776019990650591700,1.328591796875,1.8459365367889404,-3.2557871341705322,1.3119964599609375
1776019990660652000,1.338652099609375,2.314507484436035,-3.802936315536499,1.6016833782196045
1776019990670712800,1.348712890625,2.7945287227630615,-4.295483112335205,1.762959361076355
1776019990680772900,1.35877294921875,3.159041166305542,-4.706230163574219,1.6924599409103394
1776019990690834000,1.368833984375,3.3999521732330322,-5.014531135559082,1.5262874364852905
1776019990700894000,1.37889404296875,3.8820464611053467,-5.178518772125244,1.5316572189331055
1776019990710955000,1.388955078125,4.6777753829956055,-5.314488410949707,1.8207731246948242
1776019990721015000,1.39901513671875,5.580482006072998,-5.357552528381348,2.3445699214935303
1776019990731076000,1.409076171875,6.401398658752441,-5.2770843505859375,2.9568357467651367
1776019990741136000,1.419135986328125,6.894880771636963,-5.172179222106934,3.3839261531829834
1776019990751197000,1.429197021484375,7.003511905670166,-5.0980329513549805,3.421814441680908
1776019990761257000,1.439257080078125,7.102725028991699,-4.854447841644287,3.156353235244751
1776019990771317000,1.44931689453125,7.214756011962891,-4.556321620941162,2.8174448013305664
1776019990781377800,1.459377685546875,7.277969837188721,-4.44726037979126,2.6116864681243896
1776019990791437800,1.469437744140625,7.299874305725098,-4.448482990264893,2.627573013305664
1776019990801499000,1.479498779296875,7.345029354095459,-4.498332500457764,2.880446672439575
1776019990811559000,1.489558837890625,7.3867268562316895,-4.569362163543701,3.268580198287964
1776019990821619000,1.499618896484375,7.315415382385254,-4.492461681365967,3.7311205863952637
1776019990831679200,1.50967919921875,7.195111274719238,-4.2181267738342285,4.107712268829346
1776019990841739800,1.51973974609375,6.986032962799072,-3.604018211364746,4.127711772918701
1776019990851800000,1.529800048828125,6.506344795227051,-2.9084651470184326,3.7697107791900635
1776019990861860900,1.53986083984375,5.869700908660889,-2.3443198204040527,3.2878036499023438
1776019990871921200,1.549921142578125,5.235439300537109,-1.935909628868103,2.7808618545532227
1776019990881982200,1.559982177734375,4.610151290893555,-1.6358256340026855,2.3076858520507812
1776019990892042000,1.5700419921875,3.995675802230835,-1.3283674716949463,1.9719157218933105
1776019990902103000,1.58010302734375,3.4782416820526123,-1.0435327291488647,1.8588815927505493
1776019990912163000,1.5901630859375,3.0913798809051514,-0.7878813147544861,1.9811207056045532
1776019990922223000,1.60022314453125,2.6947529315948486,-0.41512688994407654,2.1618616580963135
1776019990932284200,1.6102841796875,2.1601810455322266,-0.021315941587090492,2.2708077430725098
1776019990942344000,1.620343994140625,1.5058804750442505,0.29727110266685486,2.188167095184326
1776019990952405000,1.630405029296875,0.7239526510238647,0.559782087802887,1.7835363149642944
1776019990962465000,1.640465087890625,0.020256536081433296,0.7705984115600586,1.197477102279663
1776019990972526000,1.650526123046875,-0.6629287004470825,0.9104031920433044,0.5446465611457825
1776019990982585900,1.6605859375,-1.3278968334197998,0.8041681051254272,-0.06629087030887604
1776019990992647000,1.67064697265625,-1.8648931980133057,0.6545906066894531,-0.5225415229797363
1776019991002707000,1.68070703125,-2.2357687950134277,0.634492814540863,-0.9341833591461182
1776019991012768000,1.69076806640625,-2.4828741550445557,0.5130188465118408,-1.226552963256836
1776019991022828000,1.700828125,-2.5428364276885986,0.07136179506778717,-1.288595199584961
1776019991032889000,1.71088916015625,-2.4591166973114014,-0.49590083956718445,-1.1269237995147705
1776019991042948900,1.720948974609375,-2.255033493041992,-0.9750780463218689,-1.0940356254577637
1776019991053010000,1.731010009765625,-1.8474297523498535,-1.3955951929092407,-1.4545735120773315
1776019991063070000,1.741070068359375,-1.0445513725280762,-1.9704228639602661,-2.3725521564483643
1776019991073130000,1.7511298828125,-0.5850189924240112,-2.601884365081787,-3.097230911254883
1776019991083191000,1.76119091796875,-0.9068548083305359,-3.2438740730285645,-3.0293807983398438
1776019991093251000,1.7712509765625,-1.1543354988098145,-4.3982696533203125,-2.294121503829956
1776019991103312100,1.78131201171875,-1.4869259595870972,-5.118190765380859,-1.656998634338379
1776019991113372200,1.7913720703125,-2.0903854370117188,-5.12464714050293,-1.2821290493011475
1776019991123433200,1.80143310546875,-2.499654531478882,-4.14122200012207,-1.210945725440979
1776019991133493000,1.811492919921875,-2.39223313331604,-2.593308925628662,-1.49980628490448
1776019991143554000,1.821553955078125,-1.9962568283081055,-0.8580822348594666,-2.0009491443634033
1776019991153614000,1.831614013671875,-1.6048009395599365,0.40460073947906494,-2.246582269668579
1776019991163675100,1.841675048828125,-1.221335768699646,1.0667518377304077,-2.0866894721984863
1776019991173735000,1.85173486328125,-0.9440740942955017,1.2036223411560059,-1.6437994241714478
1776019991183796000,1.8617958984375,-0.9041104316711426,0.9479687213897705,-1.180521011352539
1776019991193856000,1.87185595703125,-1.1338083744049072,0.32224729657173157,-0.8521279096603394
1776019991203917000,1.8819169921875,-1.4419310092926025,-0.4712737798690796,-0.6314493417739868
1776019991213977000,1.89197705078125,-1.763925552368164,-0.9827693104743958,-0.525113582611084
1776019991224036900,1.902036865234375,-1.7105669975280762,-1.1574844121932983,-0.3704923093318939
1776019991234098000,1.912097900390625,-1.109724521636963,-0.9321244955062866,-0.27012255787849426
1776019991244158000,1.922157958984375,-0.3637084364891052,-0.4996521472930908,-0.16036570072174072
1776019991254219000,1.932218994140625,0.14022529125213623,-0.3061908185482025,-0.04667722433805466
1776019991264279000,1.942279052734375,0.01792520470917225,-0.6935214996337891,-0.16173003613948822
1776019991274339800,1.95233984375,-0.3329150974750519,-0.949356198310852,-0.14719398319721222
1776019991284399900,1.96239990234375,-0.11382749676704407,-0.8859825730323792,0.0716233178973198
1776019991294461000,1.9724609375,0.38844573497772217,-0.9156890511512756,0.1349644809961319
1776019991304521000,1.98252099609375,0.9071134328842163,-0.9436346888542175,0.005272792652249336
1776019991314582000,1.99258203125,1.4064886569976807,-1.0593394041061401,-0.20724773406982422
1776019991324642000,2.00264208984375,1.8880040645599365,-1.1182405948638916,-0.41017472743988037
1776019991334702800,2.012702880859375,2.4139750003814697,-1.1009668111801147,-0.5315437912940979
1776019991344763100,2.02276318359375,3.1592774391174316,-1.246442437171936,-0.5321776270866394
1776019991354824200,2.03282421875,4.042429447174072,-1.2153444290161133,-0.43680769205093384
1776019991364884000,2.042884033203125,4.935383319854736,-1.0539380311965942,-0.24122487008571625
1776019991374944000,2.052944091796875,5.68032169342041,-0.9645761847496033,0.07297780364751816
1776019991385005000,2.063005126953125,6.266682147979736,-1.0515291690826416,0.5406840443611145
1776019991395065000,2.073065185546875,6.448108196258545,-1.1085655689239502,1.1081266403198242
1776019991405126100,2.083126220703125,6.273693084716797,-1.0491195917129517,1.7443926334381104
1776019991415186000,2.09318603515625,5.8644866943359375,-1.1295912265777588,2.4203896522521973
1776019991425247000,2.1032470703125,5.332512378692627,-1.1937683820724487,2.9180309772491455
1776019991435307000,2.11330712890625,4.980874061584473,-1.2646009922027588,3.098336935043335
1776019991445368000,2.1233681640625,4.662315845489502,-1.566467046737671,3.126512289047241
1776019991455428000,2.133427978515625,4.371103286743164,-1.9560308456420898,3.20686936378479
1776019991465489000,2.143489013671875,4.171761512756348,-2.245802640914917,3.305483818054199
1776019991475549000,2.153548828125,4.3547682762146,-0.5959387421607971,2.712467670440674
1776019991485610000,2.16360986328125,4.6240763664245605,0.5364549160003662,2.175110340118408
1776019991495670000,2.173669921875,4.716124057769775,0.18192799389362335,2.25620698928833
1776019991505731000,2.18373095703125,4.868177890777588,-0.2557516098022461,2.438358783721924
1776019991515790800,2.193790771484375,4.893933296203613,-4.450373649597168,0.24364222586154938
1776019991525852000,2.203851806640625,5.01320219039917,-4.829474449157715,0.764806866645813
1776019991535912000,2.213911865234375,5.016557216644287,-5.5551371574401855,1.1905581951141357
1776019991545972200,2.22397216796875,4.658038139343262,-6.919562339782715,0.4259324073791504
1776019991556033000,2.234032958984375,3.948549270629883,-4.345940589904785,1.4837130308151245
1776019991566093000,2.244093017578125,3.4741907119750977,-2.0801026821136475,2.0729219913482666
1776019991576154000,2.254154052734375,3.468385934829712,0.8064048886299133,2.36864972114563
1776019991586214100,2.264214111328125,3.9178009033203125,3.2219207286834717,1.4614272117614746
1776019991596275200,2.274275146484375,4.322144031524658,2.9279260635375977,-0.8798232078552246
1776019991606335000,2.2843349609375,4.405078411102295,1.141613483428955,-2.561993360519409
1776019991616396000,2.29439599609375,4.067152500152588,-0.23729030787944794,-2.936873197555542
1776019991626456000,2.3044560546875,3.3159432411193848,-0.8412542343139648,-2.4578561782836914
1776019991636517000,2.31451708984375,2.3082692623138428,-0.7160078883171082,-1.8321629762649536
1776019991646577200,2.3245771484375,1.030585765838623,0.0013608753215521574,-1.1258726119995117
1776019991656638000,2.334637939453125,-0.7253193855285645,1.1640807390213013,0.1622253954410553
1776019991666698000,2.344697998046875,-1.515407919883728,0.8396264910697937,0.88121497631073
1776019991676759000,2.354759033203125,-1.289763331413269,-0.3388776481151581,0.588324248790741
1776019991686819000,2.364819091796875,-0.9609401822090149,-0.9154720306396484,0.2217598259449005
1776019991696880000,2.374880126953125,-0.798429012298584,-1.1920533180236816,0.0033212280832231045
1776019991706940000,2.38493994140625,-0.8246691226959229,-1.1021891832351685,0.01871350035071373
1776019991717001000,2.3950009765625,-0.7989661693572998,-0.6624022126197815,-0.08505523949861526
1776019991727061000,2.40506103515625,-0.6802038550376892,0.13020354509353638,-0.22907978296279907
1776019991737122000,2.4151220703125,-0.49832645058631897,1.0974375009536743,-0.32352906465530396
1776019991747181800,2.425181884765625,-0.27494820952415466,1.7759095430374146,-0.3680214285850525
1776019991757243000,2.435242919921875,-0.133092001080513,1.8733364343643188,-0.31214699149131775
1776019991767303000,2.445302978515625,-0.09930634498596191,1.3500287532806396,-0.18632939457893372
1776019991777363000,2.455363037109375,-0.08586004376411438,0.5762315988540649,-0.12139886617660522
1776019991787424000,2.465424072265625,-0.0730944499373436,-0.07315037399530411,-0.09257067739963531
1776019991797484000,2.475484130859375,-0.02287468872964382,-0.4881443679332733,0.011753861792385578
1776019991807544800,2.485544921875,0.056221459060907364,-0.5080640316009521,0.12636539340019226
1776019991817605600,2.495605712890625,0.08191430568695068,-0.27793121337890625,0.16416017711162567
1776019991827666700,2.505666748046875,0.06419869512319565,0.0483185313642025,0.14126445353031158
1776019991837726700,2.515726806640625,0.05672160163521767,0.37912601232528687,0.0631595253944397
1776019991847787500,2.52578759765625,0.072859026491642,0.6625097990036011,-0.06409616023302078
1776019991857847800,2.535847900390625,0.06499125063419342,0.8108089566230774,-0.12687325477600098
1776019991867908600,2.54590869140625,0.03237178921699524,0.8442401885986328,-0.1301604062318802
1776019991877969000,2.555968994140625,0.0417165532708168,0.784977376461029,-0.1189546138048172
1776019991888029700,2.56602978515625,0.06861448287963867,0.6261464357376099,-0.09275230765342712
1776019991898089700,2.57608984375,0.06392891705036163,0.4454573690891266,-0.0416363924741745
1776019991908150800,2.58615087890625,0.045455899089574814,0.30541449785232544,0.007796670310199261
1776019991918210800,2.5962109375,0.04062705487012863,0.2969565689563751,-0.0013600763631984591
1776019991928272000,2.60627197265625,0.04827085882425308,0.37537309527397156,-0.05586246773600578
1776019991938331600,2.61633154296875,0.047868989408016205,0.4524545669555664,-0.09671402722597122
1776019991948392700,2.626392822265625,0.04575230926275253,0.48301592469215393,-0.1207975223660469
1776019991958452700,2.63645263671875,0.038958851248025894,0.45526763796806335,-0.1327010542154312
1776019991968513800,2.646513671875,0.02737729623913765,0.3848446309566498,-0.125283882021904
1776019991978573600,2.656573486328125,0.02400386892259121,0.302722305059433,-0.11272761225700378
1776019991988633600,2.666633544921875,0.03003166802227497,0.25722354650497437,-0.0939432755112648
1776019991998694700,2.676694580078125,0.04180843383073807,0.24109011888504028,-0.07376077026128769
1776019992008754700,2.686754638671875,0.05155054107308388,0.2689928412437439,-0.05489414185285568
1776019992018815700,2.696815673828125,0.05554581806063652,0.2990354299545288,-0.04873291775584221
1776019992028875500,2.70687548828125,0.06918653100728989,0.32500630617141724,-0.037938859313726425
1776019992038936600,2.7169365234375,0.08218462020158768,0.3274013102054596,-0.023751402273774147
1776019992048996600,2.72699658203125,0.0847521722316742,0.30657193064689636,-0.009661948308348656
1776019992059057700,2.7370576171875,0.08226877450942993,0.26931002736091614,0.0041153826750814915
1776019992069117700,2.74711767578125,0.08224693685770035,0.2205619364976883,0.013895575888454914
1776019992079178500,2.757178466796875,0.09596940875053406,0.18420206010341644,0.020624319091439247
1776019992089238500,2.767238525390625,0.11257980763912201,0.15837499499320984,0.024704547598958015
1776019992099299600,2.777299560546875,0.12396881729364395,0.13159610331058502,0.03365356847643852
1776019992109359600,2.787359619140625,0.13519084453582764,0.06428471207618713,0.0268276184797287
1776019992119420700,2.797420654296875,0.11881639808416367,-0.037701040506362915,0.014699051156640053
1776019992129480700,2.807480712890625,0.07531712204217911,-0.17678461968898773,-0.014948589727282524
1776019992139541500,2.81754150390625,0.02424275502562523,-0.32112184166908264,-0.03701234608888626
1776019992149601800,2.827601806640625,-0.00751996785402298,-0.4324358403682709,-0.052018195390701294
1776019992159662800,2.837662841796875,-0.02744760364294052,-0.48313283920288086,-0.060690511018037796
1776019992169723000,2.847722900390625,-0.04657921940088272,-0.5005802512168884,-0.07447610050439835
1776019992179783700,2.85778369140625,-0.06296271830797195,-0.49268239736557007,-0.09670550376176834
1776019992189843700,2.86784375,-0.0624585822224617,-0.47440779209136963,-0.11534097045660019
1776019992199904800,2.87790478515625,-0.04734061658382416,-0.44183918833732605,-0.10958880931138992
1776019992209964800,2.88796484375,-0.02178492397069931,-0.4007183909416199,-0.08641718327999115
1776019992220024600,2.898024658203125,0.004001133143901825,-0.3594966530799866,-0.055573511868715286
1776019992230085600,2.908085693359375,0.030589334666728973,-0.31643253564834595,-0.03991519287228584
1776019992240145700,2.918145751953125,0.052374523133039474,-0.25663259625434875,-0.03898974508047104
1776019992250206700,2.928206787109375,0.07725590467453003,-0.1687661111354828,-0.043304331600666046
1776019992260266800,2.938266845703125,0.101259246468544,-0.05359451845288277,-0.029576268047094345
1776019992270327600,2.94832763671875,0.12718963623046875,0.09072510898113251,0.007698133587837219
1776019992280387600,2.9583876953125,0.1538151353597641,0.21656666696071625,0.0510336235165596
1776019992290448600,2.96844873046875,0.16278678178787231,0.2889995872974396,0.08013052493333817
1776019992300508700,2.9785087890625,0.16451650857925415,0.31053096055984497,0.09144655615091324
1776019992310569700,2.98856982421875,0.15939658880233765,0.307277113199234,0.0801110789179802
1776019992320629500,2.99862939453125,0.14784938097000122,0.307234525680542,0.07329551875591278
1776019992330690600,3.008690673828125,0.14116351306438446,0.30196598172187805,0.07085739821195602
1776019992340750600,3.01875048828125,0.1472371220588684,0.3069128096103668,0.07663006335496902
1776019992350811600,3.028811767578125,0.15494270622730255,0.2989795207977295,0.0817960649728775
1776019992360871700,3.03887158203125,0.15853744745254517,0.2639664113521576,0.07994809746742249
1776019992370932500,3.048932373046875,0.15370167791843414,0.21717838943004608,0.06994659453630447
1776019992380992800,3.05899267578125,0.1465260535478592,0.17764030396938324,0.07343479990959167
1776019992391053600,3.069053466796875,0.14713725447654724,0.13133591413497925,0.06888745725154877
1776019992401113900,3.07911376953125,0.1543102115392685,0.09410892426967621,0.06406180560588837
1776019992411174700,3.089174560546875,0.16861164569854736,0.06850022822618484,0.06012964993715286
1776019992421234700,3.099234619140625,0.177191823720932,0.0600377693772316,0.06153792887926102
1776019992431295700,3.109295654296875,0.18427610397338867,0.07328087091445923,0.07404253631830215
1776019992441355800,3.119355712890625,0.18566866219043732,0.1002669483423233,0.09321862459182739
1776019992451416800,3.129416748046875,0.18889828026294708,0.13241423666477203,0.09860619902610779
1776019992461476600,3.1394765625,0.19227837026119232,0.1591784656047821,0.09974204003810883
1776019992471537700,3.14953759765625,0.20905068516731262,0.16369599103927612,0.10331440716981888
1776019992481597700,3.15959765625,0.2248232513666153,0.16062483191490173,0.11551541090011597
1776019992491658800,3.16965869140625,0.23555393517017365,0.13192874193191528,0.13063311576843262
1776019992501718800,3.17971875,0.2357930839061737,0.09492012113332748,0.13011379539966583
1776019992511778600,3.189778564453125,0.2286749929189682,0.04824609309434891,0.10618609189987183
1776019992521839600,3.199839599609375,0.20107132196426392,0.0006958839949220419,0.07609370350837708
1776019992531899600,3.209899658203125,0.167778879404068,-0.05168183520436287,0.03400323912501335
1776019992541960700,3.219960693359375,0.12742693722248077,-0.0960192084312439,0.00893890019506216
1776019992552020700,3.230020751953125,0.09299465268850327,-0.1392982304096222,-0.017055682837963104
1776019992562081500,3.24008154296875,0.07307420670986176,-0.18170322477817535,-0.03169774264097214
1776019992572141600,3.2501416015625,0.04892227053642273,-0.20560668408870697,-0.03321041911840439
1776019992582202600,3.26020263671875,0.0194285586476326,-0.21013645827770233,-0.024715732783079147
1776019992592262700,3.2702626953125,-0.0014058827655389905,-0.2043163925409317,-0.015284148044884205
1776019992602323700,3.28032373046875,-0.008665659464895725,-0.17484425008296967,-0.008645686320960522
1776019992612383500,3.290383544921875,-0.004444815684109926,-0.13003070652484894,-0.0062917182222008705
1776019992622444500,3.300444580078125,0.007346063386648893,-0.07058202475309372,-0.009967945516109467
1776019992632504600,3.310504638671875,0.024344220757484436,-0.0006498112925328314,-0.021021662279963493
1776019992642565600,3.320565673828125,0.029983997344970703,0.07860719412565231,-0.038894668221473694
1776019992652625700,3.330625732421875,0.030083067715168,0.13507179915905,-0.07392428815364838
1776019992662686500,3.3406865234375,0.033304695039987564,0.15609745681285858,-0.1334182471036911
1776019992672746800,3.350746826171875,0.0378485806286335,0.1547325849533081,-0.17994579672813416
1776019992682807800,3.360807861328125,0.0308681670576334,0.1521647721529007,-0.20363114774227142
1776019992692867800,3.370867919921875,0.028008997440338135,0.1612677127122879,-0.2079867571592331
1776019992702929000,3.380928955078125,0.026926955208182335,0.17537207901477814,-0.2106565684080124
1776019992712988700,3.39098876953125,0.030699588358402252,0.21789930760860443,-0.2182561755180359
1776019992723049700,3.4010498046875,0.034387800842523575,0.27858981490135193,-0.23477575182914734
1776019992733109800,3.41110986328125,0.03640727698802948,0.37845462560653687,-0.23905625939369202
1776019992743170800,3.4211708984375,0.03490152582526207,0.49744999408721924,-0.24551548063755035
1776019992753230600,3.431230712890625,0.03850451484322548,0.6476328372955322,-0.23974601924419403
1776019992763291600,3.441291748046875,0.05854187160730362,0.809559166431427,-0.22258514165878296
1776019992773351700,3.4513515625,0.08932188898324966,0.9629146456718445,-0.19621264934539795
1776019992783412700,3.461412841796875,0.1311769336462021,1.0847731828689575,-0.1685786247253418
1776019992793472800,3.47147265625,0.17973195016384125,1.1533732414245605,-0.14737160503864288
1776019992803533800,3.481533935546875,0.2195347547531128,1.1857460737228394,-0.13630297780036926
1776019992813593600,3.491593505859375,0.25711143016815186,1.1855179071426392,-0.13282889127731323
1776019992823653600,3.501653564453125,0.29086726903915405,1.1840970516204834,-0.13608087599277496
1776019992833713700,3.511713623046875,0.32705268263816833,1.1894068717956543,-0.14203064143657684
1776019992843774700,3.521774658203125,0.3574497401714325,1.18419349193573,-0.15105555951595306
1776019992853834800,3.531834716796875,0.3651534616947174,1.1694244146347046,-0.16689923405647278
1776019992863895600,3.5418955078125,0.3662901222705841,1.159307837486267,-0.18965008854866028
1776019992873955800,3.551955810546875,0.3528587222099304,1.1753616333007812,-0.21463453769683838
1776019992884016600,3.5620166015625,0.3235016465187073,1.1958227157592773,-0.2383720874786377
1776019992894077000,3.572076904296875,0.27581241726875305,1.2166839838027954,-0.2605056166648865
1776019992904136700,3.58213671875,0.2195318192243576,1.223508358001709,-0.28257498145103455
1776019992914197800,3.59219775390625,0.16585767269134521,1.2310377359390259,-0.31050992012023926
1776019992924257800,3.6022578125,0.11287302523851395,1.222760558128357,-0.3152245283126831
1776019992934318800,3.61231884765625,0.0826815664768219,1.2289612293243408,-0.2980346083641052
1776019992944379000,3.62237890625,0.07617039978504181,1.2785788774490356,-0.27864840626716614
1776019992954440000,3.63243994140625,0.08944599330425262,1.3601288795471191,-0.2689973711967468
1776019992964499700,3.642499755859375,0.11723741143941879,1.487249732017517,-0.27655062079429626
1776019992974560800,3.652560791015625,0.16378253698349,1.6300218105316162,-0.29373282194137573
1776019992984620800,3.662620849609375,0.22008655965328217,1.756521463394165,-0.347059965133667
1776019992994681900,3.672681884765625,0.26985064148902893,1.870634913444519,-0.41196173429489136
1776019993004741600,3.68274169921875,0.29648199677467346,1.9702073335647583,-0.47128602862358093
1776019993014802700,3.692802734375,0.31367936730384827,2.0179080963134766,-0.4935218393802643
1776019993024862700,3.70286279296875,0.3262247145175934,1.968059778213501,-0.4944009482860565
1776019993034923800,3.712923828125,0.33688828349113464,1.8189613819122314,-0.44729602336883545
1776019993044983800,3.72298388671875,0.35479697585105896,1.6060839891433716,-0.3639689087867737
1776019993055044600,3.733044677734375,0.3809382915496826,1.360211968421936,-0.26694196462631226
1776019993065104600,3.743104736328125,0.40934595465660095,1.1078773736953735,-0.17728450894355774
1776019993075165700,3.753165771484375,0.4255606234073639,0.8544113039970398,-0.11336464434862137
1776019993085225700,3.763225830078125,0.43857869505882263,0.6352800130844116,-0.04891001805663109
1776019993095286800,3.773286865234375,0.4820263087749481,0.5266880393028259,0.005022189114242792
1776019993105346600,3.7833466796875,0.5473152995109558,0.5380607843399048,0.06471481174230576
1776019993115407600,3.79340771484375,0.5998733043670654,0.6177284717559814,0.12059858441352844
1776019993125468000,3.803468017578125,0.6336520314216614,0.7256181836128235,0.16197052597999573
1776019993135528700,3.81352880859375,0.6659953594207764,0.8173875212669373,0.19273163378238678
1776019993145589000,3.823589111328125,0.6915709972381592,0.8683777451515198,0.2199145257472992
1776019993155649500,3.8336494140625,0.6970901489257812,0.8820248246192932,0.23449213802814484
1776019993165709800,3.843709716796875,0.6994036436080933,0.8926572203636169,0.23539653420448303
1776019993175771000,3.85377099609375,0.7037163376808167,0.908111572265625,0.22201921045780182
1776019993185831000,3.863830810546875,0.7074482440948486,0.9308043718338013,0.20619603991508484
1776019993195892000,3.87389208984375,0.7021328210830688,0.9468368291854858,0.19895784556865692
1776019993205951700,3.88395166015625,0.7028571963310242,0.9544590711593628,0.19190499186515808
1776019993216012800,3.8940126953125,0.7144677639007568,0.9751550555229187,0.185787171125412
1776019993226072800,3.90407275390625,0.7295879125595093,1.0373382568359375,0.20924057066440582
1776019993236134000,3.9141337890625,0.744182288646698,1.1325947046279907,0.26364096999168396
1776019993246193700,3.924193603515625,0.7352324724197388,1.2446749210357666,0.34554195404052734
1776019993256254700,3.934254638671875,0.7062426209449768,1.3702400922775269,0.43265262246131897
1776019993266314800,3.944314697265625,0.6490128636360168,1.5038114786148071,0.5124651789665222
1776019993276375800,3.954375732421875,0.5774825215339661,1.609479546546936,0.5918193459510803
1776019993286435800,3.964435791015625,0.4880325198173523,1.6599730253219604,0.6776991486549377
1776019993296497000,3.974496826171875,0.3978528380393982,1.6223580837249756,0.7542575597763062
1776019993306556700,3.984556640625,0.3124313950538635,1.5389206409454346,0.7932379841804504
1776019993316617700,3.99461767578125,0.23524686694145203,1.4390287399291992,0.7543129324913025
1776019993326677800,4.004677734375,0.1513999104499817,1.3846096992492676,0.6118809580802917
1776019993336738800,4.01473876953125,0.05216093733906746,1.346862554550171,0.3839109241962433
1776019993346798600,4.024798583984375,-0.06373823434114456,1.251947283744812,0.14850452542304993
1776019993356859600,4.034859619140625,-0.1964195817708969,1.0241116285324097,-0.01073733251541853
1776019993366919700,4.044919677734375,-0.30652132630348206,0.6147172451019287,-0.07601433992385864
1776019993376980700,4.054980712890625,-0.3906383216381073,0.06349881738424301,-0.07559702545404434
1776019993387040800,4.065040771484375,-0.44691383838653564,-0.5812410116195679,-0.04637815058231354
1776019993397101800,4.075101806640625,-0.48024624586105347,-1.1703176498413086,-0.016112923622131348
1776019993407161600,4.08516162109375,-0.49012523889541626,-1.618455171585083,0.008955944329500198
1776019993417222700,4.09522265625,-0.47840145230293274,-1.8621206283569336,0.05420305207371712
1776019993427282700,4.10528271484375,-0.44762223958969116,-1.931442141532898,0.12227851152420044
1776019993437343700,4.11534375,-0.3947920501232147,-1.8880126476287842,0.19448372721672058
1776019993447403800,4.12540380859375,-0.3301006853580475,-1.7380329370498657,0.23944641649723053
1776019993457464600,4.135464599609375,-0.26770681142807007,-1.4934648275375366,0.2589806914329529
1776019993467524900,4.14552490234375,-0.21035483479499817,-1.2015525102615356,0.2654985189437866
1776019993477586000,4.1555859375,-0.1602940708398819,-0.8927576541900635,0.2764297127723694
1776019993487646000,4.16564599609375,-0.12523062527179718,-0.597141444683075,0.3118218183517456
1776019993497706800,4.175706787109375,-0.10198202729225159,-0.31072404980659485,0.3674352765083313
1776019993507766800,4.185766845703125,-0.05528935417532921,-0.02364460937678814,0.4438389539718628
1776019993517827800,4.195827880859375,0.03615667298436165,0.24361026287078857,0.5312385559082031
1776019993527888000,4.205887939453125,0.1340067982673645,0.4401552677154541,0.5904944539070129
1776019993537949000,4.215948974609375,0.209006205201149,0.5672032237052917,0.6044118404388428
1776019993548008700,4.2260087890625,0.26700666546821594,0.6461433172225952,0.5752004384994507
1776019993558069800,4.23606982421875,0.31019702553749084,0.6853911280632019,0.5406435132026672
1776019993568129800,4.2461298828125,0.33410394191741943,0.687923789024353,0.5255881547927856
1776019993578189800,4.25618994140625,0.35184672474861145,0.6968600153923035,0.5338727235794067
1776019993588251000,4.2662509765625,0.3517923951148987,0.7354023456573486,0.5758395791053772
1776019993598310700,4.276310546875,0.33643287420272827,0.8261517286300659,0.6609348058700562
1776019993608371700,4.286371826171875,0.3158501088619232,0.9176198244094849,0.7623498439788818
1776019993618431700,4.296431640625,0.3201175630092621,0.9460530877113342,0.8084776401519775
1776019993628492800,4.306492919921875,0.35315486788749695,0.9161987900733948,0.7517640590667725
1776019993638552600,4.316552490234375,0.39090651273727417,0.8994826674461365,0.6256271600723267
1776019993648613600,4.326613525390625,0.36816710233688354,0.9275054931640625,0.5530291199684143
1776019993658673700,4.336673583984375,0.3305946886539459,1.0039914846420288,0.6004496216773987
1776019993668734700,4.346734619140625,0.3201087713241577,1.1092523336410522,0.6944834589958191
1776019993678794800,4.356794677734375,0.3173601031303406,1.2291662693023682,0.7857835292816162
1776019993688855600,4.36685546875,0.31165775656700134,1.2466315031051636,0.8668666481971741
1776019993698915800,4.376915771484375,0.30195266008377075,1.0967504978179932,0.9100258350372314
1776019993708976600,4.3869765625,0.28820064663887024,0.8021209239959717,0.9020675420761108
1776019993719037000,4.397036865234375,0.25901931524276733,0.4670329689979553,0.861707866191864
1776019993729097700,4.40709765625,0.20095574855804443,0.23522503674030304,0.8336354494094849
1776019993739157800,4.41715771484375,0.1111193299293518,0.14301760494709015,0.8394566178321838
1776019993749218800,4.42721875,0.009048355743288994,0.15418078005313873,0.8528442978858948
1776019993759278800,4.43727880859375,-0.058764513581991196,0.22802969813346863,0.8118079304695129
1776019993769340000,4.44733984375,-0.07237645983695984,0.3289129137992859,0.6700334548950195
1776019993779400000,4.45739990234375,-0.06435981392860413,0.4618488550186157,0.4631684422492981
1776019993789460700,4.467460693359375,-0.04312216863036156,0.5936335325241089,0.2478441596031189
1776019993799520800,4.477520751953125,0.003546797903254628,0.6066840887069702,0.04977980628609657
1776019993809581800,4.487581787109375,0.05205095186829567,0.5070392489433289,-0.1137944757938385
1776019993819641900,4.497641845703125,0.07821251451969147,0.2714024782180786,-0.24001792073249817
1776019993829703000,4.507702880859375,0.07658079266548157,-0.061222877353429794,-0.3789241313934326
1776019993839762700,4.5177626953125,0.06578274071216583,-0.3656778335571289,-0.5163533687591553
1776019993849823700,4.52782373046875,0.01763065904378891,-0.5549561381340027,-0.5646527409553528
1776019993859883800,4.5378837890625,-0.081889808177948,-0.6657772064208984,-0.43746522068977356
1776019993869944800,4.54794482421875,-0.19113454222679138,-0.6137681007385254,-0.20979849994182587
1776019993880004900,4.5580048828125,-0.27113401889801025,-0.4313841462135315,-0.04318422079086304
1776019993890066000,4.56806591796875,-0.33311858773231506,-0.17805175483226776,-0.01841256208717823
1776019993900125700,4.578125732421875,-0.3825992941856384,0.16637326776981354,-0.16964149475097656
1776019993910186800,4.588186767578125,-0.4069552421569824,0.641978919506073,-0.42762961983680725
1776019993920246800,4.598246826171875,-0.44052067399024963,1.156861662864685,-0.622779130935669
1776019993930307800,4.608307861328125,-0.3817194104194641,0.6179018616676331,-0.6013785004615784
1776019993940367600,4.61836767578125,-0.5095996260643005,1.3660095930099487,-0.4551938772201538
1776019993950428700,4.6284287109375,-0.43651020526885986,1.4350541830062866,-0.4906786382198334
1776019993960488700,4.63848876953125,-0.4409049451351166,1.0883814096450806,-0.7027496099472046
1776019993970549800,4.6485498046875,-0.5571934580802917,0.5094475150108337,-0.8468894958496094
1776019993980609800,4.65860986328125,-0.6398060917854309,-0.0941411480307579,-0.9085560441017151
1776019993990670800,4.6686708984375,-0.596315860748291,-0.4159575402736664,-0.8722981810569763
1776019994000731000,4.67873095703125,-0.5333150625228882,-0.49595969915390015,-0.7445316910743713
1776019994010791700,4.688791748046875,-0.5166503190994263,-0.504033088684082,-0.6696012616157532
1776019994020852000,4.69885205078125,-0.48328784108161926,-0.4669434726238251,-0.7162603735923767
1776019994030912800,4.708912841796875,-0.4438091218471527,-0.4187277555465698,-0.8162335753440857
1776019994040972800,4.718972900390625,-0.43450111150741577,-0.45440027117729187,-0.8857356905937195
1776019994051033900,4.729033935546875,-0.43780317902565,-0.5800596475601196,-0.8993726372718811
1776019994061094700,4.7390947265625,-0.43331706523895264,-0.7619413137435913,-0.8448801040649414
1776019994071155000,4.749155029296875,-0.4121779799461365,-0.9809130430221558,-0.7365131974220276
1776019994081215700,4.7592158203125,-0.3535332977771759,-1.1833434104919434,-0.6367024183273315
1776019994091275800,4.76927587890625,-0.27936187386512756,-1.2477340698242188,-0.5870712399482727
1776019994101336800,4.7793369140625,-0.20934176445007324,-1.1699283123016357,-0.6385751366615295
1776019994111396900,4.78939697265625,-0.17847120761871338,-0.9072588086128235,-0.8093681931495667
1776019994121458000,4.7994580078125,-0.19465842843055725,-0.46437379717826843,-1.0599749088287354
1776019994131518000,4.80951806640625,-0.24263714253902435,0.08178994059562683,-1.320642352104187
1776019994141579000,4.8195791015625,-0.26034530997276306,0.4171293079853058,-1.5581071376800537
1776019994151638800,4.829638671875,-0.29992014169692993,0.9301215410232544,-1.6957560777664185
1776019994161699800,4.839699951171875,-0.30878525972366333,0.9269739389419556,-1.784490704536438
1776019994171759900,4.849759765625,-0.3465249240398407,0.6757046580314636,-1.8147403001785278
1776019994181821000,4.859821044921875,-0.3876475989818573,0.23563195765018463,-1.7265899181365967
1776019994191880700,4.869880615234375,-0.3887008726596832,-0.2952074110507965,-1.5873137712478638
1776019994201941800,4.879941650390625,-0.34939926862716675,-0.7475333213806152,-1.4167619943618774
1776019994212001800,4.890001708984375,-0.30543822050094604,-1.0730432271957397,-1.20093834400177
1776019994222062800,4.900062744140625,-0.25165247917175293,-1.250230312347412,-0.9769949913024902
1776019994232123000,4.910122802734375,-0.17931783199310303,-1.2385872602462769,-0.8187292218208313
1776019994242183700,4.92018359375,-0.07703805714845657,-0.9520577192306519,-0.7992527484893799
1776019994252243700,4.93024365234375,0.05164641514420509,-0.30353111028671265,-0.8959057331085205
1776019994262304800,4.9403046875,0.17472440004348755,0.43809106945991516,-1.0151783227920532
1776019994272364800,4.95036474609375,0.1780775934457779,1.119255542755127,-1.0789365768432617
1776019994282425900,4.96042578125,0.023334616795182228,1.4261698722839355,-1.0181283950805664
1776019994292485600,4.970485595703125,-0.33348342776298523,1.3330758810043335,-0.7798318862915039
1776019994302546700,4.980546630859375,-0.8081599473953247,1.0484346151351929,-0.4116083085536957
1776019994312606700,4.990606689453125,-1.2364583015441895,0.8037649393081665,-0.16086505353450775
1776019994322667800,5.000667724609375,-1.5234887599945068,0.7171866297721863,-0.15819576382637024
1776019994332727800,5.010727783203125,-1.7539619207382202,0.7125124931335449,-0.28376325964927673
1776019994342788600,5.02078857421875,-2.0281295776367188,0.5844488143920898,-0.30398812890052795
1776019994352849000,5.030848876953125,-2.321136951446533,0.34019753336906433,-0.21665215492248535
1776019994362909700,5.04090966796875,-2.4813356399536133,0.13387523591518402,-0.24182221293449402
1776019994372970000,5.050969970703125,-2.374072313308716,0.08940631151199341,-0.5236355066299438
1776019994383030800,5.06103076171875,-2.1260409355163574,0.0124220484867692,-0.9049440026283264
1776019994393090800,5.0710908203125,-1.8371320962905884,-0.14880652725696564,-1.1179680824279785
1776019994403152000,5.08115185546875,-1.588425874710083,-0.1375541388988495,-1.2247339487075806
1776019994413212000,5.0912119140625,-1.3446571826934814,0.13729926943778992,-1.3894281387329102
1776019994423273000,5.10127294921875,-1.0903830528259277,0.5727071762084961,-1.5886170864105225
1776019994433333000,5.1113330078125,-0.9343777894973755,0.9698542952537537,-1.6714318990707397
1776019994443393800,5.121393798828125,-0.8860243558883667,1.2206090688705444,-1.5575391054153442
1776019994453453800,5.131453857421875,-0.9165554046630859,1.4145408868789673,-1.321663737297058
1776019994463515000,5.141514892578125,-1.0337533950805664,1.664565920829773,-1.0283311605453491
1776019994473575000,5.151574951171875,-1.2777551412582397,1.9848147630691528,-0.7311927080154419
1776019994483636000,5.161635986328125,-1.675679087638855,2.2642529010772705,-0.4719696640968323
1776019994493695700,5.17169580078125,-2.174409866333008,2.2503325939178467,-0.307084321975708
1776019994503756800,5.1817568359375,-2.539142370223999,1.7960302829742432,-0.1493322253227234
1776019994513816800,5.19181689453125,-2.6334879398345947,1.128381371498108,-0.08229007571935654
1776019994523878000,5.2018779296875,-2.526373863220215,0.6127166748046875,-0.1211080476641655
1776019994533937700,5.211937744140625,-2.373242139816284,0.35245099663734436,-0.15012425184249878
1776019994543998700,5.221998779296875,-2.17390513420105,0.20331662893295288,-0.21002434194087982
1776019994554058800,5.232058837890625,-1.8724653720855713,0.16609708964824677,-0.447971910238266
1776019994564119800,5.242119873046875,-1.4965343475341797,-0.01136956736445427,-0.6830768585205078
1776019994574179800,5.252179931640625,-1.1585904359817505,-0.3033210039138794,-0.8007866740226746
1776019994584241000,5.262240966796875,-0.7789730429649353,-0.30198514461517334,-1.0601849555969238
1776019994594300700,5.27230078125,-0.480848103761673,-0.2291080206632614,-1.3989646434783936
1776019994604361700,5.28236181640625,-0.38052257895469666,-0.40101000666618347,-1.530879259109497
1776019994614421800,5.292421875,-0.4450658857822418,-0.48097914457321167,-1.6289254426956177
1776019994624482800,5.30248291015625,-0.6761310696601868,-0.3621728718280792,-1.704160451889038
1776019994634542600,5.31254248046875,-0.9912892580032349,-0.27021417021751404,-1.6697194576263428
1776019994644603600,5.322603759765625,-1.328554630279541,-0.31544768810272217,-1.5118025541305542
1776019994654663700,5.33266357421875,-1.5240669250488281,-0.3469473123550415,-1.2660635709762573
1776019994664724700,5.342724853515625,-1.5489403009414673,-0.45638778805732727,-0.9094393849372864
1776019994674785000,5.352784912109375,-1.409239411354065,-0.610670804977417,-0.4995823800563812
1776019994684845600,5.362845458984375,-1.087894320487976,-0.8236891031265259,-0.10769477486610413
1776019994694905900,5.37290576171875,-0.6578735113143921,-0.9478352665901184,0.27646276354789734
1776019994704966700,5.382966552734375,-0.25186657905578613,-0.8267892599105835,0.6017414927482605
1776019994715027000,5.39302685546875,0.06294727325439453,-0.5331291556358337,0.7947975397109985
1776019994725088000,5.403087890625,0.2028053104877472,-0.25413987040519714,0.8662461638450623
1776019994735147800,5.413147705078125,0.14498008787631989,0.044566135853528976,0.849614143371582
1776019994745208800,5.423208740234375,0.038185469806194305,0.19508454203605652,0.716540515422821
1776019994755268900,5.433268798828125,-0.04980377480387688,0.15293176472187042,0.5184420943260193
1776019994765330000,5.443329833984375,-0.14782221615314484,0.08542115986347198,0.3575858473777771
1776019994775390000,5.453389892578125,-0.2098376452922821,-0.017663415521383286,0.26729562878608704
1776019994785450800,5.46345068359375,-0.20790952444076538,-0.35461747646331787,0.255126029253006
1776019994795510800,5.4735107421875,-0.1696082055568695,-0.7471945881843567,0.31986427307128906
1776019994805571800,5.48357177734375,-0.09816145151853561,-0.980285108089447,0.4040646553039551
1776019994815633000,5.4936328125,0.035286352038383484,-1.0880855321884155,0.4102133512496948
1776019994825694000,5.50369384765625,0.14102955162525177,-1.042078971862793,0.31588178873062134
1776019994835754800,5.513754638671875,0.23428626358509064,-1.3525097370147705,0.35908225178718567
1776019994845815000,5.52381494140625,0.3395996391773224,-1.4871429204940796,0.39058905839920044
1776019994855876000,5.5338759765625,0.35064056515693665,-1.4609405994415283,0.41627204418182373
1776019994865936000,5.543935791015625,0.24946202337741852,-1.4218547344207764,0.4417015016078949
1776019994875997000,5.553996826171875,0.08292417973279953,-1.517808437347412,0.42255470156669617
1776019994886057000,5.564056884765625,-0.17111581563949585,-1.8280837535858154,0.37322816252708435
1776019994896118000,5.574117919921875,-0.6346275806427002,-2.041956901550293,0.26224014163017273
1776019994906178000,5.584177978515625,-0.9256327748298645,-1.8243327140808105,0.2490263283252716
1776019994916238800,5.59423876953125,-0.8570324182510376,-1.4874519109725952,0.6100764274597168
1776019994926299000,5.604298828125,-0.5791648030281067,-1.666344165802002,1.100368857383728
1776019994936360000,5.61435986328125,-0.15270166099071503,-1.7528235912322998,1.3318498134613037
1776019994946420000,5.624419921875,0.1616639941930771,-1.672168254852295,1.3464540243148804
1776019994956481000,5.63448095703125,0.24202275276184082,-1.7584441900253296,1.367614984512329
1776019994966540800,5.644540771484375,0.23518401384353638,-1.9643100500106812,1.3383535146713257
1776019994976601900,5.654601806640625,0.16989102959632874,-2.107686996459961,1.1779757738113403
1776019994986662000,5.664661865234375,0.021571338176727295,-2.2636120319366455,0.9970393180847168
1776019994996723000,5.674722900390625,-0.20330572128295898,-2.463707685470581,0.9138208627700806
1776019995006782700,5.68478271484375,-0.2933831512928009,-2.1644093990325928,0.7560080289840698
1776019995016843800,5.69484375,-0.2694200277328491,-0.9179218411445618,0.30908912420272827
1776019995026903800,5.70490380859375,-0.60191810131073,0.6599617004394531,0.05836077779531479
1776019995036964900,5.71496484375,-1.3458415269851685,0.731175422668457,0.6550548076629639
1776019995047025000,5.72502490234375,-1.3956698179244995,-1.18465256690979,1.3810282945632935
1776019995057086000,5.7350859375,-0.4395182430744171,-3.000631093978882,1.4453835487365723
1776019995067145700,5.745145751953125,0.7524010539054871,-3.4751641750335693,1.1973439455032349
1776019995077206800,5.755206787109375,1.4173178672790527,-3.188450574874878,0.9774261713027954
1776019995087266800,5.765266845703125,1.5639797449111938,-2.713042974472046,0.6760929822921753
1776019995097327900,5.775327880859375,1.4707831144332886,-2.1081717014312744,0.2488364428281784
1776019995107388000,5.785387939453125,1.4415839910507202,-1.7529150247573853,-0.016080966219305992
1776019995117448700,5.79544873046875,1.5272743701934814,-1.6707801818847656,0.061757639050483704
1776019995127509800,5.805509765625,1.535158395767212,-1.2844913005828857,0.3292069137096405
1776019995137569800,5.81556982421875,1.21305251121521,-0.3659502863883972,0.6125113368034363
1776019995147630800,5.825630859375,0.4879094958305359,0.6356310248374939,0.8080323338508606
1776019995157691000,5.83569091796875,-0.45674702525138855,1.0949482917785645,0.9183226227760315
1776019995167751700,5.845751708984375,-1.0747405290603638,1.072562575340271,0.9987192153930664
1776019995177812000,5.85581201171875,-1.3388022184371948,0.9420822858810425,1.0047550201416016
1776019995187872800,5.865872802734375,-1.3642356395721436,0.7836934924125671,0.9544324278831482
1776019995197933000,5.87593310546875,-1.3073055744171143,0.6336003541946411,0.8505201935768127
1776019995207994000,5.885994140625,-1.2294344902038574,0.4779415428638458,0.6893808245658875
1776019995218054000,5.896053955078125,-1.089066982269287,0.2564895749092102,0.4975711703300476
1776019995228115000,5.906114990234375,-0.7796750068664551,-0.008637696504592896,0.3443475365638733
1776019995238175000,5.916175048828125,-0.3056033253669739,-0.33214011788368225,0.31877851486206055
1776019995248236000,5.926236083984375,0.14792661368846893,-0.637418270111084,0.3772149384021759
1776019995258295800,5.9362958984375,0.3103967607021332,-0.7853723168373108,0.3964999318122864
1776019995268356900,5.94635693359375,0.3394435942173004,-0.6795327067375183,0.3731520175933838
1776019995278417000,5.9564169921875,0.37500396370887756,-0.4225568473339081,0.3441635072231293
1776019995288478000,5.96647802734375,0.4178158938884735,-0.15182282030582428,0.40442338585853577
1776019995298538000,5.9765380859375,0.33682969212532043,0.10542202740907669,0.531170666217804
1776019995308599000,5.98659912109375,0.07923489809036255,0.3253040611743927,0.660134494304657
1776019995318658800,5.996658935546875,-0.28216031193733215,0.5244683027267456,0.7239657044410706
1776019995328720000,6.006719970703125,-0.5667459964752197,0.6515862941741943,0.7171722054481506
1776019995338780000,6.01677978515625,-0.7023205757141113,0.6457797884941101,0.67074054479599
1776019995348841000,6.026841064453125,-0.7154046893119812,0.4909457564353943,0.6448982954025269
1776019995358900700,6.036900634765625,-0.6256071329116821,0.3006509244441986,0.6186379194259644
1776019995368961800,6.0469619140625,-0.44913625717163086,0.13350452482700348,0.5443477034568787
1776019995379022800,6.05702294921875,-0.2053544819355011,-0.07362734526395798,0.48028671741485596
1776019995389083000,6.067082763671875,0.060868144035339355,-0.27871260046958923,0.492350310087204
1776019995399144000,6.07714404296875,0.21470937132835388,-0.4145788252353668,0.5980775356292725
1776019995409203700,6.08720361328125,0.2298228144645691,-0.4618171751499176,0.7117494940757751
1776019995419264800,6.0972646484375,0.1923510730266571,-0.3925057351589203,0.7495075464248657
1776019995429324800,6.10732470703125,0.1569981426000595,-0.26334163546562195,0.7085177302360535
1776019995439385900,6.1173857421875,0.118082694709301,-0.15720213949680328,0.6410910487174988
1776019995449446000,6.12744580078125,0.0832352340221405,-0.06993354111909866,0.6041005253791809
1776019995459507000,6.1375068359375,0.0514107272028923,0.058868374675512314,0.6131249070167542
1776019995469566700,6.147566650390625,0.011477425694465637,0.1922333538532257,0.6866015195846558
1776019995479627800,6.157627685546875,-0.03328658267855644,0.2661536633968353,0.7967570424079895
1776019995489687800,6.167687744140625,-0.0580047145485878,0.28761979937553406,0.8998477458953857
1776019995499748900,6.177748779296875,-0.05263311788439751,0.2897958755493164,0.9635407328605652
1776019995509809000,6.187808837890625,-0.029212746769189835,0.30282992124557495,0.9568431377410889
1776019995519869700,6.19786962890625,0.005059206858277321,0.3405466675758362,0.9022214412689209
1776019995529930000,6.207929931640625,0.037037380039691925,0.36564695835113525,0.8375524282455444
1776019995539990800,6.21799072265625,0.05933229997754097,0.33369648456573486,0.8025854229927063
1776019995550051000,6.228051025390625,0.09288600087165833,0.26510941982269287,0.824948251247406
1776019995560111900,6.23811181640625,0.13635385036468506,0.17137788236141205,0.8855735063552856
1776019995570172000,6.248171875,0.1705685406923294,0.05775677412748337,0.9459002017974854
1776019995580233000,6.25823291015625,0.18830598890781403,-0.035098597407341,0.9767934083938599
1776019995590293800,6.268293701171875,0.2242743819952011,-0.08720999956130981,0.9852119088172913
1776019995600354000,6.27835400390625,0.2840237319469452,-0.11204291135072708,0.9873238205909729
1776019995610415000,6.2884150390625,0.3913067877292633,-0.11723075062036514,0.9830286502838135
1776019995620475000,6.298474853515625,0.5096105337142944,-0.1377088576555252,0.986791729927063
1776019995630536000,6.308535888671875,0.6007529497146606,-0.14355157315731049,1.0140953063964844
1776019995640596000,6.318595947265625,0.6622775793075562,-0.11957300454378128,1.0420738458633423
1776019995650657000,6.328656982421875,0.6978379487991333,-0.060388240963220596,1.05166494846344
1776019995660716800,6.338716796875,0.7018142938613892,0.06000901013612747,1.0487229824066162
1776019995670777900,6.34877783203125,0.6511207818984985,0.20436857640743256,1.0501093864440918
1776019995680838000,6.358837890625,0.5498657822608948,0.36023542284965515,1.0892728567123413
1776019995690899000,6.36889892578125,0.434928834438324,0.5101367831230164,1.1803326606750488
1776019995700959000,6.378958984375,0.36370524764060974,0.6444658041000366,1.2899971008300781
1776019995711020000,6.38902001953125,0.3439624309539795,0.7817592024803162,1.392271637916565
1776019995721079800,6.399079833984375,0.37588974833488464,0.9316352605819702,1.4720205068588257
1776019995731140900,6.409140869140625,0.44285890460014343,1.0802828073501587,1.5311743021011353
1776019995741201000,6.419200927734375,0.5256962776184082,1.2090929746627808,1.5831570625305176
1776019995751262000,6.429261962890625,0.607455313205719,1.2833136320114136,1.6544249057769775
1776019995761323000,6.439322998046875,0.6854180097579956,1.294908046722412,1.753325343132019
1776019995771382800,6.4493828125,0.7521643042564392,1.2748607397079468,1.8675739765167236
1776019995781443800,6.45944384765625,0.8005800247192383,1.2384766340255737,1.9979015588760376
1776019995791504000,6.46950390625,0.8529391288757324,1.2312736511230469,2.128892421722412
1776019995801565000,6.47956494140625,0.929789662361145,1.2477338314056396,2.2324435710906982
1776019995811625000,6.489625,1.0414330959320068,1.3256562948226929,2.353895664215088
1776019995821685000,6.49968505859375,1.1028903722763062,1.4111099243164062,2.51544189453125
1776019995831745000,6.5097451171875,1.0595226287841797,1.5759433507919312,2.6986119747161865
1776019995841805800,6.519805908203125,1.0163589715957642,1.7722500562667847,2.873906373977661
1776019995851866000,6.5298662109375,0.9602341651916504,1.9972234964370728,2.87459659576416
1776019995861927000,6.539927001953125,0.8215596079826355,2.0921854972839355,2.5517687797546387
1776019995871987200,6.5499873046875,0.6213109493255615,2.1314799785614014,1.84927237033844
1776019995882048300,6.56004833984375,0.48066702485084534,1.7039650678634644,1.0494098663330078
1776019995892108000,6.57010791015625,0.47119656205177307,1.211690902709961,0.39698198437690735
1776019995902169000,6.580169189453125,0.594454288482666,0.7741164565086365,0.037936195731163025
1776019995912230000,6.59022998046875,0.8167464733123779,0.5928558707237244,-0.05479959771037102
1776019995922290200,6.600290283203125,1.028273105621338,0.6366392970085144,0.021825935691595078
1776019995932351200,6.610351318359375,1.129819393157959,0.7057642936706543,0.08055316656827927
1776019995942411000,6.620410888671875,1.1398481130599976,0.6119957566261292,0.05660921707749367
1776019995952472000,6.63047216796875,1.0988415479660034,0.3251000642776489,-0.02906174585223198
1776019995962532000,6.640531982421875,1.0577980279922485,-0.012799152173101902,-0.14590394496917725
1776019995972593200,6.65059326171875,1.0294281244277954,-0.22461020946502686,-0.2734978497028351
1776019995982653000,6.66065283203125,1.015475869178772,-0.24520602822303772,-0.3557916581630707
1776019995992714000,6.6707138671875,1.079956293106079,-0.05573064088821411,-0.40077778697013855
1776019996002774000,6.68077392578125,1.1383953094482422,0.12519493699073792,-0.4497503936290741
1776019996012835000,6.6908349609375,1.1473366022109985,0.3611757755279541,-0.49726223945617676
1776019996022895000,6.70089501953125,1.0870453119277954,0.4967173635959625,-0.5044738054275513
1776019996032956200,6.7109560546875,0.9848082065582275,0.6222257614135742,-0.42327189445495605
1776019996043016000,6.721015869140625,0.8630876541137695,0.7842940092086792,-0.2653392553329468
1776019996053077000,6.731076904296875,0.7329069972038269,0.987842321395874,-0.061105430126190186
1776019996063138000,6.741137939453125,0.6059266924858093,1.20332670211792,0.11301816254854202
1776019996073198000,6.751197998046875,0.5533345341682434,1.3710936307907104,0.16917091608047485
1776019996083259100,6.761259033203125,0.5572220087051392,1.4208667278289795,0.13195617496967316
1776019996093319000,6.77131884765625,0.5725079774856567,1.2947216033935547,0.05754851549863815
1776019996103380000,6.7813798828125,0.5805352926254272,1.027494192123413,-0.033296968787908554
1776019996113440000,6.79143994140625,0.5974277257919312,0.7608249187469482,-0.14256086945533752
1776019996123501000,6.8015009765625,0.608283281326294,0.5044863224029541,-0.26699841022491455
1776019996133560800,6.811560791015625,0.6084566712379456,0.2849515676498413,-0.40196794271469116
1776019996143622000,6.821621826171875,0.6191585659980774,0.12767647206783295,-0.5335872173309326
1776019996153682000,6.831681884765625,0.6562265753746033,0.02202460914850235,-0.6397000551223755
1776019996163743000,6.841742919921875,0.7135918736457825,-0.051473844796419144,-0.7130118608474731
1776019996173803000,6.851802978515625,0.7724035382270813,-0.09111339598894119,-0.7480207085609436
1776019996183864000,6.861864013671875,0.8064422011375427,-0.09103696793317795,-0.7401007413864136
1776019996193923800,6.871923828125,0.8131623864173889,-0.018253305926918983,-0.6979796290397644
1776019996203985000,6.88198486328125,0.8051268458366394,0.14815936982631683,-0.6405927538871765
1776019996214046000,6.8920458984375,0.7659235000610352,0.37181589007377625,-0.5731394290924072
1776019996224106000,6.90210595703125,0.7011860609054565,0.5930185914039612,-0.4930184781551361
1776019996234167000,6.9121669921875,0.6230864524841309,0.7833773493766785,-0.3973308503627777
1776019996244226800,6.922226806640625,0.5432483553886414,0.9084809422492981,-0.27887532114982605
1776019996254288000,6.932287841796875,0.5079074501991272,0.987999439239502,-0.16146719455718994
1776019996264348000,6.942347900390625,0.5108011960983276,1.0647815465927124,-0.08001680672168732
1776019996274409000,6.952408935546875,0.5307006239891052,1.1271469593048096,-0.039380162954330444
1776019996284469200,6.96246923828125,0.5043798089027405,1.105893850326538,-0.03466210514307022
1776019996294529800,6.97252978515625,0.39952048659324646,0.9464512467384338,-0.07525480538606644
1776019996304590000,6.982590087890625,0.24740393459796906,0.6376571655273438,-0.15277943015098572
1776019996314651100,6.992651123046875,0.2019706666469574,0.33516600728034973,-0.268981397151947
1776019996324711200,7.002711181640625,0.295026034116745,0.27869394421577454,-0.4376194179058075
1776019996334772200,7.012772216796875,0.3890784978866577,0.3771646022796631,-0.5734590291976929
1776019996344833000,7.0228330078125,0.42406418919563293,0.44735753536224365,-0.5939139723777771
1776019996354893000,7.03289306640625,0.4501922130584717,0.4705837666988373,-0.5409221053123474
1776019996364954000,7.0429541015625,0.495749831199646,0.5149179100990295,-0.4625990688800812
1776019996375014100,7.05301416015625,0.5396022200584412,0.5402946472167969,-0.4123486876487732
1776019996385075200,7.0630751953125,0.534157931804657,0.5563692450523376,-0.4095347821712494
1776019996395135000,7.073135009765625,0.46124139428138733,0.5435522198677063,-0.4512665271759033
1776019996405196000,7.083196044921875,0.3108907639980316,0.4948877692222595,-0.49216681718826294
1776019996415256000,7.093256103515625,0.1642208993434906,0.3730183243751526,-0.4817975163459778
1776019996425317000,7.103317138671875,0.13206961750984192,0.2629786431789398,-0.4555102586746216
1776019996435377200,7.113377197265625,0.20049501955509186,0.25011688470840454,-0.4638451635837555
1776019996445438000,7.12343798828125,0.2697172164916992,0.30916503071784973,-0.5098504424095154
1776019996455499000,7.1334990234375,0.28488659858703613,0.3845074474811554,-0.5548927783966064
1776019996465559000,7.14355908203125,0.25877508521080017,0.4405105412006378,-0.5493661761283875
1776019996475620000,7.1536201171875,0.22771970927715302,0.4483135938644409,-0.4829418957233429
1776019996485680000,7.16368017578125,0.1634051650762558,0.37297332286834717,-0.38398388028144836
1776019996495741200,7.1737412109375,0.09627646952867508,0.2135239988565445,-0.30877673625946045
1776019996505801000,7.183801025390625,0.05080512538552284,0.05831364169716835,-0.3199593722820282
1776019996515862000,7.193862060546875,0.021947909146547318,-0.07492377609014511,-0.3925752341747284
1776019996525922000,7.203922119140625,0.022354308515787125,-0.1799042522907257,-0.5051864981651306
1776019996535983000,7.213983154296875,0.058643873780965805,-0.2308364063501358,-0.6280173063278198
1776019996546043000,7.22404296875,0.1244007796049118,-0.2146236151456833,-0.738945722579956
1776019996556104000,7.23410400390625,0.20069608092308044,-0.13999971747398376,-0.8211726546287537
1776019996566165000,7.2441650390625,0.2772108316421509,-0.06127161160111427,-0.85468590259552
1776019996576225000,7.25422509765625,0.3637436032295227,0.027223099023103714,-0.8342685103416443
1776019996586286000,7.2642861328125,0.4522172808647156,0.12343032658100128,-0.752402126789093
1776019996596345900,7.274345947265625,0.543801486492157,0.18783994019031525,-0.6147862076759338
1776019996606407000,7.284406982421875,0.6154341697692871,0.19935278594493866,-0.43347978591918945
1776019996616467000,7.294467041015625,0.6538057923316956,0.19020242989063263,-0.2585636377334595
1776019996626528000,7.304528076171875,0.6430021524429321,0.17578141391277313,-0.09766663610935211
1776019996636588000,7.314588134765625,0.5762355923652649,0.1571241021156311,0.041078727692365646
1776019996646649000,7.324649169921875,0.441543310880661,0.12173415720462799,0.1504393070936203
1776019996656708900,7.334708984375,0.27079206705093384,0.05597192421555519,0.21856670081615448
1776019996666770000,7.34477001953125,0.15153811872005463,-0.03828746825456619,0.22851653397083282
1776019996676831000,7.3548310546875,0.11446212977170944,-0.12401435524225235,0.18488489091396332
1776019996686891000,7.36489111328125,0.11320405453443527,-0.19527068734169006,0.08350367844104767
1776019996696952000,7.3749521484375,0.11052197962999344,-0.2531457245349884,-0.037695448845624924
1776019996707011800,7.38501171875,0.086009182035923,-0.28976044058799744,-0.15397705137729645
1776019996717073000,7.395072998046875,0.07022356241941452,-0.3397868573665619,-0.23890738189220428
1776019996727133000,7.4051328125,0.03704510256648064,-0.4494220018386841,-0.2685244083404541
1776019996737194000,7.415194091796875,-0.003201119601726532,-0.5851446986198425,-0.2802465558052063
1776019996747254000,7.42525390625,-0.024639565497636795,-0.7050319314002991,-0.2949429452419281
1776019996757314800,7.435314697265625,-0.041013214737176895,-0.7931538224220276,-0.31646716594696045
1776019996767376000,7.4453759765625,-0.04008163884282112,-0.8386251330375671,-0.3707413077354431
1776019996777436000,7.455435791015625,-0.019000856205821037,-0.8362586498260498,-0.449354887008667
1776019996787497000,7.4654970703125,0.04463963955640793,-0.7860879302024841,-0.5410465002059937
1776019996797557000,7.475556884765625,0.12940005958080292,-0.7117167711257935,-0.6139308214187622
1776019996807617800,7.48561767578125,0.22670026123523712,-0.630316972732544,-0.6259672045707703
1776019996817678000,7.495677978515625,0.30694475769996643,-0.566946268081665,-0.5743506550788879
1776019996827739000,7.50573876953125,0.33525896072387695,-0.5302242040634155,-0.43888840079307556
1776019996837799000,7.515798828125,0.30264055728912354,-0.47065111994743347,-0.23846423625946045
1776019996847860000,7.52585986328125,0.20248040556907654,-0.36657747626304626,-0.025606825947761536
1776019996857920800,7.535920654296875,0.06837373226881027,-0.18080200254917145,0.14147190749645233
1776019996867981000,7.54598095703125,-0.006995857693254948,0.03783978894352913,0.22266289591789246
1776019996878041900,7.556041748046875,-0.004518851637840271,0.16950727999210358,0.2530977725982666
1776019996888102000,7.566101806640625,0.017662083730101585,0.18408195674419403,0.24637995660305023
1776019996898163000,7.576162841796875,0.020444288849830627,0.1354489028453827,0.19557616114616394
1776019996908223000,7.586222900390625,0.0049436260014772415,0.046002913266420364,0.1151425689458847
1776019996918284000,7.596283935546875,-0.013218067586421967,-0.0448116809129715,0.015513446182012558
1776019996928343800,7.60634375,-0.018331335857510567,-0.11928218603134155,-0.07592778652906418
1776019996938404900,7.61640478515625,-0.012503008358180523,-0.17274434864521027,-0.13526462018489838
1776019996948466000,7.6264658203125,-0.011832957156002522,-0.20460107922554016,-0.15700292587280273
1776019996958526000,7.63652587890625,-0.013585316948592663,-0.21438392996788025,-0.13587448000907898
1776019996968587000,7.6465869140625,-0.018507903441786766,-0.1866561621427536,-0.08351273834705353
1776019996978647000,7.65664697265625,-0.01769004762172699,-0.12322765588760376,-0.02195589803159237
1776019996988707800,7.666707763671875,-0.016586700454354286,-0.021562816575169563,0.03086284175515175
1776019996998767900,7.676767822265625,-0.013513944111764431,0.07392215728759766,0.0697668269276619
1776019997008829000,7.686828857421875,-0.008392686024308205,0.14695055782794952,0.07882557064294815
1776019997018889000,7.696888916015625,-0.004552674014121294,0.1769111305475235,0.06339655071496964
1776019997028950000,7.706949951171875,-0.01392620149999857,0.15030960738658905,0.020127905532717705
1776019997039009800,7.717009765625,-0.027184749022126198,0.07762635499238968,-0.030963242053985596
1776019997049070800,7.72707080078125,-0.039690420031547546,-0.028181036934256554,-0.0890188217163086
1776019997059132000,7.7371318359375,-0.04537520557641983,-0.12240847200155258,-0.13514450192451477
1776019997069192000,7.74719189453125,-0.04451446980237961,-0.17285965383052826,-0.17507807910442352
1776019997079253000,7.7572529296875,-0.050700195133686066,-0.1738751232624054,-0.19232895970344543
1776019997089312800,7.767312744140625,-0.05632905289530754,-0.12741334736347198,-0.17134831845760345
1776019997099373800,7.777373779296875,-0.05619802325963974,-0.05096038430929184,-0.11350499093532562
1776019997109433900,7.787433837890625,-0.05572211742401123,0.03230041638016701,-0.02877146005630493
1776019997119495000,7.797494873046875,-0.05914401262998581,0.11392071098089218,0.054601192474365234
1776019997129556000,7.807555908203125,-0.06475315988063812,0.178012877702713,0.1095464676618576
1776019997139615700,7.81761572265625,-0.07229603826999664,0.2128709852695465,0.12227371335029602
1776019997149676800,7.8276767578125,-0.07867057621479034,0.2088802456855774,0.10976804047822952
1776019997159736800,7.83773681640625,-0.07947911322116852,0.18804366886615753,0.07770118862390518
1776019997169798000,7.8477978515625,-0.08184745907783508,0.16572211682796478,0.05078648030757904
1776019997179858000,7.85785791015625,-0.0844578891992569,0.15031546354293823,0.031147798523306847
1776019997189919000,7.8679189453125,-0.08813811093568802,0.1544811874628067,0.02948705106973648
1776019997199978800,7.877978759765625,-0.09440106898546219,0.1766940802335739,0.04035967215895653
1776019997210039800,7.888039794921875,-0.09983125329017639,0.19891630113124847,0.0631648525595665
1776019997220100900,7.898100830078125,-0.10926470160484314,0.22054941952228546,0.08773171901702881
1776019997230161000,7.908160888671875,-0.10941038280725479,0.23845252394676208,0.09207373112440109
1776019997240222000,7.918221923828125,-0.10002193599939346,0.23329104483127594,0.07494694739580154
1776019997250281700,7.92828173828125,-0.08650879561901093,0.21861542761325836,0.03894500061869621
1776019997260342800,7.9383427734375,-0.06574412435293198,0.19535697996616364,0.015536082908511162
1776019997270402800,7.94840283203125,-0.051843490451574326,0.16625076532363892,0.020772922784090042
1776019997280464000,7.9584638671875,-0.0598638653755188,0.1428319811820984,0.04996596276760101
1776019997290523600,7.968523681640625,-0.0827430859208107,0.1223064735531807,0.09081139415502548
1776019997300584700,7.978584716796875,-0.11396704614162445,0.10657757520675659,0.11052997410297394
1776019997310645800,7.988645751953125,-0.1432194709777832,0.08324695378541946,0.08940045535564423
1776019997320705800,7.998705810546875,-0.1541871726512909,0.02311836928129196,0.01853613369166851
1776019997330766800,8.008766845703125,-0.16154921054840088,-0.0996893122792244,-0.09048941731452942
1776019997340827000,8.018826904296875,-0.1792334020137787,-0.27763399481773376,-0.2170284539461136
1776019997350887700,8.0288876953125,-0.19451995193958282,-0.44939911365509033,-0.32886603474617004
1776019997360948000,8.038947998046876,-0.18608757853507996,-0.5514410734176636,-0.405045747756958
1776019997371008800,8.0490087890625,-0.16042882204055786,-0.5486921668052673,-0.4321615397930145
1776019997381069800,8.05906982421875,-0.14031369984149933,-0.48925039172172546,-0.4064668118953705
1776019997391129900,8.0691298828125,-0.11345013231039047,-0.41278862953186035,-0.35032498836517334
1776019997401191000,8.07919091796875,-0.08899671584367752,-0.32135406136512756,-0.26558053493499756
1776019997411251000,8.0892509765625,-0.0643552839756012,-0.23115545511245728,-0.1708095520734787
1776019997421311700,8.099311767578126,-0.03749863803386688,-0.13965830206871033,-0.08658841997385025
1776019997431372000,8.1093720703125,-0.014356035739183426,-0.029446039348840714,-0.003622697899118066
1776019997441432800,8.119432861328125,0.011094463057816029,0.08617323637008667,0.07528756558895111
1776019997451492900,8.129492919921875,0.013279319740831852,0.19146902859210968,0.1481788158416748
1776019997461554000,8.139553955078124,0.004169178660959005,0.27579349279403687,0.20055973529815674
1776019997471614700,8.14961474609375,-0.008535165339708328,0.32105204463005066,0.23088541626930237
1776019997481675000,8.159675048828126,-0.016619190573692322,0.32651287317276,0.2395302951335907
1776019997491735800,8.16973583984375,-0.019819244742393494,0.30231964588165283,0.22819189727306366
1776019997501795800,8.1797958984375,-0.014330736361443996,0.2626502513885498,0.2113114446401596
1776019997511857000,8.18985693359375,-0.005930326879024506,0.22370925545692444,0.18843409419059753
1776019997521917000,8.1999169921875,0.0041057956404984,0.18196234107017517,0.17985205352306366
1776019997531978000,8.20997802734375,0.0101951127871871,0.142171248793602,0.170488640666008
1776019997542039000,8.2200390625,0.003516437951475382,0.11094409227371216,0.16184721887111664
1776019997552099000,8.23009912109375,-0.011325624771416187,0.06425701826810837,0.14465172588825226
1776019997562159900,8.240159912109375,-0.021870944648981094,0.0029206888284534216,0.1135111153125763
1776019997572220000,8.250219970703125,-0.0347241573035717,-0.08522488176822662,0.06899291276931763
1776019997582281000,8.260281005859374,-0.047275103628635406,-0.1806158572435379,0.01726074516773224
1776019997592341000,8.270341064453126,-0.0577559731900692,-0.25920945405960083,-0.0317254401743412
1776019997602402000,8.280402099609375,-0.05764518678188324,-0.29605162143707275,-0.06794549524784088
1776019997612463000,8.290463134765625,-0.053403835743665695,-0.30061736702919006,-0.07689877599477768
1776019997622523000,8.30052294921875,-0.052209675312042236,-0.28235071897506714,-0.05738552659749985
1776019997632584000,8.310583984375,-0.049439188092947006,-0.24202275276184082,-0.02365020103752613
1776019997642644000,8.32064404296875,-0.03610074520111084,-0.1901198774576187,0.012708604335784912
1776019997652705000,8.330705078125,-0.015141402371227741,-0.13284645974636078,0.05729631334543228
1776019997662764800,8.340764892578125,0.00404480891302228,-0.07997419685125351,0.10151118040084839
1776019997672825900,8.350825927734375,0.018089788034558296,-0.047079626470804214,0.1446772962808609
1776019997682887000,8.360886962890625,0.015182148665189743,-0.037999313324689865,0.18104462325572968
1776019997692947000,8.370947021484374,-0.000731836655177176,-0.046015430241823196,0.19392286241054535
1776019997703008000,8.381008056640624,-0.018669292330741882,-0.0745871514081955,0.17199626564979553
1776019997713067800,8.39106787109375,-0.03079839237034321,-0.13944125175476074,0.12201511859893799
1776019997723128800,8.40112890625,-0.0390603169798851,-0.21427766978740692,0.034985147416591644
1776019997733188900,8.41118896484375,-0.045880138874053955,-0.2845425009727478,-0.0577264130115509
1776019997743250000,8.42125,-0.051600877195596695,-0.34493395686149597,-0.12643703818321228
1776019997753310000,8.43131005859375,-0.061519019305706024,-0.3834128975868225,-0.14555241167545319
1776019997763371000,8.44137109375,-0.05639136955142021,-0.3823785185813904,-0.11781664937734604
1776019997773431800,8.451431884765626,-0.0389854833483696,-0.34349772334098816,-0.07537518441677094
1776019997783491800,8.461491943359375,-0.017003484070301056,-0.26333948969841003,-0.023967383429408073
1776019997793553000,8.471552978515625,0.0014285196084529161,-0.1661471575498581,0.033617615699768066
1776019997803613000,8.481613037109375,0.020905282348394394,-0.07621993869543076,0.08625952154397964
1776019997813674000,8.491674072265624,0.036073848605155945,-0.006700247060507536,0.13200463354587555
1776019997823734300,8.501734375,0.04225025326013565,0.049013350158929825,0.15848125517368317
1776019997833795300,8.51179541015625,0.0402962900698185,0.08902707695960999,0.1681107133626938
1776019997843856400,8.5218564453125,0.032656215131282806,0.12212643772363663,0.16470026969909668
1776019997853916400,8.53191650390625,0.026325613260269165,0.13591575622558594,0.15826180577278137
1776019997863977500,8.5419775390625,0.014224209822714329,0.13048556447029114,0.15895529091358185
1776019997874037500,8.55203759765625,0.0018461032304912806,0.10139666497707367,0.1550212800502777
1776019997884098300,8.562098388671876,-0.009178318083286285,0.07001850008964539,0.1388217955827713
1776019997894158300,8.572158447265625,-0.022490128874778748,0.05005624145269394,0.10308137536048889
1776019997904219400,8.582219482421875,-0.02773282863199711,0.027281155809760094,0.06305752694606781
1776019997914280400,8.592280517578125,-0.0323139987885952,0.014035657979547977,0.029696909710764885
1776019997924340500,8.602340576171875,-0.036260269582271576,-0.004766792058944702,0.021877069026231766
1776019997934401300,8.6124013671875,-0.04482845589518547,-0.029220469295978546,0.03304849565029144
1776019997944461300,8.62246142578125,-0.0482703261077404,-0.04638693854212761,0.050330813974142075
1776019997954522400,8.6325224609375,-0.0476149246096611,-0.050157710909843445,0.06457526236772537
1776019997964582400,8.64258251953125,-0.045225802809000015,-0.05789312720298767,0.06122101470828056
1776019997974643500,8.6526435546875,-0.04036340117454529,-0.060869473963975906,0.03947363793849945
1776019997984704500,8.66270458984375,-0.02863670513033867,-0.06261251121759415,0.006598514039069414
1776019997994764300,8.672764404296874,-0.01750469207763672,-0.055515456944704056,-0.027540015056729317
1776019998004825300,8.682825439453126,-0.006272276863455772,-0.036079972982406616,-0.03994235768914223
1776019998014885400,8.692885498046875,0.009457950480282307,0.006148439832031727,-0.03647598624229431
1776019998024946400,8.702946533203125,0.02869476191699505,0.07945141941308975,-0.014082795940339565
1776019998035006200,8.713006103515625,0.051778510212898254,0.17826373875141144,0.035897545516490936
1776019998045067300,8.7230673828125,0.08007699251174927,0.29272720217704773,0.10865910351276398
1776019998055128300,8.73312841796875,0.10186697542667389,0.43047896027565,0.19833572208881378
1776019998065188400,8.743188232421875,0.11304772645235062,0.5556349754333496,0.2854735553264618
1776019998075249400,8.75324951171875,0.11266263574361801,0.6511801481246948,0.36616069078445435
1776019998085309400,8.763309326171875,0.11026525497436523,0.719455361366272,0.4203863739967346
1776019998095370200,8.773370361328125,0.10152769088745117,0.7477725148200989,0.4428059160709381
1776019998105430300,8.78343017578125,0.09092138707637787,0.7280341982841492,0.44176197052001953
1776019998115491300,8.7934912109375,0.08043704926967621,0.6823585629463196,0.4146435260772705
1776019998125552400,8.803552490234376,0.06455235928297043,0.606327474117279,0.3669990301132202
1776019998135612400,8.8136123046875,0.047935567796230316,0.5022774934768677,0.30531570315361023
1776019998145673200,8.823673095703125,0.026040121912956238,0.37695127725601196,0.22509463131427765
1776019998155733200,8.833733154296874,0.004625644534826279,0.255678653717041,0.12068753689527512
1776019998165794300,8.843794189453124,0.003072755178436637,0.13738316297531128,0.004562793765217066
1776019998175854300,8.853854248046876,0.014958975836634636,0.031145669519901276,-0.11083277314901352
1776019998185915400,8.863915283203125,0.03627811372280121,-0.05802495405077934,-0.21225419640541077
1776019998195976400,8.8739765625,0.05649843066930771,-0.11187433451414108,-0.2732853293418884
1776019998206036200,8.8840361328125,0.07383986562490463,-0.11674924939870834,-0.27677515149116516
1776019998216097300,8.89409716796875,0.08255719393491745,-0.09311609715223312,-0.23514460027217865
1776019998226157300,8.9041572265625,0.08280406892299652,-0.04525882378220558,-0.16708698868751526
1776019998236218400,8.91421826171875,0.0870419591665268,0.016936905682086945,-0.10807613283395767
1776019998246279400,8.924279541015625,0.09600242972373962,0.07128589600324631,-0.06933699548244476
1776019998256339200,8.934339111328125,0.10549286752939224,0.11190922558307648,-0.04099270701408386
1776019998266400300,8.944400146484375,0.11617374420166016,0.1301840990781784,-0.021336980164051056
1776019998276460300,8.954460205078124,0.12342739850282669,0.12007900327444077,0.01037647482007742
1776019998286521300,8.964521240234374,0.11632181704044342,0.10246458649635315,0.052082642912864685
1776019998296581400,8.974581298828125,0.10023445636034012,0.08924732357263565,0.09196614474058151
1776019998306642200,8.98464208984375,0.08600439131259918,0.08131935447454453,0.11895781010389328
1776019998316703200,8.994703125,0.08279900997877121,0.08425762504339218,0.11355399340391159
1776019998326763300,9.00476318359375,0.08513380587100983,0.0788804367184639,0.08356387168169022
1776019998336824300,9.01482421875,0.10386035591363907,0.051364652812480927,0.035055454820394516
1776019998346884600,9.024884521484376,0.126776322722435,0.009254218079149723,-0.024574318900704384
1776019998356945200,9.034945068359375,0.16199423372745514,-0.04602208733558655,-0.07417649030685425
1776019998367005400,9.04500537109375,0.17712338268756866,-0.10537063330411911,-0.10690727829933167
1776019998377066500,9.05506640625,0.16726382076740265,-0.1558641642332077,-0.103538379073143
1776019998387127300,9.065127197265625,0.12964054942131042,-0.17216484248638153,-0.05295882374048233
1776019998397187600,9.0751875,0.10313783586025238,-0.12216319143772125,0.028247883543372154
1776019998407248400,9.085248291015626,0.0967411920428276,-0.034918833523988724,0.12107103317975998
1776019998417308400,9.095308349609375,0.09797902405261993,0.057623349130153656,0.19412340223789215
1776019998427369500,9.105369384765625,0.08417239785194397,0.1014869436621666,0.24352531135082245
1776019998437429500,9.115429443359375,0.051230162382125854,0.0779603123664856,0.28065481781959534
1776019998447490600,9.125490478515625,0.008171110413968563,0.009818010032176971,0.30139580368995667
1776019998457551400,9.13555126953125,-0.02587101235985756,-0.05615541338920593,0.3053223490715027
1776019998467611400,9.145611328125,-0.06291291862726212,-0.0997748002409935,0.29781225323677063
1776019998477672400,9.15567236328125,-0.09713347256183624,-0.12059246003627777,0.3037782609462738
1776019998487732500,9.165732421875,-0.12584687769412994,-0.15416772663593292,0.3119072914123535
1776019998497793500,9.17579345703125,-0.1510944366455078,-0.21561084687709808,0.30081361532211304
1776019998507853300,9.185853271484374,-0.16978584229946136,-0.3246654272079468,0.2689041793346405
1776019998517914400,9.195914306640624,-0.18712835013866425,-0.4463958740234375,0.22364027798175812
1776019998527975400,9.205975341796876,-0.20117491483688354,-0.5746132135391235,0.1523115038871765
1776019998538035500,9.216035400390625,-0.19578255712985992,-0.7046950459480286,0.049498576670885086
1776019998548096500,9.226096435546875,-0.16626061499118805,-0.8463128805160522,-0.07665269821882248
1776019998558156500,9.236156494140625,-0.1331828236579895,-0.9811551570892334,-0.19509145617485046
1776019998568217300,9.24621728515625,-0.08746859431266785,-1.0677553415298462,-0.25711995363235474
1776019998578277400,9.25627734375,-0.029020998626947403,-1.0722488164901733,-0.22028683125972748
1776019998588338400,9.26633837890625,0.05204189568758011,-1.0371859073638916,-0.10030928999185562
1776019998598399500,9.2763994140625,0.1348251849412918,-0.9401014447212219,0.06113605946302414
1776019998608459500,9.28645947265625,0.21362440288066864,-0.7460073232650757,0.2816162407398224
1776019998618520600,9.2965205078125,0.240477055311203,-0.46174710988998413,0.5383191108703613
1776019998628580400,9.306580322265624,0.18800611793994904,-0.19146689772605896,0.8107650279998779
1776019998638641400,9.316641357421876,0.10636478662490845,0.03538275882601738,1.0821701288223267
1776019998648702500,9.326702392578126,0.03756095841526985,0.21849559247493744,1.3129591941833496
1776019998658762500,9.336762451171875,0.026515496894717216,0.3213910758495331,1.5051100254058838
1776019998668823600,9.346823486328125,0.05594076216220856,0.35584917664527893,1.626749873161316
1776019998678883300,9.35688330078125,0.09598325192928314,0.38086265325546265,1.654298186302185
1776019998688944400,9.3669443359375,0.13215617835521698,0.32780078053474426,1.603350043296814
1776019998699004400,9.37700439453125,0.13149091601371765,0.21701326966285706,1.4630999565124512
1776019998709065500,9.3870654296875,0.04679573327302933,0.1097821593284607,1.1961524486541748
1776019998719126500,9.39712646484375,-0.09260716289281845,-0.1332177072763443,0.8174178600311279
1776019998729186300,9.407186279296875,-0.2124882936477661,-0.8712283968925476,0.4203434884548187
1776019998739247400,9.417247314453125,-0.2878594696521759,-1.7672324180603027,0.053159892559051514
1776019998749307400,9.427307373046874,-0.2664322257041931,-2.305617332458496,-0.25786349177360535
1776019998759368400,9.437368408203126,-0.14346101880073547,-2.453918933868408,-0.47531992197036743
1776019998769428500,9.447428466796875,0.013570670038461685,-2.357703685760498,-0.550592839717865
1776019998779489300,9.4574892578125,0.1842001974582672,-2.145146608352661,-0.48433658480644226
1776019998789550300,9.46755029296875,0.31428229808807373,-1.77774977684021,-0.36081066727638245
1776019998799610400,9.4776103515625,0.3979167342185974,-1.433531641960144,-0.19963082671165466
1776019998809671400,9.48767138671875,0.36718466877937317,-0.9684582352638245,-0.09773828089237213
1776019998819731000,9.49773095703125,0.31639763712882996,-0.7958105802536011,-0.002019474981352687
1776019998829792000,9.5077919921875,0.22363469004631042,-1.0436941385269165,0.09702668339014053
1776019998839853000,9.51785302734375,0.23162098228931427,-1.497938871383667,0.16035665571689606
1776019998849913000,9.5279130859375,0.3512509763240814,-1.8464186191558838,0.14790451526641846
1776019998859974100,9.53797412109375,0.48927274346351624,-1.9654141664505005,0.06847146898508072
1776019998870034000,9.548033935546876,0.5345773696899414,-1.7237752676010132,-0.08429837226867676
1776019998880095000,9.558094970703126,0.4422975182533264,-1.109482765197754,-0.3066251873970032
1776019998890155000,9.568155029296875,0.28325355052948,-0.30864012241363525,-0.5034152269363403
1776019998900216000,9.578216064453125,0.1682092547416687,0.3433922529220581,-0.5755668878555298
1776019998910277000,9.588277099609375,0.08799297362565994,0.6585382223129272,-0.47787097096443176
1776019998920337000,9.5983369140625,0.04019322618842125,0.5425716638565063,-0.24568194150924683
1776019998930398000,9.60839794921875,0.0020684772171080112,0.09245216846466064,0.05705316737294197
1776019998940458000,9.6184580078125,-0.020502345636487007,-0.44892212748527527,0.3167526423931122
1776019998950519000,9.62851904296875,-0.021997977048158646,-0.6358446478843689,0.328835666179657
1776019998960580000,9.638580078125,-0.0005217132274992764,-0.36806005239486694,0.11815886199474335
1776019998970640000,9.648639892578124,0.04844343289732933,-0.15918219089508057,-0.2098270058631897
1776019998980701000,9.658700927734374,0.08022746443748474,-0.09726636856794357,-0.4841291308403015
1776019998990761000,9.668760986328126,0.08454231172800064,-0.2774611711502075,-0.6031748056411743
1776019999000822000,9.678822021484375,0.06061567738652229,-0.6485273838043213,-0.5474798679351807
1776019999010882000,9.688882080078125,0.016707340255379677,-1.1597543954849243,-0.3493255078792572
1776019999020943000,9.698943115234375,-0.011953332461416721,-1.673211932182312,-0.068413145840168
1776019999031004000,9.70900390625,-0.004971322603523731,-2.0024046897888184,0.19083280861377716
1776019999041064000,9.71906396484375,0.022907447069883347,-2.0523552894592285,0.36848747730255127
1776019999051125000,9.729125,0.1335119903087616,-1.8166418075561523,0.42651963233947754
1776019999061185000,9.73918505859375,0.36524561047554016,-1.1464873552322388,0.3972054123878479
1776019999071246000,9.74924609375,0.6174030303955078,-0.31985628604888916,0.3422585427761078
1776019999081307000,9.759306884765625,0.7169285416603088,0.3184741139411926,0.3581323027610779
1776019999091367000,9.769366943359374,0.5961499214172363,0.45133841037750244,0.5223454833030701
1776019999101428000,9.779427978515624,0.2752496898174286,0.0785219743847847,0.7999805808067322
1776019999111488000,9.789488037109376,-0.07735737413167953,-0.3928125202655792,1.089292287826538
1776019999121549000,9.799549072265625,-0.34226998686790466,-0.6324709057807922,1.3037863969802856
1776019999131609000,9.809609130859375,-0.489508718252182,-0.6769241690635681,1.4625606536865234
1776019999141670000,9.819669921875,-0.48809322714805603,-0.5578781962394714,1.5981850624084473
1776019999151731000,9.82973095703125,-0.3038243353366852,-0.2596888244152069,1.6728670597076416
1776019999161791000,9.839791015625,0.020246416330337524,0.137650266289711,1.7233195304870605
1776019999171852000,9.84985205078125,0.32806095480918884,0.40553924441337585,1.7503671646118164
1776019999181912000,9.859912109375,0.5033837556838989,0.34540054202079773,1.7633644342422485
1776019999191972900,9.869972900390625,0.6405363082885742,-0.1793641597032547,1.8167048692703247
1776019999202034000,9.880033935546875,0.7583465576171875,-1.095123291015625,1.9209535121917725
1776019999212094000,9.890093994140624,0.7755878567695618,-1.9819670915603638,2.019310235977173
1776019999222155000,9.900155029296876,0.7266698479652405,-2.4921746253967285,2.103041410446167
1776019999232215000,9.910215087890625,0.6211021542549133,-2.6720621585845947,2.1034460067749023
1776019999242275800,9.92027587890625,0.5179336667060852,-2.5400993824005127,2.0245187282562256
1776019999252336000,9.930336181640625,0.48789724707603455,-2.098114013671875,1.893480896949768
1776019999262397000,9.94039697265625,0.5601426959037781,-1.4970413446426392,1.82720148563385
1776019999272458000,9.9504580078125,0.5410634875297546,-0.3123405873775482,1.8602129220962524
1776019999282518300,9.960518310546876,0.4792773723602295,0.8326716423034668,2.0337746143341064
1776019999292578800,9.970578857421875,0.396600604057312,1.761772632598877,2.246049404144287
1776019999302639000,9.98063916015625,0.31614384055137634,2.3400766849517822,2.4034905433654785
1776019999312700200,9.9907001953125,0.30483606457710266,2.5296695232391357,2.46817684173584
1776019999322761000,10.000760986328125,0.4032720923423767,2.041215419769287,2.3558716773986816
1776019999332821200,10.0108212890625,0.5821454524993896,0.9439523816108704,2.1068003177642822
1776019999342882000,10.020882080078126,0.8296223282814026,-0.23116184771060944,1.7952656745910645
1776019999352942000,10.030942138671875,1.0769261121749878,-1.0773695707321167,1.4683202505111694
1776019999363003100,10.041003173828125,1.2249515056610107,-1.2248679399490356,1.2516180276870728
1776019999373063200,10.051063232421875,1.286862850189209,-0.6563887596130371,1.2657490968704224
1776019999383124200,10.061124267578125,1.1317752599716187,0.04764395207166672,1.1899491548538208
1776019999393185000,10.07118505859375,0.9830148220062256,0.9027239680290222,1.1157398223876953
1776019999403245000,10.0812451171875,0.8191081881523132,1.3912640810012817,0.9336779117584229
1776019999413306000,10.09130615234375,0.7295665740966797,1.7004687786102295,0.8011496663093567
1776019999423366100,10.1013662109375,0.6533370614051819,1.9593733549118042,0.7487837076187134
1776019999433427200,10.11142724609375,0.5448774099349976,2.198272228240967,0.7694681882858276
1776019999443488000,10.121488037109375,0.4033682346343994,2.197725296020508,0.7807387113571167
1776019999453548000,10.131548095703126,0.2621341347694397,1.8485677242279053,0.770776093006134
1776019999463609000,10.141609130859376,0.11675883829593658,1.1904106140136719,0.7894054055213928
1776019999473669000,10.151669189453125,-0.02791845053434372,0.4142957031726837,0.8452276587486267
1776019999483730200,10.161730224609375,-0.15908819437026978,-0.3140697777271271,0.9175503253936768
1776019999493790200,10.171790283203125,-0.22655831277370453,-0.8382728099822998,0.9554295539855957
1776019999503851000,10.18185107421875,-0.22044208645820618,-1.0381132364273071,0.893244206905365
1776019999513912000,10.191912109375,-0.14377421140670776,-0.857602059841156,0.6840608716011047
1776019999523972000,10.20197216796875,-0.04595710709691048,-0.3983095586299896,0.3568449318408966
1776019999534033200,10.212033203125,-0.02087891660630703,0.040827590972185135,-0.0027084348257631063
1776019999544093200,10.22209326171875,-0.1358046978712082,0.538413405418396,-0.3114258050918579
1776019999554154200,10.232154296875,-0.2623205780982971,0.7542029619216919,-0.36876925826072693
1776019999564215000,10.242215087890624,-0.31872498989105225,0.6787894368171692,-0.1718258261680603
1776019999574275000,10.252275146484376,-0.3337944746017456,0.6529620885848999,0.10945405811071396
1776019999584336100,10.262336181640626,-0.3310391902923584,0.6795063614845276,0.38102272152900696
1776019999594396200,10.272396240234375,-0.2960588335990906,0.6965423226356506,0.6266692280769348
1776019999604457200,10.282457275390625,-0.28420668840408325,0.7156254649162292,0.8207420110702515
1776019999614517000,10.29251708984375,-0.31550681591033936,0.768690288066864,0.9354110956192017
1776019999624578000,10.302578125,-0.2782902121543884,-0.16802948713302612,0.9564977288246155
1776019999634639000,10.31263916015625,-0.48574700951576233,-0.7521656155586243,0.958395779132843
1776019999644699100,10.32269921875,-0.3728249669075012,-2.073963165283203,0.785576581954956
1776019999654760200,10.33276025390625,-0.38314950466156006,-3.195458173751831,0.5641744136810303
1776019999664820000,10.342820068359375,-0.1090061143040657,-3.5470328330993652,0.2771892547607422
1776019999674881000,10.352881103515625,0.2556011378765106,-2.7213590145111084,0.010330667719244957
1776019999684942000,10.362942138671874,0.4998537600040436,-1.2021461725234985,-0.195946604013443
1776019999695002000,10.373002197265626,0.5144859552383423,0.021092768758535385,-0.2461077719926834
1776019999705063200,10.383063232421875,0.4089430272579193,0.45699578523635864,-0.11582326889038086
1776019999715123000,10.393123046875,0.3904167413711548,0.47821423411369324,0.15326519310474396
1776019999725184000,10.40318408203125,0.5359779596328735,0.5169030427932739,0.44616177678108215
1776019999735244000,10.413244140625,0.72221839427948,0.629413902759552,0.6488876938819885
1776019999745305000,10.42330517578125,0.8269738554954529,0.7486710548400879,0.7140049338340759
1776019999755366100,10.4333662109375,0.8486309051513672,0.9126655459403992,0.6622727513313293
1776019999765426200,10.44342626953125,0.8241924047470093,1.1327366828918457,0.563139796257019
1776019999775487000,10.453487060546875,0.7926616668701172,1.1875150203704834,0.5091234445571899
1776019999785547000,10.463547119140625,0.7593042254447937,0.8625369071960449,0.5392094254493713
1776019999795608000,10.473608154296874,0.7054556608200073,0.2872658669948578,0.6054925918579102
1776019999805669000,10.483669189453124,0.6301997900009155,-0.29508838057518005,0.6406777501106262
1776019999815729200,10.493729248046876,0.6670270562171936,-0.8851250410079956,0.7166129946708679
1776019999825790500,10.50379052734375,0.6551381349563599,-1.377477765083313,0.6816446185112
1776019999835850500,10.5138505859375,0.6092710494995117,-1.493831753730774,0.5418975949287415
1776019999845911600,10.52391162109375,0.5594515800476074,-1.3978605270385742,0.31627726554870605
1776019999855972600,10.53397265625,0.4738120436668396,-0.9182505011558533,0.11499689519405365
1776019999866032600,10.54403271484375,0.39230385422706604,-0.5384906530380249,0.042335473001003265
1776019999876093700,10.55409375,0.2962207496166229,-0.3757336735725403,0.12101643532514572
1776019999886153500,10.564153564453125,0.19908353686332703,-0.4133734703063965,0.29661568999290466
1776019999896214500,10.574214599609375,0.11965236812829971,-0.42465007305145264,0.501509428024292
1776019999906275600,10.584275634765625,0.0735088363289833,-0.2765463590621948,0.659598171710968
1776019999916335600,10.594335693359374,0.03641606494784355,-0.0257522352039814,0.7362082600593567
1776019999926396700,10.604396728515624,-0.013577594421803951,0.22427864372730255,0.7460488677024841
1776019999936456400,10.61445654296875,-0.06430628150701523,0.3834584355354309,0.7121758460998535
1776019999946517500,10.624517578125,-0.0901690423488617,0.4564218521118164,0.6733789443969727
1776019999956577500,10.63457763671875,-0.09365671873092651,0.49228158593177795,0.6717536449432373
1776019999966638600,10.644638671875,-0.0817052498459816,0.5055302977561951,0.7358697652816772
1776019999976699600,10.65469970703125,-0.061355769634246826,0.49208906292915344,0.8581911325454712
1776019999986759400,10.664759521484376,-0.06381626427173615,0.24299374222755432,0.995237410068512
1776019999996820500,10.674820556640626,-0.07518156617879868,-0.6445052027702332,1.036325216293335
1776020000006880500,10.684880615234375,-0.10010875761508942,-1.6355390548706055,0.8775008916854858
1776020000016941600,10.694941650390625,0.06431214511394501,-1.978370189666748,0.621203601360321
1776020000027002600,10.705002685546875,0.3382534086704254,-1.4941681623458862,0.33350393176078796
1776020000037062400,10.7150625,0.5333653688430786,-0.6630549430847168,0.14811809360980988
1776020000047123500,10.72512353515625,0.57286137342453,-0.11545202881097794,0.1559152901172638
1776020000057183500,10.73518359375,0.5265048146247864,-0.00046339002437889576,0.2724219262599945
1776020000067244500,10.74524462890625,0.49107784032821655,-0.051779307425022125,0.3769738972187042
1776020000077304600,10.7553046875,0.49329280853271484,-0.04812625050544739,0.3687247633934021
1776020000087365600,10.76536572265625,0.5070184469223022,-0.022844862192869186,0.31304898858070374
1776020000097426400,10.775426513671874,0.4927756190299988,-0.00824008695781231,0.27480387687683105
1776020000107486500,10.785486572265626,0.45716169476509094,-0.014054033905267715,0.3176724910736084
1776020000117547500,10.795547607421875,0.4206015467643738,-0.012516590766608715,0.4360249936580658
1776020000127607600,10.805607666015625,0.362155556678772,0.016166452318429947,0.5797510147094727
1776020000137668600,10.815668701171875,0.28117841482162476,0.03616625815629959,0.6766332983970642
1776020000147729400,10.8257294921875,0.19172443449497223,0.03143222630023956,0.6414023637771606
1776020000157789400,10.83578955078125,0.14244262874126434,0.022476546466350555,0.48872068524360657
1776020000167850500,10.8458505859375,0.1791769415140152,0.04716112092137337,0.31757795810699463
1776020000177910500,10.85591064453125,0.27780577540397644,0.10119186341762543,0.21611632406711578
1776020000187971600,10.8659716796875,0.3414910137653351,0.14502909779548645,0.21717385947704315
1776020000198032600,10.87603271484375,0.33300724625587463,0.1100013330578804,0.3094593286514282
1776020000208092400,10.886092529296874,0.2689654231071472,0.01955639012157917,0.40332135558128357
1776020000218153500,10.896153564453124,0.22492899000644684,-0.0012918994762003422,0.4329005479812622
1776020000228213500,10.906213623046876,0.2283114641904831,0.04488331824541092,0.38306909799575806
1776020000238274600,10.916274658203125,0.24224619567394257,0.081087127327919,0.28111448884010315
1776020000248334300,10.926334228515625,0.24208293855190277,0.09171979874372482,0.15465056896209717
1776020000258395400,10.9363955078125,0.24888065457344055,0.11982040852308273,0.07149655371904373
1776020000268456400,10.94645654296875,0.2611919045448303,0.17819903790950775,0.06956576555967331
1776020000278516500,10.9565166015625,0.2509036064147949,0.24073298275470734,0.11535375565290451
1776020000288577500,10.96657763671875,0.2113995999097824,0.27393966913223267,0.16740603744983673
1776020000298637600,10.976637451171875,0.18105900287628174,0.25755298137664795,0.18573550879955292
1776020000308698400,10.986698486328125,0.1642581820487976,0.18585935235023499,0.1608022004365921
1776020000318759400,10.996759521484375,0.15342417359352112,0.09612653404474258,0.09136852622032166
1776020000328819500,11.0068193359375,0.13464036583900452,0.033304695039987564,0.0073167686350643635
1776020000338880500,11.016880615234374,0.1023348942399025,0.024225179105997086,-0.05464274063706398
1776020000348940500,11.0269404296875,0.053102366626262665,0.05920872837305069,-0.06198374181985855
1776020000359001300,11.03700146484375,0.0039175101555883884,0.1207575798034668,-0.01968129351735115
1776020000369062400,11.0470625,-0.03243730217218399,0.1693940907716751,0.042338136583566666
1776020000379122400,11.057122314453125,-0.062492936849594116,0.2008923590183258,0.08978474885225296
1776020000389183500,11.06718359375,-0.091145358979702,0.21046055853366852,0.10313624143600464
1776020000399243500,11.077243408203126,-0.11788029968738556,0.17025668919086456,0.07484494894742966
1776020000409304600,11.0873046875,-0.128249853849411,0.07226913422346115,0.020309265702962875
1776020000419365400,11.097365478515625,-0.12817953526973724,-0.09420453011989594,-0.03014005906879902
1776020000429425400,11.10742529296875,-0.1193639412522316,-0.2781898081302643,-0.06041141226887703
1776020000439486500,11.117486572265625,-0.11522592604160309,-0.4021240174770355,-0.09222979843616486
1776020000449546500,11.12754638671875,-0.11175822466611862,-0.40680184960365295,-0.12556564807891846
1776020000459607600,11.137607666015626,-0.09230676293373108,-0.2811640202999115,-0.13727504014968872
1776020000469667300,11.147667236328125,-0.07243691384792328,-0.09132325649261475,-0.095377117395401
1776020000479728400,11.157728271484375,-0.05291328206658363,0.0904337614774704,-0.001859152689576149
1776020000489789400,11.16778955078125,-0.030659375712275505,0.2198692411184311,0.11467598378658295
1776020000499849500,11.177849365234374,-0.020711669698357582,0.17994366586208344,0.20176267623901367
1776020000509910500,11.18791064453125,-0.01104546058923006,-0.03545759245753288,0.19828645884990692
1776020000519970300,11.19797021484375,0.018001370131969452,-0.17494544386863708,0.1070934310555458
1776020000530031400,11.20803125,0.06578966230154037,-0.019842147827148438,-0.03609355539083481
1776020000540092400,11.218092529296875,0.09729140251874924,0.3151547610759735,-0.17275527119636536
1776020000550152400,11.22815234375,0.09009473770856857,0.4961583614349365,-0.2218668907880783
1776020000560213500,11.238213623046875,0.048478852957487106,0.4445372521877289,-0.20275896787643433
1776020000570273300,11.248273193359376,0.012491823174059391,0.3065388798713684,-0.18891452252864838
1776020000580334300,11.258334228515626,-0.006791593506932259,0.1696729212999344,-0.20958305895328522
1776020000590395400,11.2683955078125,-0.004606735892593861,-0.025114407762885094,-0.25853487849235535
1776020000600455400,11.278455322265625,0.0036637107841670513,-0.23121005296707153,-0.3123682737350464
1776020000610516500,11.2885166015625,-0.0022117553744465113,-0.3635832667350769,-0.34109100699424744
1776020000620576500,11.298576416015624,-0.029287580400705338,-0.3716971278190613,-0.3308655321598053
1776020000630637300,11.30863720703125,-0.07555335015058517,-0.24624040722846985,-0.2822687029838562
1776020000640697600,11.318697509765625,-0.14564214646816254,-0.038511972874403,-0.2291354537010193
1776020000650758400,11.32875830078125,-0.22794368863105774,0.20265856385231018,-0.1949913203716278
1776020000660819500,11.3388193359375,-0.2999124228954315,0.3948754072189331,-0.18447823822498322
1776020000670879500,11.34887939453125,-0.3502139449119568,0.47601181268692017,-0.1919340193271637
1776020000680940500,11.3589404296875,-0.38783907890319824,0.4247148036956787,-0.19251272082328796
1776020000691000600,11.36900048828125,-0.4153500497341156,0.258522093296051,-0.1826518326997757
1776020000701061400,11.379061279296875,-0.43179693818092346,0.012101669795811176,-0.17814096808433533
1776020000711122400,11.389122314453125,-0.4194108545780182,-0.21331334114074707,-0.19818738102912903
1776020000721182500,11.399182373046875,-0.38103681802749634,-0.31702056527137756,-0.24827133119106293
1776020000731243500,11.409243408203125,-0.33758628368377686,-0.267264187335968,-0.3075977563858032
1776020000741303600,11.419303466796874,-0.3031681180000305,-0.14910532534122467,-0.33769282698631287
1776020000751364400,11.4293642578125,-0.2866610586643219,-0.06939984858036041,-0.32346755266189575
1776020000761425400,11.43942529296875,-0.2719777226448059,-0.04604099318385124,-0.3072792589664459
1776020000771485400,11.4494853515625,-0.24554531276226044,-0.005535646807402372,-0.3137821555137634
1776020000781546500,11.45954638671875,-0.22279340028762817,0.047026898711919785,-0.35239800810813904
1776020000791606500,11.4696064453125,-0.20676276087760925,0.0571780689060688,-0.39744535088539124
1776020000801667300,11.479667236328124,-0.19808432459831238,0.021380921825766563,-0.4044926166534424
1776020000811728400,11.489728271484376,-0.19735701382160187,-0.06856974214315414,-0.3653627932071686
1776020000821788400,11.499788330078125,-0.20871485769748688,-0.15749534964561462,-0.3079620897769928
1776020000831849200,11.50984912109375,-0.22518491744995117,-0.1772003471851349,-0.2679089307785034
1776020000841909500,11.519909423828125,-0.23909354209899902,-0.11189670860767365,-0.26162388920783997
1776020000851970600,11.529970458984375,-0.2574038505554199,-0.033903107047080994,-0.27665451169013977
1776020000862030300,11.5400302734375,-0.2750592529773712,-0.019818978384137154,-0.31225377321243286
1776020000872091400,11.55009130859375,-0.2855696976184845,-0.05185920372605324,-0.34665435552597046
1776020000882152200,11.560152099609375,-0.2920001745223999,-0.0791158601641655,-0.3634810149669647
1776020000892212500,11.57021240234375,-0.3047489821910858,-0.108088918030262,-0.35564225912094116
1776020000902273500,11.5802734375,-0.30883267521858215,-0.12199381738901138,-0.32173967361450195
1776020000912333600,11.59033349609375,-0.30791202187538147,-0.1204044446349144,-0.2777136266231537
1776020000922394400,11.600394287109374,-0.31482744216918945,-0.1087014451622963,-0.24140755832195282
1776020000932455400,11.610455322265626,-0.30631518363952637,-0.08202722668647766,-0.22015446424484253
1776020000942515500,11.620515380859375,-0.27868515253067017,-0.04629719257354736,-0.21265074610710144
1776020000952576500,11.630576416015625,-0.2485371083021164,-0.04552913457155228,-0.2248312532901764
1776020000962636500,11.640636474609375,-0.23228144645690918,-0.09417097270488739,-0.23829565942287445
1776020000972697600,11.650697509765624,-0.2260698825120926,-0.13145709037780762,-0.25637000799179077
1776020000982758400,11.66075830078125,-0.22931787371635437,-0.12874412536621094,-0.2739820182323456
1776020000992818400,11.670818359375,-0.23590227961540222,-0.11640331149101257,-0.2681792676448822
1776020001002879500,11.68087939453125,-0.24351757764816284,-0.15426014363765717,-0.23115386068820953
1776020001012939500,11.690939453125,-0.2429271638393402,-0.21483400464057922,-0.1708604246377945
1776020001023000600,11.70100048828125,-0.22110041975975037,-0.20753508806228638,-0.12173415720462799
1776020001033061600,11.7110615234375,-0.19623875617980957,-0.12616485357284546,-0.11769121140241623
1776020001043121400,11.721121337890626,-0.17925550043582916,-0.008870190940797329,-0.15605084598064423
1776020001053182500,11.731182373046876,-0.16758926212787628,0.08852214366197586,-0.1949244886636734
1776020001063242500,11.741242431640625,-0.14613990485668182,0.13521906733512878,-0.1935337781906128
1776020001073303600,11.751303466796875,-0.12023666501045227,0.10313677042722702,-0.1593419909477234
1776020001083363300,11.76136328125,-0.09067264199256897,0.03263144567608833,-0.10848626494407654
1776020001093424400,11.77142431640625,-0.06108013167977333,-0.02298973873257637,-0.0658557116985321
1776020001103485400,11.7814853515625,-0.04970470443367958,-0.019118035212159157,-0.06534012407064438
1776020001113545500,11.79154541015625,-0.07070878893136978,0.0432547964155674,-0.13912619650363922
1776020001123606500,11.8016064453125,-0.08729815483093262,0.14457902312278748,-0.23964454233646393
1776020001133666300,11.811666259765625,-0.07963064312934875,0.20832844078540802,-0.27802762389183044
1776020001143727400,11.821727294921875,-0.06518885493278503,0.15766552090644836,-0.1978590190410614
1776020001153788400,11.831788330078124,-0.05320623144507408,0.031868450343608856,-0.03259176388382912
1776020001163848400,11.841848388671876,-0.01835716888308525,-0.08251245319843292,0.15170404314994812
1776020001173909500,11.851909423828126,0.03504373878240585,-0.08348237723112106,0.26571741700172424
1776020001183969500,11.861969482421875,0.09013202041387558,0.018206434324383736,0.28027746081352234
1776020001194030300,11.8720302734375,0.1497013419866562,0.13692189753055573,0.23425404727458954
1776020001204091400,11.88209130859375,0.18657627701759338,0.16905906796455383,0.1800251603126526
1776020001214151400,11.8921513671875,0.1900588870048523,0.08602969348430634,0.1449982076883316
1776020001224212500,11.90221240234375,0.1794363409280777,-0.01242497842758894,0.10895364731550217
1776020001234272500,11.9122724609375,0.17850369215011597,-0.04681970179080963,0.06157388165593147
1776020001244333600,11.92233349609375,0.18119561672210693,-0.02876213937997818,0.011301922611892223
1776020001254394400,11.932394287109375,0.18528516590595245,-0.004833903629332781,-0.01239381916821003
1776020001264454400,11.942454345703124,0.1839330792427063,-0.0016437029698863626,0.0020671456586569548
1776020001274515500,11.952515380859374,0.18022729456424713,-0.00569969741627574,0.047141678631305695
1776020001284575500,11.962575439453126,0.1719062477350235,-0.04262122884392738,0.10900931060314178
1776020001294636500,11.972636474609375,0.16542358696460724,-0.10473759472370148,0.17438405752182007
1776020001304697300,11.982697265625,0.16398866474628448,-0.181563138961792,0.21443213522434235
1776020001314757400,11.99275732421875,0.15767085552215576,-0.21968096494674683,0.22076193988323212
1776020001324818400,12.002818359375,0.14536678791046143,-0.18339645862579346,0.19842679798603058
1776020001334878500,12.01287841796875,0.14850398898124695,-0.11956954002380371,0.18839333951473236
1776020001344939500,12.022939453125,0.15621943771839142,-0.08916822820901871,0.2131604701280594
1776020001355000600,12.03300048828125,0.16740097105503082,-0.0930098369717598,0.25783392786979675
1776020001365060400,12.043060302734375,0.180142343044281,-0.07578131556510925,0.30410531163215637
1776020001375121400,12.053121337890625,0.18632353842258453,-0.014288391917943954,0.3183686435222626
1776020001385181400,12.063181396484374,0.18687641620635986,0.02219957858324051,0.26967835426330566
1776020001395242500,12.073242431640624,0.18184809386730194,-0.02611495740711689,0.18207472562789917
1776020001405303600,12.083303466796876,0.17676065862178802,-0.11710718274116516,0.10282597690820694
1776020001415363300,12.09336328125,0.18320150673389435,-0.19634315371513367,0.08297184854745865
1776020001425424400,12.10342431640625,0.19933147728443146,-0.21427181363105774,0.12680108845233917
1776020001435484400,12.113484375,0.20084787905216217,-0.2005096673965454,0.1996617168188095
1776020001445545500,12.12354541015625,0.1899869740009308,-0.17687757313251495,0.2737324833869934
1776020001455605200,12.133605224609376,0.1736101359128952,-0.1333410143852234,0.31153178215026855
1776020001465666300,12.143666259765626,0.16859513521194458,-0.0777195617556572,0.3046107590198517
1776020001475727400,12.153727294921875,0.16742095351219177,-0.005377188324928284,0.26079297065734863
1776020001485787400,12.163787353515625,0.16127251088619232,0.04512033984065056,0.2003972828388214
1776020001495848400,12.173848388671875,0.1558748185634613,0.033304426819086075,0.16665050387382507
1776020001505908500,12.183908447265624,0.1647639125585556,-0.025049960240721703,0.17945577204227448
1776020001515969300,12.19396923828125,0.19100910425186157,-0.08755754679441452,0.21814431250095367
1776020001526030300,12.2040302734375,0.22052837908267975,-0.09534862637519836,0.25206419825553894
1776020001536090400,12.21409033203125,0.24233993887901306,-0.046308908611536026,0.2491443157196045
1776020001546151400,12.2241513671875,0.24505449831485748,0.023331953212618828,0.21368005871772766
1776020001556211500,12.23421142578125,0.25302428007125854,0.05988943204283714,0.17939318716526031
1776020001566272500,12.2442724609375,0.26637735962867737,0.04023982957005501,0.169961079955101
1776020001576333300,12.254333251953126,0.28433266282081604,0.015211177058517933,0.18594403564929962
1776020001586393300,12.264393310546875,0.28767305612564087,0.0011030812747776508,0.22531381249427795
1776020001596454400,12.274454345703125,0.2818492650985718,-0.01931857131421566,0.26715099811553955
1776020001606514400,12.284514404296875,0.2726951837539673,-0.008023571223020554,0.31179970502853394
1776020001616575500,12.294575439453125,0.2781517207622528,0.04922107607126236,0.33069270849227905
1776020001626636500,12.304636474609374,0.29006272554397583,0.13320359587669373,0.3443470001220703
1776020001636696300,12.3146962890625,0.30107754468917847,0.15874730050563812,0.35896506905555725
1776020001646757400,12.32475732421875,0.2914467453956604,0.13083098828792572,0.34549349546432495
1776020001656817400,12.3348173828125,0.2714075446128845,0.06938306987285614,0.29295918345451355
1776020001666878500,12.34487841796875,0.2613154947757721,-0.015354189090430737,0.22626562416553497
1776020001676939500,12.354939453125,0.26608413457870483,-0.10165099054574966,0.17212143540382385
1776020001686999300,12.364999267578124,0.2829238474369049,-0.1773899644613266,0.14624296128749847
1776020001697060400,12.375060302734376,0.294913649559021,-0.17628687620162964,0.15698349475860596
1776020001707120400,12.385120361328125,0.30132415890693665,-0.09807543456554413,0.21306248009204865
1776020001717181400,12.395181396484375,0.30974987149238586,0.010425742715597153,0.30171164870262146
1776020001727242500,12.405242431640625,0.32142889499664307,0.09441918134689331,0.3947904706001282
1776020001737302300,12.41530224609375,0.3231586217880249,0.13559004664421082,0.4448493719100952
1776020001747363300,12.42536328125,0.3152277171611786,0.1566508561372757,0.4375286102294922
1776020001757423400,12.43542333984375,0.3081232011318207,0.17523705959320068,0.37780001759529114
1776020001767484400,12.445484375,0.3177473545074463,0.19459718465805054,0.32228535413742065
1776020001777545500,12.45554541015625,0.35340094566345215,0.18906472623348236,0.3108803927898407
1776020001787605200,12.465605224609375,0.3955199122428894,0.13874483108520508,0.3389687240123749
1776020001797666300,12.475666259765624,0.426482617855072,0.05718206241726875,0.3687061369419098
1776020001807726300,12.485726318359376,0.44623634219169617,-0.033429596573114395,0.37467160820961
1776020001817787400,12.495787353515626,0.46984153985977173,-0.10177589952945709,0.35353994369506836
1776020001827848400,12.505848388671875,0.49219584465026855,-0.16600601375102997,0.31182634830474854
