time,seconds_elapsed,z,y,x
1776021784988379000,0.06837890625,-9.615434185183048,-1.723687978798896,0.8618051186937838
1776021784998440000,0.07843994140625,-9.612995559859275,-1.7324546381004153,0.8713792219206691
1776021785008500700,0.088500732421875,-9.610595512980222,-1.7368369448378682,0.8889533839907496
1776021785018561800,0.098561767578125,-9.60843336651027,-1.7385820349395273,0.908695245488733
1776021785028624000,0.108623779296875,-9.606664018750191,-1.739434121724218,0.9256156928904354
1776021785038685000,0.118684814453125,-9.605015667021274,-1.739735296627879,0.9420051752205938
1776021785048746000,0.12874609375,-9.602474165844917,-1.7400879094578325,0.9669396369256079
1776021785058806800,0.138806884765625,-9.598061610099673,-1.7359741905286907,1.0168551028911024
1776021785068867800,0.148867919921875,-9.594550971630214,-1.732102025270462,1.055841763085127
1776021785078930000,0.158929931640625,-9.593545593979954,-1.726679561830312,1.0737046789687126
1776021785088991000,0.168990966796875,-9.594638649913668,-1.717835453378409,1.0781178923010826
1776021785099052000,0.179052001953125,-9.59588251249492,-1.7097456704251468,1.0799058716963976
1776021785109113000,0.189113037109375,-9.594818098133802,-1.7037411693133413,1.098689774882421
1776021785119174000,0.199173828125,-9.590356442549824,-1.6993740601450205,1.1434904551174492
1776021785129236000,0.209236083984375,-9.582527356359362,-1.6943183841906486,1.214431538781151
1776021785139297000,0.219297119140625,-9.572135726204515,-1.6864564186438917,1.3040180670082568
1776021785149358000,0.229358154296875,-9.561785012581943,-1.6745799567587674,1.3922764884367584
1776021785159419000,0.2394189453125,-9.553433363822101,-1.6584800319597124,1.4668822320878505
1776021785169480000,0.24947998046875,-9.546063711836933,-1.6417808260932565,1.5321904244311153
1776021785179541000,0.259541015625,-9.537446690139173,-1.6356936151340602,1.591224943332374
1776021785189602800,0.269602783203125,-9.526256603083015,-1.6392179898679256,1.6534158804379402
1776021785199663900,0.279663818359375,-9.515779048210382,-1.6483733562260865,1.7038782396964727
1776021785209725000,0.289724853515625,-9.51121276320815,-1.6638992805294692,1.714251895803213
1776021785219786000,0.299785888671875,-9.509659104025364,-1.6933005854502319,1.6939602184027431
1776021785229847000,0.309846923828125,-9.508048161697387,-1.7243389900535344,1.6715429271504283
1776021785239908900,0.319908935546875,-9.50737186987102,-1.7410625997088849,1.658000870140642
1776021785249970000,0.329969970703125,-9.509472057020664,-1.7416908146098256,1.6452483560733495
1776021785260031000,0.340031005859375,-9.515288049823045,-1.7436805271223186,1.6091154048100114
1776021785270092000,0.350092041015625,-9.519389639922975,-1.7732099884673953,1.5515582649849353
1776021785280153300,0.3601533203125,-9.513142854487896,-1.8494691984139382,1.499987944484502
1776021785290215200,0.370215087890625,-9.495949143102765,-1.9665389960460364,1.4594713713094591
1776021785300276200,0.380276123046875,-9.469484914547204,-2.0970047202154993,1.449762462721765
1776021785310337000,0.3903369140625,-9.434515892496705,-2.2105942745164033,1.5078357353754341
1776021785320398000,0.400398193359375,-9.392703288161755,-2.2757431846447287,1.6638824755251407
1776021785330459100,0.410459228515625,-9.354949603828787,-2.2649003035910424,1.8776400847569108
1776021785340521200,0.420521240234375,-9.319815746605396,-2.1877181335806846,2.1272759398385883
1776021785350582000,0.43058203125,-9.280353504788875,-2.0755578814305364,2.395304799092561
1776021785360643000,0.44064306640625,-9.231682120600341,-1.9421857682950794,2.678495571643114
1776021785370704100,0.4507041015625,-9.174195561793447,-1.7914016248486935,2.9657039092719555
1776021785380765200,0.46076513671875,-9.104939654737711,-1.6329064686335621,3.2563889831006527
1776021785390827300,0.4708271484375,-9.032350219345092,-1.4847598340839148,3.518880228102207
1776021785400888300,0.480888427734375,-8.956814209106565,-1.3641253297075628,3.753001995448768
1776021785410949000,0.49094921875,-8.93569017253518,-1.3930112324520945,3.7925375947624445
1776021785421010200,0.50101025390625,-8.937043925231695,-1.5036904522642491,3.7468040175914763
1776021785431071200,0.5110712890625,-8.94294818083942,-1.5872914032757282,3.6979143144771456
1776021785441133300,0.52113330078125,-8.943539716991781,-1.6183168022669852,3.6830060836806893
1776021785451194400,0.5311943359375,-8.932350798979401,-1.6026120142653584,3.716870651620626
1776021785461255200,0.541255126953125,-8.915376867824792,-1.5508143147498368,3.779076347903907
1776021785471316200,0.551316162109375,-8.896129146519304,-1.4716611369274555,3.8553193373680115
1776021785481377000,0.561376953125,-8.86416748959124,-1.3783017390981316,3.961969740055501
1776021785491438000,0.57143798828125,-8.819030124747753,-1.2801767343021928,4.0934383576571935
1776021785501500200,0.581500244140625,-8.770615345668793,-1.1840117775328456,4.224311055192351
1776021785511561200,0.591561279296875,-8.733509896111487,-1.0868750531218945,4.3260707632288335
1776021785521622300,0.601622314453125,-8.722954599827528,-0.9828478385448455,4.372008046278357
1776021785531683300,0.611683349609375,-8.743436246842146,-0.8583579739145935,4.3572845243990415
1776021785541744000,0.621744140625,-8.786069519910216,-0.7017393521610648,4.299177495606243
1776021785551806200,0.63180615234375,-8.831641184517741,-0.5093259615899994,4.232385932837427
1776021785561867300,0.6418671875,-8.86789732376933,-0.2635177019724622,4.17867684674263
1776021785571928300,0.65192822265625,-8.890517151856422,0.04740989005246665,4.138458818122745
1776021785581989400,0.6619892578125,-8.891636511275172,0.4153367779571563,4.115420180101692
1776021785592050200,0.67205029296875,-8.866414976257085,0.8248422194123267,4.108127100484073
1776021785602112300,0.6821123046875,-8.820198584005237,1.2579913521096109,4.097797137388587
1776021785612173000,0.692173095703125,-8.753169120827316,1.6898568747371434,4.08617158152461
1776021785622234000,0.702234130859375,-8.665786020928621,2.0935428893238304,4.08553795979619
1776021785632295200,0.712295166015625,-8.569006731653213,2.444460021275282,4.094767560434341
1776021785642356200,0.722356201171875,-8.469046474254132,2.733494113026559,4.1199090159535405
1776021785652418000,0.73241796875,-8.366182312107085,2.9683243209034202,4.167304388856888
1776021785662479000,0.74247900390625,-8.262185931059717,3.164202282312512,4.230188715054094
1776021785672540200,0.7525400390625,-8.166151322671771,3.333030324232578,4.286638332028687
1776021785682601200,0.762601318359375,-8.096909444141387,3.46996422150284,4.309267804726958
1776021785692662300,0.772662353515625,-8.077325038227439,3.5721605673909185,4.262261723402142
1776021785702724000,0.78272412109375,-8.115506008061766,3.6488363953143357,4.122492018184065
1776021785712785200,0.79278515625,-8.18854903244078,3.7066646071657536,3.92156671025753
1776021785722846200,0.80284619140625,-8.271464047014712,3.76486925111413,3.68497212305665
1776021785732907300,0.8129072265625,-8.344358602833747,3.829437584875524,3.4463717489913104
1776021785742968000,0.822968017578125,-8.401393910741806,3.8900729631021616,3.2333108898520466
1776021785753030100,0.833030029296875,-8.438919631537795,3.9479017594754695,3.060897975182533
1776021785763091200,0.84309130859375,-8.44991390376091,4.011446887668967,2.945782234227657
1776021785773152000,0.853152099609375,-8.433336862969398,4.084493711440265,2.8924241535276174
1776021785783213000,0.863213134765625,-8.397877427053452,4.167705370873213,2.8768513213425875
1776021785793274000,0.873274169921875,-8.351413197520374,4.258044105707109,2.879815139584243
1776021785803336200,0.883336181640625,-8.298051609688997,4.344022307243943,2.9055452086463567
1776021785813397200,0.893397216796875,-8.248057452464103,4.413633603608608,2.9427494424030183
1776021785823458300,0.903458251953125,-8.207655299448966,4.466543940541148,2.975695434193313
1776021785833519000,0.91351904296875,-8.177334979987144,4.5088130564719435,2.9953596273452043
1776021785843580200,0.923580078125,-8.15721982819736,4.542751274169981,2.9989266721770167
1776021785853642200,0.933642333984375,-8.141077671691775,4.568939316132664,3.0030048814013597
1776021785863703300,0.943703369140625,-8.12139155896902,4.58610555498898,3.030019729577005
1776021785873764400,0.953764404296875,-8.095572642579674,4.595569256643951,3.084287326337397
1776021785883825200,0.9638251953125,-8.06365307122767,4.599699488316476,3.160799195870757
1776021785893886200,0.97388623046875,-8.022525526547431,4.603140276420116,3.258921131926775
1776021785903948000,0.983947998046875,-7.964360922348499,4.61268201174736,3.385632910390198
1776021785914009000,0.994009033203125,-7.877084205433726,4.641168686041236,3.5470386933550238
1776021785924070100,1.004070068359375,-7.74059542158246,4.703929093597829,3.7585403403535484
1776021785934131200,1.014131103515625,-7.5408917644053695,4.805734686602651,4.026195543989539
1776021785944192300,1.024192138671875,-7.2798179849863045,4.937648709884286,4.335235189676284
1776021785954254000,1.034254150390625,-6.9637821968019,5.082640533664822,4.673636831186712
1776021785964315100,1.044315185546875,-6.579242196711897,5.227738740429282,5.055165666761994
1776021785974376200,1.054376220703125,-6.108279466187954,5.381527618649602,5.467948595517873
1776021785984437200,1.064437255859375,-5.56670707591176,5.549887458536029,5.86352261531949
1776021785994498300,1.074498291015625,-4.968557058367133,5.721285058683157,6.225007318514585
1776021786004560100,1.08456005859375,-4.312178431476652,5.881752684015035,6.555949583929777
1776021786014621200,1.09462109375,-3.5956197689116,6.026473874160647,6.8500751536011695
1776021786024682200,1.10468212890625,-2.838020947688818,6.149654263627529,7.092094103938341
1776021786034743000,1.114742919921875,-2.077386558162421,6.238410405445099,7.275788875600695
1776021786044804000,1.12480419921875,-1.3538527958877384,6.286597805508971,7.403793324223161
1776021786054866200,1.1348662109375,-0.6950928268186748,6.296262290433049,7.486275208076834
1776021786064927000,1.144927001953125,-0.12265299545875749,6.270706993415951,7.538805021259188
1776021786074988000,1.154988037109375,0.3593415902191773,6.218939396777749,7.574038831725717
1776021786085049000,1.165049072265625,0.752712145159766,6.191650407835841,7.567513229349255
1776021786095110100,1.175110107421875,1.0196540128946303,6.231646902659535,7.503150355032086
1776021786105171200,1.185171142578125,1.1478878132935613,6.285996917006373,7.439016028773784
1776021786115233300,1.1952333984375,1.1689576354596762,6.299884572583436,7.423973942464589
1776021786125294300,1.20529443359375,1.1151996687218546,6.260386090409756,7.4655392940402026
1776021786135355100,1.215355224609375,1.0258457071416078,6.190542154332995,7.536258259385824
1776021786145416200,1.225416259765625,0.9188938372895121,6.1119011638164515,7.613847695022821
1776021786155477200,1.235477294921875,0.8035427532088011,6.027801907894015,7.6935232892841094
1776021786165539300,1.245539306640625,0.6932322936438023,5.945930264893174,7.767606178104877
1776021786175600400,1.255600341796875,0.6016157574264333,5.866921610108018,7.835029024514555
1776021786185661200,1.2656611328125,0.5184664226399734,5.790323523595929,7.897704968658089
1776021786195722000,1.275721923828125,0.43056397504229094,5.721999344432354,7.9525927431434384
1776021786205783000,1.285782958984375,0.334418855484575,5.668983209037781,7.995071702432632
1776021786215845000,1.29584521484375,0.2403688085099682,5.631279793587327,8.02504423137009
1776021786225906200,1.30590625,0.15771268233424052,5.605123023545742,8.045377994346618
1776021786235967200,1.31596728515625,0.075282670231699,5.574209414365887,8.068017111656069
1776021786246028300,1.3260283203125,-0.04106811067715753,5.524535575136542,8.102356603631376
1776021786256089000,1.336089111328125,-0.190218127282802,5.455621613386273,8.146802479079366
1776021786266151200,1.346151123046875,-0.33209216610267756,5.362876109671593,8.20363671145737
1776021786276212200,1.356212158203125,-0.46179023036789146,5.253985526841879,8.267575222882629
1776021786286273300,1.366273193359375,-0.602768398060277,5.1433443009525535,8.327848782059549
1776021786296334300,1.376334228515625,-0.7629097871124744,5.036685422697663,8.379746727079153
1776021786306395400,1.3863955078125,-0.9306740722585469,4.941698862057924,8.419254561603069
1776021786316457200,1.396457275390625,-1.0957115627892315,4.863728902670741,8.444757836171984
1776021786326518300,1.406518310546875,-1.2657435736715792,4.805120938618481,8.454531626689434
1776021786336579300,1.416579345703125,-1.4500607150159774,4.771712882274389,8.443842474892735
1776021786346640400,1.426640380859375,-1.629732514772564,4.756787992604076,8.419462066873908
1776021786356701400,1.436701416015625,-1.8075930273234844,4.75592348472923,8.383565993106364
1776021786366762500,1.446762451171875,-1.9913203860811888,4.762607492537796,8.338020631983875
1776021786376824300,1.45682421875,-2.200663832132518,4.757056872673332,8.288418688946962
1776021786386885400,1.466885498046875,-2.481000822687149,4.7221004178434605,8.22902191260457
1776021786396946200,1.4769462890625,-2.8759073184907433,4.641289097550511,8.146040262535214
1776021786407007200,1.48700732421875,-3.3781130362793803,4.512463980194926,8.024736772856116
1776021786417068300,1.497068359375,-3.9228450596302746,4.3644244592815635,7.85706491523385
1776021786427130000,1.507130126953125,-4.452173762144148,4.230908553761243,7.64512604586184
1776021786437191200,1.517191162109375,-4.92695254382491,4.128285214632749,7.406267605382204
1776021786447252200,1.527252197265625,-5.318616112184524,4.06927422273755,7.164057516387104
1776021786457313300,1.537313232421875,-5.624953513175249,4.06446360758543,6.928954044526815
1776021786467374300,1.547374267578125,-5.8612950023978945,4.111515866139531,6.701570353263616
1776021786477436400,1.5574365234375,-6.03392711277604,4.19700014667958,6.492095243656635
1776021786487497200,1.567497314453125,-6.16293226287365,4.3023476500749585,6.2990831930726765
1776021786497558300,1.577558349609375,-6.2892918668985365,4.401232387197018,6.102814186519384
1776021786507619300,1.587619384765625,-6.420859560960531,4.472164118510484,5.9112336300432675
1776021786517680400,1.597680419921875,-6.544936607006192,4.510439780890941,5.743703226718306
1776021786527742500,1.607742431640625,-6.644657210430503,4.533997766610979,5.60908023673892
1776021786537803500,1.617803466796875,-6.7003662381708615,4.569887702898681,5.512857412302494
1776021786547864300,1.6278642578125,-6.708284756210446,4.641169855085015,5.443237932631373
1776021786557925000,1.637925048828125,-6.696848585438728,4.750293662148714,5.362584433248639
1776021786567986200,1.647986083984375,-6.696554570928216,4.8792830301553005,5.245868855881691
1776021786578048300,1.65804833984375,-6.707485714787245,5.004788063177466,5.111958398085832
1776021786588109300,1.668109375,-6.715783003011346,5.107854469898343,4.997845696693658
1776021786598170400,1.67817041015625,-6.716805331796407,5.184536727562547,4.9168566817462445
1776021786608231400,1.6882314453125,-6.701718821823596,5.243144399353861,4.8751188962131735
1776021786618292200,1.698292236328125,-6.656509560787677,5.29719513849318,4.878625735290348
1776021786628354300,1.708354248046875,-6.569796322974562,5.364985649171471,4.92189993661046
1776021786638415400,1.718415283203125,-6.433340272349119,5.458080112454295,4.999187758952379
1776021786648476400,1.728476318359375,-6.2486313552081585,5.576241212454438,5.102012758132815
1776021786658537500,1.738537353515625,-6.026385026833415,5.70990324844718,5.220160414129495
1776021786668598500,1.7485986328125,-5.781249405780434,5.841332410821319,5.350362080535293
1776021786678660400,1.758660400390625,-5.527590871053934,5.954046351331472,5.492307960748672
1776021786688721400,1.768721435546875,-5.266363362377882,6.042564592739939,5.650062819990516
1776021786698782200,1.7787822265625,-4.982074127066135,6.112989543575048,5.829295936068892
1776021786708843300,1.78884326171875,-4.646645948408544,6.177699623894691,6.034492929965257
1776021786718904300,1.798904296875,-4.2454421060264105,6.240096166574955,6.261613001856207
1776021786728965400,1.80896533203125,-3.7919317378237842,6.299958222341537,6.48861675389111
1776021786739027200,1.819027099609375,-3.311211291134357,6.356749784621596,6.693130441698432
1776021786749088300,1.829088134765625,-2.859881481841206,6.387782636266946,6.869331058213114
1776021786759149300,1.8391494140625,-2.5040473517537114,6.371176369380951,7.021982456836104
1776021786769210400,1.84921044921875,-2.258319756156951,6.309204774114489,7.1599097490578885
1776021786779271400,1.859271484375,-2.093444689646363,6.238508020600676,7.27109984100163
1776021786789333200,1.869333251953125,-1.9597632183007896,6.19523352701962,7.344983992379904
1776021786799394300,1.879394287109375,-1.8341138083718715,6.167562845283746,7.400512402856349
1776021786809455400,1.889455322265625,-1.7413418550416826,6.136441730833053,7.4486384281218045
1776021786819516400,1.899516357421875,-1.653838928155601,6.123823656800389,7.478903218004107
1776021786829577200,1.9095771484375,-1.4950957885287701,6.151803550615907,7.489353300347924
1776021786839639300,1.919639404296875,-1.261827277010679,6.221476221778988,7.47471979483962
1776021786849700000,1.9297001953125,-1.0223101534266024,6.290080386927723,7.45386872999072
1776021786859761200,1.93976123046875,-0.822704622861743,6.3020858820199965,7.468419233390688
1776021786869822200,1.949822265625,-0.6617070553716272,6.252997733724117,7.525461555561423
1776021786879883300,1.95988330078125,-0.5289645088439807,6.161525903207063,7.610925085574388
1776021786889945300,1.9699453125,-0.4256664122590795,6.038640697294474,7.715180409818887
1776021786900006400,1.98000634765625,-0.32949418549872933,5.907255374062061,7.820878334087133
1776021786910067200,1.990067138671875,-0.22682883385941385,5.797546460586786,7.906160662314296
1776021786920128300,2.000128173828125,-0.13875280152680353,5.725450946190953,7.960548670583963
1776021786930189300,2.010189208984375,-0.09149218831849285,5.694597542765736,7.983330995756387
1776021786940251400,2.02025146484375,-0.08254222660562954,5.704976313439011,7.976016873350739
1776021786950312400,2.0303125,-0.10030595643105916,5.753052069821954,7.941203918644786
1776021786960373500,2.04037353515625,-0.15906064461078495,5.830780037146806,7.88334151226282
1776021786970434300,2.050434326171875,-0.2237857763690874,5.926893555989861,7.8097525444388385
1776021786980495000,2.0604951171875,-0.2523041609754786,6.02559183062911,7.7329791013598435
1776021786990556200,2.07055615234375,-0.24720084648709742,6.116579092499613,7.661378677004575
1776021787000618200,2.0806181640625,-0.22722923135384915,6.1946981049686665,7.598976873627304
1776021787010679300,2.09067919921875,-0.21282182621899992,6.255709330770373,7.549252765515447
1776021787020740400,2.100740234375,-0.21618025153512133,6.304488266986608,7.508468335184454
1776021787030801400,2.110801513671875,-0.24075442856037987,6.347564023125171,7.471337166664004
1776021787040862200,2.1208623046875,-0.2969859640711918,6.393319812127947,7.430186241108179
1776021787050924300,2.13092431640625,-0.3841870949991047,6.4551955458045,7.372465289023518
1776021787060985300,2.1409853515625,-0.48527043814398346,6.532012828025222,7.298470663008094
1776021787071046400,2.15104638671875,-0.6216199596550315,6.638941170871258,7.1908590140730135
1776021787081107500,2.161107421875,-0.8161080010756849,6.783832456886768,7.0344853800565
1776021787091168500,2.17116845703125,-1.0480316738560795,6.957642378872633,6.8310489660918705
1776021787101230300,2.181230224609375,-1.2667094960942864,7.152566985079646,6.588370090541243
1776021787111291400,2.19129150390625,-1.4086825565755365,7.360849085509777,6.324862361973524
1776021787121352200,2.201352294921875,-1.4614515853412449,7.589172687971591,6.036472705605625
1776021787131413200,2.211413330078125,-1.4124476081974804,7.839951283347606,5.719312297305464
1776021787141474300,2.221474365234375,-1.2196721428483723,8.101413185301423,5.389795096257329
1776021787151536000,2.2315361328125,-0.9113890146173537,8.361776186102627,5.0418713009029625
1776021787161597200,2.24159716796875,-0.5720602117920294,8.606906546458601,4.665223515367508
1776021787171658200,2.251658203125,-0.2501861093755811,8.833367862179875,4.251989627973735
1776021787181719300,2.26171923828125,0.0479069254549453,9.038122373005747,3.8053193349242207
1776021787191780400,2.2717802734375,0.3126782579174265,9.218868816256522,3.3294267467826604
1776021787201841400,2.28184130859375,0.5466585709666832,9.372384722754358,2.833721496929228
1776021787211903200,2.2919033203125,0.7550800433348864,9.495896536132692,2.329847992058843
1776021787221964300,2.30196435546875,0.9309365225870162,9.587693945342302,1.8384407316602764
1776021787232025300,2.312025390625,1.0602926050141452,9.650781392896175,1.3815081339240074
1776021787242086400,2.32208642578125,1.128036792332679,9.691785603457689,0.9834540608096867
1776021787252147200,2.332147216796875,1.1306120496481655,9.718857734778522,0.6601984774395823
1776021787262209500,2.34220947265625,1.0791436551522462,9.738007256406545,0.4207405732294544
1776021787272270000,2.35227001953125,0.9976468368131667,9.752245625117421,0.2622610712411813
1776021787282331600,2.36233154296875,0.9082306236516684,9.762975108924508,0.1727403199929744
1776021787292392700,2.372392822265625,0.8263702326972037,9.77070833352506,0.1441426413389854
1776021787302453800,2.382453857421875,0.7452563492611051,9.775772631177306,0.22192151686716824
1776021787312515800,2.392515869140625,0.6352700070839374,9.774746795260906,0.47026656495332714
1776021787322576600,2.40257666015625,0.45891693995390087,9.759740364786982,0.8409811610475182
1776021787332637700,2.4126376953125,0.32465595168732103,9.732577048051356,1.1584154178529977
1776021787342698500,2.422698486328125,0.48253297600410877,9.711686235713959,1.2730758162558078
1776021787352759600,2.432759521484375,0.7699069525234401,9.696423200130463,1.2478015281371773
1776021787362821600,2.442821533203125,1.0463140562832356,9.679968908935784,1.1720976139858363
1776021787372882700,2.452882568359375,1.2862505012579262,9.661314477348327,1.083940826300904
1776021787382943700,2.46294384765625,1.484733238337934,9.642102996399998,0.9978859062660485
1776021787393004500,2.473004638671875,1.6374973035551608,9.625439446368812,0.9164724553614855
1776021787403065600,2.483065673828125,1.724546787585318,9.617460722574592,0.8370996434390544
1776021787413127700,2.493127685546875,1.7179500196687876,9.62428735372424,0.7695017327234148
1776021787423188700,2.503188720703125,1.6213845192745326,9.643391282644867,0.739264123108983
1776021787433249800,2.513249755859375,1.465026521218568,9.667220486521721,0.7542596668627113
1776021787443310800,2.523310791015625,1.2791307323805987,9.689859603831172,0.800502581795305
1776021787453371600,2.53337158203125,1.0891971393939106,9.707926006397605,0.8603527279283851
1776021787463433700,2.543433837890625,0.9175745713844895,9.720269355142117,0.9191359024170785
1776021787473494800,2.553494873046875,0.7896501291956752,9.72723744058907,0.9631699821937829
1776021787483555800,2.563555908203125,0.7235359542317688,9.730441789588332,0.9825450562059879
1776021787493616600,2.57361669921875,0.7103074932157993,9.731552965700626,0.9811964911412447
1776021787503677700,2.583677734375,0.7246539254110306,9.73130395937562,0.9731493052206933
1776021787513739500,2.593739501953125,0.7490775880496948,9.73022200935781,0.9654154960982501
1776021787523800600,2.603800537109375,0.7737904428932816,9.72902900018096,0.9579206102982163
1776021787533861600,2.613861572265625,0.7936313077863305,9.728247494414449,0.9495802135847509
1776021787543922700,2.623922607421875,0.8075883022725582,9.72789210510552,0.9414471760116517
1776021787553983700,2.633983642578125,0.8175611224934458,9.727674662962555,0.9350503145813941
1776021787564045600,2.644045654296875,0.8268083318535238,9.727373049667477,0.9300376009859144
1776021787574106600,2.654106689453125,0.8376185527466237,9.727011815139651,0.9241177094176412
1776021787584167700,2.664167724609375,0.8489940063070506,9.726722476804255,0.9167673466548323
1776021787594228700,2.674228759765625,0.8576037945464253,9.726457688388228,0.9115358757421373
1776021787604289800,2.684289794921875,0.8600806329887359,9.726178286924958,0.912209829480946
1776021787614352000,2.694351806640625,0.8555518304526806,9.725342420622706,0.9252735283892601
1776021787624412700,2.70441259765625,0.8535203246250748,9.723623926267027,0.9450058183412998
1776021787634473500,2.714473388671875,0.8585740278180688,9.721783851358294,0.9592495938796549
1776021787644534500,2.724534423828125,0.8665089855358004,9.720023271426557,0.9699052817981689
1776021787654595600,2.734595703125,0.8750985347047447,9.718106624150275,0.9813366302642971
1776021787664657700,2.74465771484375,0.8834596819452941,9.716277655157446,0.9918979909628629
1776021787674718700,2.75471875,0.8925086653195321,9.714799983820319,0.998238884422183
1776021787684779500,2.764779541015625,0.9029163698263466,9.71373498493731,0.999231475656107
1776021787694840600,2.774840576171875,0.913011428187415,9.713022452753782,0.9970064200177788
1776021787704901600,2.784901611328125,0.9203520732738077,9.7127097335428,0.9932955097358673
1776021787714963700,2.794963623046875,0.9218860048428177,9.712989135006069,0.9891226810306311
1776021787725024800,2.805024658203125,0.9178940125972032,9.713814479914307,0.9847261265721171
1776021787735085800,2.8150859375,0.9117952573306858,9.714858436009287,0.9800627378709613
1776021787745146600,2.825146728515625,0.9071578067883849,9.71580594599247,0.9749713330160826
1776021787755207700,2.835207763671875,0.9052099606562405,9.71657108514607,0.969140434905514
1776021787765268500,2.8452685546875,0.9057409987930208,9.7171076762408,0.9632406362771987
1776021787775330800,2.855330810546875,0.9080267716426402,9.717394091966748,0.9581981851305812
1776021787785391600,2.8653916015625,0.9115992233019322,9.717487615469098,0.9538567218601703
1776021787795452700,2.87545263671875,0.9156809396576135,9.717470664334297,0.9500984653051942
1776021787805513700,2.885513671875,0.9197227623943239,9.717394676488638,0.9469575369309633
1776021787815574500,2.895574462890625,0.9239860458619892,9.717256144800782,0.9442243856400251
1776021787825636600,2.90563671875,0.9292670550048351,9.716973236206174,0.9419412431389093
1776021787835697700,2.91569775390625,0.9368491806969046,9.71638170005381,0.9405492773238568
1776021787845758700,2.9257587890625,0.9475759610902518,9.715416069892049,0.9397658718612044
1776021787855819800,2.93581982421875,0.9610946372244507,9.714152918088436,0.9391017088640481
1776021787865880800,2.945880859375,0.9761107853747903,9.712761755990982,0.9379972547534853
1776021787875942700,2.955942626953125,0.9914218978837132,9.711396897378563,0.9360898136969655
1776021787886003700,2.966003662109375,1.0046765893194824,9.710341835367679,0.9328867798719555
1776021787896064800,2.976064697265625,1.013403062741086,9.709828040626645,0.9287801482707262
1776021787906125800,2.986125732421875,1.0152709755048155,9.710008657890558,0.9248384979728609
1776021787916186600,2.9961865234375,1.0104740966171026,9.710849200367926,0.9212632698345928
1776021787926248700,3.006248779296875,1.0021879873741417,9.711934072995184,0.918875790176168
1776021787936309500,3.0163095703125,0.9938192413490265,9.7127833833009,0.9189954710330813
1776021787946370600,3.02637060546875,0.9873141703039408,9.713241648462414,0.9211636088524013
1776021787956431600,3.036431640625,0.9822123171202838,9.71345675251782,0.9243376357786357
1776021787966492700,3.04649267578125,0.97753365778476,9.713555536717175,0.9282583163537085
1776021787976554800,3.0565546875,0.9722714994728565,9.713694068405031,0.932329657445848
1776021787986615600,3.066615478515625,0.9660467066738754,9.713985744827985,0.9357407810635864
1776021787996676600,3.076676513671875,0.9607415129378437,9.714186820358037,0.9391176370855421
1776021788006737700,3.086737548828125,0.9585768822498619,9.713959441342949,0.9436723047152161
1776021788016798700,3.096798828125,0.9607833793181926,9.713205992627143,0.9491658606301993
1776021788026860800,3.10686083984375,0.967187839533016,9.711997785881161,0.9550001928068697
1776021788036921900,3.116921875,0.9770566148575395,9.710434774348139,0.9608274376556277
1776021788046982700,3.126982666015625,0.9888554083965718,9.708690561029314,0.9663661478865891
1776021788057043700,3.137043701171875,1.0010267615750432,9.707054484260082,0.9702673200435936
1776021788067104500,3.1471044921875,1.0115428948923946,9.705905898746847,0.9708503075633197
1776021788077166800,3.157166748046875,1.019175216401741,9.705421914622187,0.9677049952749163
1776021788087227600,3.1672275390625,1.0226564095810056,9.70573346478939,0.9609008682180196
1776021788097288700,3.177288818359375,1.0222878685295582,9.706661101028322,0.9518693474352359
1776021788107349800,3.187349853515625,1.0192378333091736,9.707910808828473,0.942349385548383
1776021788117410600,3.19741064453125,1.0148301729347555,9.709317753016949,0.9325533831991255
1776021788127472600,3.20747265625,1.0091363452073185,9.710796008875965,0.9232846926596016
1776021788137533700,3.21753369140625,1.0025557977732271,9.7122619897753,0.914996610655263
1776021788147594800,3.2275947265625,0.9959462434403598,9.713557290282845,0.908447773533687
1776021788157655800,3.23765576171875,0.9905778482750057,9.714586633330583,0.903316109733656
1776021788167716900,3.247716796875,0.9869461407091468,9.715389181885122,0.8986400807466357
1776021788177778700,3.25777880859375,0.9849785669632255,9.716023972657322,0.8939314646642654
1776021788187839700,3.26783984375,0.9848298061423003,9.716484575906396,0.889060570692271
1776021788197900800,3.27790087890625,0.9854762873522936,9.716894910272956,0.883829099779576
1776021788207961900,3.2879619140625,0.9849006063561886,9.717392338401078,0.87901242021285
1776021788218022700,3.298022705078125,0.982781787571311,9.717937697324157,0.8753400153104215
1776021788228084500,3.30808447265625,0.9805760942205786,9.718519296604395,0.8713578868716955
1776021788238145500,3.3181455078125,0.9804107475910335,9.718839030078053,0.8679420140136033
1776021788248206600,3.32820654296875,0.9837941794842481,9.718738492313026,0.865252190407738
1776021788258267600,3.338267578125,0.9902734585009515,9.718473703896999,0.8608141348950564
1776021788268328700,3.34832861328125,0.999658103570342,9.71819371791184,0.853084782752022
1776021788278390000,3.35839013671875,1.0115006631858647,9.717739544403553,0.8442701195903122
1776021788288451000,3.368451171875,1.0246581047922372,9.717133979725837,0.8353148789141327
1776021788298512000,3.378511962890625,1.0389318370774387,9.716455934333801,0.8255220183700323
1776021788308573000,3.388572998046875,1.0533829717561602,9.715527129051088,0.8180961061529815
1776021788318634000,3.398634033203125,1.0665679589565842,9.714278005772828,0.815859871533513
1776021788328696000,3.408696044921875,1.0736335134286432,9.713280226907134,0.8184544180713593
1776021788338757000,3.418757080078125,1.070677878493443,9.713530986797808,0.8193600616741925
1776021788348818200,3.428818115234375,1.0571204777840524,9.71537456883788,0.8151031348820775
1776021788358879000,3.43887890625,1.0380749279871582,9.718114222934842,0.8068868029396981
1776021788368939800,3.448939697265625,1.0172628069091587,9.721337276634573,0.7944420396473258
1776021788379001900,3.459001953125,0.9941695891566574,9.72507237150967,0.7777950023595244
1776021788389063000,3.46906298828125,0.9678305944159626,9.729095635676384,0.76052384182401
1776021788399124000,3.4791240234375,0.9434006481669842,9.73253554699719,0.7470763312298804
1776021788409185000,3.48918505859375,0.9295923414364456,9.734991707977652,0.7322465724971144
1776021788419246000,3.49924609375,0.9277564312461763,9.736298114401102,0.7170619359120726
1776021788429308000,3.509307861328125,0.9300172157850116,9.736160751757025,0.7159959141157567
1776021788439369000,3.519368896484375,0.9288707491636276,9.735341252067684,0.7285190033413469
1776021788449430000,3.529429931640625,0.9218818401243537,9.735205642989277,0.7391109783738851
1776021788459491000,3.539490966796875,0.9159334531139582,9.736137370881437,0.7342115889597683
1776021788469552000,3.54955224609375,0.9151516550865024,9.737911394816637,0.7112906590342521
1776021788479613200,3.55961328125,0.9219995482198894,9.738997436487674,0.6871912599138915
1776021788489675000,3.569675048828125,0.935629721904546,9.73810954773724,0.6813230985328554
1776021788499736000,3.579736083984375,0.9571651888210326,9.734605339008569,0.7011752885375171
1776021788509796900,3.589796875,0.9837756939794867,9.729877725964784,0.7294280079450458
1776021788519858000,3.59985791015625,1.0085423248369245,9.72609996099174,0.7458174902752042
1776021788529919000,3.6099189453125,1.0265399730160831,9.723795775702595,0.7512894919455051
1776021788539980800,3.619980712890625,1.036224477814883,9.722178988155722,0.7588532051980496
1776021788550041900,3.630041748046875,1.038901441939175,9.720662738373875,0.7744760870698839
1776021788560103000,3.64010302734375,1.0368661367192864,9.719457454237341,0.7921277713555842
1776021788570164000,3.6501640625,1.0319536686278878,9.718962364196777,0.8045110867843032
1776021788580225000,3.66022509765625,1.026013172663003,9.719155256420374,0.8097682035949081
1776021788590286800,3.670286865234375,1.0194010610468685,9.719810505458712,0.8102329715624451
1776021788600348000,3.680347900390625,1.0117707122989,9.720843355637788,0.8074176949460059
1776021788610409000,3.690408935546875,1.001903544409573,9.722395261254906,0.8010024941414594
1776021788620470000,3.700469970703125,0.9896038886763154,9.724454531872272,0.7912427321493625
1776021788630531000,3.710531005859375,0.9769034701224416,9.726521401274203,0.7815454409342258
1776021788640593200,3.72059326171875,0.9671412969775497,9.728101948463916,0.7739828236602246
1776021788650654000,3.730654052734375,0.9631669865190983,9.729078100019693,0.7666166788063943
1776021788660714800,3.74071484375,0.9656311846755444,9.729401340624689,0.7593937418155372
1776021788670775800,3.75077587890625,0.9729868081353604,9.729147658124566,0.7532411374699324
1776021788680838000,3.760837890625,0.982379782641679,9.728559044581651,0.7486392696976661
1776021788690899000,3.77089892578125,0.9911601051423699,9.727886259886622,0.7458055075764656
1776021788700960000,3.7809599609375,0.9972953199617564,9.72740519837141,0.7439081495225429
1776021788711021000,3.79102099609375,0.9996299734544009,9.727251469114423,0.742776953535527
1776021788721081900,3.801081787109375,0.9981118239764124,9.72738649367094,0.7430465642571449
1776021788731144000,3.81114404296875,0.9927135451294481,9.727636084517837,0.7469994666013866
1776021788741205000,3.821205078125,0.981716788688302,9.728370244011282,0.7519260362833737
1776021788751266000,3.83126611328125,0.96498916044496,9.729715813401342,0.7561897581424564
1776021788761327000,3.8413271484375,0.9449901823807507,9.731347798517346,0.7604401821285486
1776021788771388200,3.85138818359375,0.9244744139008223,9.733016023990512,0.7642929850991815
1776021788781450000,3.861449951171875,0.9062959292620419,9.734407770609856,0.7683247248332947
1776021788791511000,3.871510986328125,0.8937580808587372,9.735209150120616,0.7728487050637602
1776021788801572000,3.881572021484375,0.8892588697433471,9.735283384400606,0.7770827624369412
1776021788811633000,3.8916328125,0.8933630171265453,9.734628719884157,0.7805754999235271
1776021788821694000,3.90169384765625,0.9043716101359576,9.733384857302903,0.7834094081752002
1776021788831755800,3.911755859375,0.9202179255001246,9.731762224537134,0.7850991148278117
1776021788841816800,3.92181689453125,0.9380152288015932,9.73001684217453,0.785683198326081
1776021788851878000,3.9318779296875,0.955260597308725,9.728311207300424,0.7860160104770213
1776021788861939000,3.94193896484375,0.9686903530504554,9.726990772351622,0.7859419223275035
1776021788872000000,3.952,0.9758264885406941,9.726168934574723,0.7872490594033151
1776021788882061000,3.96206103515625,0.9752634478304535,9.726066643244028,0.7892228436943143
1776021788892123000,3.972122802734375,0.9671849169235676,9.726821845525503,0.7898624567721039
1776021788902184000,3.982183837890625,0.9553028290152549,9.728071553325652,0.7889419078610836
1776021788912245000,3.992244873046875,0.9434366693284362,9.729480835601686,0.7858218030791729
1776021788922306000,4.00230615234375,0.9343036609325558,9.730756262364983,0.780917810555175
1776021788932368100,4.0123681640625,0.931976533159241,9.731237908402084,0.7776881809841841
1776021788942429200,4.02242919921875,0.9341140566445887,9.731516140821576,0.7716218666825443
1776021788952489700,4.03248974609375,0.9326507060937583,9.732937113535403,0.7552998966306448
1776021788962550800,4.04255078125,0.9076154143627733,9.738336926752329,0.7151254148915409
1776021788972611800,4.05261181640625,0.8363517476812005,9.75010276786983,0.6374770886741579
1776021788982674000,4.062673828125,0.7931330028753727,9.75480232386291,0.6206130476348102
1776021788992735000,4.07273486328125,0.8431668345235288,9.746319157677888,0.6846257202748209
1776021789002796000,4.082796142578125,0.9444903430998325,9.733423435747623,0.7340059833850712
1776021789012857000,4.092857177734375,1.0427576059106736,9.72354384676814,0.7319405022226274
1776021789022918000,4.10291796875,1.1050814486809075,9.719744454485177,0.6897597221624105
1776021789032980000,4.11297998046875,1.124511467750743,9.721224463909865,0.6353518401484937
1776021789043041000,4.123041015625,1.1127565133534372,9.725572722247243,0.5876922998836264
1776021789053102000,4.13310205078125,1.08539847776331,9.730915836840868,0.5491468806510791
1776021789063163100,4.1431630859375,1.0531996510785073,9.736268888306617,0.5159648881478235
1776021789073224200,4.15322412109375,1.02064996512942,9.74137351796925,0.4840483855357393
1776021789083286000,4.1632861328125,0.9875320508383214,9.746453013190626,0.4492906681483611
1776021789093347000,4.17334716796875,0.9511732549298554,9.751808987265825,0.4097282173603773
1776021789103407900,4.183407958984375,0.9124785634197294,9.757208800482749,0.36697646901179104
1776021789113469000,4.193468994140625,0.8758080712135881,9.762087804695962,0.3240637944804504
1776021789123530000,4.203530029296875,0.8460459701564162,9.765948571777344,0.28436588074453173
1776021789133591800,4.213591796875,0.8263196715537459,9.768594702371955,0.24931330859642475
1776021789143652900,4.22365283203125,0.8165101521357894,9.770158298426866,0.21844784940723327
1776021789153714000,4.2337138671875,0.8144793038953095,9.770903563836216,0.19099460981432348
1776021789163775000,4.24377490234375,0.8168789854481816,9.771134449982643,0.16748393383473156
1776021789173836000,4.2538359375,0.8205806164450943,9.771134449982643,0.1481657502420712
1776021789183897900,4.26389794921875,0.8224906147848814,9.771202254521846,0.1323614656550344
1776021789193959000,4.273958984375,0.8202879171088338,9.771573425921797,0.11789625678518786
1776021789204020000,4.28402001953125,0.8130991746485233,9.772327459159493,0.10415216526412405
1776021789214081000,4.2940810546875,0.8019511731684208,9.77337492238581,0.0916588775217533
1776021789224142000,4.30414208984375,0.788880679193139,9.774542212599515,0.07989613254363648
1776021789234204200,4.3142041015625,0.7761434357602148,9.775658649408816,0.06698367410770151
1776021789244265000,4.324264892578125,0.7654241810861975,9.776601483216881,0.050780339166522026
1776021789254325800,4.33432568359375,0.7573433120917529,9.777317522531748,0.029503806314012036
1776021789264386800,4.34438671875,0.7511887349847703,9.777836577969788,0.003187071925008786
1776021789274448000,4.35444775390625,0.7457325154054909,9.778217686241865,-0.02677383792742621
1776021789284510700,4.3645107421875,0.7410005184475332,9.778435712906719,-0.059254207800235596
1776021789294571500,4.374571533203125,0.7377171859279275,9.778400641593336,-0.09518341665240004
1776021789304632600,4.384632568359375,0.738252827174589,9.777861712411045,-0.1371336758923717
1776021789314693600,4.394693603515625,0.7460720495581626,9.776478149098157,-0.1851206214806996
1776021789324754400,4.40475439453125,0.7629610789082943,9.77404946064651,-0.23708874565968288
1776021789334816800,4.414816650390625,0.7879347766451538,9.770603119584917,-0.2912668557720259
1776021789344877600,4.424877685546875,0.817929225153476,9.76636592040658,-0.345650187866576
1776021789354938600,4.434938720703125,0.8497496469799428,9.761630124056339,-0.3986236531632021
1776021789364999400,4.44499951171875,0.8821056369878351,9.756559981185196,-0.44923733052592724
1776021789375060500,4.455060546875,0.9146076844029128,9.75122037372291,-0.4975592436896637
1776021789385122600,4.46512255859375,0.9454650333508848,9.745897132873534,-0.5421907048376277
1776021789395183600,4.47518359375,0.9678547059439122,9.741544198361039,-0.579606681648828
1776021789405244700,4.48524462890625,0.9737642222486436,9.739310740220546,-0.6066234660532325
1776021789415305700,4.4953056640625,0.9582931699376552,9.739839148008823,-0.6225685656167567
1776021789425366500,4.505366455078125,0.9235806068662553,9.742786307376623,-0.628867958021909
1776021789435428600,4.5154287109375,0.8764449078124016,9.747216398778557,-0.6276842281300574
1776021789445489700,4.52548974609375,0.8255303478069603,9.752050979328155,-0.6215915372781455
1776021789455550700,4.53555078125,0.7772973550356924,9.756580439451337,-0.6126417034294456
1776021789465611800,4.54561181640625,0.7351817491661757,9.76045231244862,-0.6028631271390243
1776021789475673600,4.555673583984375,0.699838486975804,9.763599962824582,-0.5939104072134942
1776021789485734700,4.565734619140625,0.670554963215813,9.76610347007811,-0.5864684937097132
1776021789495795500,4.57579541015625,0.6456118067476898,9.768145205038785,-0.580437762178108
1776021789505856500,4.5858564453125,0.6228608996268361,9.76990870757997,-0.5755931351585314
1776021789515917600,4.59591748046875,0.6001268340429291,9.771638307851552,-0.570361189321801
1776021789525979400,4.6059794921875,0.5747796998837963,9.773618083491922,-0.5624985661879182
1776021789536040400,4.61604052734375,0.5426335897669196,9.7762320653826,-0.5488219230130315
1776021789546101500,4.6261015625,0.4991748987253755,9.77968016000986,-0.5282666627729311
1776021789556162600,4.63616259765625,0.44100620287321507,9.783928465104102,-0.5006417929401621
1776021789566223600,4.6462236328125,0.3685890187749639,9.788715114858746,-0.4643158398553729
1776021789576285700,4.65628564453125,0.28155001960620285,9.793796948167682,-0.4155165915034711
1776021789586346800,4.6663466796875,0.17514834924908354,9.79885540060103,-0.3494896198989823
1776021789596407600,4.676407470703125,0.046571238138084295,9.803004921495914,-0.2632218425647355
1776021789606468600,4.686468505859375,-0.09652436466626822,9.80489760337472,-0.15815246199099345
1776021789616529700,4.69652978515625,-0.2360960630942136,9.803726221507787,-0.03975951686319895
1776021789626591700,4.706591796875,-0.35237218959797173,9.799941442272067,0.08574049292397685
1776021789636652800,4.71665283203125,-0.4336224492974579,9.794667301261425,0.2164548306928016
1776021789646713600,4.726713623046875,-0.4821262948993593,9.788379014772175,0.35432814597133544
1776021789656774400,4.7367744140625,-0.5102225085709243,9.780565710672736,0.5005742441292852
1776021789666835500,4.74683544921875,-0.5292017881985753,9.770789582067728,0.6496335365444421
1776021789676897500,4.7568974609375,-0.5439858446260913,9.759590727183221,0.790493594282493
1776021789686958600,4.76695849609375,-0.5532703903218731,9.748071554303168,0.9161869894836098
1776021789697019600,4.77701953125,-0.5626929562488571,9.736454766267537,1.0272360655214636
1776021789707080700,4.787080810546875,-0.5784235362788662,9.725161803358793,1.1211718019340187
1776021789717141500,4.7971416015625,-0.6062688073966652,9.714058225542306,1.19996111488007
1776021789727203600,4.80720361328125,-0.6521866550933569,9.70273019132018,1.2657327600166202
1776021789737264600,4.8172646484375,-0.7203028905946761,9.690738140231371,1.3195220717407763
1776021789747325700,4.82732568359375,-0.808035680713877,9.677916652581095,1.362126410975307
1776021789757386800,4.83738671875,-0.9073756873227655,9.663912092626095,1.3985190360881388
1776021789767447800,4.84744775390625,-1.0052197562854737,9.647940616512297,1.44123019669801
1776021789777509600,4.857509521484375,-1.0877042704876512,9.62943523800671,1.5037424747124313
1776021789787570400,4.8675703125,-1.1448095748919993,9.609212534189224,1.5883409123286605
1776021789797631500,4.877631591796875,-1.1730991191785782,9.589919804698228,1.6815727382555603
1776021789807692500,4.887692626953125,-1.177109231602773,9.57536988582015,1.7598581933327018
1776021789817754600,4.897754638671875,-1.1699530762378125,9.567961655390262,1.8043581370554864
1776021789827815400,4.9078154296875,-1.1627533739920706,9.567512742578982,1.8113845285609362
1776021789837876500,4.91787646484375,-1.1573268919639288,9.572947627109288,1.7859649867527185
1776021789847937500,4.9279375,-1.1516387633249163,9.583502338871359,1.7322255055196583
1776021789857998600,4.93799853515625,-1.144093097185716,9.598374913832545,1.6530669208697975
1776021789868060700,4.948060791015625,-1.1375514935225248,9.61639981534481,1.5495853574767708
1776021789878121700,4.958121826171875,-1.1377006927348672,9.636128598165511,1.4216341003462671
1776021789888182500,4.9681826171875,-1.1468820703171192,9.655626494839787,1.2743296157091855
1776021789898243600,4.97824365234375,-1.1622243816819042,9.6731896240592,1.1175924090772866
1776021789908304600,4.9883046875,-1.1745617390770464,9.688432785898446,0.96179518670924
1776021789918366700,4.99836669921875,-1.1712632820535451,9.702250883370636,0.8154008757196366
1776021789928427800,5.008427734375,-1.1403840135347096,9.716435476067662,0.6788024940140545
1776021789938488600,5.018488525390625,-1.0780325521051883,9.73197265241742,0.5449029594710096
1776021789948549600,5.028549560546875,-0.9924766676336526,9.747781046923995,0.40758755206987257
1776021789958610400,5.0386103515625,-0.9019140609160066,9.761548875513672,0.26285063463216646
1776021789968672500,5.048672607421875,-0.8243475677631795,9.77132734220624,0.10949210151997395
1776021789978733600,5.058733642578125,-0.7678451246228069,9.776413851690291,-0.05023583875996992
1776021789988794600,5.068794677734375,-0.7291271983675658,9.777184251540898,-0.2131464185308665
1776021789998855700,5.078855712890625,-0.7003781468104571,9.77433061567545,-0.3772593415625393
1776021790008916700,5.088916748046875,-0.6727404905613511,9.768508777654171,-0.5422759354356677
1776021790018978600,5.098978515625,-0.6379845998048782,9.760169988375901,-0.7088442887954414
1776021790029039600,5.10903955078125,-0.5919122191336006,9.749519415023922,-0.875731791106984
1776021790039100700,5.1191005859375,-0.5344721298169345,9.7367856056571,-1.0391036865130066
1776021790049161700,5.12916162109375,-0.4673471703752875,9.722397014820576,-1.1945556756399571
1776021790059222800,5.139222900390625,-0.3952040905106812,9.706647072502971,-1.3398391758434474
1776021790069284600,5.14928466796875,-0.3252171292340383,9.689410691019892,-1.4764606461636722
1776021790079345700,5.159345703125,-0.26372803852120413,9.670276366961001,-1.608289767640829
1776021790089406500,5.169406494140625,-0.21323553985273463,9.648834350481629,-1.7392311464980243
1776021790099467500,5.179467529296875,-0.17281855459464712,9.625160044905543,-1.869983724784851
1776021790109529600,5.189529541015625,-0.13636145854401402,9.600105683147907,-1.9974439835280178
1776021790119590400,5.19959033203125,-0.09514848233633674,9.575229600566624,-2.1157325093001127
1776021790129651500,5.2096513671875,-0.04473467949384358,9.55157283064723,-2.221671548847854
1776021790139712500,5.21971240234375,0.011065854463359573,9.528636776217818,-2.3184729038245973
1776021790149773600,5.229773681640625,0.06570094538736157,9.505663312387465,-2.410070260417461
1776021790159835600,5.239835693359375,0.11438572791358455,9.482221062001585,-2.4989558738335966
1776021790169896700,5.249896728515625,0.15467276664907112,9.458850123286247,-2.5839097007587553
1776021790179957500,5.25995751953125,0.18745750346304849,9.435893610590696,-2.6644220381051302
1776021790190018600,5.2700185546875,0.21590119713172315,9.413273197981715,-2.741175022917986
1776021790200079600,5.28007958984375,0.24337644762704147,9.39097602597773,-2.8143752836853264
1776021790210141700,5.2901416015625,0.27254547816189006,9.368996249359846,-2.884099100513756
1776021790220202800,5.30020263671875,0.306035678097792,9.347398750057817,-2.950059473155439
1776021790230263800,5.310263916015625,0.3469386567745358,9.32642902726531,-3.011268559616804
1776021790240324600,5.32032470703125,0.3979866704339161,9.306283480337262,-3.0667721279129383
1776021790250385400,5.330385498046875,0.4597354167299345,9.287060308951139,-3.1160140054658054
1776021790260447500,5.340447509765625,0.5308713653786108,9.268757759541273,-3.1589085598185656
1776021790270508500,5.350508544921875,0.6069178458899259,9.251872091192007,-3.1945117881193754
1776021790280569000,5.360569091796875,0.6797168323799967,9.237342046058178,-3.221784702709317
1776021790290630000,5.3706298828125,0.7430793705482035,9.226509686398506,-3.238790198045969
1776021790300692000,5.38069189453125,0.7936861797787249,9.219812819108366,-3.245841577862203
1776021790310752800,5.390752685546875,0.8319537319179624,9.216724205443262,-3.2450288001745937
1776021790320813800,5.400813720703125,0.8610148450989276,9.216620745068788,-3.237741858036816
1776021790330875000,5.410875,0.8835627039283513,9.218856541296839,-3.225274298390746
1776021790340936000,5.42093603515625,0.9005342239301651,9.22284824128151,-3.2091245431005953
1776021790350998000,5.430998046875,0.913163915335387,9.228241624757647,-3.18999957139194
1776021790361059000,5.44105908203125,0.9253964241165668,9.235111510527133,-3.166503837253153
1776021790371119900,5.451119873046875,0.9411732544410973,9.242626708462835,-3.1398128142043946
1776021790381181000,5.461180908203125,0.9595240269068628,9.249901667901874,-3.1127213936612006
1776021790391242000,5.471241943359375,0.976563278382644,9.257023482605815,-3.0861382149010894
1776021790401304000,5.481303955078125,0.9875919643320142,9.265291544735431,-3.057681643484533
1776021790411365000,5.491365234375,0.9911335824616253,9.275679083237051,-3.0248689226850867
1776021790421426200,5.50142626953125,0.987718367190659,9.287724325817823,-2.98881210539788
1776021790431487000,5.511487060546875,0.9797473883114755,9.300789559096097,-2.9505577780663965
1776021790441547800,5.5215478515625,0.9702115712683648,9.313674759632349,-2.9128271823480723
1776021790451610000,5.531610107421875,0.9628189037337899,9.325219651475548,-2.8781334701076147
1776021790461671000,5.5416708984375,0.9599509470820426,9.335002209821344,-2.8472143079698085
1776021790471732000,5.55173193359375,0.9617666182018816,9.343519278275966,-2.818513406403363
1776021790481793000,5.56179296875,0.9658827482838183,9.35145825458169,-2.7906390187889336
1776021790491854000,5.57185400390625,0.9681098497487604,9.359341701307892,-2.763302683573961
1776021790501916000,5.581916015625,0.9646521105103194,9.367834219843148,-2.7355989763513207
1776021790511977000,5.59197705078125,0.9550024578291922,9.377544297474623,-2.705550751829147
1776021790522038000,5.6020380859375,0.9423553768977523,9.388484209161996,-2.6718314375787973
1776021790532099000,5.61209912109375,0.9316943552169948,9.400121455463767,-2.634390180195868
1776021790542161000,5.622160888671875,0.9274647548232227,9.411709017404913,-2.5942136526301502
1776021790552222000,5.632221923828125,0.9312819019585847,9.423040558758377,-2.551350370198488
1776021790562283000,5.642282958984375,0.9418111139532178,9.434183884063362,-2.505900578404963
1776021790572344000,5.652343994140625,0.9566885842852294,9.445499058803916,-2.4571684039399027
1776021790582404900,5.66240478515625,0.9756563926707953,9.456989005589485,-2.404964900102466
1776021790592467000,5.672467041015625,0.9990946975339203,9.468104858365654,-2.3509961401581765
1776021790602527700,5.68252783203125,1.025038263216242,9.478339252132177,-2.297993887158483
1776021790612588800,5.6925888671875,1.04900081114918,9.48773310342133,-2.2478683586388826
1776021790622649900,5.70264990234375,1.0702725125629455,9.496505023419857,-2.200297483038157
1776021790632711000,5.7127109375,1.0925129128783941,9.504446337813139,-2.1546056991823015
1776021790642773000,5.72277294921875,1.11515926364623,9.51139981021285,-2.1118935156591236
1776021790652834000,5.732833984375,1.131117441887036,9.518384846794605,-2.0715442618750033
1776021790662894800,5.742894775390625,1.1350273818723857,9.526269462564587,-2.032804050722718
1776021790672956000,5.752955810546875,1.1321515341751276,9.534835630857945,-1.993875331261009
1776021790683018000,5.76301806640625,1.1346224543333052,9.542817277261614,-1.9538909652665257
1776021790693079000,5.7730791015625,1.1500446990665047,9.549175706377625,-1.913389735791087
1776021790703140000,5.78314013671875,1.1778861342594027,9.553760696080326,-1.8731414581634103
1776021790713201200,5.793201171875,1.211367109709233,9.55714858495295,-1.8340956881932913
1776021790723262000,5.803261962890625,1.245743134302646,9.55979939172268,-1.796861351559311
1776021790733324000,5.813323974609375,1.278460578034073,9.562149169719218,-1.7610216841541229
1776021790743385000,5.823385009765625,1.3068557746522127,9.564593640261888,-1.7265766859777272
1776021790753446000,5.83344580078125,1.3288175772219895,9.567519756841659,-1.6932769123136997
1776021790763507000,5.8435068359375,1.345530811613798,9.571143792557717,-1.6592568615511059
1776021790773568000,5.853568115234375,1.3599185256674884,9.575191022121906,-1.6237949414171278
1776021790783629800,5.8636298828125,1.3756855652503668,9.57926981586814,-1.5860190452523528
1776021790793691000,5.87369091796875,1.3972338185831903,9.582871639752387,-1.5448825866132974
1776021790803752000,5.883751953125,1.4256655478194356,9.585723522052168,-1.5005977469459175
1776021790813813000,5.89381298828125,1.4561673613280057,9.588495909374952,-1.4528294490769504
1776021790823874000,5.9038740234375,1.4834392530046403,9.59215560092628,-1.4001302706770598
1776021790833936000,5.913935791015625,1.5075870213113725,9.596513211613892,-1.3433125510424375
1776021790843997000,5.923996826171875,1.5306306277684867,9.60103273486495,-1.2836483559355139
1776021790854058000,5.93405810546875,1.5519434649102388,9.605555765247344,-1.2227744927778839
1776021790864119000,5.944119140625,1.5673074766501784,9.610048985013366,-1.1665781199119984
1776021790874181000,5.95418115234375,1.5722430333562194,9.614588966530562,-1.1216538863625376
1776021790884242200,5.9642421875,1.5706088562831282,9.61891793564558,-1.0862759181849657
1776021790894303000,5.974302978515625,1.5692137486629187,9.622681672093272,-1.0544947323903442
1776021790904363800,5.98436376953125,1.5710615684866904,9.625673255124688,-1.0239935034036636
1776021790914424800,5.9944248046875,1.5758821205109357,9.627874564561248,-0.9955008377604186
1776021790924487000,6.00448681640625,1.5819127789773046,9.629518240115045,-0.9697085901822894
1776021790934548000,6.0145478515625,1.5861575769402085,9.631232642817496,-0.9454346382126212
1776021790944609000,6.024609130859375,1.5877188349075615,9.63333399901092,-0.9210954389870166
1776021790954670000,6.034670166015625,1.587965064753592,9.635509004962444,-0.8976271773770451
1776021790964731000,6.04473095703125,1.5846997793473303,9.63790379114449,-0.8774515275716781
1776021790974793000,6.05479296875,1.5742964587546884,9.641108140143752,-0.8608283826161175
1776021790984854000,6.06485400390625,1.556824953341484,9.645310268008709,-0.8453933514665811
1776021790994915000,6.0749150390625,1.5377980351798235,9.64993032902479,-0.8273074404820799
1776021791004976000,6.08497607421875,1.5234860167108475,9.654369772776962,-0.8015934457719326
1776021791015038000,6.095037841796875,1.5131570765286684,9.658844872364401,-0.7664603922661394
1776021791025099000,6.10509912109375,1.5043458474330602,9.663478961905836,-0.7242101271662861
1776021791035160000,6.11516015625,1.4961716010667383,9.668128833538294,-0.6776114575985819
1776021791045220900,6.125220947265625,1.4879545384719968,9.672679920971394,-0.629014234624803
1776021791055282000,6.135281982421875,1.481016263641417,9.676742348104714,-0.5810850836383179
1776021791065343700,6.14534375,1.4739495401255787,9.68027929005921,-0.5385741583082825
1776021791075404800,6.15540478515625,1.4632413913674651,9.683682961022853,-0.5055746462324634
1776021791085465900,6.1654658203125,1.44971570097059,9.686985509699582,-0.48062034731581804
1776021791095527000,6.17552685546875,1.436962894642353,9.689865449050068,-0.4604497390117496
1776021791105589000,6.185589111328125,1.425451466677338,9.692308166027068,-0.4445885914046317
1776021791115650000,6.195650146484375,1.416447637619078,9.694242348960042,-0.43093562136627733
1776021791125710800,6.2057109375,1.41023840771541,9.695734048822521,-0.41753728367611764
1776021791135772000,6.21577197265625,1.4057730988696218,9.696937579393387,-0.4044250329183414
1776021791145833000,6.2258330078125,1.403421713437885,9.697879244157672,-0.38977227472029624
1776021791155895000,6.23589501953125,1.4028566269010305,9.698858318322896,-0.3667462404524907
1776021791165956000,6.2459560546875,1.3954787916094065,9.700901222327351,-0.3398624713106081
1776021791176017200,6.25601708984375,1.381544374281168,9.70379402115941,-0.31322021930702026
1776021791186078000,6.266077880859375,1.367790720347315,9.70646061002016,-0.29012663622833784
1776021791196138800,6.276138671875,1.3553244758754968,9.708633862406014,-0.2755643693253398
1776021791206201000,6.286201171875,1.3466038476727902,9.710161802625656,-0.26416842096615584
1776021791216262000,6.296261962890625,1.34141490072757,9.711391636681556,-0.24468650731230154
1776021791226323000,6.306322998046875,1.3340278592161834,9.713115976256132,-0.2147268926553428
1776021791236384000,6.316384033203125,1.3261391517929733,9.714923902460932,-0.1788245535437949
1776021791246445800,6.32644580078125,1.319216659053415,9.716447166505455,-0.14397318478990345
1776021791256507000,6.3365068359375,1.3133219019263982,9.71763374594152,-0.11482515137731097
1776021791266568000,6.34656787109375,1.3107812775328755,9.71821125356853,-0.09276015329454093
1776021791276629000,6.35662890625,1.3147984042197465,9.717785721632838,-0.07952381036621518
1776021791286690000,6.36668994140625,1.3224370824046432,9.716768653544783,-0.07731631778404116
1776021791296751900,6.376751953125,1.331388596753776,9.715497318434714,-0.08313200005916878
1776021791306813000,6.38681298828125,1.343227503107488,9.713799282345175,-0.09078181155943311
1776021791316874000,6.3968740234375,1.356846717006713,9.711882050547004,-0.09327562853600829
1776021791326935000,6.40693505859375,1.3647361550822854,9.710837509930133,-0.08664460215684958
1776021791336996000,6.41699609375,1.3654269138254225,9.710881933593749,-0.06894496424330863
1776021791347058200,6.42705810546875,1.362722477172315,9.711417355644702,-0.041521685963822524
1776021791357119000,6.437118896484375,1.3569804263889789,9.712307582482696,-0.008460461162868887
1776021791367180000,6.447179931640625,1.3481382176332175,9.71350760592222,0.02635436583976261
1776021791377241000,6.457240966796875,1.3338653621308505,9.715336574915051,0.05870275249651167
1776021791387303200,6.46730322265625,1.3139512858711182,9.71783774408102,0.08678201046669855
1776021791397364200,6.4773642578125,1.291165161306411,9.720648709848522,0.11089699988183564
1776021791407425300,6.48742529296875,1.266444561547786,9.723652567839622,0.13070033664293587
1776021791417486000,6.497486083984375,1.2409253587573765,9.726683313837647,0.148750345196994
1776021791427547000,6.507546875,1.2166078599069268,9.729490772473811,0.16514182768799363
1776021791437609000,6.51760888671875,1.1940029371280223,9.732025843909382,0.18008911185320467
1776021791447670000,6.527669921875,1.1776870314907282,9.733685886076092,0.19699419728899373
1776021791457731000,6.53773095703125,1.1684507088508456,9.734434658616781,0.21414980515344068
1776021791467792100,6.547792236328125,1.1619934224702417,9.7349776794523,0.22448729396825656
1776021791477854000,6.55785400390625,1.1536047296356409,9.735921682304143,0.22668889566576106
1776021791487915000,6.5679150390625,1.1420821957547216,9.737334471711517,0.2243621697512455
1776021791497976000,6.57797607421875,1.1294785886388272,9.738896898722649,0.22030056460183112
1776021791508037000,6.588037109375,1.1195119058977812,9.740115042340754,0.2173192472361028
1776021791518098200,6.59809814453125,1.1130893255043774,9.740839849483967,0.21780449173608793
1776021791528160000,6.608159912109375,1.1093321649279444,9.741182379311322,0.2216934619986452
1776021791538221000,6.618220947265625,1.1039904385738075,9.741619601684809,0.22898707133922724
1776021791548282000,6.6282822265625,1.0955425628978759,9.742310506558418,0.23992396908560767
1776021791558343200,6.63834326171875,1.0838686378475277,9.743265030804276,0.2537737403376959
1776021791568404000,6.648404052734375,1.0683520658943801,9.744594233581424,0.26813147937823084
1776021791578466000,6.658466064453125,1.0492902956150472,9.746318573155998,0.2804555023677647
1776021791588526800,6.66852685546875,1.0292426561035215,9.748111886313557,0.29214955689068883
1776021791598588000,6.678587890625,1.0102725826956331,9.749733934557437,0.3040369602949358
1776021791608649000,6.68864892578125,0.9939675637785345,9.751046770721674,0.31540337203238156
1776021791618711000,6.6987109375,0.9801245510607958,9.752056824547052,0.32730230147764083
1776021791628772000,6.708772216796875,0.9686872112452983,9.752776955515145,0.33970103367120025
1776021791638833200,6.718833251953125,0.9588946429621428,9.753338681051135,0.3511483468914404
1776021791648894000,6.72889404296875,0.9501688271276653,9.75381448186934,0.36151758255138994
1776021791658955000,6.738955078125,0.9418735116649418,9.754294958862662,0.37011315960232166
1776021791669017000,6.74901708984375,0.9310149215854704,9.755115043073893,0.37590862107332795
1776021791679078100,6.759078125,0.9164611302498727,9.756355398523807,0.3794991563785821
1776021791689139200,6.76913916015625,0.8998342589672654,9.757858204302192,0.38060839626211673
1776021791699200300,6.7792001953125,0.8842313969701528,9.759282099625468,0.3806905946528539
1776021791709262000,6.789261962890625,0.8713511648699641,9.760461080276965,0.38014549145810306
1776021791719323100,6.7993232421875,0.8634547855969518,9.761187056463957,0.37954343391172585
1776021791729384000,6.809384033203125,0.8597595843408257,9.761484578105806,0.3802578657913953
1776021791739445000,6.819445068359375,0.8578752318989485,9.7615360160321,0.383218176901713
1776021791749506000,6.829506103515625,0.8567089645985514,9.761485747149585,0.3870851179955527
1776021791759568000,6.83956787109375,0.8536833331670611,9.761690329810977,0.38860735912676897
1776021791769629000,6.84962890625,0.8521116999361663,9.761896081516147,0.3869149490604177
1776021791779690000,6.85968994140625,0.8579846105575561,9.761451844879984,0.3851278829805553
1776021791789751000,6.8697509765625,0.8719529301553964,9.7602097358644,0.3852572449812665
1776021791799813000,6.879813232421875,0.8892072856865822,9.758556123438478,0.38765590362083163
1776021791809874200,6.889874267578125,0.9054643007434904,9.756857502827048,0.3927437648117542
1776021791819935000,6.89993505859375,0.9175109315637499,9.755579737976193,0.39648693339545277
1776021791829996000,6.90999609375,0.9283259016972034,9.754599494767188,0.3954305562103167
1776021791840057000,6.92005712890625,0.9454562655225396,9.753114809167384,0.3914608488617465
1776021791850119200,6.930119140625,0.9727786452773958,9.750551096159219,0.38839258386492725
1776021791860180200,6.94018017578125,1.0083026708621532,9.746943427056074,0.38831078733298924
1776021791870241300,6.9502412109375,1.0493839652478694,9.742523272526263,0.3903941694783047
1776021791880302000,6.960302001953125,1.0908104198094457,9.73796107917726,0.390652126294747
1776021791890364200,6.9703642578125,1.1322955457556991,9.733340433639288,0.38776056957170363
1776021791900425000,6.980425048828125,1.1757336324006318,9.728414083153009,0.38211339399758726
1776021791910486000,6.990486083984375,1.2203938081864267,9.723237557297944,0.37375630187764763
1776021791920547000,7.000547119140625,1.2673320119068026,9.71753788435161,0.36569980013947934
1776021791930608000,7.010608154296875,1.3158750935405492,9.711323247620463,0.3592113514356315
1776021791940670000,7.020669921875,1.3657619909986853,9.70461585893631,0.3542543866153806
1776021791950731000,7.03073095703125,1.4164433998353778,9.697513333454728,0.3496989152681082
1776021791960792000,7.0407919921875,1.4662515329688786,9.690282213157415,0.3448299209922552
1776021791970853000,7.05085302734375,1.5150697782821951,9.682994394236802,0.3384752547359094
1776021791980914200,7.0609140625,1.5636939623281358,9.675559275799989,0.32981231153719126
1776021791990976000,7.07097607421875,1.6123732375621795,9.667862291556597,0.3210161338802427
1776021792001037000,7.081037109375,1.6637402905754743,9.65935048379898,0.31517095151599495
1776021792011098000,7.09109814453125,1.7174992071613668,9.65004372627139,0.3118270113829523
1776021792021159200,7.1011591796875,1.7699411959297955,9.64071943308711,0.306945778680034
1776021792031221200,7.11122119140625,1.8170020761817693,9.632204118198155,0.29921050825286655
1776021792041282000,7.121281982421875,1.8580086248308418,9.624690673828125,0.28897216896358874
1776021792051342800,7.1313427734375,1.8981066803328692,9.617129883185028,0.2800045071972534
1776021792061404000,7.14140380859375,1.9403367794275284,9.608881694799662,0.2736503889301792
1776021792071466000,7.151466064453125,1.982686997770518,9.600402035745978,0.2676562813482247
1776021792081527000,7.161527099609375,2.0206360585451124,9.592652444532513,0.2616126538024284
1776021792091588000,7.171588134765625,2.05133865532279,9.586305121332407,0.25525212406087666
1776021792101649200,7.181649169921875,2.0773282521039245,9.580844517838955,0.2500734793139621
1776021792111710000,7.1917099609375,2.101948021836579,9.575562778043746,0.24652210697531698
1776021792121772000,7.20177197265625,2.12387811409384,9.570812368646264,0.2430448227861896
1776021792131833000,7.2118330078125,2.1409746487148107,9.5670527238518,0.2410404606938362
1776021792141894100,7.22189404296875,2.150291343114525,9.564985854449867,0.24015023385584353
1776021792151955200,7.231955078125,2.1493457328274843,9.565246551212669,0.23822136641880495
1776021792162017000,7.24201708984375,2.137909123664349,9.567859948581457,0.23613579231640322
1776021792172078000,7.252078125,2.119856165101379,9.571898410317301,0.2352010504832491
1776021792182139100,7.26213916015625,2.1000719988316296,9.576288754230736,0.23408622110914437
1776021792192200000,7.272199951171875,2.0787179528966546,9.58103682554066,0.2303328599249944
1776021792202261000,7.282260986328125,2.0524267428204417,9.586843465992807,0.2244097534863278
1776021792212323000,7.292322998046875,2.0184075688406824,9.594238252419233,0.2168534198226407
1776021792222383900,7.3023837890625,1.978250915019214,9.602814357584714,0.20710901979645713
1776021792232445000,7.31244482421875,1.937331606262177,9.611396892490982,0.19543480248516423
1776021792242506000,7.322506103515625,1.8983486723951994,9.619449266043304,0.18125552528407424
1776021792252567000,7.332567138671875,1.8612082976549862,9.627001288858056,0.1648003390402533
1776021792262629000,7.342629150390625,1.8250170403331518,9.634217211586236,0.14692185112820005
1776021792272690200,7.352690185546875,1.7884946513608098,9.641321490633487,0.12871683467552064
1776021792282751000,7.3627509765625,1.751588377637416,9.64832990809083,0.10969567040121182
1776021792292812000,7.37281201171875,1.7160877329282462,9.654918054309487,0.0894006137335673
1776021792302874000,7.3828740234375,1.6842369890287519,9.660692546057701,0.06875757474531419
1776021792312935200,7.39293505859375,1.65820472214967,9.665324297511576,0.047160655398597005
1776021792322996200,7.402996337890625,1.637670760425925,9.668910923826694,0.024424011981824877
1776021792333057300,7.413057373046875,1.6210383361853657,9.671744685947894,0.0005307382054126719
1776021792343118000,7.4231181640625,1.6069715246491134,9.674057054543495,-0.02551669117291458
1776021792353180200,7.43318017578125,1.5948540936149656,9.675946229290961,-0.05379067256418057
1776021792363241000,7.443240966796875,1.585400474962592,9.677285368940234,-0.08382421097387559
1776021792373302000,7.453302001953125,1.5778765091985463,9.67820715996027,-0.11394516280554234
1776021792383363000,7.463363037109375,1.570677099213749,9.679003278774022,-0.1423119096473325
1776021792393425000,7.4734248046875,1.5643116558350623,9.679614688670634,-0.16845862408578394
1776021792403486000,7.48348583984375,1.5612183659948409,9.679636315980552,-0.19398398262234404
1776021792413547000,7.493547119140625,1.5621280281856655,9.678941903975605,-0.21961373311514035
1776021792423608000,7.503608154296875,1.5658382808804512,9.677750648364425,-0.24434964004075152
1776021792433670100,7.513670166015625,1.5718360599905252,9.676168347609043,-0.2673980505371466
1776021792443731000,7.52373095703125,1.5779662333086133,9.674557989802956,-0.2887171347565949
1776021792453792000,7.5337919921875,1.5834906958185135,9.673028296017646,-0.30903836704511195
1776021792463853000,7.54385302734375,1.59095255613178,9.671142043879627,-0.32900607318822295
1776021792473914000,7.5539140625,1.6021202852256595,9.668623923578858,-0.34829376117791977
1776021792483976200,7.56397607421875,1.6167741028696299,9.665518358778954,-0.3662921765420586
1776021792494037200,7.574037353515625,1.6342035227067768,9.66195978951454,-0.382469587024115
1776021792504098000,7.58409814453125,1.6533458839416504,9.658109543827175,-0.39715628402438014
1776021792514158800,7.594158935546875,1.6764469196744263,9.653668346509336,-0.40814745097495614
1776021792524221000,7.604220947265625,1.7052832841888068,9.648367902013659,-0.41399405811130996
1776021792534282000,7.614281982421875,1.73759375455454,9.642522098594903,-0.41581447847150266
1776021792544343000,7.624343017578125,1.771389056650549,9.636350716483593,-0.4162801232218742
1776021792554404000,7.634404052734375,1.8067523387156426,9.629702949032186,-0.4181682750560343
1776021792564465200,7.644465087890625,1.845405602236837,9.622238019979,-0.421185065593943
1776021792574527000,7.65452685546875,1.887514997561276,9.613953591236472,-0.4237625879317522
1776021792584588000,7.664588134765625,1.934714263370633,9.60454045072496,-0.42433425033986566
1776021792594649000,7.674649169921875,1.9869545920871197,9.593920857033133,-0.42313524981364603
1776021792604710100,7.684710205078125,2.041459650865197,9.582461889907718,-0.4234132630374282
1776021792614772000,7.69477197265625,2.097812529467046,9.570088146024942,-0.42773788477089253
1776021792624833000,7.7048330078125,2.1576433133125303,9.556432545638083,-0.43534828670937564
1776021792634894000,7.71489404296875,2.2220424279868602,9.541280569213628,-0.4437095070151612
1776021792644955100,7.724955078125,2.2903521402336655,9.524802312621473,-0.45037901137433944
1776021792655016000,7.735015869140625,2.359875612184405,9.50761444645524,-0.4546017436359077
1776021792665078300,7.745078369140625,2.4245219796180724,9.49125893945992,-0.45616614340841766
1776021792675139000,7.75513916015625,2.4835475845605135,9.476146710523963,-0.4527991877259686
1776021792685200000,7.765199951171875,2.540052731114626,9.46156581198573,-0.4441944409878924
1776021792695261000,7.775260986328125,2.594590961509943,9.447193003240226,-0.4347526223711669
1776021792705323000,7.785322998046875,2.650124924944341,9.432067330300807,-0.4281504841597751
1776021792715384000,7.795384033203125,2.7091142895296216,9.41544761941135,-0.42477910803053526
1776021792725445000,7.805445068359375,2.766090852987766,9.398945397421716,-0.4230573257392272
1776021792735506200,7.815506103515625,2.8154174862146375,9.38442821176946,-0.41989973849114026
1776021792745567000,7.82556689453125,2.8561884725421667,9.372440836855768,-0.41224619153067465
1776021792755629000,7.835629150390625,2.8917227272599932,9.362118180283904,-0.398890816199407
1776021792765690000,7.845690185546875,2.9241420648276804,9.352771675267816,-0.3813941032797098
1776021792775751200,7.855751220703125,2.9577003432974216,9.342978011006116,-0.36216811888199296
1776021792785812200,7.865812255859375,2.994185322868824,9.332052712365984,-0.34357944600712503
1776021792795874000,7.8758740234375,3.0274633230924604,9.321893721923232,-0.3273526799580082
1776021792805935000,7.88593505859375,3.0507328472599387,9.314784766700864,-0.31339670838508754
1776021792815996200,7.89599609375,3.0611060649752617,9.311765711140632,-0.30175747105563056
1776021792826057000,7.906056884765625,3.058743427497148,9.312817850542068,-0.2930925916281529
1776021792836119000,7.916119140625,3.0440266276195644,9.317827203136682,-0.2870294556642882
1776021792846179800,7.926179931640625,3.0190067526534197,9.326088835525512,-0.2829327974678017
1776021792856241000,7.936240966796875,2.982157908205688,9.33808439374566,-0.2780058076607063
1776021792866302000,7.946302001953125,2.9315350976884362,9.354407167515157,-0.26751804192131384
1776021792876363000,7.956363037109375,2.8683611408948897,9.374501276516915,-0.24823205269835888
1776021792886425000,7.966425048828125,2.7927129024535415,9.397945864990353,-0.22308340025339274
1776021792896486100,7.976486083984375,2.709373232726753,9.422930084121226,-0.19518961381874977
1776021792906547000,7.986546875,2.6307725742205976,9.44571124024987,-0.1672093546770513
1776021792916608000,7.99660791015625,2.5666180819571016,9.463726789411902,-0.1439038824133575
1776021792926670000,8.006670166015626,2.5201219959810373,9.47642903459668,-0.1290322390339337
1776021792936731100,8.016731201171876,2.4875945218637585,9.485077035954594,-0.12473469710364006
1776021792946792200,8.026792236328125,2.457958969795704,9.492741871494054,-0.1291975765303243
1776021792956853200,8.036853271484375,2.4253562384851275,9.500947974303363,-0.14142438622307962
1776021792966914000,8.0469140625,2.3920303074665368,9.509002101421355,-0.16563489016825333
1776021792976976100,8.05697607421875,2.3614646349415183,9.515938622686267,-0.20186759374532848
1776021792987037000,8.067036865234375,2.335619268936664,9.521457678368687,-0.2390387654826045
1776021792997098000,8.077097900390624,2.317667578791082,9.525101587828994,-0.26696093776151536
1776021793007159000,8.087158935546874,2.3060985754199326,9.527015897017717,-0.2970811132750474
1776021793017220900,8.097220947265624,2.305271769206971,9.525605445697902,-0.3448732121447101
1776021793027282000,8.107281982421876,2.323956157541275,9.518221765187382,-0.41604404944367707
1776021793037343000,8.117343017578126,2.3626520911604163,9.504129526948928,-0.5097087868951261
1776021793047404000,8.127404052734375,2.412672844131291,9.484977667233347,-0.6201596778441221
1776021793057465000,8.137465087890625,2.4610288787603376,9.46464390425682,-0.7309230688083916
1776021793067527200,8.147527099609375,2.4953692475184797,9.447983276835084,-0.8240868710003793
1776021793077588000,8.157587890625,2.5082065172597763,9.437938268160819,-0.8970135755233466
1776021793087649000,8.16764892578125,2.5098998771741985,9.433547339725493,-0.9375549178134649
1776021793097710000,8.1777099609375,2.507626671545207,9.434466208136081,-0.9343841788228601
1776021793107772200,8.187772216796875,2.5120573474690318,9.436030388712883,-0.9062224256344139
1776021793117833200,8.197833251953124,2.5628794799506665,9.424450425556302,-0.8841767441734671
1776021793127894300,8.207894287109376,2.6676570745036003,9.393541492551565,-0.9029755526676774
1776021793137955000,8.217955078125,2.785537311735749,9.354149393361807,-0.9544841330435127
1776021793148015900,8.228015869140625,2.8868060213848947,9.318218832802772,-1.0037589630179107
1776021793158078000,8.238077880859375,2.9654610404267907,9.290297391176223,-1.0328647921234368
1776021793168139000,8.248138916015625,3.0253283568903804,9.269567906880377,-1.0454109699636698
1776021793178200000,8.258199951171875,3.0622827075392007,9.255684342956542,-1.0607139722313732
1776021793188261000,8.26826123046875,3.0560271542757746,9.25408567558825,-1.0922426445696503
1776021793198323000,8.278322998046875,2.9889380698651076,9.272257292094826,-1.123331756446883
1776021793208384000,8.288384033203124,2.8775302435174583,9.306924116328359,-1.1275509815771132
1776021793218445000,8.298445068359374,2.7589135087043046,9.34511385399103,-1.1079840382546187
1776021793228506000,8.308506103515626,2.6632453955411908,9.376299265849589,-1.078196729690954
1776021793238568200,8.318568115234376,2.603645790103078,9.397268988642097,-1.0405402221221476
1776021793248629000,8.32862890625,2.568472769913077,9.412043363925815,-0.9933714975815265
1776021793258690000,8.33868994140625,2.531991005212068,9.427515658345818,-0.9387993649166076
1776021793268751000,8.348751220703125,2.486508187931776,9.445133732622862,-0.8815282754912972
1776021793278812200,8.358812255859375,2.4420104361660777,9.461310960441827,-0.8310030801296233
1776021793288874000,8.3688740234375,2.412226123277098,9.471939906483888,-0.7961877142708748
1776021793298935000,8.37893505859375,2.3983329147420824,9.476865087926388,-0.779367293177545
1776021793308995800,8.388995849609374,2.391490939892828,9.4788933788836,-0.7757024870596826
1776021793319057000,8.399056884765624,2.384711947277188,9.48012555102706,-0.7814959757693112
1776021793329119000,8.409118896484374,2.367550092335045,9.48331353341341,-0.7949020583745092
1776021793339180000,8.419179931640626,2.3340333149194716,9.491041497316957,-0.8017485632684082
1776021793349241000,8.429240966796876,2.2971549521163106,9.500984214660525,-0.7904289315484464
1776021793359302100,8.43930224609375,2.2758757249832153,9.50780149345994,-0.7697375873059034
1776021793369364000,8.449364013671875,2.2781863400131463,9.508352697601914,-0.7559688819333911
1776021793379425000,8.459425048828125,2.2964937117286026,9.504981175342202,-0.7428564485125243
1776021793389486000,8.469486083984375,2.3281350506611167,9.500106262782216,-0.7058212146472186
1776021793399547000,8.479546875,2.3637829948864875,9.495478602981567,-0.6471310522042214
1776021793409608000,8.48960791015625,2.3747169152244925,9.49578898410499,-0.6009188246708363
1776021793419669800,8.499669677734374,2.355842265015095,9.502085453900694,-0.5751018810428679
1776021793429730800,8.509730712890626,2.331888557975739,9.509456274929642,-0.5503711617490277
1776021793439791900,8.5197919921875,2.3199562742501496,9.513239300599693,-0.535225797728449
1776021793449853000,8.52985302734375,2.3156639838837085,9.513756602472066,-0.5445530865874141
1776021793459915000,8.5399150390625,2.307404689582437,9.514156999966502,-0.5719111587101593
1776021793469976000,8.54997607421875,2.2899615334808825,9.516362985578178,-0.60440177141577
1776021793480036900,8.560036865234375,2.265102402034402,9.520458730459213,-0.6329112420633435
1776021793490098000,8.570097900390625,2.2409316912434996,9.524797051924466,-0.6533635899182408
1776021793500160000,8.580159912109375,2.2289120214954017,9.527039277893305,-0.6617037674359977
1776021793510221000,8.590220947265625,2.2301943163909015,9.526962121003866,-0.6584806406710296
1776021793520282000,8.6002822265625,2.2345142254166306,9.52639221216142,-0.6520628825832158
1776021793530343200,8.61034326171875,2.2324203218773007,9.527111758607626,-0.6487249703321606
1776021793540404000,8.620404052734376,2.221363067420572,9.529561489847302,-0.650678734748438
1776021793550466000,8.630466064453126,2.201710418576002,9.533661326381564,-0.6573929915647954
1776021793560527000,8.640527099609375,2.1791785610333085,9.53834685384929,-0.6644753510411828
1776021793570588000,8.650587890625,2.1577311377264556,9.543060438367723,-0.6667631697174161
1776021793580649000,8.66064892578125,2.1357466849334537,9.548367897126077,-0.6615321371961385
1776021793590710800,8.670710693359375,2.111675781255215,9.554713466760516,-0.6470513380315155
1776021793600771800,8.680771728515625,2.0874336126632986,9.561631283324957,-0.623051453762874
1776021793610833000,8.6908330078125,2.063885709945857,9.568669511398673,-0.5927241565709933
1776021793620894000,8.70089404296875,2.041737298762798,9.575435936793685,-0.5592081463404
1776021793630956000,8.7109560546875,2.0207070779547096,9.581773907643557,-0.52602604423929
1776021793641017000,8.72101708984375,2.0003106250055134,9.587653613331913,-0.49599016774203625
1776021793651078000,8.731077880859376,1.9792526394076644,9.59340472420454,-0.4685631585689261
1776021793661139000,8.741138916015625,1.9569377856165169,9.599093875756859,-0.44513566736076027
1776021793671200000,8.751199951171875,1.9342950150452554,9.604535190027951,-0.4263758757026866
1776021793681262000,8.761261962890625,1.9097972642570733,9.610320203170179,-0.4059604623246938
1776021793691323100,8.7713232421875,1.8875228886067865,9.615827568414806,-0.3788176038552075
1776021793701384200,8.78138427734375,1.8676753017120062,9.620909986245632,-0.34683395429104563
1776021793711444700,8.79144482421875,1.84636041874364,9.626458852544426,-0.3043912536253221
1776021793721507000,8.801507080078125,1.8211672330372035,9.632745385468006,-0.2528675487455912
1776021793731567900,8.81156787109375,1.793681552479416,9.638950669848919,-0.20905408944962545
1776021793741629000,8.82162890625,1.7623295518822968,9.645277534782887,-0.18216842061160132
1776021793751690000,8.83168994140625,1.725606964162737,9.652269585627318,-0.16239247418092562
1776021793761751800,8.841751708984376,1.6880305360928176,9.659334701707959,-0.13484773864597083
1776021793771812900,8.851812744140625,1.6543091760158537,9.665610713237523,-0.09804816756690851
1776021793781874000,8.8618740234375,1.6269333855733275,9.670574473124741,-0.058882780671957874
1776021793791935000,8.87193505859375,1.6073120086498558,9.674008539226651,-0.02179313375527272
1776021793801996000,8.88199609375,1.5945906203731894,9.676128015598653,0.01352816091517452
1776021793812057900,8.892057861328125,1.5863419935964047,9.677378307920694,0.04753346619978547
1776021793822119000,8.902118896484374,1.5792964589990675,9.678314127466082,0.08037173243244178
1776021793832180000,8.912179931640624,1.5697325118400156,9.679525841343402,0.11447007259563542
1776021793842241000,8.922240966796876,1.555371393532306,9.681359486511349,0.14988223530375397
1776021793852303000,8.93230322265625,1.5368927569031714,9.683704588332771,0.18498439134778455
1776021793862364200,8.9423642578125,1.5169403944596647,9.686125093477964,0.2196287662874907
1776021793872425000,8.952425048828125,1.4985269320212304,9.688153384435177,0.25393358880821615
1776021793882485800,8.96248583984375,1.481287627928704,9.689819856342673,0.2890318267289549
1776021793892548000,8.972548095703125,1.4650706526212394,9.691164256688952,0.32451800452135504
1776021793902609000,8.98260888671875,1.4492283558450638,9.69230699698329,0.35955797291621566
1776021793912670000,8.992669921875,1.429309895671159,9.693969377237558,0.39294410968944427
1776021793922731000,9.00273095703125,1.406380124852061,9.695917588695883,0.4261842986533418
1776021793932792000,9.0127919921875,1.3843907036229968,9.697332131668924,0.4643505093099549
1776021793942854000,9.02285400390625,1.361338913859427,9.698112468391656,0.5135971361031756
1776021793952915000,9.0329150390625,1.332202981876582,9.698675362971425,0.5755989803774282
1776021793962976000,9.04297607421875,1.2931743091717363,9.699714058369398,0.6431611987251789
1776021793973037000,9.053037109375,1.2520647385396062,9.701327338784932,0.6978344536770135
1776021793983099000,9.063098876953125,1.2220094266895205,9.70329133233428,0.72335891716443
1776021793993160000,9.073159912109375,1.2038579031229018,9.705737556442617,0.7209726796150208
1776021794003221000,9.083220947265625,1.1931947625502943,9.708303607538342,0.7039396386843174
1776021794013282000,9.093281982421875,1.1879725709225981,9.709908120125531,0.6905198198147118
1776021794023344000,9.10334423828125,1.180909354538098,9.710465754008293,0.6947592840153723
1776021794033405200,9.1134052734375,1.1651224412109702,9.710839848017692,0.7158816400863229
1776021794043465700,9.1234658203125,1.138820782805979,9.711747610512376,0.7452860868122428
1776021794053526800,9.13352685546875,1.1083088132295758,9.713072137114406,0.7734719515286386
1776021794063587800,9.143587890625,1.0800850276555864,9.714818688520788,0.7912787533108144
1776021794073650000,9.15364990234375,1.0560239147190005,9.71731518151164,0.793087702428922
1776021794083711000,9.1637109375,1.036159668950364,9.720543495908379,0.7796062895651906
1776021794093772000,9.17377197265625,1.0193317221377045,9.724283851480484,0.7547436509873717
1776021794103833000,9.1838330078125,1.0023464658714831,9.727793905428051,0.731922382044047
1776021794113895000,9.19389501953125,0.9684808019530028,9.730947401022911,0.7355893801189959
1776021794123956000,9.2039560546875,0.9135196699704974,9.733775317925215,0.767791787000373
1776021794134017000,9.21401708984375,0.8624597832102328,9.736043847379088,0.7975012080222368
1776021794144078000,9.224078125,0.8439827540162951,9.737878661590814,0.7948554427538067
1776021794154140000,9.234139892578124,0.8547505240071565,9.73930606404543,0.765331169040501
1776021794164201000,9.244200927734376,0.8655978620402515,9.740918759939074,0.7318810271203517
1776021794174262000,9.254261962890626,0.8691589885879307,9.743159816864132,0.6969977836571634
1776021794184323000,9.264322998046875,0.8659694718316197,9.746626616191863,0.6509881660237908
1776021794194384000,9.2743837890625,0.8572538851302116,9.750942141303419,0.5955152120616287
1776021794204446000,9.284446044921875,0.8410686932004988,9.755665078172088,0.5384982435278595
1776021794214506800,9.2945068359375,0.8209384899720549,9.759714061301946,0.4943878105793148
1776021794224567800,9.30456787109375,0.8088977043706923,9.761595052742958,0.47680276178903874
1776021794234628900,9.31462890625,0.8116397696204483,9.760762109050154,0.4890247491762042
1776021794244691000,9.32469091796875,0.8273965070050209,9.757929515972734,0.518292308182083
1776021794254752000,9.334751953125,0.8473996497876942,9.754424138200282,0.550918858759664
1776021794264813000,9.34481298828125,0.8616296890616416,9.751507958492637,0.5796911085292696
1776021794274873900,9.354873779296875,0.8679240399654954,9.74958137434423,0.6023032647665589
1776021794284936000,9.36493603515625,0.8659004982486367,9.748791685271263,0.6177759975779801
1776021794294997000,9.3749970703125,0.8567657362870872,9.749133630576729,0.6250731688488275
1776021794305058000,9.38505810546875,0.8457489599712192,9.750067696556448,0.6255166017673909
1776021794315119000,9.395119140625,0.838275409220159,9.750742819339036,0.6250554870616645
1776021794325181000,9.405180908203125,0.8328717235457151,9.750933957996963,0.6292834069550037
1776021794335242000,9.415241943359375,0.8280661498948931,9.750722361072897,0.63881352490969
1776021794345303000,9.425302978515624,0.8275545471109449,9.749933256521821,0.6514095332410186
1776021794355364000,9.435364013671874,0.8330305673692375,9.748580088347197,0.6645837798517197
1776021794365426200,9.44542626953125,0.8391147095885128,9.74711644553542,0.6782249133218079
1776021794375487000,9.455487060546876,0.8466489775508642,9.74547627711296,0.692295378119871
1776021794385547800,9.4655478515625,0.8546596308533102,9.743720957878232,0.7070058213219046
1776021794395608800,9.47560888671875,0.8606499573092907,9.741999540913104,0.723276061186567
1776021794405670000,9.485669921875,0.8677965411283075,9.739967742824554,0.7418607154734432
1776021794415732000,9.49573193359375,0.8771618969753384,9.73751275088787,0.7627701594460755
1776021794425793000,9.50579296875,0.8857613099511712,9.734813428801298,0.7868988577261566
1776021794435854000,9.51585400390625,0.8951071573801338,9.731723646092414,0.814067727419734
1776021794445915000,9.525914794921874,0.9070678634826094,9.728277889552713,0.8415579380221665
1776021794455977000,9.53597705078125,0.9190427442409098,9.724895845898985,0.8672813581477851
1776021794466038000,9.5460380859375,0.9311685777772217,9.721839965459704,0.8883506688572466
1776021794476099000,9.55609912109375,0.9407912693861872,9.71953227303922,0.9033239277139306
1776021794486160100,9.56616015625,0.944976080790162,9.71808148970902,0.9144988902661949
1776021794496222000,9.576221923828125,0.9446387385945767,9.717149177294969,0.9246944133270532
1776021794506283000,9.586282958984375,0.9414921111319213,9.716375270313025,0.9359615842074155
1776021794516344000,9.596343994140625,0.9393995958320795,9.71519044444263,0.950257089933008
1776021794526404900,9.60640478515625,0.9443627711974084,9.713068629983066,0.9668715401254594
1776021794536466000,9.6164658203125,0.9555147912655025,9.710130822965501,0.9852565071217715
1776021794546527700,9.62652783203125,0.9686362847756594,9.707036364081501,1.002786610854417
1776021794556588800,9.6365888671875,0.9780764594245701,9.704584879276156,1.0172489245142786
1776021794566649900,9.64664990234375,0.980195716600865,9.702987380951642,1.03037611711286
1776021794576711000,9.6567109375,0.9763022162936628,9.70239701384306,1.039590739377588
1776021794586773000,9.66677294921875,0.9705964058674872,9.702705056878925,1.0420521610550582
1776021794596834000,9.676833984375,0.9634627545952796,9.703566642144322,1.0406368143644182
1776021794606894800,9.686894775390625,0.9549736701261251,9.704731009748578,1.0376067990187554
1776021794616956000,9.696955810546875,0.94807580037117,9.705693132779002,1.034927642937377
1776021794627018000,9.70701806640625,0.9424676781658082,9.705995915117859,1.0372027482625097
1776021794637079000,9.7170791015625,0.9361148750729859,9.705473352548479,1.0478002762529999
1776021794647140000,9.72714013671875,0.9278349763751029,9.704248779189586,1.0663438678771258
1776021794657201200,9.737201171875,0.91605123427473,9.702888012230396,1.0886728963240981
1776021794667263000,9.747262939453124,0.902073635391891,9.701679805484414,1.1108882352635263
1776021794677324000,9.757323974609376,0.885062879358232,9.700898299717903,1.1312049009747802
1776021794687385000,9.767385009765626,0.8595601162459701,9.701173609527945,1.1483796153984964
1776021794697446000,9.77744580078125,0.8284683740202337,9.702353174701333,1.1611951847646385
1776021794707507000,9.7875068359375,0.8015074479889124,9.703833184126019,1.167735180992633
1776021794717568800,9.79756884765625,0.7823756081480533,9.705935124841332,1.1632304169192909
1776021794727629800,9.8076298828125,0.7716887213736772,9.709169284456967,1.1432149991769343
1776021794737691000,9.81769091796875,0.7730467849191278,9.711648241791128,1.121024575483054
1776021794747752000,9.827751953125,0.7815873073145747,9.71023019168675,1.12736130422391
1776021794757814000,9.83781396484375,0.7875680622246116,9.703982237207889,1.1759460330422966
1776021794767875000,9.847875,0.7814079321596771,9.695518944767118,1.2476774633660912
1776021794777936000,9.857935791015626,0.7558462784670293,9.68898457456231,1.312505617107451
1776021794787997000,9.867996826171876,0.7195973726738244,9.686773328253626,1.3486986279949544
1776021794798059000,9.87805908203125,0.6976494524989276,9.688897480800748,1.3449597337275743
1776021794808120000,9.8881201171875,0.7033590623173862,9.693510527554153,1.308243868009746
1776021794818181000,9.89818115234375,0.7239122401982545,9.69917045301199,1.2539542055480182
1776021794828242200,9.9082421875,0.7392837776575237,9.70612334088981,1.189541793000698
1776021794838304000,9.918303955078125,0.7345590872231871,9.714998136740922,1.1178658191911877
1776021794848365000,9.928364990234375,0.7071587468612939,9.725270524430274,1.0437534850802273
1776021794858425900,9.93842578125,0.6672384590789675,9.73497651040852,0.9774432760875672
1776021794868487000,9.94848681640625,0.6255112680051476,9.741766316679119,0.936540187812969
1776021794878548000,9.9585478515625,0.5875817887138575,9.7438530598253,0.93940807139948
1776021794888609800,9.96860986328125,0.5691994155334308,9.741202837577461,0.9774225986257195
1776021794898670800,9.9786708984375,0.5887810084357857,9.735546419250964,1.0211886751160024
1776021794908732000,9.98873193359375,0.628414295970276,9.729635733902454,1.0534119786549359
1776021794918793000,9.99879296875,0.6669526278749108,9.725459909522533,1.0681715947609394
1776021794928855000,10.00885498046875,0.7052568587627261,9.721647657757996,1.0782263211116194
1776021794938915800,10.018915771484375,0.7365494573228061,9.717155022513866,1.097628648456931
1776021794948977000,10.028976806640625,0.757497260544449,9.712701550236345,1.1225012969721109
1776021794959038000,10.039037841796874,0.7788448767386377,9.709615859180689,1.1345240354601294
1776021794969100000,10.04910009765625,0.7998402454290539,9.709190327244997,1.123498783576861
1776021794979161000,10.0591611328125,0.8069812762901186,9.711970313352346,1.0939745829287917
1776021794989222100,10.06922216796875,0.795540721604228,9.717792735895515,1.0497711379345507
1776021794999283200,10.079283203125,0.7758780628222972,9.724894092333317,0.9974184348847717
1776021795009345000,10.089344970703126,0.7623068527832627,9.730918174928426,0.9478888264317065
1776021795019406000,10.099406005859375,0.7638349391333759,9.734560915344954,0.9084376905310898
1776021795029467000,10.109466796875,0.7767823181856424,9.736008776065706,0.881548295366019
1776021795039528000,10.11952783203125,0.7918100106433034,9.736327340495587,0.8644972073219716
1776021795049589800,10.12958984375,0.8030727245442569,9.736644735881686,0.8504124217376112
1776021795059650800,10.13965087890625,0.809949113119766,9.737412797644733,0.834952475342527
1776021795069712000,10.1497119140625,0.8126534767076372,9.738702252933383,0.8171024189405143
1776021795079773000,10.15977294921875,0.8137034241519868,9.74036521770954,0.7959616504300385
1776021795089834000,10.169833984375,0.8191939843922853,9.74180197251439,0.7724163049958646
1776021795099896000,10.17989599609375,0.8340146830357611,9.742277773332596,0.7502166750822216
1776021795109956900,10.189956787109375,0.8568528300486504,9.741755210763216,0.7310187842678278
1776021795120018000,10.200017822265625,0.8828563822899014,9.740630006125569,0.7148805732849985
1776021795130079000,10.210078857421875,0.9084648707989603,9.739242935681343,0.7015800699461251
1776021795140141000,10.22014111328125,0.932394831636548,9.737852942627669,0.6893715996276587
1776021795150202000,10.2302021484375,0.9519004001606255,9.737026428675652,0.6742163352675735
1776021795160263200,10.24026318359375,0.9632775342214852,9.73734616214931,0.6531048659168184
1776021795170324000,10.250323974609374,0.9689351215917616,9.738606975865363,0.6253459944408386
1776021795180386000,10.260385986328124,0.9727961809340864,9.740283384644984,0.5923936459749937
1776021795190446800,10.27044677734375,0.9774840464893728,9.741854579484462,0.5578162170579657
1776021795200508000,10.2805078125,0.9845772196207195,9.742918409323691,0.5258598938921466
1776021795210569000,10.29056884765625,0.9916352483734487,9.743447986155747,0.5022499953217804
1776021795220630800,10.300630859375,0.9980825248166918,9.743441556414961,0.48943314731400456
1776021795230691800,10.31069189453125,1.0064434528615325,9.743000242388248,0.4810202333535999
1776021795240753000,10.3207529296875,1.0168576601743697,9.742431502589582,0.4705306957822293
1776021795250814000,10.33081396484375,1.0294038380146027,9.74174819650054,0.45720710382871327
1776021795260875000,10.340875,1.0433748610261826,9.741061383280158,0.43986989231966434
1776021795270937000,10.35093701171875,1.0545797072600573,9.74083049713373,0.4177231251044199
1776021795280998000,10.360997802734374,1.060348353789374,9.741234401759504,0.39295930725857614
1776021795291059000,10.371058837890626,1.0593897378902881,9.742253223413229,0.3696051735475659
1776021795301120000,10.3811201171875,1.053730908410996,9.743627434375881,0.34896344060041007
1776021795311182000,10.39118212890625,1.0470577873226254,9.74510452119112,0.32708610144369304
1776021795321243100,10.4012431640625,1.043733319075033,9.746252522182465,0.30257759179947896
1776021795331304000,10.411303955078125,1.044243460554257,9.746910693830252,0.2787002927308902
1776021795341364700,10.42136474609375,1.0412614490687846,9.74782547058761,0.2570782617758028
1776021795351426800,10.4314267578125,1.0335283705987035,9.749175716152786,0.23616764875939114
1776021795361488000,10.44148779296875,1.0240877575583756,9.75068319810629,0.21396853030240162
1776021795371549000,10.451548828125,1.0112426698368042,9.752553083631396,0.1883516027585603
1776021795381610000,10.46160986328125,0.9946416636478155,9.754769590637087,0.1598309896624647
1776021795391671800,10.471671875,0.978583093772456,9.756838213604688,0.12991906833844258
1776021795401732900,10.48173291015625,0.964738619749993,9.758575412660836,0.09942459788611158
1776021795411794000,10.4917939453125,0.9509462412409484,9.760181678813696,0.07039236373975873
1776021795421855000,10.50185498046875,0.9393676663238555,9.761454767489433,0.04451995446435176
1776021795431917000,10.5119169921875,0.9336988269072025,9.762081959477067,0.018918078359169883
1776021795441977900,10.521977783203125,0.9350270067710429,9.761970315796136,-0.008081733219191664
1776021795452039000,10.532038818359375,0.9434944639302789,9.761099962702392,-0.03419507853593677
1776021795462100000,10.542099853515625,0.952785366301611,9.760077633917332,-0.059017147641349584
1776021795472162000,10.552162109375,0.9598658991470932,9.759197343951463,-0.0845434560259804
1776021795482223000,10.56222314453125,0.9668591190353035,9.75819547343254,-0.11489266365556977
1776021795492284000,10.572283935546874,0.9797446848977357,9.756414435234666,-0.15128222916163503
1776021795502345000,10.582344970703126,0.9991830334044992,9.753765382030606,-0.19000231084134428
1776021795512405800,10.59240576171875,1.025224652633816,9.750181678324937,-0.23075302156582472
1776021795522467800,10.6024677734375,1.0681465333849192,9.743922617930174,-0.292268835888803
1776021795532529000,10.61252880859375,1.1265830133277923,9.733495331940054,-0.4003359004411846
1776021795542590000,10.62258984375,1.1990030835028738,9.71776234075725,-0.5457848568720742
1776021795552651000,10.632651123046875,1.284907854477316,9.697852356150745,-0.6863404883034527
1776021795562712800,10.642712890625,1.383093211158365,9.67621101770699,-0.7927103204838931
1776021795572774000,10.65277392578125,1.4865199756242333,9.654962477973102,-0.8615908183559775
1776021795582835000,10.6628349609375,1.5817328923657537,9.636361237877606,-0.8994755086574703
1776021795592896000,10.67289599609375,1.6624463052421807,9.62134370148778,-0.9145653796311467
1776021795602958000,10.6829580078125,1.731168689943105,9.608817397391796,-0.9187282714642584
1776021795613019000,10.693018798828126,1.7958152035072446,9.596150223520398,-0.9270133577939123
1776021795623080000,10.703079833984376,1.8644734369307756,9.580713000413775,-0.9508267065145075
1776021795633141000,10.71314111328125,1.9339917943149805,9.56285468764007,-0.9908836262885481
1776021795643203000,10.723203125,1.9984429314374923,9.54483913847804,-1.0356933666128665
1776021795653264100,10.73326416015625,2.0562099146209656,9.528007830664516,-1.0767869359582662
1776021795663325000,10.743324951171875,2.1075645465441046,9.513051669073104,-1.10923564575091
1776021795673386000,10.753385986328125,2.1537797697521746,9.500508998364209,-1.1278145278841256
1776021795683447800,10.76344775390625,2.193432565704733,9.491430204373598,-1.1278345477588474
1776021795693508900,10.7735087890625,2.2269531425125897,9.484291438534855,-1.1221782755628227
1776021795703570000,10.78356982421875,2.2535114790923894,9.477516829833387,-1.1263842028200626
1776021795713631000,10.793630859375,2.2693381399080157,9.472833640453219,-1.1339920474752783
1776021795723692800,10.80369287109375,2.2764795360952617,9.470286294057965,-1.1409227965865283
1776021795733753900,10.81375390625,2.278685667837411,9.468481874984501,-1.151445651905611
1776021795743815000,10.82381494140625,2.2793768649719652,9.46688145405054,-1.1631824861243367
1776021795753876000,10.8338759765625,2.2777733752980827,9.465755664891004,-1.1754088574256747
1776021795763937000,10.84393701171875,2.270815372853726,9.466128005334735,-1.1858346821110695
1776021795773998800,10.853998779296875,2.2590151910752057,9.468456740543246,-1.189783711997792
1776021795784060000,10.864059814453125,2.241049764665216,9.472855852285027,-1.188743993686512
1776021795794121000,10.874120849609374,2.217374436175823,9.478784657812119,-1.1858812246665358
1776021795804181800,10.884181640625,2.19234740081653,9.48474853465259,-1.1847096236038952
1776021795814244000,10.894244140625,2.1676094115316866,9.489739767068624,-1.1902440960511564
1776021795824305000,10.904304931640626,2.1420000462397932,9.49403658747971,-1.202286635218188
1776021795834366000,10.914365966796876,2.1142614138342437,9.498345682850479,-1.217266469946131
1776021795844426800,10.9244267578125,2.082836055739969,9.50304348527789,-1.2346398487471044
1776021795854488800,10.93448876953125,2.048552677866071,9.507978603592514,-1.2538542523048817
1776021795864550000,10.9445498046875,2.010992762539536,9.513365557327866,-1.2736547851875424
1776021795874611000,10.95461083984375,1.9808790715657174,9.517803832036256,-1.2876095146514475
1776021795884672000,10.964672119140625,1.9835927144385872,9.521372922694683,-1.2566780775539577
1776021795894733800,10.97473388671875,2.0180197385668754,9.526218609160184,-1.1615237591318786
1776021795904795000,10.984794921875,2.042684370354563,9.531848724001646,-1.0684971003882586
1776021795914856000,10.99485595703125,2.0142026644967497,9.54135246540606,-1.0372734023459256
1776021795924917000,11.0049169921875,1.9538615930415688,9.553708673632144,-1.038978014306724
1776021795934979000,11.01497900390625,1.9131743394747376,9.560228430789708,-1.054613609529659
1776021795945040000,11.025039794921875,1.904797556273639,9.55759632872045,-1.0929293847247958
1776021795955101000,11.035100830078125,1.9072141158960758,9.552284778308868,-1.1343750554434955
1776021795965162000,11.045161865234375,1.8964448846004902,9.552455458700656,-1.1508666829738765
1776021795975224000,11.05522412109375,1.8688769325867294,9.559490179643035,-1.137466372522339
1776021795985285000,11.06528515625,1.840163317669183,9.567960486346482,-1.1127845704041421
1776021795995346000,11.075345947265625,1.821918051404506,9.574255787098407,-1.0883999246016145
1776021796005407000,11.085406982421874,1.8128284437589346,9.578439794784783,-1.0665618214767425
1776021796015468800,11.09546875,1.8072883452884851,9.580818798875809,-1.0545354297269136
1776021796025529900,11.10552978515625,1.7992400633893906,9.581742343461514,-1.0598705802097916
1776021796035591000,11.1155908203125,1.7858851995147764,9.5823835639745,-1.0765423866126687
1776021796045652000,11.12565185546875,1.7676938553944228,9.583858897224069,-1.0932862353384494
1776021796055713800,11.1357138671875,1.7480929367370903,9.586423194754124,-1.1022815157640724
1776021796065774800,11.14577490234375,1.7317564267031846,9.589819266933203,-1.0985166102726012
1776021796075836000,11.1558359375,1.720762885132432,9.593611644953489,-1.082570780056715
1776021796085897000,11.16589697265625,1.7146633992135523,9.597017069482803,-1.061882212293148
1776021796095958000,11.1759580078125,1.7113810165420174,9.599241175273061,-1.0469704013001173
1776021796106020000,11.18602001953125,1.7071737741105257,9.600535891258716,-1.0419660171415657
1776021796116081000,11.196080810546874,1.7022827871985733,9.60112567384541,-1.04450583781749
1776021796126142000,11.206141845703126,1.6963576349332927,9.601278234058618,-1.0527104062568395
1776021796136204000,11.2162041015625,1.6881310738578437,9.601374095648527,-1.0649911380939185
1776021796146265000,11.22626513671875,1.676890133397281,9.601978491282463,-1.077244689663127
1776021796156326000,11.236325927734375,1.6643654367364942,9.602881577602028,-1.0885603758603333
1776021796166387000,11.246386962890625,1.6528648224264382,9.60384720776379,-1.0975248227562755
1776021796176447700,11.25644775390625,1.6430455853320658,9.60491045308113,-1.1029418793689458
1776021796186509800,11.266509765625,1.6344336782008408,9.605605449607967,-1.1096714798849074
1776021796196571000,11.27657080078125,1.6246099110618233,9.606135610961914,-1.1194597373191266
1776021796206632000,11.2866318359375,1.6111574320316313,9.607195933669805,-1.1297558712102471
1776021796216693000,11.29669287109375,1.5952420700192451,9.608636195605992,-1.1400389994893223
1776021796226754800,11.3067548828125,1.578395564636588,9.610172903653979,-1.1505000416185707
1776021796236816000,11.31681591796875,1.5613412617221474,9.611843467214703,-1.159780641791597
1776021796246877000,11.326876953125,1.5466463814154265,9.613327568292616,-1.1671467135801912
1776021796256938000,11.33693798828125,1.5348853626035153,9.614642158022523,-1.1718191623706369
1776021796267000000,11.347,1.5245735196866095,9.615869069468975,-1.1752047862209378
1776021796277060900,11.357060791015625,1.5138316147893667,9.61701473237276,-1.1797032666839657
1776021796287122000,11.367121826171875,1.5013104252599179,9.618222939118743,-1.1858387006990612
1776021796297183000,11.377182861328125,1.4899216007612646,9.618796939614414,-1.19552707795538
1776021796307245000,11.3872451171875,1.4806803096853196,9.61856313085854,-1.20879872052595
1776021796317306000,11.39730615234375,1.472334360013902,9.618377837419509,-1.220427929651737
1776021796327367200,11.4073671875,1.463102713549137,9.61874900881946,-1.2285755802720784
1776021796337428000,11.417427978515626,1.4465814945980906,9.620677346533537,-1.2330249608963728
1776021796347490000,11.427489990234376,1.4192270392045379,9.625364627566933,-1.2282131767004727
1776021796357551000,11.437551025390626,1.3887265408702194,9.631876785939932,-1.2119224055044353
1776021796367612200,11.447612060546875,1.357814977516979,9.639633975937961,-1.1849690782576798
1776021796377673200,11.457673095703125,1.3229798109792172,9.648892218148708,-1.1484741618141532
1776021796387735000,11.467735107421875,1.2810503022663295,9.659838559576869,-1.103084356579557
1776021796397796000,11.477796142578125,1.2327385451704262,9.671960374525188,-1.0506679406438022
1776021796407857000,11.48785693359375,1.1774283805545418,9.684409521731734,-0.9981093397583812
1776021796417918000,11.49791796875,1.120730707103014,9.695801853361726,-0.9517196367662399
1776021796427980000,11.50797998046875,1.067058665082976,9.70560077832043,-0.9127238434176892
1776021796438041000,11.518041015625,1.0128589459270239,9.71457377384901,-0.8783783600930124
1776021796448102000,11.528101806640626,0.9623757630761712,9.722709149509667,-0.8444779901873319
1776021796458163000,11.538162841796876,0.9164873606696724,9.730259418758749,-0.8077548179458827
1776021796468225000,11.54822509765625,0.8730207055173814,9.737672909885644,-0.765476714991033
1776021796478286000,11.5582861328125,0.836988584280014,9.744680158299207,-0.7148649373244493
1776021796488347100,11.56834716796875,0.8140797101184726,9.750736974120139,-0.6563289425298571
1776021796498408200,11.578408203125,0.8066779094293713,9.755335407826303,-0.5941902470681816
1776021796508470000,11.588469970703125,0.8102548911333084,9.758600547102093,-0.532517305954732
1776021796518531000,11.598531005859375,0.822285301471129,9.760603703618049,-0.4741763222755864
1776021796528592100,11.608592041015624,0.8457404113385826,9.761022221291064,-0.4213945070935413
1776021796538653200,11.618653076171874,0.8764741339068859,9.760206813254952,-0.3748669665332883
1776021796548715000,11.628715087890624,0.9083772655807435,9.758930217447876,-0.3294297419603914
1776021796558776000,11.638776123046876,0.9428626688327639,9.757245625361799,-0.2784575517498888
1776021796568837000,11.648837158203126,0.981829089956358,9.754776604899764,-0.2252404869557358
1776021796578898000,11.65889794921875,1.0201544366974382,9.751902510768174,-0.17340340527789666
1776021796588960300,11.668960205078125,1.0541272873174399,9.749030170202255,-0.12495716248159296
1776021796599021000,11.67902099609375,1.0840849109467119,9.746206344953178,-0.08127311085211113
1776021796609081900,11.689081787109375,1.1121422539126127,9.743296594986319,-0.041394177993480115
1776021796619143000,11.699142822265625,1.140936532850936,9.740054252064228,-0.0034705422086204634
1776021796629205000,11.709205078125,1.1693016265917568,9.736627784746885,0.034755621328414414
1776021796639266000,11.71926611328125,1.1962271159835158,9.733133512890339,0.07423414299287832
1776021796649327000,11.7293271484375,1.2264786079928278,9.72900795739293,0.11182065406539476
1776021796659388200,11.73938818359375,1.2619007806383074,9.724073423600196,0.14269808682017027
1776021796669450000,11.749449951171876,1.2990756421700118,9.71878642310798,0.1671824666701257
1776021796679511000,11.759510986328126,1.3399559340909122,9.712918992379308,0.18459818677548318
1776021796689572000,11.769572021484375,1.389833333068341,9.7057159291327,0.19448555720262228
1776021796699633200,11.779633056640625,1.453602771537006,9.69638871333897,0.19357074391264467
1776021796709695000,11.789695068359375,1.531337022472173,9.68460358299911,0.1839988691754639
1776021796719756000,11.799756103515625,1.6174335896916687,9.670832247278094,0.1712382448669523
1776021796729817000,11.809817138671875,1.7061114055760205,9.655773794355987,0.15991123355813325
1776021796739878000,11.8198779296875,1.793000584477931,9.640098670840263,0.1550989013729617
1776021796749940200,11.829940185546874,1.8723926856227218,9.624935003978013,0.15857454159427434
1776021796760001000,11.8400009765625,1.9370330617070197,9.611948681154846,0.16946939029721542
1776021796770062000,11.85006201171875,1.9820647742189466,9.60243149574697,0.1874535579402931
1776021796780123000,11.860122802734375,2.009522397726029,9.596303952777385,0.20782785385660826
1776021796790185000,11.87018505859375,2.0246129993520676,9.592869886675476,0.21943116135615853
1776021796800246000,11.88024609375,2.0329550035007298,9.591298691835998,0.21080230309013276
1776021796810307000,11.89030712890625,2.0421397420838474,9.589949030792713,0.1814573862654157
1776021796820368100,11.9003681640625,2.0566807470031083,9.587413374835252,0.14815424246736802
1776021796830430000,11.910429931640625,2.0760741603896022,9.583550854188204,0.1258681398466695
1776021796840491000,11.920490966796875,2.0988021250262854,9.578686463022231,0.11913639303939416
1776021796850552000,11.930552001953124,2.1244510916762054,9.572995557904243,0.12194808032610453
1776021796860613000,11.940613037109374,2.1520798339664933,9.566802548483013,0.1234744405100122
1776021796870675200,11.95067529296875,2.178903543484211,9.560794832500815,0.11824784670183434
1776021796880736000,11.960736083984376,2.202089627151936,9.555655131524802,0.10312401865962892
1776021796890797000,11.970797119140625,2.21953395229727,9.551869183245302,0.07665452940706163
1776021796900858000,11.980858154296875,2.231637793197483,9.549268060836196,0.040700313977804034
1776021796910920200,11.990920166015625,2.2417950300745666,9.546977319550514,0.0005401210589567199
1776021796920981200,12.000981201171875,2.254187917049229,9.543975215125084,-0.039470895480434406
1776021796931042000,12.0110419921875,2.272146475327015,9.539466797789931,-0.07964958303719759
1776021796941103000,12.02110302734375,2.297140923590958,9.533010168996453,-0.12352882844521663
1776021796951165000,12.0311650390625,2.3279795678384603,9.524693007028102,-0.17646611731676384
1776021796961226000,12.04122607421875,2.362320667248964,9.514822185876964,-0.2407619908123277
1776021796971287000,12.051287109375,2.397305617520958,9.503875259926915,-0.3156821889737621
1776021796981348000,12.06134814453125,2.43070402925387,9.492251457628607,-0.39905276529546824
1776021796991410000,12.071409912109376,2.4605717826426026,9.48042307266891,-0.48742166136112064
1776021797001471000,12.081470947265625,2.487862232889235,9.468087907230853,-0.5798870694927871
1776021797011532000,12.091531982421875,2.5120298749402163,9.455165881815551,-0.6781907187912612
1776021797021593000,12.101593017578125,2.53016086717546,9.442038689216972,-0.7852298285353928
1776021797031655200,12.1116552734375,2.5367051742523907,9.429780096146464,-0.9026457361914217
1776021797041716200,12.12171630859375,2.525793027354777,9.420010397282242,-1.026709703559801
1776021797051777000,12.131777099609375,2.501105453082919,9.412681661829351,-1.1472859749428928
1776021797061838000,12.141838134765624,2.4727082106381655,9.406738243255019,-1.2527395690612495
1776021797071900200,12.151900146484374,2.44849629105404,9.401322647947072,-1.3380518540352582
1776021797081961200,12.161961181640624,2.4326439112752674,9.395361109194159,-1.407052032764256
1776021797092022000,12.17202197265625,2.4263664384409784,9.38748759934008,-1.46909318613559
1776021797102083000,12.1820830078125,2.4275518488332626,9.377104152491688,-1.532077027184516
1776021797112145000,12.192144775390625,2.4301048943169414,9.36538741121292,-1.5982751541048288
1776021797122206000,12.2022060546875,2.427403964795172,9.35436566646099,-1.665510076726973
1776021797132267000,12.21226708984375,2.414241847013682,9.346161901739238,-1.729486435944587
1776021797142328000,12.222328125,2.3872943649858236,9.342502794709802,-1.7857362925633786
1776021797152390000,12.232389892578125,2.3460908324599266,9.344361574319004,-1.8300734469398856
1776021797162451000,12.242450927734374,2.2908247261814774,9.351915350699425,-1.861230071095377
1776021797172512000,12.252511962890624,2.224678329448402,9.363851287686824,-1.8813466841898858
1776021797182573000,12.262572998046876,2.1515561023533345,9.37812531223297,-1.8952502679884433
1776021797192635100,12.27263525390625,2.075493730153143,9.392827791324258,-1.907228728943318
1776021797202696200,12.2826962890625,2.0022382320672274,9.405315516975522,-1.92392588898316
1776021797212757000,12.292757080078125,1.9387100550085306,9.412567095538973,-1.9533010365493595
1776021797222818000,12.302818115234375,1.890310473498702,9.412651851212978,-1.999780317521095
1776021797232880000,12.312880126953125,1.859147857993841,9.40492505635321,-2.0642998437047004
1776021797242941200,12.322941162109375,1.8432560229875146,9.389957788845896,-2.1451061955615875
1776021797253002200,12.333002197265625,1.8362471671387552,9.37032837474644,-2.235067183124274
1776021797263063000,12.34306298828125,1.8290581324175,9.34955271322131,-2.326117427228391
1776021797273125000,12.353125,1.812923136305064,9.330970762348175,-2.411783640206605
1776021797283186000,12.36318603515625,1.7847142560392617,9.316343102058768,-2.4881615080967543
1776021797293247200,12.373247314453126,1.748433128476888,9.305007469052075,-2.555427410379052
1776021797303308300,12.383308349609376,1.712185610923171,9.294626360291241,-2.617013513459265
1776021797313370000,12.3933701171875,1.6840302144102752,9.282838891863822,-2.676440100418031
1776021797323431200,12.40343115234375,1.6702658929519354,9.268491217559575,-2.7341666054606435
1776021797333492200,12.4134921875,1.6668214515864848,9.252978006607293,-2.78827696583271
1776021797343553000,12.423552978515625,1.64220285089761,9.24285876365304,-2.8360440946578978
1776021797353615400,12.433615478515625,1.5954830391682684,9.235776696437597,-2.8853549457937477
1776021797363676200,12.44367626953125,1.561076327175647,9.222254951563476,-2.946770368482172
1776021797373737200,12.4537373046875,1.550016880761832,9.2020147120893,-3.01508987147063
1776021797383798000,12.463798095703124,1.5529519113004207,9.180916979002951,-3.077255820265412
1776021797393860000,12.473860107421874,1.5587205578297376,9.165207368695736,-3.1208585228875276
1776021797403921200,12.483921142578126,1.5602582887910306,9.156804866531491,-3.1446623000621794
1776021797413982200,12.493982177734376,1.555234907671064,9.154394882780313,-3.154153474245965
1776021797424043300,12.504043212890625,1.545133346503973,9.156447723656893,-3.1531641709476705
1776021797434105000,12.51410498046875,1.5304941419072449,9.162229229667782,-3.143492087239027
1776021797444166100,12.524166259765625,1.5095361095525324,9.171282889217137,-3.1271780812978744
1776021797454227200,12.534227294921875,1.4796819462977349,9.182384713467956,-3.1088202945694325
1776021797464288300,12.544288330078125,1.4410413961276411,9.19313757815063,-3.095158264441788
1776021797474350300,12.554350341796875,1.402097771357745,9.201331406000255,-3.0886934523418543
1776021797484411100,12.5644111328125,1.3751730856835842,9.206226776826382,-3.0862068962231275
1776021797494472200,12.57447216796875,1.368683869794756,9.209245832386612,-3.08007613838315
1776021797504533200,12.584533203125,1.383409291370213,9.213113613730668,-3.061880556479096
1776021797514595300,12.59459521484375,1.4122127765282988,9.218996826550365,-3.030865532751381
1776021797524656400,12.604656494140626,1.4439078914746641,9.225392080545426,-2.9962749886244535
1776021797534717200,12.61471728515625,1.4673098098501562,9.230804753243923,-2.9681016180634496
1776021797544778000,12.624778076171875,1.4740217285789547,9.23541604643166,-2.9503824214994907
1776021797554840000,12.634840087890625,1.4638633226580917,9.240319600564241,-2.9400618107542393
1776021797564901000,12.644901123046875,1.443782365398854,9.2460461615175,-2.931985764065385
1776021797574962200,12.654962158203125,1.4213826098032294,9.251975551566481,-2.9242095771059393
1776021797585023200,12.665023193359374,1.400656778769195,9.256927036494016,-2.9185300701647994
1776021797595085000,12.6750849609375,1.3814679480440915,9.2598297721982,-2.918475125107169
1776021797605146000,12.68514599609375,1.3601727926895022,9.2607591620028,-2.9255186138778924
1776021797615207200,12.695207275390626,1.3345930918835103,9.26038915964663,-2.9384394702494143
1776021797625268200,12.705268310546876,1.3058010049022732,9.259086844876409,-2.955434444192052
1776021797635330300,12.715330322265626,1.2750767808146775,9.256870922392606,-2.975720276373625
1776021797645391000,12.72539111328125,1.2421291815891862,9.253478941866755,-3.000102437958121
1776021797655452200,12.7354521484375,1.206710881401226,9.248216491293906,-3.030634646604955
1776021797665513200,12.74551318359375,1.170726471763104,9.24085911426842,-3.0669699885725974
1776021797675575300,12.7555751953125,1.1353183276429772,9.232588714051246,-3.1049539745301007
1776021797685636400,12.76563623046875,1.0996674608081578,9.225530027711391,-3.138583564670384
1776021797695697200,12.775697265625,1.0621512384928762,9.22124197512865,-3.1640014990434047
1776021797705758200,12.78575830078125,1.0202467911560087,9.22019801903367,-3.18078692188859
1776021797715820000,12.795820068359374,0.9732995273463427,9.221780319789051,-3.190898273797333
1776021797725881000,12.805881103515626,0.9248434664089232,9.224645646092295,-3.1970223096355794
1776021797735942100,12.815942138671875,0.8807600675977766,9.227257289895414,-3.201931708987057
1776021797746004200,12.826004150390625,0.8441182900294661,9.229716958007216,-3.2047131563991305
1776021797756065000,12.83606494140625,0.8177481694981455,9.232513895249367,-3.2034953050419688
1776021797766126000,12.8461259765625,0.8037848183363676,9.23554814837873,-3.1982740632623434
1776021797776187100,12.856187255859375,0.8030310042943805,9.238030028322338,-3.19128668859303
1776021797786249200,12.866249267578125,0.813113641565293,9.239379104843735,-3.1848285984948275
1776021797796310300,12.876310302734375,0.8294764550842344,9.239491333046555,-3.1802769265398383
1776021797806371300,12.886371337890624,0.8450489219430833,9.238878754106164,-3.177959297247231
1776021797816432000,12.89643212890625,0.8538644618876278,9.23847601852417,-3.1767683338969945
1776021797826493200,12.9064931640625,0.8546268976274878,9.238537393322586,-3.1763866411030293
1776021797836555300,12.91655517578125,0.8502318044736981,9.238140502959489,-3.1787156685724853
1776021797846616300,12.9266162109375,0.8437026949658989,9.23672186833322,-3.184572577907145
1776021797856677400,12.936677490234375,0.8392678543236106,9.234420021131633,-3.192412185491621
1776021797866739200,12.9467392578125,0.8420417760163545,9.231618992236257,-3.199773361909389
1776021797876800000,12.956800048828125,0.854150146961212,9.22791721510887,-3.2072371219187974
1776021797886861000,12.966861083984375,0.8715797129288315,9.223235194772482,-3.216005242525041
1776021797896922000,12.976922119140625,0.8858949462682009,9.218670078814029,-3.2251617779269814
1776021797906984200,12.986984130859375,0.8906333729669451,9.214854319918155,-3.234752028571069
1776021797917045000,12.997044921875,0.8825133410058915,9.211557031938433,-3.246349235123396
