time,seconds_elapsed,z,y,x
1776021784988379000,0.06837890625,-0.039987582713365555,0.034229546785354614,0.1204296424984932
1776021784998440000,0.07843994140625,-0.051050085574388504,0.14145773649215698,0.06870333105325699
1776021785008500700,0.088500732421875,-0.037177328020334244,0.19861075282096863,0.03004799224436283
1776021785018561800,0.098561767578125,-0.024201873689889908,0.19075283408164978,0.015916192904114723
1776021785028624000,0.108623779296875,-0.007998023182153702,0.1664241999387741,0.003258737036958337
1776021785038685000,0.118684814453125,0.047455914318561554,0.18157118558883667,0.0038712641689926386
1776021785048746000,0.12874609375,0.2268618643283844,0.4528002440929413,-0.04295049235224724
1776021785058806800,0.138806884765625,0.38906222581863403,0.6107472777366638,-0.09203095734119415
1776021785068867800,0.148867919921875,0.614304780960083,0.37492018938064575,-0.10561168938875198
1776021785078930000,0.158929931640625,0.6992803812026978,0.2389194667339325,-0.15825411677360535
1776021785088991000,0.168990966796875,0.6579554677009583,0.10791981965303421,-0.1679995208978653
1776021785099052000,0.179052001953125,0.5424379706382751,0.17446689307689667,-0.1354983150959015
1776021785109113000,0.189113037109375,0.4591144323348999,0.4013795852661133,-0.10308393090963364
1776021785119174000,0.199173828125,0.47476956248283386,0.6915547251701355,-0.10087217390537262
1776021785129236000,0.209236083984375,0.5588732957839966,0.9538929462432861,-0.13366565108299255
1776021785139297000,0.219297119140625,0.7021103501319885,1.0919448137283325,-0.19613754749298096
1776021785149358000,0.229358154296875,0.8746110796928406,0.9980410933494568,-0.2747596502304077
1776021785159419000,0.2394189453125,0.9223945736885071,0.8831201195716858,-0.33013129234313965
1776021785169480000,0.24947998046875,0.9973371028900146,0.7944165468215942,-0.29093170166015625
1776021785179541000,0.259541015625,1.037006139755249,0.8082942366600037,-0.1718284785747528
1776021785189602800,0.269602783203125,0.8689428567886353,0.791908323764801,-0.08680753409862518
1776021785199663900,0.279663818359375,0.6071274876594543,0.46619996428489685,0.01178455539047718
1776021785209725000,0.289724853515625,0.11413951963186264,-0.10407785326242447,0.21088790893554688
1776021785219786000,0.299785888671875,0.269756555557251,-0.21544858813285828,0.31097641587257385
1776021785229847000,0.309846923828125,0.4297753572463989,-0.10870436578989029,0.19825808703899384
1776021785239908900,0.319908935546875,0.4731137752532959,-0.02814427949488163,-0.014921557158231735
1776021785249970000,0.329969970703125,0.5798943042755127,-0.07503487914800644,-0.12585948407649994
1776021785260031000,0.340031005859375,0.8390774130821228,-0.4207768440246582,-0.03631335496902466
1776021785270092000,0.350092041015625,1.0290569067001343,-0.3693109154701233,0.3740168809890747
1776021785280153300,0.3601533203125,1.250030517578125,-0.2719295024871826,0.8484257459640503
1776021785290215200,0.370215087890625,1.304856538772583,-0.04154675081372261,1.155971646308899
1776021785300276200,0.380276123046875,1.1478981971740723,0.3896232843399048,1.163077473640442
1776021785310337000,0.3903369140625,0.7966246008872986,1.4576210975646973,0.846363365650177
1776021785320398000,0.400398193359375,0.5392623543739319,2.2131006717681885,0.24691142141819
1776021785330459100,0.410459228515625,0.08291354775428772,2.541109800338745,-0.5560764670372009
1776021785340521200,0.420521240234375,-0.2962460219860077,2.6818768978118896,-0.9865293502807617
1776021785350582000,0.43058203125,-0.4815671443939209,2.8939743041992188,-1.201727271080017
1776021785360643000,0.44064306640625,-0.2635993957519531,3.0125107765197754,-1.4598197937011719
1776021785370704100,0.4507041015625,-0.08424214273691177,3.1499242782592773,-1.6833975315093994
1776021785380765200,0.46076513671875,-0.1013907715678215,3.0474917888641357,-1.6673232316970825
1776021785390827300,0.4708271484375,-0.27727630734443665,2.718501329421997,-1.4352612495422363
1776021785400888300,0.480888427734375,-0.47898945212364197,1.8914611339569092,-0.6951343417167664
1776021785410949000,0.49094921875,-0.03653386980295181,-0.4599708914756775,1.2095474004745483
1776021785421010200,0.50101025390625,0.08942512422800064,-0.5734471082687378,1.1449755430221558
1776021785431071200,0.5110712890625,-0.12451168894767761,-0.4423864185810089,0.6869096159934998
1776021785441133300,0.52113330078125,-0.14428673684597015,0.08559402078390121,0.12546095252037048
1776021785451194400,0.5311943359375,-0.028177207335829735,0.5999463200569153,-0.3790205419063568
1776021785461255200,0.541255126953125,0.1233806312084198,0.7799187898635864,-0.8145235776901245
1776021785471316200,0.551316162109375,0.2408011555671692,1.0213650465011597,-1.0807597637176514
1776021785481377000,0.561376953125,0.4646347761154175,1.4615885019302368,-1.3075755834579468
1776021785491438000,0.57143798828125,0.7656179666519165,1.6361600160598755,-1.4502352476119995
1776021785501500200,0.581500244140625,0.9888821840286255,1.5255839824676514,-1.5609585046768188
1776021785511561200,0.591561279296875,0.9073671102523804,0.9853494763374329,-1.5807816982269287
1776021785521622300,0.601622314453125,0.6364061832427979,0.24589858949184418,-1.576790690422058
1776021785531683300,0.611683349609375,0.18664368987083435,-0.4646614193916321,-1.6877063512802124
1776021785541744000,0.621744140625,-0.28756651282310486,-0.8002476692199707,-1.81102454662323
1776021785551806200,0.63180615234375,-0.6734521985054016,-0.7267972826957703,-2.0925447940826416
1776021785561867300,0.6418671875,-1.0762044191360474,-0.5635801553726196,-2.6180365085601807
1776021785571928300,0.65192822265625,-1.3091700077056885,-0.35913196206092834,-3.2189700603485107
1776021785581989400,0.6619892578125,-1.2561091184616089,-0.086606964468956,-3.798027515411377
1776021785592050200,0.67205029296875,-1.1950184106826782,0.05454986169934273,-4.2113823890686035
1776021785602112300,0.6821123046875,-1.2037631273269653,0.012850616127252579,-4.373509407043457
1776021785612173000,0.692173095703125,-1.227487325668335,0.15690535306930542,-4.225202560424805
1776021785622234000,0.702234130859375,-1.2258179187774658,0.3484244644641876,-3.7919654846191406
1776021785632295200,0.712295166015625,-1.1967459917068481,0.5117949843406677,-3.139141321182251
1776021785642356200,0.722356201171875,-1.1046730279922485,0.7834720015525818,-2.5073630809783936
1776021785652418000,0.73241796875,-1.053806185722351,1.0540528297424316,-2.002119541168213
1776021785662479000,0.74247900390625,-1.0035789012908936,1.1884969472885132,-1.6600834131240845
1776021785672540200,0.7525400390625,-1.0189625024795532,0.912564754486084,-1.364955186843872
1776021785682601200,0.762601318359375,-0.9893763661384583,0.3994758725166321,-0.9152922034263611
1776021785692662300,0.772662353515625,-0.8227974772453308,-0.8125107288360596,-0.6559587717056274
1776021785702724000,0.78272412109375,-0.6087445616722107,-1.9393117427825928,-0.48969766497612
1776021785712785200,0.79278515625,-0.4070409834384918,-2.523970127105713,-0.45801612734794617
1776021785722846200,0.80284619140625,-0.2504303455352783,-2.820643186569214,-0.6477695107460022
1776021785732907300,0.8129072265625,-0.10114694386720657,-2.6781678199768066,-0.7188140749931335
1776021785742968000,0.822968017578125,0.06114662438631058,-2.3432741165161133,-0.7090485692024231
1776021785753030100,0.833030029296875,0.1900155246257782,-1.816151738166809,-0.7677426338195801
1776021785763091200,0.84309130859375,0.19247707724571228,-1.0618464946746826,-0.868552565574646
1776021785773152000,0.853152099609375,0.22697164118289948,-0.4373394846916199,-0.9957771301269531
1776021785783213000,0.863213134765625,0.1885150671005249,-0.17542821168899536,-1.110937237739563
1776021785793274000,0.873274169921875,0.059548892080783844,0.14876283705234528,-1.0985816717147827
1776021785803336200,0.883336181640625,-0.18479560315608978,0.5144166946411133,-0.8871268630027771
1776021785813397200,0.893397216796875,-0.5764617919921875,0.7541922926902771,-0.5152274966239929
1776021785823458300,0.903458251953125,-0.8232326507568359,0.7881158590316772,-0.2734936475753784
1776021785833519000,0.91351904296875,-0.839566171169281,0.5867140293121338,-0.15252821147441864
1776021785843580200,0.923580078125,-0.7057293057441711,0.38227564096450806,-0.11051977425813675
1776021785853642200,0.933642333984375,-0.5330171585083008,0.4563096761703491,-0.0666939988732338
1776021785863703300,0.943703369140625,-0.3677763044834137,0.7104541063308716,-0.020475102588534355
1776021785873764400,0.953764404296875,-0.16794584691524506,0.9133761525154114,-0.01361188106238842
1776021785883825200,0.9638251953125,0.0352802500128746,1.0417946577072144,-0.048292096704244614
1776021785893886200,0.97388623046875,0.24320200085639954,1.2451205253601074,-0.16130709648132324
1776021785903948000,0.983947998046875,0.3829505741596222,1.5495201349258423,-0.3596055507659912
1776021785914009000,0.994009033203125,0.35831889510154724,2.1006956100463867,-0.709361732006073
1776021785924070100,1.004070068359375,0.2534007132053375,2.9363203048706055,-1.1851458549499512
1776021785934131200,1.014131103515625,0.1622381955385208,3.7451648712158203,-1.6643565893173218
1776021785944192300,1.024192138671875,0.12166441231966019,4.34448766708374,-2.0076844692230225
1776021785954254000,1.034254150390625,0.14701426029205322,4.906577110290527,-2.179149866104126
1776021785964315100,1.044315185546875,0.3516475558280945,5.928382873535156,-2.4734816551208496
1776021785974376200,1.054376220703125,0.4383552372455597,6.282780647277832,-3.029559850692749
1776021785984437200,1.064437255859375,0.4120466709136963,6.350845813751221,-3.518683910369873
1776021785994498300,1.074498291015625,0.41524580121040344,6.4273529052734375,-3.8708994388580322
1776021786004560100,1.08456005859375,0.45886489748954773,6.648481369018555,-4.219269752502441
1776021786014621200,1.09462109375,0.3989146649837494,6.790839195251465,-4.522400379180908
1776021786024682200,1.10468212890625,0.37786635756492615,6.650643825531006,-4.727851390838623
1776021786034743000,1.114742919921875,0.45072001218795776,6.062354564666748,-4.851809501647949
1776021786044804000,1.12480419921875,0.5313780903816223,5.121060371398926,-4.969240188598633
1776021786054866200,1.1348662109375,0.5526708960533142,4.155496597290039,-4.814146518707275
1776021786064927000,1.144927001953125,0.6297459602355957,3.39001727104187,-4.266408920288086
1776021786074988000,1.154988037109375,0.5453941822052002,3.2001237869262695,-3.1543078422546387
1776021786085049000,1.165049072265625,-0.14688117802143097,4.134887218475342,-0.39367425441741943
1776021786095110100,1.175110107421875,-0.5741841793060303,4.102838516235352,1.8978419303894043
1776021786105171200,1.185171142578125,-0.19034221768379211,2.804521083831787,2.1497881412506104
1776021786115233300,1.1952333984375,0.4064226448535919,0.8704196214675903,1.403241515159607
1776021786125294300,1.20529443359375,0.9121803641319275,-0.5017831921577454,0.6267852187156677
1776021786135355100,1.215355224609375,1.0419580936431885,-1.001495361328125,0.38646137714385986
1776021786145416200,1.225416259765625,1.1389775276184082,-1.0593408346176147,0.5207871794700623
1776021786155477200,1.235477294921875,1.1754353046417236,-0.8433719277381897,0.8402401208877563
1776021786165539300,1.245539306640625,1.1168454885482788,-0.4886775016784668,1.0483442544937134
1776021786175600400,1.255600341796875,1.0794187784194946,-0.20550252497196198,1.1463102102279663
1776021786185661200,1.2656611328125,1.0133090019226074,-0.1814752221107483,1.190352201461792
1776021786195722000,1.275721923828125,0.8235483169555664,-0.3581310212612152,1.1219266653060913
1776021786205783000,1.285782958984375,0.605239987373352,-0.44709470868110657,1.0700091123580933
1776021786215845000,1.29584521484375,0.4108397662639618,-0.3064068853855133,1.1598310470581055
1776021786225906200,1.30590625,0.3247988820075989,-0.03907640278339386,1.2764023542404175
1776021786235967200,1.31596728515625,0.5044633746147156,-0.16898933053016663,1.4537780284881592
1776021786246028300,1.3260283203125,0.7169690132141113,-0.5944641828536987,1.6095529794692993
1776021786256089000,1.336089111328125,0.9412602186203003,-0.8123406767845154,1.5622448921203613
1776021786266151200,1.346151123046875,1.2074859142303467,-0.7517865300178528,1.2915793657302856
1776021786276212200,1.356212158203125,1.285654902458191,-0.9793301224708557,0.9425056576728821
1776021786286273300,1.366273193359375,1.2546147108078003,-1.3782975673675537,0.6929818987846375
1776021786296334300,1.376334228515625,1.162865161895752,-1.6275489330291748,0.5835556983947754
1776021786306395400,1.3863955078125,0.9403103590011597,-1.5294287204742432,0.7511489391326904
1776021786316457200,1.396457275390625,0.6718975901603699,-1.3118149042129517,1.0831780433654785
1776021786326518300,1.406518310546875,0.35760143399238586,-1.378136396408081,1.2580726146697998
1776021786336579300,1.416579345703125,0.11450923979282379,-1.7102488279342651,0.8367989659309387
1776021786346640400,1.426640380859375,0.03738702833652496,-1.8960756063461304,0.32601428031921387
1776021786356701400,1.436701416015625,-0.07882462441921234,-2.121476173400879,0.017983118072152138
1776021786366762500,1.446762451171875,-0.025405872613191605,-2.3307149410247803,-0.11449023336172104
1776021786376824300,1.45682421875,0.19401556253433228,-2.7849550247192383,0.06280018389225006
1776021786386885400,1.466885498046875,0.5426737070083618,-3.7830862998962402,0.38797613978385925
1776021786396946200,1.4769462890625,1.0798391103744507,-5.200512409210205,0.6641070246696472
1776021786407007200,1.48700732421875,1.442793607711792,-6.173712253570557,0.858756959438324
1776021786417068300,1.497068359375,1.4277312755584717,-6.439094066619873,0.8213092088699341
1776021786427130000,1.507130126953125,1.214754581451416,-6.2885894775390625,0.5915042161941528
1776021786437191200,1.517191162109375,0.9831104874610901,-5.747891902923584,0.20562997460365295
1776021786447252200,1.527252197265625,0.6496017575263977,-4.958168983459473,-0.2590889632701874
1776021786457313300,1.537313232421875,0.2674982249736786,-4.288384437561035,-0.7399904131889343
1776021786467374300,1.547374267578125,-0.004384663421660662,-3.7477169036865234,-1.1703487634658813
1776021786477436400,1.5574365234375,-0.19154109060764313,-3.125286817550659,-1.4418805837631226
1776021786487497200,1.567497314453125,-0.31654587388038635,-2.879723310470581,-1.4025812149047852
1776021786497558300,1.577558349609375,-0.3087315559387207,-2.9140186309814453,-1.0886139869689941
1776021786507619300,1.587619384765625,-0.16603325307369232,-2.7035090923309326,-0.6727885007858276
1776021786517680400,1.597680419921875,-0.15922372043132782,-2.20479679107666,-0.25593581795692444
1776021786527742500,1.607742431640625,-0.2299186736345291,-1.573367714881897,-0.1737714558839798
1776021786537803500,1.617803466796875,-0.3116316795349121,-0.9421464204788208,-0.48992061614990234
1776021786547864300,1.6278642578125,-0.3995242416858673,-0.7179362177848816,-1.0431596040725708
1776021786557925000,1.637925048828125,-0.45535728335380554,-1.1299985647201538,-1.4664329290390015
1776021786567986200,1.647986083984375,-0.5009803771972656,-1.6060255765914917,-1.561508297920227
1776021786578048300,1.65804833984375,-0.4525071382522583,-1.5763870477676392,-1.3817204236984253
1776021786588109300,1.668109375,-0.3483056426048279,-1.1837990283966064,-1.0596184730529785
1776021786598170400,1.67817041015625,-0.3048246204853058,-0.7035158276557922,-0.7491419911384583
1776021786608231400,1.6882314453125,-0.21063154935836792,-0.11635882407426834,-0.6350995898246765
1776021786618292200,1.698292236328125,-0.20905280113220215,0.5378978848457336,-0.7074164748191833
1776021786628354300,1.708354248046875,-0.3373343348503113,1.1945396661758423,-0.9496221542358398
1776021786638415400,1.718415283203125,-0.4672514498233795,1.828358769416809,-1.282607078552246
1776021786648476400,1.728476318359375,-0.5664182901382446,2.2780606746673584,-1.5829721689224243
1776021786658537500,1.738537353515625,-0.6128742694854736,2.628882646560669,-1.717258095741272
1776021786668598500,1.7485986328125,-0.5910520553588867,2.9340474605560303,-1.5921225547790527
1776021786678660400,1.758660400390625,-0.5209545493125916,3.2300519943237305,-1.288150429725647
1776021786688721400,1.768721435546875,-0.41152337193489075,3.6340506076812744,-1.0174731016159058
1776021786698782200,1.7787822265625,-0.30188655853271484,4.189328670501709,-0.9567081332206726
1776021786708843300,1.78884326171875,-0.17104147374629974,4.896815299987793,-1.1534548997879028
1776021786718904300,1.798904296875,-0.003949173726141453,5.448039531707764,-1.3995450735092163
1776021786728965400,1.80896533203125,0.10401244461536407,5.547626972198486,-1.7581900358200073
1776021786739027200,1.819027099609375,0.4305483102798462,4.893159866333008,-2.360973834991455
1776021786749088300,1.829088134765625,1.0096946954727173,3.4177234172821045,-2.7415294647216797
1776021786759149300,1.8391494140625,1.5025557279586792,1.9084779024124146,-2.544830799102783
1776021786769210400,1.84921044921875,1.5544730424880981,1.351853847503662,-1.5684990882873535
1776021786779271400,1.859271484375,0.8076242208480835,1.902640461921692,-0.013469656929373741
1776021786789333200,1.869333251953125,0.11665644496679306,2.7251639366149902,1.1220577955245972
1776021786799394300,1.879394287109375,-0.014905715361237526,2.8714864253997803,1.6041322946548462
1776021786809455400,1.889455322265625,0.06363622844219208,2.0877509117126465,1.3356893062591553
1776021786819516400,1.899516357421875,-0.2054722011089325,2.015852928161621,0.617834210395813
1776021786829577200,1.9095771484375,-0.7131583094596863,2.8416926860809326,0.1534271389245987
1776021786839639300,1.919639404296875,-1.1374633312225342,3.5829358100891113,0.2883204221725464
1776021786849700000,1.9297001953125,-0.6985781788825989,3.4432599544525146,0.5669358372688293
1776021786859761200,1.93976123046875,0.19963577389717102,3.0771963596343994,0.8572667241096497
1776021786869822200,1.949822265625,0.8632952570915222,2.8837153911590576,1.1285374164581299
1776021786879883300,1.95988330078125,1.3407920598983765,2.56384539604187,1.3022788763046265
1776021786889945300,1.9699453125,1.640973448753357,2.293138265609741,1.3668626546859741
1776021786900006400,1.98000634765625,1.5399423837661743,2.201586961746216,1.2349961996078491
1776021786910067200,1.990067138671875,1.1397782564163208,1.9116042852401733,0.8602210283279419
1776021786920128300,2.000128173828125,0.6280598640441895,1.179288625717163,0.41345691680908203
1776021786930189300,2.010189208984375,0.12842363119125366,0.49974337220191956,0.2772916555404663
1776021786940251400,2.02025146484375,-0.39153024554252625,0.574232816696167,0.8509854078292847
1776021786950312400,2.0303125,-0.8328559398651123,0.8288224935531616,1.7914975881576538
1776021786960373500,2.04037353515625,-1.1608407497406006,0.45570069551467896,1.8739209175109863
1776021786970434300,2.050434326171875,-1.316071629524231,0.2325213998556137,1.1490470170974731
1776021786980495000,2.0604951171875,-1.2487468719482422,0.3317268490791321,0.5536893606185913
1776021786990556200,2.07055615234375,-1.1235724687576294,0.4795288145542145,0.3369040787220001
1776021787000618200,2.0806181640625,-0.9221890568733215,0.495467871427536,0.27342310547828674
1776021787010679300,2.09067919921875,-0.7062863111495972,0.3620046079158783,0.33098122477531433
1776021787020740400,2.100740234375,-0.6123342514038086,0.14985688030719757,0.3933045566082001
1776021787030801400,2.110801513671875,-0.5689125061035156,-0.06918465346097946,0.48531490564346313
1776021787040862200,2.1208623046875,-0.7406443357467651,-0.4225027561187744,0.7942360043525696
1776021787050924300,2.13092431640625,-0.9810699820518494,-0.3266769051551819,1.0159178972244263
1776021787060985300,2.1409853515625,-1.2990692853927612,-0.1775280237197876,1.5417886972427368
1776021787071046400,2.15104638671875,-1.9191163778305054,-0.49090778827667236,1.9244003295898438
1776021787081107500,2.161107421875,-2.4821901321411133,-1.3883179426193237,1.7923853397369385
1776021787091168500,2.17116845703125,-2.9201650619506836,-1.9926849603652954,1.4357126951217651
1776021787101230300,2.181230224609375,-3.2607038021087646,-1.804221749305725,0.983296811580658
1776021787111291400,2.19129150390625,-3.464724540710449,-0.8103303909301758,0.5411449670791626
1776021787121352200,2.201352294921875,-4.063016891479492,0.236697256565094,0.35319289565086365
1776021787131413200,2.211413330078125,-4.493216037750244,2.014601707458496,-0.03925555944442749
1776021787141474300,2.221474365234375,-4.714866638183594,3.851564884185791,-0.648055374622345
1776021787151536000,2.2315361328125,-4.781610488891602,4.663412570953369,-1.232887625694275
1776021787161597200,2.24159716796875,-4.83146858215332,4.108196258544922,-1.620718002319336
1776021787171658200,2.251658203125,-4.939694881439209,3.4044687747955322,-1.8632022142410278
1776021787181719300,2.26171923828125,-5.0700459480285645,2.535381555557251,-2.0455994606018066
1776021787191780400,2.2717802734375,-5.20404052734375,1.6417393684387207,-2.0762271881103516
1776021787201841400,2.28184130859375,-5.265292644500732,1.0886931419372559,-2.0221197605133057
1776021787211903200,2.2919033203125,-5.182895183563232,0.8353607058525085,-1.8213541507720947
1776021787221964300,2.30196435546875,-4.896968841552734,0.6810526251792908,-1.492930293083191
1776021787232025300,2.312025390625,-4.41671895980835,0.2689574658870697,-0.9931694865226746
1776021787242086400,2.32208642578125,-3.7620623111724854,-0.3746096193790436,-0.4014466106891632
1776021787252147200,2.332147216796875,-3.014655590057373,-1.0913804769515991,0.21656309068202972
1776021787262209500,2.34220947265625,-2.235887289047241,-2.029237747192383,0.6295594573020935
1776021787272270000,2.35227001953125,-1.536348819732666,-2.884610414505005,0.8377975821495056
1776021787282331600,2.36233154296875,-0.9437119364738464,-3.6445348262786865,0.8135479092597961
1776021787292392700,2.372392822265625,-0.28610843420028687,-4.258502960205078,0.7213295698165894
1776021787302453800,2.382453857421875,1.1818870306015015,-5.529653072357178,0.7632247805595398
1776021787312515800,2.392515869140625,2.923283100128174,-7.011362075805664,1.07887864112854
1776021787322576600,2.40257666015625,3.5941216945648193,-7.27022123336792,1.4936575889587402
1776021787332637700,2.4126376953125,2.1567046642303467,-3.255542039871216,-0.5041401386260986
1776021787342698500,2.422698486328125,0.27176129817962646,0.9985525608062744,-2.5946545600891113
1776021787352759600,2.432759521484375,-0.454272598028183,2.23306941986084,-2.7087185382843018
1776021787362821600,2.442821533203125,-0.5997999310493469,2.5962252616882324,-2.347080945968628
1776021787372882700,2.452882568359375,-0.5504403710365295,2.71683931350708,-1.956420660018921
1776021787382943700,2.46294384765625,-0.4499778747558594,2.6642820835113525,-1.549646019935608
1776021787393004500,2.473004638671875,-0.38554590940475464,2.6160590648651123,-1.0575608015060425
1776021787403065600,2.483065673828125,-0.33831796050071716,2.5934345722198486,-0.2187783569097519
1776021787413127700,2.493127685546875,-0.16022278368473053,2.197181463241577,0.7500434517860413
1776021787423188700,2.503188720703125,0.17312052845954895,1.4194520711898804,1.4752315282821655
1776021787433249800,2.513249755859375,0.4464561641216278,0.6435027718544006,1.863361120223999
1776021787443310800,2.523310791015625,0.5785983800888062,0.011894529685378075,1.97378671169281
1776021787453371600,2.53337158203125,0.5818783044815063,-0.452877938747406,1.8536534309387207
1776021787463433700,2.543433837890625,0.4851609468460083,-0.7020485401153564,1.5157206058502197
1776021787473494800,2.553494873046875,0.2794612944126129,-0.6671555042266846,0.9397037029266357
1776021787483555800,2.563555908203125,0.02516876719892025,-0.5565418004989624,0.2997303903102875
1776021787493616600,2.57361669921875,-0.12339327484369278,-0.6717285513877869,-0.11621356010437012
1776021787503677700,2.583677734375,-0.1565251648426056,-0.9535979628562927,-0.31754252314567566
1776021787513739500,2.593739501953125,-0.1704031527042389,-1.2706449031829834,-0.3898811638355255
1776021787523800600,2.603800537109375,-0.20192526280879974,-1.530591368675232,-0.3846789002418518
1776021787533861600,2.613861572265625,-0.22426944971084595,-1.678725242614746,-0.3345387578010559
1776021787543922700,2.623922607421875,-0.21409392356872559,-1.677024245262146,-0.279742568731308
1776021787553983700,2.633983642578125,-0.1805868297815323,-1.4964395761489868,-0.2367897778749466
1776021787564045600,2.644045654296875,-0.14783401787281036,-1.1448900699615479,-0.2094801515340805
1776021787574106600,2.654106689453125,-0.1308145523071289,-0.7106308341026306,-0.18758603930473328
1776021787584167700,2.664167724609375,-0.10015760362148285,-0.3060627579689026,-0.13614851236343384
1776021787594228700,2.674228759765625,-0.03173380345106125,0.002653013449162245,-0.06457898020744324
1776021787604289800,2.684289794921875,0.08160646259784698,0.23839175701141357,0.037776052951812744
1776021787614352000,2.694351806640625,0.2313552051782608,0.4145470857620239,0.09959974139928818
1776021787624412700,2.70441259765625,0.23755794763565063,0.634587824344635,0.038878023624420166
1776021787634473500,2.714473388671875,0.1813380867242813,0.7563760876655579,0.00040679925587028265
1776021787644534500,2.724534423828125,0.1764538437128067,0.7424172163009644,-0.01339320931583643
1776021787654595600,2.734595703125,0.17515821754932404,0.6485551595687866,-0.021712925285100937
1776021787664657700,2.74465771484375,0.14054526388645172,0.54872727394104,-0.02935754507780075
1776021787674718700,2.75471875,0.07831092178821564,0.44788581132888794,-0.055917248129844666
1776021787684779500,2.764779541015625,0.01725607179105282,0.3166956305503845,-0.07720313966274261
1776021787694840600,2.774840576171875,-0.021081730723381042,0.1305188536643982,-0.08060159534215927
1776021787704901600,2.784901611328125,-0.048278555274009705,-0.09480464458465576,-0.05981117859482765
1776021787714963700,2.794963623046875,-0.0750955194234848,-0.31984788179397583,-0.016850927844643593
1776021787725024800,2.805024658203125,-0.09163670241832733,-0.47227758169174194,0.011493049561977386
1776021787735085800,2.8150859375,-0.09636886417865753,-0.5198749303817749,0.00605434225872159
1776021787745146600,2.825146728515625,-0.10337179154157639,-0.49280285835266113,-0.016632694751024246
1776021787755207700,2.835207763671875,-0.10215286165475845,-0.42117926478385925,-0.035758715122938156
1776021787765268500,2.8452685546875,-0.08725370466709137,-0.32660984992980957,-0.04827385023236275
1776021787775330800,2.855330810546875,-0.06840012222528458,-0.21697603166103363,-0.05405370891094208
1776021787785391600,2.8653916015625,-0.048726923763751984,-0.09037604182958603,-0.048325639218091965
1776021787795452700,2.87545263671875,-0.03383053094148636,0.03413153067231178,-0.03857048228383064
1776021787805513700,2.885513671875,-0.01736299693584442,0.1307198852300644,-0.029543599113821983
1776021787815574500,2.895574462890625,-0.00796523503959179,0.2043357789516449,-0.027875661849975586
1776021787825636600,2.90563671875,0.0048787472769618034,0.24001504480838776,-0.04153865575790405
1776021787835697700,2.91569775390625,0.013833893463015556,0.2513590157032013,-0.06771247088909149
1776021787845758700,2.9257587890625,0.019561156630516052,0.24957303702831268,-0.1035565435886383
1776021787855819800,2.93581982421875,0.013357589952647686,0.2357296645641327,-0.12520352005958557
1776021787865880800,2.945880859375,0.007481091655790806,0.22303506731987,-0.13781748712062836
1776021787875942700,2.955942626953125,-0.005706882104277611,0.21418963372707367,-0.13008765876293182
1776021787886003700,2.966003662109375,-0.020587660372257233,0.18842601776123047,-0.10057581961154938
1776021787896064800,2.976064697265625,-0.0279715396463871,0.1392771154642105,-0.04397698491811752
1776021787906125800,2.986125732421875,-0.03294920548796654,0.05390852689743042,0.023541713133454323
1776021787916186600,2.9961865234375,-0.037084829062223434,-0.031639665365219116,0.07063785195350647
1776021787926248700,3.006248779296875,-0.022740986198186874,-0.09474147856235504,0.08235470950603485
1776021787936309500,3.0163095703125,0.0012106862850487232,-0.12444371730089188,0.06451046466827393
1776021787946370600,3.02637060546875,0.014456739649176598,-0.1269523650407791,0.04691675677895546
1776021787956431600,3.036431640625,0.025689421221613884,-0.10677331686019897,0.037509672343730927
1776021787966492700,3.04649267578125,0.033931054174900055,-0.06973134726285934,0.0415845550596714
1776021787976554800,3.0565546875,0.03532947599887848,-0.034891605377197266,0.055565353482961655
1776021787986615600,3.066615478515625,0.03160867094993591,0.0049103666096925735,0.06257359683513641
1776021787996676600,3.076676513671875,0.04586030915379524,0.05925190448760986,0.04780504107475281
1776021788006737700,3.086737548828125,0.063851498067379,0.12003542482852936,0.011912279762327671
1776021788016798700,3.096798828125,0.07794494926929474,0.18785016238689423,-0.028061768040060997
1776021788026860800,3.10686083984375,0.08431555330753326,0.25230035185813904,-0.059834226965904236
1776021788036921900,3.116921875,0.09231089055538177,0.32692664861679077,-0.08077386021614075
1776021788046982700,3.126982666015625,0.09108436852693558,0.38833123445510864,-0.08798564225435257
1776021788057043700,3.137043701171875,0.0694160908460617,0.4326646029949188,-0.07652419805526733
1776021788067104500,3.1471044921875,0.035048626363277435,0.4556574821472168,-0.049750667065382004
1776021788077166800,3.157166748046875,-0.006142220925539732,0.4347303509712219,-0.016131985932588577
1776021788087227600,3.1672275390625,-0.04866568744182587,0.36322158575057983,0.02078094892203808
1776021788097288700,3.177288818359375,-0.06907588988542557,0.2485826462507248,0.045259129256010056
1776021788107349800,3.187349853515625,-0.08870688080787659,0.10727275907993317,0.049337152391672134
1776021788117410600,3.19741064453125,-0.10376173257827759,-0.054780323058366776,0.046981584280729294
1776021788127472600,3.20747265625,-0.11533897370100021,-0.2330344021320343,0.04131662845611572
1776021788137533700,3.21753369140625,-0.1158931776881218,-0.3554418087005615,0.03588990494608879
1776021788147594800,3.2275947265625,-0.09882482141256332,-0.40253809094429016,0.025087842717766762
1776021788157655800,3.23765576171875,-0.0886579379439354,-0.4005316495895386,0.008492089807987213
1776021788167716900,3.247716796875,-0.08362027257680893,-0.3469310998916626,-0.005517910234630108
1776021788177778700,3.25777880859375,-0.07229917496442795,-0.24352535605430603,-0.011045833118259907
1776021788187839700,3.26783984375,-0.06486927717924118,-0.12201803922653198,-0.015869641676545143
1776021788197900800,3.27790087890625,-0.05596526712179184,-0.008966590277850628,-0.006911567412316799
1776021788207961900,3.2879619140625,-0.034726694226264954,0.06931152194738388,0.022949183359742165
1776021788218022700,3.298022705078125,-0.02795880287885666,0.07230038195848465,0.03169074282050133
1776021788228084500,3.30808447265625,-0.036840349435806274,0.037268031388521194,0.019934196025133133
1776021788238145500,3.3181455078125,-0.025480635464191437,0.04146730527281761,-0.012662363238632679
1776021788248206600,3.32820654296875,-0.024916045367717743,0.0531814843416214,-0.047737523913383484
1776021788258267600,3.338267578125,-0.059947267174720764,0.052137259393930435,-0.07681312412023544
1776021788268328700,3.34832861328125,-0.08829569816589355,0.01822613924741745,-0.10808511823415756
1776021788278390000,3.35839013671875,-0.09322813898324966,-0.0438164584338665,-0.13506773114204407
1776021788288451000,3.368451171875,-0.10621761530637741,-0.0888509601354599,-0.14895522594451904
1776021788298512000,3.378511962890625,-0.11118227988481522,-0.11391956359148026,-0.1608574241399765
1776021788308573000,3.388572998046875,-0.07168404012918472,-0.15580236911773682,-0.1618758589029312
1776021788318634000,3.398634033203125,-0.006297845393419266,-0.145626962184906,-0.1254826933145523
1776021788328696000,3.408696044921875,0.0348811037838459,0.014097543433308601,-0.027514221146702766
1776021788338757000,3.418757080078125,0.02085636556148529,0.3683381974697113,0.12169070541858673
1776021788348818200,3.428818115234375,0.02448561042547226,0.8199920654296875,0.248077392578125
1776021788358879000,3.43887890625,0.028684616088867188,1.2293007373809814,0.30735883116722107
1776021788368939800,3.448939697265625,0.009995553642511368,1.5402588844299316,0.34764766693115234
1776021788379001900,3.459001953125,-0.008330722339451313,1.7251321077346802,0.392466276884079
1776021788389063000,3.46906298828125,0.015774410218000412,1.761102318763733,0.41401177644729614
1776021788399124000,3.4791240234375,0.022048283368349075,1.5780930519104004,0.32789313793182373
1776021788409185000,3.48918505859375,-0.06462150067090988,1.0797189474105835,0.15037618577480316
1776021788419246000,3.49924609375,-0.08277467638254166,0.36864569783210754,0.009208676405251026
1776021788429308000,3.509307861328125,0.07113751769065857,-0.20040445029735565,-0.03373462334275246
1776021788439369000,3.519368896484375,0.10914002358913422,-0.33188655972480774,0.021763520315289497
1776021788449430000,3.529429931640625,0.041288960725069046,-0.1545926183462143,0.07106287777423859
1776021788459491000,3.539490966796875,-0.17297592759132385,-0.12069431692361832,0.02786773443222046
1776021788469552000,3.54955224609375,-0.3116912245750427,-0.4329490065574646,-0.060087040066719055
1776021788479613200,3.55961328125,-0.28687480092048645,-0.9466050863265991,-0.17738357186317444
1776021788489675000,3.569675048828125,-0.04601522535085678,-1.3739333152770996,-0.27118343114852905
1776021788499736000,3.579736083984375,0.14496831595897675,-1.5176222324371338,-0.3691387474536896
1776021788509796900,3.589796875,0.11635401844978333,-1.3545238971710205,-0.3768923282623291
1776021788519858000,3.59985791015625,-0.02111009694635868,-1.0162912607192993,-0.30251529812812805
1776021788529919000,3.6099189453125,-0.029404178261756897,-0.7226762771606445,-0.19665031135082245
1776021788539980800,3.619980712890625,0.06872478872537613,-0.466519296169281,-0.0963415578007698
1776021788550041900,3.630041748046875,0.17127655446529388,-0.16900375485420227,-0.012528229504823685
1776021788560103000,3.64010302734375,0.17984500527381897,0.17946502566337585,0.05381856858730316
1776021788570164000,3.6501640625,0.14775720238685608,0.5461200475692749,0.10234628617763519
1776021788580225000,3.66022509765625,0.11322852969169617,0.8501361012458801,0.13398250937461853
1776021788590286800,3.670286865234375,0.09341081976890564,1.0207477807998657,0.15592803061008453
1776021788600348000,3.680347900390625,0.06207047402858734,1.043129563331604,0.1731400489807129
1776021788610409000,3.690408935546875,0.005548369139432907,0.9048188924789429,0.18965023756027222
1776021788620470000,3.700469970703125,-0.04416193068027496,0.6262834072113037,0.18301549553871155
1776021788630531000,3.710531005859375,-0.05895282328128815,0.2776646018028259,0.14142312109470367
1776021788640593200,3.72059326171875,-0.07600691169500351,-0.03403497114777565,0.07095614075660706
1776021788650654000,3.730654052734375,-0.10213102400302887,-0.2571871280670166,-0.012222498655319214
1776021788660714800,3.74071484375,-0.10903660207986832,-0.4022729694843292,-0.08511561155319214
1776021788670775800,3.75077587890625,-0.10572344064712524,-0.4802083671092987,-0.12955182790756226
1776021788680838000,3.760837890625,-0.08438566327095032,-0.4829389154911041,-0.13523660600185394
1776021788690899000,3.77089892578125,-0.06436420232057571,-0.4056529104709625,-0.1103672906756401
1776021788700960000,3.7809599609375,-0.04500541463494301,-0.2628185451030731,-0.06521445512771606
1776021788711021000,3.79102099609375,-0.015200447291135788,-0.07143396884202957,-0.007917235605418682
1776021788721081900,3.801081787109375,0.0366065576672554,0.15309526026248932,0.04466741532087326
1776021788731144000,3.81114404296875,0.08862625062465668,0.34091717004776,0.10623012483119965
1776021788741205000,3.821205078125,0.09142789989709854,0.4527193307876587,0.17854666709899902
1776021788751266000,3.83126611328125,0.08883260190486908,0.4544668197631836,0.22773274779319763
1776021788761327000,3.8413271484375,0.07697487622499466,0.36007267236709595,0.2410711944103241
1776021788771388200,3.85138818359375,0.05595284327864647,0.19032354652881622,0.21923500299453735
1776021788781450000,3.861449951171875,0.04279682785272598,-0.007783948443830013,0.16298051178455353
1776021788791511000,3.871510986328125,0.02815406210720539,-0.20906387269496918,0.07344023138284683
1776021788801572000,3.881572021484375,0.0034135612659156322,-0.374451220035553,-0.0299569983035326
1776021788811633000,3.8916328125,-0.015426311641931534,-0.5184650421142578,-0.12193772941827774
1776021788821694000,3.90169384765625,-0.03274085372686386,-0.6074007749557495,-0.19292855262756348
1776021788831755800,3.911755859375,-0.0482381135225296,-0.6086567640304565,-0.22672824561595917
1776021788841816800,3.92181689453125,-0.04798750951886177,-0.5158677101135254,-0.2276718020439148
1776021788851878000,3.9318779296875,-0.03275639936327934,-0.33278924226760864,-0.189751535654068
1776021788861939000,3.94193896484375,-0.007764231879264116,-0.10053334385156631,-0.11761955916881561
1776021788872000000,3.952,0.03695276007056236,0.14489902555942535,-0.024347757920622826
1776021788882061000,3.96206103515625,0.05348992347717285,0.3671339750289917,0.07630454748868942
1776021788892123000,3.972122802734375,0.04756724089384079,0.5193575620651245,0.15258152782917023
1776021788902184000,3.982183837890625,0.04258206859230995,0.5785199403762817,0.1726689636707306
1776021788912245000,3.992244873046875,0.0009576459415256977,0.5089651942253113,0.15625666081905365
1776021788922306000,4.00230615234375,-0.014301201328635216,0.30595484375953674,0.09092159569263458
1776021788932368100,4.0123681640625,-0.025231823325157166,0.08990433812141418,-0.009621870703995228
1776021788942429200,4.02242919921875,-0.09171603620052338,0.09922460466623306,-0.007727031596004963
1776021788952489700,4.03248974609375,-0.2088422179222107,0.549206018447876,0.11339634656906128
1776021788962550800,4.04255078125,-0.39320433139801025,1.9440654516220093,0.6249088644981384
1776021788972611800,4.05261181640625,-0.4360136091709137,3.9124507904052734,1.095866084098816
1776021788982674000,4.062673828125,0.8036907911300659,4.605020999908447,0.23924566805362701
1776021788992735000,4.07273486328125,1.0529601573944092,3.8875532150268555,-0.6180111765861511
1776021789002796000,4.082796142578125,0.4992614984512329,2.5147018432617188,-0.9165408611297607
1776021789012857000,4.092857177734375,-0.18689855933189392,0.8574097752571106,-0.7953428030014038
1776021789022918000,4.10291796875,-0.6097525954246521,-0.5711769461631775,-0.4468284547328949
1776021789032980000,4.11297998046875,-0.7123709917068481,-1.4599539041519165,-0.10479078441858292
1776021789043041000,4.123041015625,-0.6492546796798706,-1.8952479362487793,0.11488804221153259
1776021789053102000,4.13310205078125,-0.5824623107910156,-1.9836218357086182,0.2026871144771576
1776021789063163100,4.1431630859375,-0.5250935554504395,-1.8616828918457031,0.237025648355484
1776021789073224200,4.15322412109375,-0.5050489902496338,-1.650896430015564,0.24543297290802002
1776021789083286000,4.1632861328125,-0.5300821661949158,-1.4956774711608887,0.28301844000816345
1776021789093347000,4.17334716796875,-0.5622281432151794,-1.4182506799697876,0.327635794878006
1776021789103407900,4.183407958984375,-0.5718246102333069,-1.3662968873977661,0.3412056565284729
1776021789113469000,4.193468994140625,-0.542428195476532,-1.2841219902038574,0.30270901322364807
1776021789123530000,4.203530029296875,-0.47940632700920105,-1.1442391872406006,0.22130684554576874
1776021789133591800,4.213591796875,-0.41782861948013306,-0.9808244705200195,0.12279665470123291
1776021789143652900,4.22365283203125,-0.36102285981178284,-0.7999425530433655,0.03603725880384445
1776021789153714000,4.2337138671875,-0.3128437101840973,-0.6191901564598083,-0.020942511036992073
1776021789163775000,4.24377490234375,-0.2531795799732208,-0.4147645831108093,-0.04432426765561104
1776021789173836000,4.2538359375,-0.1899338960647583,-0.1693565994501114,-0.0352042131125927
1776021789183897900,4.26389794921875,-0.14047446846961975,0.10719749331474304,0.0010054552694782615
1776021789193959000,4.273958984375,-0.11327791213989258,0.39829015731811523,0.053830958902835846
1776021789204020000,4.28402001953125,-0.07733375579118729,0.6781558394432068,0.10394232720136642
1776021789214081000,4.2940810546875,-0.04384397342801094,0.9320406317710876,0.1349732130765915
1776021789224142000,4.30414208984375,-0.03126906231045723,1.1370842456817627,0.14531853795051575
1776021789234204200,4.3142041015625,-0.04100102186203003,1.2735702991485596,0.13039782643318176
1776021789244265000,4.324264892578125,-0.08519352227449417,1.3320540189743042,0.10318803787231445
1776021789254325800,4.33432568359375,-0.14308133721351624,1.2910974025726318,0.07343490421772003
1776021789264386800,4.34438671875,-0.20332151651382446,1.1597121953964233,0.05772358179092407
1776021789274448000,4.35444775390625,-0.24830524623394012,0.9283965826034546,0.04959600046277046
1776021789284510700,4.3645107421875,-0.2949385344982147,0.6344289183616638,0.041314635425806046
1776021789294571500,4.374571533203125,-0.36740195751190186,0.3312876522541046,0.017317870631814003
1776021789304632600,4.384632568359375,-0.45524394512176514,0.06633029878139496,-0.037840455770492554
1776021789314693600,4.394693603515625,-0.5216089487075806,-0.13095669448375702,-0.12294798344373703
1776021789324754400,4.40475439453125,-0.5643801093101501,-0.27274924516677856,-0.20879311859607697
1776021789334816800,4.414816650390625,-0.5875828862190247,-0.390060156583786,-0.2747418284416199
1776021789344877600,4.424877685546875,-0.5905640125274658,-0.4819490611553192,-0.30167916417121887
1776021789354938600,4.434938720703125,-0.5725802183151245,-0.5303986072540283,-0.3069738447666168
1776021789364999400,4.44499951171875,-0.5477827191352844,-0.4790975749492645,-0.30973687767982483
1776021789375060500,4.455060546875,-0.5075120329856873,-0.2899685204029083,-0.31719040870666504
1776021789385122600,4.46512255859375,-0.43154218792915344,-0.03890778496861458,-0.28639814257621765
1776021789395183600,4.47518359375,-0.31668198108673096,0.1635342240333557,-0.16894200444221497
1776021789405244700,4.48524462890625,-0.1926729381084442,0.25777629017829895,0.029777754098176956
1776021789415305700,4.4953056640625,-0.08686558157205582,0.25213104486465454,0.2498575747013092
1776021789425366500,4.505366455078125,-0.005095349159091711,0.20319651067256927,0.42031747102737427
1776021789435428600,4.5154287109375,0.05313476175069809,0.11767330020666122,0.5098124742507935
1776021789445489700,4.52548974609375,0.08008994162082672,-0.0016315211541950703,0.5139193534851074
1776021789455550700,4.53555078125,0.08709744364023209,-0.1460219770669937,0.4738457202911377
1776021789465611800,4.54561181640625,0.07588686794042587,-0.2839239239692688,0.4107908606529236
1776021789475673600,4.555673583984375,0.05484148859977722,-0.3867080509662628,0.3482443392276764
1776021789485734700,4.565734619140625,0.03804386407136917,-0.4347165822982788,0.2967877984046936
1776021789495795500,4.57579541015625,0.02813076227903366,-0.4230191111564636,0.26193392276763916
1776021789505856500,4.5858564453125,0.024606600403785706,-0.3343225419521332,0.24837763607501984
1776021789515917600,4.59591748046875,0.04737427830696106,-0.1828768253326416,0.2500782907009125
1776021789525979400,4.6059794921875,0.10517419129610062,0.034446168690919876,0.2815094292163849
1776021789536040400,4.61604052734375,0.19246536493301392,0.31752046942710876,0.35922637581825256
1776021789546101500,4.6261015625,0.2755056619644165,0.6451412439346313,0.47740840911865234
1776021789556162600,4.63616259765625,0.36573103070259094,1.0107065439224243,0.6147715449333191
1776021789566223600,4.6462236328125,0.4805425703525543,1.4982908964157104,0.7331410646438599
1776021789576285700,4.65628564453125,0.6345536112785339,2.1328561305999756,0.8786264061927795
1776021789586346800,4.6663466796875,0.8204632997512817,2.7775800228118896,1.0942002534866333
1776021789596407600,4.676407470703125,0.9922983646392822,3.2599475383758545,1.315710425376892
1776021789606468600,4.686468505859375,1.109462857246399,3.468022346496582,1.4158064126968384
1776021789616529700,4.69652978515625,1.1685094833374023,3.2749717235565186,1.3152060508728027
1776021789626591700,4.706591796875,1.2010903358459473,2.626333236694336,1.0365458726882935
1776021789636652800,4.71665283203125,1.282913327217102,1.6634814739227295,0.6772186756134033
1776021789646713600,4.726713623046875,1.4081652164459229,0.7274253964424133,0.3908337652683258
1776021789656774400,4.7367744140625,1.5212501287460327,-0.005386109463870525,0.21979396045207977
1776021789666835500,4.74683544921875,1.5196644067764282,-0.3901502788066864,0.1462707370519638
1776021789676897500,4.7568974609375,1.3827370405197144,-0.49314752221107483,0.08079605549573898
1776021789686958600,4.76695849609375,1.2474931478500366,-0.6357827186584473,0.01881258189678192
1776021789697019600,4.77701953125,1.1023848056793213,-0.9643579125404358,0.01679723896086216
1776021789707080700,4.787080810546875,0.9494870901107788,-1.2888656854629517,0.06424997746944427
1776021789717141500,4.7971416015625,0.8317676782608032,-1.5185130834579468,0.17525562644004822
1776021789727203600,4.80720361328125,0.7268849015235901,-1.7446117401123047,0.35523736476898193
1776021789737264600,4.8172646484375,0.6408569812774658,-2.0129971504211426,0.5378162264823914
1776021789747325700,4.82732568359375,0.5729213356971741,-2.2204952239990234,0.6690258979797363
1776021789757386800,4.83738671875,0.5816838145256042,-2.181164503097534,0.7232882380485535
1776021789767447800,4.84744775390625,0.7120266556739807,-1.820572018623352,0.6806718111038208
1776021789777509600,4.857509521484375,0.9064840078353882,-1.1939185857772827,0.5462316870689392
1776021789787570400,4.8675703125,1.023334264755249,-0.5480689406394958,0.34797754883766174
1776021789797631500,4.877631591796875,0.9508761167526245,-0.12399188429117203,0.1303928643465042
1776021789807692500,4.887692626953125,0.6677038073539734,-0.08031631261110306,-0.05996217578649521
1776021789817754600,4.897754638671875,0.3023393750190735,-0.339254766702652,-0.14902743697166443
1776021789827815400,4.9078154296875,-0.02297798916697502,-0.6718170046806335,-0.19137036800384521
1776021789837876500,4.91787646484375,-0.30205264687538147,-0.9543440937995911,-0.22975260019302368
1776021789847937500,4.9279375,-0.5611172318458557,-1.1094186305999756,-0.26823925971984863
1776021789857998600,4.93799853515625,-0.8084638118743896,-1.1410173177719116,-0.2803400754928589
1776021789868060700,4.948060791015625,-1.0652191638946533,-1.143894076347351,-0.22602039575576782
1776021789878121700,4.958121826171875,-1.301497459411621,-1.132690191268921,-0.1213068813085556
1776021789888182500,4.9681826171875,-1.46087646484375,-1.0644307136535645,-0.0006350627518258989
1776021789898243600,4.97824365234375,-1.509121298789978,-0.954912006855011,0.053519073873758316
1776021789908304600,4.9883046875,-1.468690276145935,-0.7530417442321777,-0.0014629510696977377
1776021789918366700,4.99836669921875,-1.3882635831832886,-0.41357389092445374,-0.19285528361797333
1776021789928427800,5.008427734375,-1.3698720932006836,-0.00703171594068408,-0.4789714515209198
1776021789938488600,5.018488525390625,-1.4149277210235596,0.35585886240005493,-0.7637425661087036
1776021789948549600,5.028549560546875,-1.4927455186843872,0.5899813175201416,-0.9101908206939697
1776021789958610400,5.0386103515625,-1.5781021118164062,0.6289990544319153,-0.8679981827735901
1776021789968672500,5.048672607421875,-1.6403931379318237,0.5072917938232422,-0.6761139631271362
1776021789978733600,5.058733642578125,-1.6680313348770142,0.3010925054550171,-0.4738922417163849
1776021789988794600,5.068794677734375,-1.667612910270691,0.036570027470588684,-0.3272985517978668
1776021789998855700,5.078855712890625,-1.6515589952468872,-0.28898492455482483,-0.25965389609336853
1776021790008916700,5.088916748046875,-1.6440671682357788,-0.6169005036354065,-0.2693270444869995
1776021790018978600,5.098978515625,-1.6482024192810059,-0.8264522552490234,-0.3481150269508362
1776021790029039600,5.10903955078125,-1.638925313949585,-0.9063066244125366,-0.44724133610725403
1776021790039100700,5.1191005859375,-1.5846222639083862,-0.9044528007507324,-0.5440998673439026
1776021790049161700,5.12916162109375,-1.4969030618667603,-0.8711246848106384,-0.61678147315979
1776021790059222800,5.139222900390625,-1.4036976099014282,-0.8161582946777344,-0.6304516196250916
1776021790069284600,5.14928466796875,-1.3452279567718506,-0.7278151512145996,-0.5715829730033875
1776021790079345700,5.159345703125,-1.326755166053772,-0.6284911036491394,-0.4732707738876343
1776021790089406500,5.169406494140625,-1.3375529050827026,-0.5640804171562195,-0.3599138557910919
1776021790099467500,5.179467529296875,-1.3351517915725708,-0.5444280505180359,-0.27724891901016235
1776021790109529600,5.189529541015625,-1.2766852378845215,-0.5493128299713135,-0.26937660574913025
1776021790119590400,5.19959033203125,-1.1561813354492188,-0.5025717616081238,-0.3652174472808838
1776021790129651500,5.2096513671875,-1.0436862707138062,-0.3268726170063019,-0.4921279847621918
1776021790139712500,5.21971240234375,-0.9751288890838623,-0.031194865703582764,-0.580359697341919
1776021790149773600,5.229773681640625,-0.9432902932167053,0.28730109333992004,-0.6238570809364319
1776021790159835600,5.239835693359375,-0.9072007536888123,0.5760220289230347,-0.6209049820899963
1776021790169896700,5.249896728515625,-0.8580803275108337,0.7502439022064209,-0.5853637456893921
1776021790179957500,5.25995751953125,-0.8111675381660461,0.8090577125549316,-0.5414347052574158
1776021790190018600,5.2700185546875,-0.7763051390647888,0.7400378584861755,-0.5063398480415344
1776021790200079600,5.28007958984375,-0.7407309412956238,0.5806664824485779,-0.47063177824020386
1776021790210141700,5.2901416015625,-0.7084907293319702,0.35831594467163086,-0.4350666403770447
1776021790220202800,5.30020263671875,-0.6758773326873779,0.09180234372615814,-0.41740891337394714
1776021790230263800,5.310263916015625,-0.63133704662323,-0.1686718463897705,-0.43187999725341797
1776021790240324600,5.32032470703125,-0.5742616653442383,-0.3790552318096161,-0.4791632294654846
1776021790250385400,5.330385498046875,-0.519219160079956,-0.4851454496383667,-0.5538185834884644
1776021790260447500,5.340447509765625,-0.4496172070503235,-0.4824233651161194,-0.6387481093406677
1776021790270508500,5.350508544921875,-0.36522242426872253,-0.3430076837539673,-0.6956854462623596
1776021790280569000,5.360569091796875,-0.25406500697135925,-0.15202876925468445,-0.6908367872238159
1776021790290630000,5.3706298828125,-0.12949351966381073,-0.03850487247109413,-0.6048992276191711
1776021790300692000,5.38069189453125,-0.033577241003513336,-0.0225084088742733,-0.46932655572891235
1776021790310752800,5.390752685546875,0.040021345019340515,-0.07308290153741837,-0.33035722374916077
1776021790320813800,5.400813720703125,0.09773482382297516,-0.14146703481674194,-0.22565007209777832
1776021790330875000,5.410875,0.14183545112609863,-0.16605520248413086,-0.15463155508041382
1776021790340936000,5.42093603515625,0.1718284785747528,-0.18040773272514343,-0.09078921377658844
1776021790350998000,5.430998046875,0.20731988549232483,-0.21641606092453003,-0.047023892402648926
1776021790361059000,5.44105908203125,0.24587182700634003,-0.3191485106945038,-0.03821611404418945
1776021790371119900,5.451119873046875,0.2516873776912689,-0.40910157561302185,-0.05145548656582832
1776021790381181000,5.461180908203125,0.24909907579421997,-0.3924669027328491,-0.06797462701797485
1776021790391242000,5.471241943359375,0.2589448094367981,-0.2556725740432739,-0.07412200421094894
1776021790401304000,5.481303955078125,0.32385706901550293,-0.03759218379855156,-0.06625431776046753
1776021790411365000,5.491365234375,0.39065927267074585,0.17721439898014069,-0.05552177503705025
1776021790421426200,5.50142626953125,0.4366312623023987,0.3253782391548157,-0.036629755049943924
1776021790431487000,5.511487060546875,0.45495834946632385,0.3989941477775574,-0.027736393734812737
1776021790441547800,5.5215478515625,0.43056774139404297,0.3888151943683624,-0.024181218817830086
1776021790451610000,5.531610107421875,0.3780616819858551,0.2839742600917816,-0.03016401082277298
1776021790461671000,5.5416708984375,0.3223783075809479,0.09355032444000244,-0.024926578626036644
1776021790471732000,5.55173193359375,0.2845449149608612,-0.14235301315784454,0.0030368799343705177
1776021790481793000,5.56179296875,0.2575583755970001,-0.36075225472450256,0.06468241661787033
1776021790491854000,5.57185400390625,0.23974928259849548,-0.4746852219104767,0.14228294789791107
1776021790501916000,5.581916015625,0.2542024552822113,-0.4650335907936096,0.20771946012973785
1776021790511977000,5.59197705078125,0.2990146577358246,-0.35230517387390137,0.2301589846611023
1776021790522038000,5.6020380859375,0.3579834997653961,-0.19739992916584015,0.18672823905944824
1776021790532099000,5.61209912109375,0.40545621514320374,-0.06198219209909439,0.10330258309841156
1776021790542161000,5.622160888671875,0.43916237354278564,0.012276452966034412,-0.0015588805545121431
1776021790552222000,5.632221923828125,0.4669564664363861,0.009337387979030609,-0.08290141075849533
1776021790562283000,5.642282958984375,0.4853777587413788,-0.061886705458164215,-0.12188896536827087
1776021790572344000,5.652343994140625,0.5165010690689087,-0.16715267300605774,-0.13232509791851044
1776021790582404900,5.66240478515625,0.5403704047203064,-0.21490004658699036,-0.17043393850326538
1776021790592467000,5.672467041015625,0.5528148412704468,-0.13693468272686005,-0.23388907313346863
1776021790602527700,5.68252783203125,0.5520172119140625,0.07528554648160934,-0.2878440320491791
1776021790612588800,5.6925888671875,0.5422274470329285,0.30858057737350464,-0.30417323112487793
1776021790622649900,5.70264990234375,0.5298333764076233,0.37422674894332886,-0.3083816170692444
1776021790632711000,5.7127109375,0.4983396530151367,0.2896287739276886,-0.3083750009536743
1776021790642773000,5.72277294921875,0.4608091413974762,0.23773641884326935,-0.2736539840698242
1776021790652834000,5.732833984375,0.4500156044960022,0.33252790570259094,-0.17791680991649628
1776021790662894800,5.742894775390625,0.4590832591056824,0.465856671333313,-0.08442049473524094
1776021790672956000,5.752955810546875,0.4632638990879059,0.4450080990791321,-0.06958775222301483
1776021790683018000,5.76301806640625,0.44637811183929443,0.2160804718732834,-0.1302831768989563
1776021790693079000,5.7730791015625,0.41033196449279785,-0.0951775386929512,-0.21666574478149414
1776021790703140000,5.78314013671875,0.3768374025821686,-0.3037087023258209,-0.2734948992729187
1776021790713201200,5.793201171875,0.3536631166934967,-0.32952404022216797,-0.2953155040740967
1776021790723262000,5.803261962890625,0.3452034294605255,-0.2483314871788025,-0.3077869117259979
1776021790733324000,5.813323974609375,0.35102829337120056,-0.1140061616897583,-0.30124327540397644
1776021790743385000,5.823385009765625,0.35240617394447327,0.032316904515028,-0.26846715807914734
1776021790753446000,5.83344580078125,0.3652242422103882,0.14389802515506744,-0.22252602875232697
1776021790763507000,5.8435068359375,0.38387489318847656,0.17644992470741272,-0.185602068901062
1776021790773568000,5.853568115234375,0.3996890187263489,0.15086627006530762,-0.17508789896965027
1776021790783629800,5.8636298828125,0.41276103258132935,0.022446300834417343,-0.18944236636161804
1776021790793691000,5.87369091796875,0.4089135527610779,-0.24488261342048645,-0.22392258048057556
1776021790803752000,5.883751953125,0.3878766894340515,-0.5758118629455566,-0.22748658061027527
1776021790813813000,5.89381298828125,0.3917454779148102,-0.84724360704422,-0.17710331082344055
1776021790823874000,5.9038740234375,0.41334331035614014,-1.0188403129577637,-0.11384489387273788
1776021790833936000,5.913935791015625,0.42804956436157227,-1.1170313358306885,-0.08414479345083237
1776021790843997000,5.923996826171875,0.4516976475715637,-1.110644817352295,-0.08463653177022934
1776021790854058000,5.93405810546875,0.46672987937927246,-0.9518972039222717,-0.08307831734418869
1776021790864119000,5.944119140625,0.43372011184692383,-0.6163033246994019,-0.03255075588822365
1776021790874181000,5.95418115234375,0.3675767779350281,-0.20256897807121277,0.022053629159927368
1776021790884242200,5.9642421875,0.3478482663631439,0.065910704433918,0.01903342269361019
1776021790894303000,5.974302978515625,0.33451753854751587,0.0855720266699791,-0.013145551085472107
1776021790904363800,5.98436376953125,0.2900046706199646,-0.10234557837247849,-0.02261427603662014
1776021790914424800,5.9944248046875,0.22094224393367767,-0.3562481701374054,-0.025471581146121025
1776021790924487000,6.00448681640625,0.1751876175403595,-0.4925384223461151,-0.011091827414929867
1776021790934548000,6.0145478515625,0.17419186234474182,-0.45432180166244507,0.019589120522141457
1776021790944609000,6.024609130859375,0.19527322053909302,-0.3498862087726593,0.023438643664121628
1776021790954670000,6.034670166015625,0.19668948650360107,-0.1889418065547943,0.025578493252396584
1776021790964731000,6.04473095703125,0.18494026362895966,-0.010533037595450878,0.06629879772663116
1776021790974793000,6.05479296875,0.1756088137626648,0.10920215398073196,0.1399485170841217
1776021790984854000,6.06485400390625,0.17703986167907715,0.07841609418392181,0.19704169034957886
1776021790994915000,6.0749150390625,0.18016694486141205,-0.2107832282781601,0.19551728665828705
1776021791004976000,6.08497607421875,0.21568912267684937,-0.6438737511634827,0.1723429411649704
1776021791015038000,6.095037841796875,0.235477477312088,-1.0624496936798096,0.18013136088848114
1776021791025099000,6.10509912109375,0.23133033514022827,-1.479923963546753,0.19410063326358795
1776021791035160000,6.11516015625,0.21405628323554993,-1.809136152267456,0.2128133326768875
1776021791045220900,6.125220947265625,0.1968805342912674,-1.9938840866088867,0.21344001591205597
1776021791055282000,6.135281982421875,0.1633358895778656,-2.0382003784179688,0.18376308679580688
1776021791065343700,6.14534375,0.10501997172832489,-1.8883342742919922,0.1921788603067398
1776021791075404800,6.15540478515625,0.05495120957493782,-1.5563416481018066,0.21285031735897064
1776021791085465900,6.1654658203125,0.06006770581007004,-1.138728380203247,0.19459210336208344
1776021791095527000,6.17552685546875,0.08699493110179901,-0.652542769908905,0.15419036149978638
1776021791105589000,6.185589111328125,0.1281820386648178,-0.12063958495855331,0.11568330228328705
1776021791115650000,6.195650146484375,0.19095566868782043,0.36624857783317566,0.059163302183151245
1776021791125710800,6.2057109375,0.2499488890171051,0.775105357170105,0.020391494035720825
1776021791135772000,6.21577197265625,0.2718973457813263,0.9848348498344421,-0.004771914333105087
1776021791145833000,6.2258330078125,0.2912297248840332,0.7225191593170166,-0.022220274433493614
1776021791155895000,6.23589501953125,0.3149627447128296,0.3063499629497528,0.011782168410718441
1776021791165956000,6.2459560546875,0.2805865705013275,0.04014464467763901,0.1260313242673874
1776021791176017200,6.25601708984375,0.22791992127895355,-0.287109911441803,0.15788379311561584
1776021791186078000,6.266077880859375,0.1234542727470398,-0.5105711221694946,0.15086933970451355
1776021791196138800,6.276138671875,0.02311834879219532,-0.6089791655540466,0.13555589318275452
1776021791206201000,6.286201171875,0.018904918804764748,-0.8841725587844849,0.07997728139162064
1776021791216262000,6.296261962890625,0.09834035485982895,-1.1558457612991333,0.09042113274335861
1776021791226323000,6.306322998046875,0.16172456741333008,-1.3700227737426758,0.11398967355489731
1776021791236384000,6.316384033203125,0.17017477750778198,-1.4790371656417847,0.1044963076710701
1776021791246445800,6.32644580078125,0.14239822328090668,-1.4224416017532349,0.08604521304368973
1776021791256507000,6.3365068359375,0.1082514226436615,-1.126930832862854,0.06614155322313309
1776021791266568000,6.34656787109375,0.09070084244012833,-0.7357885837554932,-0.0008375094039365649
1776021791276629000,6.35662890625,0.03671351075172424,-0.2953427731990814,-0.06634540855884552
1776021791286690000,6.36668994140625,-0.006687206216156483,0.14982424676418304,-0.08645465224981308
1776021791296751900,6.376751953125,-0.005706630647182465,0.5462155342102051,-0.10723769664764404
1776021791306813000,6.38681298828125,0.015097538009285927,0.5789574384689331,-0.14323455095291138
1776021791316874000,6.3968740234375,0.06342033296823502,0.30680447816848755,-0.13020184636116028
1776021791326935000,6.40693505859375,0.1286265105009079,0.0517103411257267,-0.03509688377380371
1776021791336996000,6.41699609375,0.20234893262386322,-0.24927054345607758,0.01563180610537529
1776021791347058200,6.42705810546875,0.2648234963417053,-0.3649017810821533,0.043580085039138794
1776021791357119000,6.437118896484375,0.31270286440849304,-0.30844756960868835,0.072517991065979
1776021791367180000,6.447179931640625,0.31749168038368225,-0.22965890169143677,0.10814012587070465
1776021791377241000,6.457240966796875,0.2923988401889801,-0.10896523296833038,0.18112140893936157
1776021791387303200,6.46730322265625,0.2664228677749634,-0.03171376511454582,0.22145558893680573
1776021791397364200,6.4773642578125,0.22648663818836212,0.048901449888944626,0.24331161379814148
1776021791407425300,6.48742529296875,0.20744818449020386,0.1481706202030182,0.26280179619789124
1776021791417486000,6.497486083984375,0.18278545141220093,0.03160564601421356,0.2540581226348877
1776021791427547000,6.507546875,0.1327909380197525,-0.18056534230709076,0.24189703166484833
1776021791437609000,6.51760888671875,0.12260889261960983,-0.27363163232803345,0.20212937891483307
1776021791447670000,6.527669921875,0.16591255366802216,-0.17057004570960999,0.12158041447401047
1776021791457731000,6.53773095703125,0.16818876564502716,0.13114719092845917,0.07045891135931015
1776021791467792100,6.547792236328125,0.12837427854537964,0.5887632369995117,0.0842081680893898
1776021791477854000,6.55785400390625,0.10772305727005005,0.9681899547576904,0.12388820201158524
1776021791487915000,6.5679150390625,0.0996636226773262,1.1631085872650146,0.15823648869991302
1776021791497976000,6.57797607421875,0.09663587808609009,1.2023142576217651,0.1482618898153305
1776021791508037000,6.588037109375,0.1012810543179512,1.0160808563232422,0.1039232611656189
1776021791518098200,6.59809814453125,0.10026665031909943,0.6914659738540649,0.060949694365262985
1776021791528160000,6.608159912109375,0.09614281356334686,0.34396207332611084,0.04596995189785957
1776021791538221000,6.618220947265625,0.10617706924676895,0.11622374504804611,0.07323220372200012
1776021791548282000,6.6282822265625,0.13104641437530518,0.021771106868982315,0.10216491669416428
1776021791558343200,6.63834326171875,0.15549342334270477,0.03828297182917595,0.138472318649292
1776021791568404000,6.648404052734375,0.1458662897348404,0.09250235557556152,0.181862473487854
1776021791578466000,6.658466064453125,0.12737995386123657,0.0995999425649643,0.20889782905578613
1776021791588526800,6.66852685546875,0.13681407272815704,0.12217697501182556,0.20298247039318085
1776021791598588000,6.678587890625,0.13708677887916565,0.17388543486595154,0.18475791811943054
1776021791608649000,6.68864892578125,0.1367608904838562,0.23259903490543365,0.16280552744865417
1776021791618711000,6.6987109375,0.15388208627700806,0.2719475030899048,0.13485220074653625
1776021791628772000,6.708772216796875,0.15379923582077026,0.2926775813102722,0.11579927057027817
1776021791638833200,6.718833251953125,0.14127518236637115,0.32386505603790283,0.10834455490112305
1776021791648894000,6.72889404296875,0.1284739226102829,0.2903274595737457,0.09325149655342102
1776021791658955000,6.738955078125,0.09486695379018784,0.23840191960334778,0.10171369463205338
1776021791669017000,6.74901708984375,0.06303765624761581,0.17016534507274628,0.13543331623077393
1776021791679078100,6.759078125,0.02924373745918274,0.0587376244366169,0.16758885979652405
1776021791689139200,6.76913916015625,-0.0026100771501660347,-0.05088241770863533,0.1668013334274292
1776021791699200300,6.7792001953125,-0.00777234835550189,-0.06846913695335388,0.1467842161655426
1776021791709262000,6.789261962890625,-0.005886330269277096,0.00929909385740757,0.10712093859910965
1776021791719323100,6.7993232421875,0.006945312488824129,0.13217973709106445,0.05948977172374725
1776021791729384000,6.809384033203125,0.043252892792224884,0.2782908082008362,0.039037324488162994
1776021791739445000,6.819445068359375,0.06712067127227783,0.29966801404953003,0.02132517285645008
1776021791749506000,6.829506103515625,0.05528032034635544,0.23607973754405975,0.030780207365751266
1776021791759568000,6.83956787109375,0.005580408498644829,0.11792406439781189,0.040518056601285934
1776021791769629000,6.84962890625,-0.022255470976233482,0.01986125111579895,-0.013479258865118027
1776021791779690000,6.85968994140625,-0.010290687903761864,0.022055963054299355,-0.10588615387678146
1776021791789751000,6.8697509765625,0.0184988584369421,0.0643848404288292,-0.17005077004432678
1776021791799813000,6.879813232421875,0.04665832594037056,0.09734252095222473,-0.17093254625797272
1776021791809874200,6.889874267578125,0.06511620432138443,0.07547971606254578,-0.1435384452342987
1776021791819935000,6.89993505859375,0.010576266795396805,-0.0066710845567286015,-0.1072254404425621
1776021791829996000,6.90999609375,-0.04212134703993797,-0.10503508150577545,-0.13088871538639069
1776021791840057000,6.92005712890625,-0.05526111647486687,-0.13798770308494568,-0.2350984811782837
1776021791850119200,6.930119140625,-0.024441905319690704,-0.057530004531145096,-0.3268861770629883
1776021791860180200,6.94018017578125,0.022559426724910736,0.06375168263912201,-0.3955017328262329
1776021791870241300,6.9502412109375,0.03730841726064682,0.16458234190940857,-0.42821231484413147
1776021791880302000,6.960302001953125,0.00689245481044054,0.23839132487773895,-0.4037940800189972
1776021791890364200,6.9703642578125,-0.0189382154494524,0.17147521674633026,-0.4305947422981262
1776021791900425000,6.980425048828125,-0.07045973092317581,0.06903060525655746,-0.44759687781333923
1776021791910486000,6.990486083984375,-0.09736885875463486,-0.08096326142549515,-0.47062695026397705
1776021791920547000,7.000547119140625,-0.09843359142541885,-0.16618254780769348,-0.4987395405769348
1776021791930608000,7.010608154296875,-0.07768092304468155,-0.14082707464694977,-0.5053822994232178
1776021791940670000,7.020669921875,-0.06267667561769485,-0.12605850398540497,-0.5249704122543335
1776021791950731000,7.03073095703125,-0.05950102210044861,-0.07992548495531082,-0.5161651372909546
1776021791960792000,7.0407919921875,-0.05531559884548187,-0.018404865637421608,-0.5061470866203308
1776021791970853000,7.05085302734375,-0.0693950206041336,0.059675510972738266,-0.5016885995864868
1776021791980914200,7.0609140625,-0.08009666204452515,0.11836306005716324,-0.4921624958515167
1776021791990976000,7.07097607421875,-0.04703230783343315,0.18642255663871765,-0.5019130706787109
1776021792001037000,7.081037109375,0.0043509891256690025,0.2753841280937195,-0.5380644202232361
1776021792011098000,7.09109814453125,0.022985082119703293,0.3346236050128937,-0.5441675782203674
1776021792021159200,7.1011591796875,-0.010271675884723663,0.30876457691192627,-0.5085451602935791
1776021792031221200,7.11122119140625,-0.06216069310903549,0.1761419177055359,-0.44351592659950256
1776021792041282000,7.121281982421875,-0.10474304109811783,0.017176499590277672,-0.40545108914375305
1776021792051342800,7.1313427734375,-0.09982308745384216,-0.13517624139785767,-0.43104204535484314
1776021792061404000,7.14140380859375,-0.09980630874633789,-0.19077293574810028,-0.4473877251148224
1776021792071466000,7.151466064453125,-0.09984339773654938,-0.1910603642463684,-0.4315750002861023
1776021792081527000,7.161527099609375,-0.1051231101155281,-0.1920289546251297,-0.36092185974121094
1776021792091588000,7.171588134765625,-0.11585632711648941,-0.24492858350276947,-0.2913967967033386
1776021792101649200,7.181649169921875,-0.10241694748401642,-0.27001500129699707,-0.2688398063182831
1776021792111710000,7.1917099609375,-0.09089112281799316,-0.25349393486976624,-0.25263890624046326
1776021792121772000,7.20177197265625,-0.07731644809246063,-0.20139291882514954,-0.2117263674736023
1776021792131833000,7.2118330078125,-0.03553130850195885,-0.12149859964847565,-0.1480029672384262
1776021792141894100,7.22189404296875,-0.02448451519012451,-0.04197181761264801,-0.047125887125730515
1776021792151955200,7.231955078125,-0.033564064651727676,-0.033851079642772675,0.06619065999984741
1776021792162017000,7.24201708984375,-0.030258283019065857,-0.06035805493593216,0.16086150705814362
1776021792172078000,7.252078125,-0.013919813558459282,-0.037360530346632004,0.2039559781551361
1776021792182139100,7.26213916015625,-0.01228196918964386,0.04636392742395401,0.20704205334186554
1776021792192200000,7.272199951171875,-0.01756373606622219,0.17022959887981415,0.24452808499336243
1776021792202261000,7.282260986328125,-0.014027591794729233,0.2564214766025543,0.3149402141571045
1776021792212323000,7.292322998046875,-0.037055760622024536,0.24823632836341858,0.39829161763191223
1776021792222383900,7.3023837890625,-0.07494721561670303,0.1763637363910675,0.43255212903022766
1776021792232445000,7.31244482421875,-0.10364729166030884,0.1427030861377716,0.41622042655944824
1776021792242506000,7.322506103515625,-0.12837234139442444,0.15642155706882477,0.3949846625328064
1776021792252567000,7.332567138671875,-0.14998933672904968,0.16363288462162018,0.37855300307273865
1776021792262629000,7.342629150390625,-0.15236248075962067,0.18212294578552246,0.3739028573036194
1776021792272690200,7.352690185546875,-0.15885686874389648,0.17237524688243866,0.3830265998840332
1776021792282751000,7.3627509765625,-0.18380296230316162,0.11663314700126648,0.3774334192276001
1776021792292812000,7.37281201171875,-0.1936635673046112,0.09877010434865952,0.3527279496192932
1776021792302874000,7.3828740234375,-0.19994144141674042,0.08373096585273743,0.29893797636032104
1776021792312935200,7.39293505859375,-0.21126613020896912,0.08926253020763397,0.23943756520748138
1776021792322996200,7.402996337890625,-0.21733440458774567,0.1271420121192932,0.18714720010757446
1776021792333057300,7.413057373046875,-0.2285412847995758,0.15803730487823486,0.15408842265605927
1776021792343118000,7.4231181640625,-0.2511208951473236,0.17737238109111786,0.13298313319683075
1776021792353180200,7.43318017578125,-0.27604353427886963,0.15178926289081573,0.1117369681596756
1776021792363241000,7.443240966796875,-0.30033329129219055,0.07539356499910355,0.08377864211797714
1776021792373302000,7.453302001953125,-0.3024177551269531,0.014751363545656204,0.07134262472391129
1776021792383363000,7.463363037109375,-0.2768239676952362,0.004113366361707449,0.07478209584951401
1776021792393425000,7.4734248046875,-0.25651514530181885,0.03103034570813179,0.05504892021417618
1776021792403486000,7.48348583984375,-0.2512045204639435,0.08134704828262329,0.005533034913241863
1776021792413547000,7.493547119140625,-0.23594416677951813,0.15662337839603424,-0.027464505285024643
1776021792423608000,7.503608154296875,-0.21743200719356537,0.1809452325105667,-0.05747193843126297
1776021792433670100,7.513670166015625,-0.20026865601539612,0.17168723046779633,-0.07183460146188736
1776021792443731000,7.52373095703125,-0.18404094874858856,0.17036683857440948,-0.06293484568595886
1776021792453792000,7.5337919921875,-0.18740713596343994,0.12452907860279083,-0.06570836901664734
1776021792463853000,7.54385302734375,-0.19579024612903595,0.03412381187081337,-0.09513816982507706
1776021792473914000,7.5539140625,-0.200994610786438,-0.04203374311327934,-0.13382938504219055
1776021792483976200,7.56397607421875,-0.1917547732591629,-0.10082195699214935,-0.16347062587738037
1776021792494037200,7.574037353515625,-0.17723777890205383,-0.10289188474416733,-0.18432286381721497
1776021792504098000,7.58409814453125,-0.14966394007205963,-0.05748419463634491,-0.20650193095207214
1776021792514158800,7.594158935546875,-0.1014876738190651,-0.08063732087612152,-0.266874223947525
1776021792524221000,7.604220947265625,-0.0584600530564785,-0.12491743266582489,-0.31395915150642395
1776021792534282000,7.614281982421875,-0.039976656436920166,-0.18992000818252563,-0.33582639694213867
1776021792544343000,7.624343017578125,-0.05516945943236351,-0.2528132200241089,-0.34299856424331665
1776021792554404000,7.634404052734375,-0.08564174175262451,-0.30176007747650146,-0.3702385127544403
1776021792564465200,7.644465087890625,-0.09002956748008728,-0.3076651096343994,-0.4018443524837494
1776021792574527000,7.65452685546875,-0.07267589867115021,-0.27090221643447876,-0.4453047513961792
1776021792584588000,7.664588134765625,-0.04417954012751579,-0.24951757490634918,-0.5106832385063171
1776021792594649000,7.674649169921875,-0.03423962742090225,-0.22727732360363007,-0.5450502634048462
1776021792604710100,7.684710205078125,-0.07207222282886505,-0.24152550101280212,-0.5652125477790833
1776021792614772000,7.69477197265625,-0.141011044383049,-0.33300450444221497,-0.5839128494262695
1776021792624833000,7.7048330078125,-0.192607119679451,-0.46722516417503357,-0.6260619163513184
1776021792634894000,7.71489404296875,-0.20386433601379395,-0.522229790687561,-0.6689982414245605
1776021792644955100,7.724955078125,-0.18437877297401428,-0.5282586216926575,-0.7037218809127808
1776021792655016000,7.735015869140625,-0.15505091845989227,-0.4909362196922302,-0.6869433522224426
1776021792665078300,7.745078369140625,-0.09730187058448792,-0.39642515778541565,-0.6227068305015564
1776021792675139000,7.75513916015625,-0.027289148420095444,-0.360888808965683,-0.5842674970626831
1776021792685200000,7.765199951171875,0.0065521723590791225,-0.3697589933872223,-0.5674965381622314
1776021792695261000,7.775260986328125,-0.027063023298978806,-0.40765130519866943,-0.5479028820991516
1776021792705323000,7.785322998046875,-0.07528754323720932,-0.4432583153247833,-0.5895328521728516
1776021792715384000,7.795384033203125,-0.0792820006608963,-0.3501890003681183,-0.6106705069541931
1776021792725445000,7.805445068359375,-0.03866853564977646,-0.19185738265514374,-0.5639352202415466
1776021792735506200,7.815506103515625,0.030839554965496063,-0.07617262005805969,-0.47019386291503906
1776021792745567000,7.82556689453125,0.09500548988580704,-0.053321901708841324,-0.3967476189136505
1776021792755629000,7.835629150390625,0.12391940504312515,-0.1374489665031433,-0.3515141010284424
1776021792765690000,7.845690185546875,0.1179126426577568,-0.2642569839954376,-0.32648971676826477
1776021792775751200,7.855751220703125,0.06306782364845276,-0.45029619336128235,-0.36324822902679443
1776021792785812200,7.865812255859375,0.01865827664732933,-0.5194843411445618,-0.36724406480789185
1776021792795874000,7.8758740234375,0.007746993564069271,-0.46466198563575745,-0.2963677644729614
1776021792805935000,7.88593505859375,0.04162639379501343,-0.2952130436897278,-0.1714783012866974
1776021792815996200,7.89599609375,0.0827142596244812,-0.07877399027347565,-0.04279297590255737
1776021792826057000,7.906056884765625,0.13092492520809174,0.16407592594623566,0.08885080367326736
1776021792836119000,7.916119140625,0.17613860964775085,0.3865196108818054,0.20188605785369873
1776021792846179800,7.926179931640625,0.20904755592346191,0.5229772925376892,0.306733101606369
1776021792856241000,7.936240966796875,0.2658925950527191,0.6125183701515198,0.4453938603401184
1776021792866302000,7.946302001953125,0.3422081470489502,0.5957484841346741,0.5898690223693848
1776021792876363000,7.956363037109375,0.3894478380680084,0.4615028202533722,0.719740092754364
1776021792886425000,7.966425048828125,0.389066219329834,0.3639107644557953,0.8533679246902466
1776021792896486100,7.976486083984375,0.3740024268627167,0.23714622855186462,0.8734327554702759
1776021792906547000,7.986546875,0.31635645031929016,0.14440564811229706,0.7609240412712097
1776021792916608000,7.99660791015625,0.21399043500423431,0.018010029569268227,0.5809436440467834
1776021792926670000,8.006670166015626,0.059877295047044754,-0.13391532003879547,0.39697009325027466
1776021792936731100,8.016731201171876,-0.07163900882005692,-0.2511064410209656,0.30591803789138794
1776021792946792200,8.026792236328125,-0.1412561684846878,-0.21094197034835815,0.3273082971572876
1776021792956853200,8.036853271484375,-0.18524125218391418,-0.04583863914012909,0.3509805500507355
1776021792966914000,8.0469140625,-0.29670971632003784,0.11504078656435013,0.333903044462204
1776021792976976100,8.05697607421875,-0.40342259407043457,0.05982600525021553,0.301554411649704
1776021792987037000,8.067036865234375,-0.3867514729499817,-0.17434336245059967,0.23347362875938416
1776021792997098000,8.077097900390624,-0.3883955180644989,-0.5089203715324402,0.16697408258914948
1776021793007159000,8.087158935546874,-0.5327246785163879,-0.6248911619186401,0.10071169584989548
1776021793017220900,8.097220947265624,-0.7580174803733826,-0.5651558041572571,-0.06296083331108093
1776021793027282000,8.107281982421876,-0.9419037103652954,-0.3238832950592041,-0.2948731482028961
1776021793037343000,8.117343017578126,-1.0950218439102173,-0.014158576726913452,-0.4873477816581726
1776021793047404000,8.127404052734375,-1.1665316820144653,0.13211901485919952,-0.5514525175094604
1776021793057465000,8.137465087890625,-1.1068681478500366,-0.04619474336504936,-0.4532734453678131
1776021793067527200,8.147527099609375,-0.9792156219482422,-0.4412778615951538,-0.21184352040290833
1776021793077588000,8.157587890625,-0.8493122458457947,-0.7450141310691833,0.029491879045963287
1776021793087649000,8.16764892578125,-0.503359854221344,-1.207173228263855,0.1171165406703949
1776021793097710000,8.1777099609375,-0.12902669608592987,-1.2828657627105713,0.18111830949783325
1776021793107772200,8.187772216796875,0.12521010637283325,-0.838070273399353,-0.13321992754936218
1776021793117833200,8.197833251953124,-0.08406463265419006,-0.5044299960136414,-0.825176477432251
1776021793127894300,8.207894287109376,-0.6597633361816406,-0.788295567035675,-1.1952924728393555
1776021793137955000,8.217955078125,-0.9713488817214966,-1.2674977779388428,-1.0636873245239258
1776021793148015900,8.228015869140625,-0.8439334034919739,-1.3412809371948242,-0.8125783205032349
1776021793158078000,8.238077880859375,-0.507841169834137,-0.975378155708313,-0.6262288093566895
1776021793168139000,8.248138916015625,-0.2009076029062271,-0.2871667742729187,-0.5082286596298218
1776021793178200000,8.258199951171875,-0.01945803314447403,0.687783420085907,-0.2992286682128906
1776021793188261000,8.26826123046875,0.1193922609090805,1.5887243747711182,0.20123973488807678
1776021793198323000,8.278322998046875,0.378972589969635,1.8406589031219482,0.8005807399749756
1776021793208384000,8.288384033203124,0.5582443475723267,1.4460915327072144,1.1294441223144531
1776021793218445000,8.298445068359374,0.5868480205535889,1.041197657585144,1.0598798990249634
1776021793228506000,8.308506103515626,0.6254478693008423,0.9762557148933411,0.7166892886161804
1776021793238568200,8.318568115234376,0.6991669535636902,0.8887679576873779,0.3508947491645813
1776021793248629000,8.32862890625,0.6963266730308533,0.5596576929092407,0.27714407444000244
1776021793258690000,8.33868994140625,0.6012097001075745,-0.0017463370459154248,0.4413544833660126
1776021793268751000,8.348751220703125,0.45915937423706055,-0.5002608299255371,0.549258828163147
1776021793278812200,8.358812255859375,0.2685365676879883,-0.7456669211387634,0.47416943311691284
1776021793288874000,8.3688740234375,0.06267129629850388,-0.8020338416099548,0.28434517979621887
1776021793298935000,8.37893505859375,-0.06923609226942062,-0.645022988319397,0.14442498981952667
1776021793308995800,8.388995849609374,-0.08160754293203354,-0.28068363666534424,0.08062710613012314
1776021793319057000,8.399056884765624,-0.058612383902072906,0.21868467330932617,0.08263318985700607
1776021793329119000,8.409118896484374,-0.007860523648560047,0.5423277020454407,0.22731579840183258
1776021793339180000,8.419179931640626,0.09912988543510437,0.32642531394958496,0.3822794258594513
1776021793349241000,8.429240966796876,0.18399550020694733,-0.07219346612691879,0.34004834294319153
1776021793359302100,8.43930224609375,0.16815300285816193,-0.14649781584739685,0.10694312304258347
1776021793369364000,8.449364013671875,0.05196168273687363,-0.16389597952365875,-0.11351707577705383
1776021793379425000,8.459425048828125,0.11118462681770325,-0.4680115282535553,-0.21916835010051727
1776021793389486000,8.469486083984375,0.3699442744255066,-0.749907910823822,-0.34066465497016907
1776021793399547000,8.479546875,0.47621095180511475,-0.5546621084213257,-0.2623409032821655
1776021793409608000,8.48960791015625,0.3414400815963745,0.0045135426335036755,0.07817140221595764
1776021793419669800,8.499669677734374,0.29441434144973755,0.2178196758031845,0.2583858072757721
1776021793429730800,8.509730712890626,0.26360929012298584,0.03440510481595993,0.2013464868068695
1776021793439791900,8.5197919921875,0.020924290642142296,-0.0669742077589035,0.06424367427825928
1776021793449853000,8.52985302734375,-0.22341008484363556,-0.023283181712031364,0.049901749938726425
1776021793459915000,8.5399150390625,-0.3499239683151245,-0.06357602775096893,0.13638941943645477
1776021793469976000,8.54997607421875,-0.3681282699108124,-0.15685084462165833,0.23876719176769257
1776021793480036900,8.560036865234375,-0.3089902997016907,-0.19479818642139435,0.2918013036251068
1776021793490098000,8.570097900390625,-0.19561153650283813,-0.15655012428760529,0.2151757776737213
1776021793500160000,8.580159912109375,-0.04584311321377754,-0.1243688240647316,0.0509742833673954
1776021793510221000,8.590220947265625,0.05520334467291832,-0.05964522808790207,-0.05016378313302994
1776021793520282000,8.6002822265625,0.06227387115359306,0.021072931587696075,-0.02164233848452568
1776021793530343200,8.61034326171875,0.0341399721801281,0.10458327829837799,0.057458605617284775
1776021793540404000,8.620404052734376,0.0027363584376871586,0.23753304779529572,0.15024465322494507
1776021793550466000,8.630466064453126,-0.013229824602603912,0.3076292872428894,0.21093836426734924
1776021793560527000,8.640527099609375,0.009272009134292603,0.2941240668296814,0.21171852946281433
1776021793570588000,8.650587890625,0.07278227806091309,0.2630433738231659,0.20139585435390472
1776021793580649000,8.66064892578125,0.1430799961090088,0.19730214774608612,0.22805510461330414
1776021793590710800,8.670710693359375,0.21952709555625916,0.0744720995426178,0.2504173815250397
1776021793600771800,8.680771728515625,0.286338746547699,-0.01779765821993351,0.2510959208011627
1776021793610833000,8.6908330078125,0.3238714635372162,-0.06420323997735977,0.2425657957792282
1776021793620894000,8.70089404296875,0.338630735874176,-0.08812904357910156,0.22768712043762207
1776021793630956000,8.7109560546875,0.3175826966762543,-0.06013842299580574,0.21768534183502197
1776021793641017000,8.72101708984375,0.28586816787719727,-0.04325011000037193,0.21327948570251465
1776021793651078000,8.731077880859376,0.2579768896102905,-0.054162945598363876,0.2274552285671234
1776021793661139000,8.741138916015625,0.20770865678787231,-0.03192046657204628,0.23288840055465698
1776021793671200000,8.751199951171875,0.18332847952842712,-0.0024131739046424627,0.24582763016223907
1776021793681262000,8.761261962890625,0.25762590765953064,0.04897522181272507,0.2489897459745407
1776021793691323100,8.7713232421875,0.32777783274650574,0.124211385846138,0.2026941478252411
1776021793701384200,8.78138427734375,0.4077293872833252,0.2052694857120514,0.19938518106937408
1776021793711444700,8.79144482421875,0.5415846705436707,0.17072561383247375,0.23428429663181305
1776021793721507000,8.801507080078125,0.5529360771179199,0.1294127106666565,0.27232876420021057
1776021793731567900,8.81156787109375,0.3958008289337158,0.17750193178653717,0.29134401679039
1776021793741629000,8.82162890625,0.2597559988498688,0.29554483294487,0.3480693995952606
1776021793751690000,8.83168994140625,0.2777901291847229,0.2944689393043518,0.3881584703922272
1776021793761751800,8.841751708984376,0.3686252236366272,0.1561560481786728,0.3710756301879883
1776021793771812900,8.851812744140625,0.40510281920433044,-0.0032416009344160557,0.31650400161743164
1776021793781874000,8.8618740234375,0.37426915764808655,-0.1230626255273819,0.24453040957450867
1776021793791935000,8.87193505859375,0.3356919288635254,-0.20359262824058533,0.16286776959896088
1776021793801996000,8.88199609375,0.31517067551612854,-0.24580761790275574,0.10257767140865326
1776021793812057900,8.892057861328125,0.29668328166007996,-0.26786819100379944,0.07084611058235168
1776021793822119000,8.902118896484374,0.29164281487464905,-0.2780235707759857,0.07641123980283737
1776021793832180000,8.912179931640624,0.31938204169273376,-0.25496432185173035,0.11816827207803726
1776021793842241000,8.922240966796876,0.3291279971599579,-0.20788131654262543,0.16689340770244598
1776021793852303000,8.93230322265625,0.33627939224243164,-0.1385379284620285,0.20362745225429535
1776021793862364200,8.9423642578125,0.3462251126766205,-0.04152720421552658,0.19823408126831055
1776021793872425000,8.952425048828125,0.3604658544063568,0.04098418354988098,0.18050462007522583
1776021793882485800,8.96248583984375,0.3767276406288147,0.07383664697408676,0.17902570962905884
1776021793892548000,8.972548095703125,0.36753469705581665,0.03765760362148285,0.1563398391008377
1776021793902609000,8.98260888671875,0.3462257385253906,-0.045105114579200745,0.177015021443367
1776021793912670000,8.992669921875,0.32033902406692505,-0.0966535210609436,0.22469332814216614
1776021793922731000,9.00273095703125,0.3354828655719757,-0.1241779550909996,0.22746433317661285
1776021793932792000,9.0127919921875,0.4137265384197235,-0.17276893556118011,0.2149866223335266
1776021793942854000,9.02285400390625,0.5402121543884277,-0.24166269600391388,0.2442082315683365
1776021793952915000,9.0329150390625,0.639555811882019,-0.36363840103149414,0.3256703317165375
1776021793962976000,9.04297607421875,0.6201012134552002,-0.3773081600666046,0.41557300090789795
1776021793973037000,9.053037109375,0.40900367498397827,-0.13718770444393158,0.3715072572231293
1776021793983099000,9.063098876953125,0.1325201541185379,0.24818788468837738,0.25261443853378296
1776021793993160000,9.073159912109375,-0.06751012802124023,0.5168281197547913,0.18104784190654755
1776021794003221000,9.083220947265625,-0.115204818546772,0.6221692562103271,0.12024341523647308
1776021794013282000,9.093281982421875,0.020868860185146332,0.669016420841217,0.09374362975358963
1776021794023344000,9.10334423828125,0.22176909446716309,0.6467399001121521,0.1512243002653122
1776021794033405200,9.1134052734375,0.34732702374458313,0.5814149975776672,0.263823539018631
1776021794043465700,9.1234658203125,0.37659749388694763,0.5390427708625793,0.34614306688308716
1776021794053526800,9.13352685546875,0.3156931400299072,0.560143768787384,0.35188668966293335
1776021794063587800,9.143587890625,0.1762121319770813,0.6326763033866882,0.3217926323413849
1776021794073650000,9.15364990234375,0.001854965928941965,0.6249204277992249,0.2714722156524658
1776021794083711000,9.1637109375,-0.1574227213859558,0.4799351096153259,0.22627709805965424
1776021794093772000,9.17377197265625,-0.2643456757068634,0.2008211612701416,0.1720908284187317
1776021794103833000,9.1838330078125,-0.16961997747421265,-0.26703381538391113,0.20068852603435516
1776021794113895000,9.19389501953125,0.1498781144618988,-0.7298131585121155,0.42426568269729614
1776021794123956000,9.2039560546875,0.2960125803947449,-0.996864378452301,0.5297395586967468
1776021794134017000,9.21401708984375,0.11035962402820587,-0.6885433197021484,0.3356100618839264
1776021794144078000,9.224078125,-0.2440475970506668,-0.32572340965270996,-0.03992447629570961
1776021794154140000,9.234139892578124,-0.4044362008571625,-0.5819503664970398,-0.20013625919818878
1776021794164201000,9.244200927734376,-0.40112122893333435,-0.8461394906044006,-0.13436555862426758
1776021794174262000,9.254261962890626,-0.4586127698421478,-0.5964382886886597,-0.0449022576212883
1776021794184323000,9.264322998046875,-0.5277417898178101,-0.003613478969782591,0.06222444772720337
1776021794194384000,9.2743837890625,-0.5498362183570862,0.5402879118919373,0.15677012503147125
1776021794204446000,9.284446044921875,-0.4844764471054077,0.7114917635917664,0.2433622181415558
1776021794214506800,9.2945068359375,-0.2858789563179016,0.5877982974052429,0.21686802804470062
1776021794224567800,9.30456787109375,0.024861620739102364,0.4988044798374176,0.07315240800380707
1776021794234628900,9.31462890625,0.28767886757850647,0.5427027344703674,-0.07718756049871445
1776021794244691000,9.32469091796875,0.3789123594760895,0.5132864713668823,-0.18270321190357208
1776021794254752000,9.334751953125,0.35796552896499634,0.4474549889564514,-0.15541645884513855
1776021794264813000,9.34481298828125,0.2914518713951111,0.31281647086143494,-0.08626481145620346
1776021794274873900,9.354873779296875,0.2125442922115326,0.17859767377376556,-0.009578289464116096
1776021794284936000,9.36493603515625,0.13321058452129364,0.18966926634311676,0.07531668990850449
1776021794294997000,9.3749970703125,0.05153755471110344,0.23008006811141968,0.13243642449378967
1776021794305058000,9.38505810546875,-0.000006557907909154892,0.1737595796585083,0.10900714993476868
1776021794315119000,9.395119140625,0.023442842066287994,0.10849029570817947,0.06595954298973083
1776021794325181000,9.405180908203125,0.0831509679555893,0.11535220593214035,0.061168573796749115
1776021794335242000,9.415241943359375,0.1309448480606079,0.15804854035377502,0.04629162326455116
1776021794345303000,9.425302978515624,0.15232539176940918,0.19797013700008392,-0.01909823715686798
1776021794355364000,9.435364013671874,0.1521158069372177,0.20229244232177734,-0.051496654748916626
1776021794365426200,9.44542626953125,0.15552160143852234,0.16315944492816925,-0.053013790398836136
1776021794375487000,9.455487060546876,0.15307362377643585,0.09566029906272888,-0.0821804627776146
1776021794385547800,9.4655478515625,0.1631847769021988,0.08978142589330673,-0.0632433146238327
1776021794395608800,9.47560888671875,0.18819452822208405,0.11965996026992798,-0.051091041415929794
1776021794405670000,9.485669921875,0.2095394879579544,0.12272699177265167,-0.07858440279960632
1776021794415732000,9.49573193359375,0.2371857613325119,0.09265591204166412,-0.08910388499498367
1776021794425793000,9.50579296875,0.2713225781917572,0.0904637798666954,-0.07475004345178604
1776021794435854000,9.51585400390625,0.2959568202495575,0.11146866530179977,-0.10498065501451492
1776021794445915000,9.525914794921874,0.2822001576423645,0.06891919672489166,-0.11887629330158234
1776021794455977000,9.53597705078125,0.24364235997200012,-0.017924891784787178,-0.1254977136850357
1776021794466038000,9.5460380859375,0.17873406410217285,-0.056895479559898376,-0.1256125569343567
1776021794476099000,9.55609912109375,0.11701983213424683,-0.07457274198532104,-0.07911483198404312
1776021794486160100,9.56616015625,0.09633161127567291,-0.10134540498256683,-0.024791009724140167
1776021794496222000,9.576221923828125,0.09342796355485916,-0.09948225319385529,0.010044468566775322
1776021794506283000,9.586282958984375,0.12467928975820541,-0.0777747705578804,0.03298913687467575
1776021794516344000,9.596343994140625,0.15366698801517487,-0.053787946701049805,-0.01160842552781105
1776021794526404900,9.60640478515625,0.1757301539182663,-0.04688969999551773,-0.09609055519104004
1776021794536466000,9.6164658203125,0.18545575439929962,-0.06854572147130966,-0.1406947672367096
1776021794546527700,9.62652783203125,0.1463562399148941,-0.15665306150913239,-0.14281031489372253
1776021794556588800,9.6365888671875,0.11591391265392303,-0.2464708387851715,-0.09052420407533646
1776021794566649900,9.64664990234375,0.10088405758142471,-0.24236135184764862,-0.006697092205286026
1776021794576711000,9.6567109375,0.04237040877342224,-0.15627546608448029,0.03808555752038956
1776021794586773000,9.66677294921875,-0.008836078457534313,-0.049645621329545975,0.05665577948093414
1776021794596834000,9.676833984375,-0.02070312388241291,0.05202268436551094,0.09090456366539001
1776021794606894800,9.686894775390625,-0.022533247247338295,0.12226781249046326,0.09531848877668381
1776021794616956000,9.696955810546875,0.0014402610249817371,0.13773173093795776,0.0753338634967804
1776021794627018000,9.70701806640625,0.07434830814599991,0.10655739903450012,0.06905798614025116
1776021794637079000,9.7170791015625,0.1610211431980133,0.07679417729377747,0.08246300369501114
1776021794647140000,9.72714013671875,0.2271357923746109,0.07655630260705948,0.1087772399187088
1776021794657201200,9.737201171875,0.23781879246234894,0.06295287609100342,0.14406359195709229
1776021794667263000,9.747262939453124,0.21968993544578552,-0.03688898682594299,0.14487047493457794
1776021794677324000,9.757323974609376,0.17531102895736694,-0.20680637657642365,0.1854938119649887
1776021794687385000,9.767385009765626,0.1250268667936325,-0.36134347319602966,0.26776614785194397
1776021794697446000,9.77744580078125,0.06826584041118622,-0.40723347663879395,0.25992393493652344
1776021794707507000,9.7875068359375,0.001938538160175085,-0.2517193555831909,0.2063126415014267
1776021794717568800,9.79756884765625,-0.11428287625312805,0.18758930265903473,0.18098199367523193
1776021794727629800,9.8076298828125,-0.22261810302734375,0.5350196957588196,0.11277404427528381
1776021794737691000,9.81769091796875,-0.09254158288240433,0.6068813800811768,0.0006088918307796121
1776021794747752000,9.827751953125,0.331371009349823,0.5023134350776672,-0.03145809844136238
1776021794757814000,9.83781396484375,0.6941303610801697,0.2619120180606842,0.008634724654257298
1776021794767875000,9.847875,0.7553858160972595,0.017948050051927567,0.1634889543056488
1776021794777936000,9.857935791015626,0.5349681973457336,-0.20521925389766693,0.3282257318496704
1776021794787997000,9.867996826171876,0.150512233376503,-0.3172354996204376,0.30717840790748596
1776021794798059000,9.87805908203125,-0.2586877942085266,-0.28385302424430847,0.03797011822462082
1776021794808120000,9.8881201171875,-0.5054129362106323,-0.20412443578243256,-0.20295003056526184
1776021794818181000,9.89818115234375,-0.6261657476425171,-0.157449871301651,-0.24050618708133698
1776021794828242200,9.9082421875,-0.7061412930488586,-0.05495544895529747,-0.08083716779947281
1776021794838304000,9.918303955078125,-0.7537332773208618,0.07530374825000763,0.18409009277820587
1776021794848365000,9.928364990234375,-0.7334838509559631,0.1431736797094345,0.38648101687431335
1776021794858425900,9.93842578125,-0.5816208124160767,0.10710596293210983,0.43986567854881287
1776021794868487000,9.94848681640625,-0.218830406665802,-0.04771930351853371,0.4143235683441162
1776021794878548000,9.9585478515625,0.2537485957145691,-0.09058554470539093,0.32630184292793274
1776021794888609800,9.96860986328125,0.47987452149391174,0.24018889665603638,0.03049994446337223
1776021794898670800,9.9786708984375,0.4330361783504486,0.44502460956573486,-0.3236379027366638
1776021794908732000,9.98873193359375,0.28870731592178345,0.7861649394035339,-0.32316604256629944
1776021794918793000,9.99879296875,0.13062766194343567,0.6904810070991516,-0.3123762607574463
1776021794928855000,10.00885498046875,0.1554054468870163,0.22681722044944763,-0.3540957272052765
1776021794938915800,10.018915771484375,0.2590440809726715,0.0754658579826355,-0.2469138205051422
1776021794948977000,10.028976806640625,0.24640683829784393,0.23467326164245605,-0.1683746725320816
1776021794959038000,10.039037841796874,0.04363242909312248,0.49112793803215027,-0.18018099665641785
1776021794969100000,10.04910009765625,-0.16873042285442352,0.590415894985199,-0.10312589257955551
1776021794979161000,10.0591611328125,-0.34282100200653076,0.510839581489563,0.08984489738941193
1776021794989222100,10.06922216796875,-0.4927840828895569,0.22179487347602844,0.2086421102285385
1776021794999283200,10.079283203125,-0.5452723503112793,-0.05604073405265808,0.19173291325569153
1776021795009345000,10.089344970703126,-0.47551846504211426,-0.1519685536623001,0.0520031712949276
1776021795019406000,10.099406005859375,-0.3466816544532776,-0.09360218048095703,-0.0993003323674202
1776021795029467000,10.109466796875,-0.21837201714515686,-0.08482937514781952,-0.16876694560050964
1776021795039528000,10.11952783203125,-0.16094094514846802,-0.18906229734420776,-0.15296295285224915
1776021795049589800,10.12958984375,-0.17029650509357452,-0.257607102394104,-0.11527210474014282
1776021795059650800,10.13965087890625,-0.18561260402202606,-0.19363397359848022,-0.06338626891374588
1776021795069712000,10.1497119140625,-0.20303158462047577,-0.050313595682382584,-0.01684180088341236
1776021795079773000,10.15977294921875,-0.22519999742507935,0.10815753787755966,-0.012028137221932411
1776021795089834000,10.169833984375,-0.21565763652324677,0.2507282793521881,-0.07871735095977783
1776021795099896000,10.17989599609375,-0.18862654268741608,0.288652241230011,-0.18013744056224823
1776021795109956900,10.189956787109375,-0.1611272245645523,0.20783419907093048,-0.24202671647071838
1776021795120018000,10.200017822265625,-0.14181743562221527,0.07137409597635269,-0.2623903155326843
1776021795130079000,10.210078857421875,-0.12595200538635254,-0.023210804909467697,-0.2545033395290375
1776021795140141000,10.22014111328125,-0.14140953123569489,-0.08781909197568893,-0.2373531311750412
1776021795150202000,10.2302021484375,-0.19407768547534943,-0.14249777793884277,-0.16926676034927368
1776021795160263200,10.24026318359375,-0.26926565170288086,-0.18473978340625763,-0.09250141680240631
1776021795170324000,10.250323974609374,-0.337383508682251,-0.2091982215642929,-0.055340591818094254
1776021795180386000,10.260385986328124,-0.3699995279312134,-0.17045454680919647,-0.04926672205328941
1776021795190446800,10.27044677734375,-0.35592591762542725,-0.08243203163146973,-0.06491098552942276
1776021795200508000,10.2805078125,-0.29880884289741516,-0.022139398381114006,-0.08253232389688492
1776021795210569000,10.29056884765625,-0.18090032041072845,0.0048357597552239895,-0.06503508985042572
1776021795220630800,10.300630859375,-0.0895610898733139,0.004231488332152367,-0.07238221913576126
1776021795230691800,10.31069189453125,-0.09068967401981354,0.012991559691727161,-0.09765243530273438
1776021795240753000,10.3207529296875,-0.11929389089345932,0.022008756175637245,-0.11520186811685562
1776021795250814000,10.33081396484375,-0.1540391445159912,-0.0008090765331871808,-0.14110322296619415
1776021795260875000,10.340875,-0.2070741206407547,-0.02494157664477825,-0.13768185675144196
1776021795270937000,10.35093701171875,-0.24814285337924957,-0.019243458285927773,-0.09060803800821304
1776021795280998000,10.360997802734374,-0.24810689687728882,0.02589605562388897,-0.023104092106223106
1776021795291059000,10.371058837890626,-0.20835399627685547,0.11736641824245453,0.04485674202442169
1776021795301120000,10.3811201171875,-0.18366383016109467,0.20731708407402039,0.07768739759922028
1776021795311182000,10.39118212890625,-0.21495096385478973,0.26028937101364136,0.06893575936555862
1776021795321243100,10.4012431640625,-0.22772401571273804,0.23086489737033844,0.012421080842614174
1776021795331304000,10.411303955078125,-0.2105592042207718,0.19676166772842407,0.0038391039706766605
1776021795341364700,10.42136474609375,-0.19438663125038147,0.18415959179401398,0.06738345324993134
1776021795351426800,10.4314267578125,-0.2031829059123993,0.13251683115959167,0.09127034991979599
1776021795361488000,10.44148779296875,-0.22879399359226227,0.11887399107217789,0.1110624298453331
1776021795371549000,10.451548828125,-0.2637643814086914,0.13994356989860535,0.15909168124198914
1776021795381610000,10.46160986328125,-0.2837676405906677,0.1542934775352478,0.17839239537715912
1776021795391671800,10.471671875,-0.2965751588344574,0.14515121281147003,0.1503736972808838
1776021795401732900,10.48173291015625,-0.2970220446586609,0.12480039894580841,0.13856230676174164
1776021795411794000,10.4917939453125,-0.2674001157283783,0.1025778204202652,0.1419459730386734
1776021795421855000,10.50185498046875,-0.24393528699874878,0.09465119242668152,0.09279627352952957
1776021795431917000,10.5119169921875,-0.2611818015575409,0.09737558662891388,0.024050166830420494
1776021795441977900,10.521977783203125,-0.2666058838367462,0.0666285902261734,-0.056448403745889664
1776021795452039000,10.532038818359375,-0.25876063108444214,-0.0037628058344125748,-0.10410638898611069
1776021795462100000,10.542099853515625,-0.2585172653198242,-0.088504858314991,-0.08386529982089996
1776021795472162000,10.552162109375,-0.29208213090896606,-0.15762649476528168,-0.05974917486310005
1776021795482223000,10.56222314453125,-0.3610513508319855,-0.18343545496463776,-0.08703991770744324
1776021795492284000,10.572283935546874,-0.41019201278686523,-0.1666143834590912,-0.17114143073558807
1776021795502345000,10.582344970703126,-0.4027167856693268,-0.09933441132307053,-0.2169584482908249
1776021795512405800,10.59240576171875,-0.4951972961425781,-0.2769432067871094,-0.3326879143714905
1776021795522467800,10.6024677734375,-0.8905103206634521,-0.5050184726715088,-0.5109687447547913
1776021795532529000,10.61252880859375,-1.4168800115585327,-0.4931117594242096,-0.6484135985374451
1776021795542590000,10.62258984375,-1.6062123775482178,-0.47464513778686523,-0.774987518787384
1776021795552651000,10.632651123046875,-1.3602877855300903,-0.5062187314033508,-0.909142255783081
1776021795562712800,10.642712890625,-0.9541794657707214,-0.4623558819293976,-1.0226659774780273
1776021795572774000,10.65277392578125,-0.5718244314193726,-0.23379406332969666,-1.025170087814331
1776021795582835000,10.6628349609375,-0.26136669516563416,-0.03477656468749046,-0.9062762260437012
1776021795592896000,10.67289599609375,-0.06903565675020218,0.017285991460084915,-0.7612913250923157
1776021795602958000,10.6829580078125,-0.02967759780585766,0.04491202533245087,-0.6753801703453064
1776021795613019000,10.693018798828126,-0.13668091595172882,0.08457329869270325,-0.6897342205047607
1776021795623080000,10.703079833984376,-0.33211514353752136,0.07550496608018875,-0.742695152759552
1776021795633141000,10.71314111328125,-0.4575659930706024,0.038090649992227554,-0.7019423246383667
1776021795643203000,10.723203125,-0.4694085419178009,-0.05832350254058838,-0.635059654712677
1776021795653264100,10.73326416015625,-0.4029861092567444,-0.05325087532401085,-0.5571402311325073
1776021795663325000,10.743324951171875,-0.28209057450294495,-0.004513166844844818,-0.5110630393028259
1776021795673386000,10.753385986328125,-0.10280424356460571,-0.028058119118213654,-0.4488692581653595
1776021795683447800,10.76344775390625,0.06501191854476929,-0.04821505397558212,-0.3753034174442291
1776021795693508900,10.7735087890625,0.01903838850557804,0.02411990985274315,-0.32420459389686584
1776021795703570000,10.78356982421875,-0.07595176994800568,0.05083834007382393,-0.23073405027389526
1776021795713631000,10.793630859375,-0.06219852343201637,0.01346541941165924,-0.11525186896324158
1776021795723692800,10.80369287109375,-0.09546566009521484,-0.015232804231345654,-0.03834669664502144
1776021795733753900,10.81375390625,-0.1408969610929489,-0.07497375458478928,-0.0008000512607395649
1776021795743815000,10.82381494140625,-0.14998818933963776,-0.10670717805624008,0.01124622579663992
1776021795753876000,10.8338759765625,-0.16543248295783997,-0.13375058770179749,0.06091660261154175
1776021795763937000,10.84393701171875,-0.12420036643743515,-0.19516733288764954,0.12459491193294525
1776021795773998800,10.853998779296875,-0.05553656816482544,-0.199753537774086,0.1750747263431549
1776021795784060000,10.864059814453125,-0.024230577051639557,-0.2082034796476364,0.25121980905532837
1776021795794121000,10.874120849609374,-0.020829537883400917,-0.22359739243984222,0.2916693091392517
1776021795804181800,10.884181640625,-0.06765483319759369,-0.21474264562129974,0.2855091392993927
1776021795814244000,10.894244140625,-0.15435171127319336,-0.2462398260831833,0.2934846580028534
1776021795824305000,10.904304931640626,-0.2027171105146408,-0.25129929184913635,0.30714213848114014
1776021795834366000,10.914365966796876,-0.22009794414043427,-0.23486340045928955,0.3375580906867981
1776021795844426800,10.9244267578125,-0.25421541929244995,-0.2647094428539276,0.3800954520702362
1776021795854488800,10.93448876953125,-0.2608107924461365,-0.2679975926876068,0.4123939871788025
1776021795864550000,10.9445498046875,-0.25784429907798767,-0.20989486575126648,0.42198723554611206
1776021795874611000,10.95461083984375,-0.04647781327366829,-0.14556850492954254,0.21527445316314697
1776021795884672000,10.964672119140625,0.6329582333564758,-0.3694623112678528,-0.20055337250232697
1776021795894733800,10.97473388671875,1.0699853897094727,-0.4741913974285126,-0.3604687750339508
1776021795904795000,10.984794921875,0.6729017496109009,0.01911710947751999,-0.02394270896911621
1776021795914856000,10.99485595703125,0.12711963057518005,0.3685508370399475,0.5378362536430359
1776021795924917000,11.0049169921875,-0.04368114471435547,0.0996040478348732,0.5879840850830078
1776021795934979000,11.01497900390625,-0.2919335663318634,-0.02324972115457058,0.2397025227546692
1776021795945040000,11.025039794921875,-0.4663487672805786,0.049345917999744415,-0.03475779667496681
1776021795955101000,11.035100830078125,-0.3057956099510193,0.18515440821647644,-0.00782070867717266
1776021795965162000,11.045161865234375,0.03170333057641983,0.1115608885884285,0.20489555597305298
1776021795975224000,11.05522412109375,0.22132232785224915,-0.06738809496164322,0.3395616412162781
1776021795985285000,11.06528515625,0.24413523077964783,-0.09009287506341934,0.2598135471343994
1776021795995346000,11.075345947265625,0.22621303796768188,-0.09276051819324493,0.14188764989376068
1776021796005407000,11.085406982421874,0.16236189007759094,-0.1962301880121231,0.08705529570579529
1776021796015468800,11.09546875,-0.011329470202326775,-0.2554525136947632,0.086760975420475
1776021796025529900,11.10552978515625,-0.18324823677539825,-0.2441660463809967,0.13537804782390594
1776021796035591000,11.1155908203125,-0.2208031713962555,-0.1574777364730835,0.18283990025520325
1776021796045652000,11.12565185546875,-0.14226043224334717,0.023539455607533455,0.20353347063064575
1776021796055713800,11.1357138671875,0.0016715195961296558,0.19535227119922638,0.17199599742889404
1776021796065774800,11.14577490234375,0.1656295657157898,0.29446980357170105,0.10699089616537094
1776021796075836000,11.1558359375,0.25806117057800293,0.2721861004829407,0.056120168417692184
1776021796085897000,11.16589697265625,0.2320154458284378,0.16158904135227203,0.023494847118854523
1776021796095958000,11.1759580078125,0.10998968780040741,0.04945594072341919,0.027561888098716736
1776021796106020000,11.18602001953125,0.002198772504925728,-0.027538709342479706,0.053553808480501175
1776021796116081000,11.196080810546874,-0.06287173926830292,-0.031302668154239655,0.05821548402309418
1776021796126142000,11.206141845703126,-0.11465024948120117,-0.011720182374119759,0.0726466178894043
1776021796136204000,11.2162041015625,-0.1352638304233551,-0.01093200221657753,0.10232336819171906
1776021796146265000,11.22626513671875,-0.1257997453212738,-0.03192143887281418,0.13397903740406036
1776021796156326000,11.236325927734375,-0.12101149559020996,-0.05422992631793022,0.13360624015331268
1776021796166387000,11.246386962890625,-0.0730639398097992,-0.015621545724570751,0.11453508585691452
1776021796176447700,11.25644775390625,-0.04143514484167099,0.05400513485074043,0.08471006900072098
1776021796186509800,11.266509765625,-0.07834655791521072,0.08182371407747269,0.07747799158096313
1776021796196571000,11.27657080078125,-0.09297336637973785,0.09054820239543915,0.10853402316570282
1776021796206632000,11.2866318359375,-0.08211831748485565,0.1299706995487213,0.143636092543602
1776021796216693000,11.29669287109375,-0.07952329516410828,0.17625859379768372,0.148842915892601
1776021796226754800,11.3067548828125,-0.06491905450820923,0.24217714369297028,0.14908739924430847
1776021796236816000,11.31681591796875,-0.04169023036956787,0.2839187979698181,0.13756754994392395
1776021796246877000,11.326876953125,-0.018628323450684547,0.2765096127986908,0.10086413472890854
1776021796256938000,11.33693798828125,0.0034036398865282536,0.2594495117664337,0.07959096878767014
1776021796267000000,11.347,-0.001781002152711153,0.21919210255146027,0.07748094201087952
1776021796277060900,11.357060791015625,-0.026310157030820847,0.19101986289024353,0.0989047959446907
1776021796287122000,11.367121826171875,-0.051024556159973145,0.15055899322032928,0.1131945252418518
1776021796297183000,11.377182861328125,-0.11042510718107224,0.0958624854683876,0.09158048033714294
1776021796307245000,11.3872451171875,-0.1336609274148941,0.05848342552781105,0.08264157921075821
1776021796317306000,11.39730615234375,-0.09227393567562103,0.038654688745737076,0.0788828656077385
1776021796327367200,11.4073671875,-0.06262816488742828,0.06455765664577484,0.10753981024026871
1776021796337428000,11.417427978515626,0.014446830376982689,0.16114112734794617,0.21420849859714508
1776021796347490000,11.427489990234376,0.14675399661064148,0.23662789165973663,0.28436708450317383
1776021796357551000,11.437551025390626,0.2732132375240326,0.3434378504753113,0.2708657383918762
1776021796367612200,11.447612060546875,0.3995448052883148,0.4983866810798645,0.26592665910720825
1776021796377673200,11.457673095703125,0.5026694536209106,0.6016258597373962,0.3235575258731842
1776021796387735000,11.467735107421875,0.5958877801895142,0.6274577379226685,0.3921816051006317
1776021796397796000,11.477796142578125,0.6343948245048523,0.6165613532066345,0.46696630120277405
1776021796407857000,11.48785693359375,0.5844978094100952,0.5698002576828003,0.5340619683265686
1776021796417918000,11.49791796875,0.48914244771003723,0.4598611891269684,0.5125992298126221
1776021796427980000,11.50797998046875,0.4095272421836853,0.41270115971565247,0.5124561786651611
1776021796438041000,11.518041015625,0.3895387351512909,0.4420733153820038,0.5084902048110962
1776021796448102000,11.528101806640626,0.40360820293426514,0.4834873378276825,0.44212204217910767
1776021796458163000,11.538162841796876,0.44518572092056274,0.5150212645530701,0.4180171489715576
1776021796468225000,11.54822509765625,0.517356276512146,0.5425716638565063,0.3738454282283783
1776021796478286000,11.5582861328125,0.6140679121017456,0.623211145401001,0.264102965593338
1776021796488347100,11.56834716796875,0.6906663179397583,0.791408360004425,0.09670756012201309
1776021796498408200,11.578408203125,0.7179147601127625,1.0023571252822876,-0.05638919398188591
1776021796508470000,11.588469970703125,0.7151778340339661,1.198988914489746,-0.1419925093650818
1776021796518531000,11.598531005859375,0.6769249439239502,1.2775580883026123,-0.24077019095420837
1776021796528592100,11.608592041015624,0.6041431427001953,1.1826398372650146,-0.3420720398426056
1776021796538653200,11.618653076171874,0.5532379150390625,1.2151578664779663,-0.37607064843177795
1776021796548715000,11.628715087890624,0.5964045524597168,1.1425782442092896,-0.3672547936439514
1776021796558776000,11.638776123046876,0.6345241665840149,1.0060739517211914,-0.40762799978256226
1776021796568837000,11.648837158203126,0.6332908272743225,0.9549216032028198,-0.42906859517097473
1776021796578898000,11.65889794921875,0.6123208999633789,0.9600429534912109,-0.3880564570426941
1776021796588960300,11.668960205078125,0.5694599747657776,0.9677131175994873,-0.33839914202690125
1776021796599021000,11.67902099609375,0.5200743675231934,0.9365295767784119,-0.3013584613800049
1776021796609081900,11.689081787109375,0.4771847128868103,0.8665499687194824,-0.296417772769928
1776021796619143000,11.699142822265625,0.45892536640167236,0.7573564648628235,-0.30448800325393677
1776021796629205000,11.709205078125,0.4738113582134247,0.7115397453308105,-0.27859196066856384
1776021796639266000,11.71926611328125,0.48362845182418823,0.6787711381912231,-0.27798306941986084
1776021796649327000,11.7293271484375,0.43421533703804016,0.6845832467079163,-0.3353307843208313
1776021796659388200,11.73938818359375,0.37479302287101746,0.7500197291374207,-0.3672369122505188
1776021796669450000,11.749449951171876,0.3084683418273926,0.750204861164093,-0.3760000467300415
1776021796679511000,11.759510986328126,0.22321999073028564,0.5633297562599182,-0.4442600607872009
1776021796689572000,11.769572021484375,0.0841023251414299,0.26635533571243286,-0.5724627375602722
1776021796699633200,11.779633056640625,-0.06899283081293106,-0.0025703252758830786,-0.7342894673347473
1776021796709695000,11.789695068359375,-0.15843108296394348,-0.18767200410366058,-0.8619922995567322
1776021796719756000,11.799756103515625,-0.18635845184326172,-0.29617688059806824,-0.9131835103034973
1776021796729817000,11.809817138671875,-0.16418097913265228,-0.39528295397758484,-0.9192458987236023
1776021796739878000,11.8198779296875,-0.09333393722772598,-0.45953553915023804,-0.8807342052459717
1776021796749940200,11.829940185546874,-0.013521125540137291,-0.4486440122127533,-0.7658960223197937
1776021796760001000,11.8400009765625,0.08248262107372284,-0.3364722728729248,-0.5775566101074219
1776021796770062000,11.85006201171875,0.1792786717414856,-0.1617409586906433,-0.3723453879356384
1776021796780123000,11.860122802734375,0.17575831711292267,-0.05738706886768341,-0.21194590628147125
1776021796790185000,11.87018505859375,0.02497093752026558,-0.037607237696647644,-0.11085952073335648
1776021796800246000,11.88024609375,-0.22909247875213623,-0.04367222264409065,-0.07778505980968475
1776021796810307000,11.89030712890625,-0.3910379707813263,-0.11551205068826675,-0.1255027800798416
1776021796820368100,11.9003681640625,-0.3549024164676666,-0.2179805338382721,-0.18088862299919128
1776021796830430000,11.910429931640625,-0.2095755934715271,-0.26706552505493164,-0.225889652967453
1776021796840491000,11.920490966796875,-0.06359970569610596,-0.30001676082611084,-0.25622376799583435
1776021796850552000,11.930552001953124,-0.046152010560035706,-0.373039573431015,-0.2872264087200165
1776021796860613000,11.940613037109374,-0.12775199115276337,-0.5096061825752258,-0.2965874671936035
1776021796870675200,11.95067529296875,-0.2574772238731384,-0.6811283826828003,-0.27551573514938354
1776021796880736000,11.960736083984376,-0.4086993634700775,-0.8337119817733765,-0.22423037886619568
1776021796890797000,11.970797119140625,-0.547680139541626,-0.9195368885993958,-0.15655386447906494
1776021796900858000,11.980858154296875,-0.6284153461456299,-0.9365909695625305,-0.11110040545463562
1776021796910920200,11.990920166015625,-0.6418656706809998,-0.928266167640686,-0.11003381013870239
1776021796920981200,12.000981201171875,-0.6308718323707581,-0.9247081279754639,-0.1497696489095688
1776021796931042000,12.0110419921875,-0.6414775848388672,-0.897580087184906,-0.2168693244457245
1776021796941103000,12.02110302734375,-0.700670599937439,-0.8495328426361084,-0.28632912039756775
1776021796951165000,12.0311650390625,-0.8024488687515259,-0.7790828943252563,-0.3314545154571533
1776021796961226000,12.04122607421875,-0.9115963578224182,-0.7192086577415466,-0.3504648506641388
1776021796971287000,12.051287109375,-1.002676248550415,-0.6654689908027649,-0.3426346182823181
1776021796981348000,12.06134814453125,-1.0687823295593262,-0.6257150173187256,-0.30939289927482605
1776021796991410000,12.071409912109376,-1.1086697578430176,-0.5971837639808655,-0.2718966603279114
1776021797001471000,12.081470947265625,-1.1476854085922241,-0.5644259452819824,-0.24109221994876862
1776021797011532000,12.091531982421875,-1.2060272693634033,-0.48684006929397583,-0.1973191797733307
1776021797021593000,12.101593017578125,-1.2764768600463867,-0.35032302141189575,-0.11648932844400406
1776021797031655200,12.1116552734375,-1.3307803869247437,-0.16153500974178314,0.03196671977639198
1776021797041716200,12.12171630859375,-1.3145368099212646,0.0032463008537888527,0.20621953904628754
1776021797051777000,12.131777099609375,-1.2027543783187866,0.04093935340642929,0.2937355637550354
1776021797061838000,12.141838134765624,-1.0144386291503906,-0.019177762791514397,0.2907835841178894
1776021797071900200,12.151900146484374,-0.823844850063324,-0.0878569558262825,0.22880540788173676
1776021797081961200,12.161961181640624,-0.7036066055297852,-0.11607737839221954,0.13547131419181824
1776021797092022000,12.17202197265625,-0.6768420934677124,-0.09514626860618591,0.0329904742538929
1776021797102083000,12.1820830078125,-0.6928317546844482,-0.022638292983174324,-0.02792317233979702
1776021797112145000,12.192144775390625,-0.7023940682411194,0.052035678178071976,-0.02226315625011921
1776021797122206000,12.2022060546875,-0.6764373183250427,0.11759434640407562,0.05479661375284195
1776021797132267000,12.21226708984375,-0.6020147800445557,0.1769796460866928,0.1751062422990799
1776021797142328000,12.222328125,-0.4938477575778961,0.1893301010131836,0.327511727809906
1776021797152390000,12.232389892578125,-0.3650021553039551,0.14265847206115723,0.4871269762516022
1776021797162451000,12.242450927734374,-0.24093565344810486,0.09171447902917862,0.634968101978302
1776021797172512000,12.252511962890624,-0.14715376496315002,0.10063207149505615,0.7233530879020691
1776021797182573000,12.262572998046876,-0.08970285207033157,0.16982783377170563,0.7660594582557678
1776021797192635100,12.27263525390625,-0.07682966440916061,0.2513168454170227,0.7526355385780334
1776021797202696200,12.2826962890625,-0.14185971021652222,0.42090657353401184,0.6485849022865295
1776021797212757000,12.292757080078125,-0.2552802562713623,0.6852761507034302,0.4566713571548462
1776021797222818000,12.302818115234375,-0.3890853524208069,0.9742721319198608,0.2134300321340561
1776021797232880000,12.312880126953125,-0.5318566560745239,1.2348829507827759,-0.03048117645084858
1776021797242941200,12.322941162109375,-0.6327654719352722,1.4666759967803955,-0.2283557504415512
1776021797253002200,12.333002197265625,-0.6558753252029419,1.631759762763977,-0.33690857887268066
1776021797263063000,12.34306298828125,-0.6127133965492249,1.7161277532577515,-0.3152504563331604
1776021797273125000,12.353125,-0.5347131490707397,1.7258440256118774,-0.20831629633903503
1776021797283186000,12.36318603515625,-0.45134294033050537,1.6319371461868286,-0.07883816212415695
1776021797293247200,12.373247314453126,-0.4209575951099396,1.3802622556686401,0.026335133239626884
1776021797303308300,12.383308349609376,-0.45938295125961304,0.9894822239875793,0.08286402374505997
1776021797313370000,12.3933701171875,-0.5350937247276306,0.5263904929161072,0.0811028778553009
1776021797323431200,12.40343115234375,-0.5916798710823059,0.05990768224000931,0.04335036501288414
1776021797333492200,12.4134921875,-0.6736858487129211,-0.6666622757911682,0.27653780579566956
1776021797343553000,12.423552978515625,-0.7648026943206787,-1.5553081035614014,0.9316028952598572
1776021797353615400,12.433615478515625,-0.8271350860595703,-1.381091594696045,0.921620786190033
1776021797363676200,12.44367626953125,-0.779481828212738,-0.34215691685676575,0.3463901877403259
1776021797373737200,12.4537373046875,-0.5993584394454956,0.8135631084442139,-0.24816718697547913
1776021797383798000,12.463798095703124,-0.35163065791130066,1.4016820192337036,-0.5368530750274658
1776021797393860000,12.473860107421874,-0.14343859255313873,1.2515008449554443,-0.4768408238887787
1776021797403921200,12.483921142578126,-0.048474233597517014,0.7074260115623474,-0.2223358452320099
