time,seconds_elapsed,z,y,x
1776021784987593000,0.067593017578125,-160.01373291015625,-44.189117431640625,2.218780517578125
1776021784997587000,0.0775869140625,-159.24569702148438,-43.51634216308594,2.08673095703125
1776021785007580200,0.087580078125,-159.62646484375,-44.13792419433594,2.52386474609375
1776021785017574000,0.097573974609375,-160.51699829101562,-44.71533203125,2.58624267578125
1776021785027567900,0.10756787109375,-159.88743591308594,-44.61724853515625,2.5211639404296875
1776021785037563000,0.11756298828125,-159.7000274658203,-44.74958801269531,2.60223388671875
1776021785047558000,0.127557861328125,-159.81741333007812,-44.71388244628906,2.5628814697265625
1776021785057553000,0.137552978515625,-159.96514892578125,-44.52595520019531,2.6774139404296875
1776021785067548200,0.147548095703125,-159.46713256835938,-44.674072265625,2.60113525390625
1776021785077542000,0.1575419921875,-159.58311462402344,-44.30128479003906,2.64752197265625
1776021785087535900,0.167535888671875,-159.63296508789062,-44.86827087402344,2.1754150390625
1776021785097529900,0.17752978515625,-159.96092224121094,-44.40473937988281,2.2822113037109375
1776021785107523800,0.18752392578125,-160.1428680419922,-44.56068420410156,2.216522216796875
1776021785117518800,0.197518798828125,-159.87303161621094,-44.77484130859375,1.9744110107421875
1776021785127512800,0.207512939453125,-159.5215606689453,-44.5172119140625,2.211090087890625
1776021785137507800,0.2175078125,-159.4709930419922,-44.89161682128906,2.011932373046875
1776021785147501800,0.227501708984375,-159.40101623535156,-44.89985656738281,2.2127685546875
1776021785157496000,0.23749609375,-160.0644073486328,-44.5352783203125,2.409576416015625
1776021785167490000,0.247489990234375,-160.05938720703125,-44.27873229980469,2.0918731689453125
1776021785177484000,0.257484130859375,-160.12168884277344,-44.43156433105469,2.0667572021484375
1776021785187477800,0.267477783203125,-160.01451110839844,-44.277587890625,1.8066558837890625
1776021785197471000,0.277470947265625,-160.550537109375,-44.56036376953125,1.70843505859375
1776021785207464000,0.2874638671875,-159.77317810058594,-44.18116760253906,1.71661376953125
1776021785217458000,0.2974580078125,-159.6100616455078,-44.43873596191406,1.623748779296875
1776021785227452200,0.3074521484375,-160.2179718017578,-44.78790283203125,1.49761962890625
1776021785237444900,0.31744482421875,-160.1745147705078,-44.92726135253906,1.2125091552734375
1776021785247438800,0.32743896484375,-159.93710327148438,-44.781219482421875,0.7745208740234375
1776021785257432800,0.337432861328125,-159.76220703125,-44.72334289550781,0.8443450927734375
1776021785267423700,0.347423828125,-159.4890899658203,-44.95428466796875,0.5107421875
1776021785277418200,0.357418212890625,-159.5050506591797,-44.91766357421875,0.0417022705078125
1776021785287412200,0.367412109375,-158.71315002441406,-45.43867492675781,-0.03948974609375
1776021785297405200,0.3774052734375,-158.78919982910156,-45.57666015625,-0.4611968994140625
1776021785307398100,0.387398193359375,-158.35113525390625,-45.821319580078125,-0.437774658203125
1776021785317393200,0.39739306640625,-157.9207000732422,-45.4212646484375,-0.666473388671875
1776021785327387100,0.40738720703125,-158.41168212890625,-45.71864318847656,-0.0405120849609375
1776021785337381000,0.417381103515625,-157.7870635986328,-45.603240966796875,0.652374267578125
1776021785347375000,0.427375,-158.24391174316406,-45.26960754394531,1.149017333984375
1776021785357368300,0.437368408203125,-158.6992645263672,-45.23931884765625,1.5403900146484375
1776021785367363300,0.44736328125,-158.8642120361328,-44.81736755371094,2.2062835693359375
1776021785377357300,0.457357421875,-159.05943298339844,-44.6064453125,3.061614990234375
1776021785387350000,0.46735009765625,-159.96214294433594,-44.307708740234375,3.598114013671875
1776021785397344000,0.477343994140625,-160.0547332763672,-43.82615661621094,3.83209228515625
1776021785407339000,0.487339111328125,-160.39996337890625,-43.73896789550781,4.10009765625
1776021785417334000,0.497333984375,-160.14706420898438,-44.34944152832031,3.915374755859375
1776021785427328000,0.507327880859375,-159.5140838623047,-44.71400451660156,3.95697021484375
1776021785437320200,0.5173203125,-159.37069702148438,-44.860687255859375,4.072265625
1776021785447314200,0.527314208984375,-159.14056396484375,-44.53413391113281,3.9137725830078125
1776021785457309200,0.53730908203125,-159.29331970214844,-44.30963134765625,4.1759490966796875
1776021785467304200,0.54730419921875,-158.91445922851562,-44.852142333984375,4.264434814453125
1776021785477297200,0.557297119140625,-159.43429565429688,-44.40495300292969,4.3909454345703125
1776021785487292400,0.56729248046875,-159.51821899414062,-44.35060119628906,4.5181884765625
1776021785497286100,0.5772861328125,-160.09649658203125,-43.83125305175781,4.645538330078125
1776021785507280100,0.587280029296875,-160.61488342285156,-43.574554443359375,4.5064239501953125
1776021785517274000,0.597274169921875,-160.76194763183594,-43.41337585449219,4.568206787109375
1776021785527267300,0.607267333984375,-160.58335876464844,-43.157379150390625,4.3070068359375
1776021785537260300,0.61726025390625,-161.30767822265625,-42.64079284667969,4.069915771484375
1776021785547253200,0.627253173828125,-161.9715118408203,-42.69068908691406,3.8965301513671875
1776021785557245200,0.6372451171875,-162.7047882080078,-42.26374816894531,3.7578277587890625
1776021785567239200,0.6472392578125,-163.03358459472656,-41.60723876953125,3.9065093994140625
1776021785577233200,0.657233154296875,-163.64315795898438,-41.05970764160156,4.0157623291015625
1776021785587226000,0.66722607421875,-163.8422393798828,-40.11859130859375,4.1361236572265625
1776021785597219300,0.67721923828125,-164.97593688964844,-38.9547119140625,4.48046875
1776021785607214300,0.68721435546875,-166.02650451660156,-38.24540710449219,4.628173828125
1776021785617208300,0.697208251953125,-166.34609985351562,-37.11285400390625,4.5938262939453125
1776021785627202300,0.707202392578125,-166.63645935058594,-36.05793762207031,4.83990478515625
1776021785637195000,0.717195068359375,-166.97915649414062,-35.328399658203125,5.38824462890625
1776021785647189200,0.727189208984375,-167.3592987060547,-34.73072814941406,5.5244903564453125
1776021785657182200,0.73718212890625,-167.1607208251953,-34.068359375,5.7246246337890625
1776021785667174100,0.747174072265625,-167.45233154296875,-33.68919372558594,6.3352508544921875
1776021785677167000,0.7571669921875,-167.52093505859375,-33.28800964355469,6.6309814453125
1776021785687159000,0.767158935546875,-167.66986083984375,-33.26129150390625,7.2666473388671875
1776021785697151200,0.777151123046875,-167.5276641845703,-33.10099792480469,6.63507080078125
1776021785707143200,0.78714306640625,-167.41026306152344,-33.296844482421875,6.5140533447265625
1776021785717137200,0.79713720703125,-168.42996215820312,-33.20526123046875,6.065521240234375
1776021785727131100,0.807131103515625,-168.46453857421875,-32.9351806640625,5.28570556640625
1776021785737125000,0.817125,-167.9679412841797,-32.680633544921875,4.8475341796875
1776021785747119000,0.827119140625,-168.8430938720703,-32.23506164550781,4.0279693603515625
1776021785757112300,0.8371123046875,-168.20892333984375,-32.15907287597656,3.7022552490234375
1776021785767104300,0.847104248046875,-169.22767639160156,-32.07838439941406,3.2574005126953125
1776021785777096200,0.85709619140625,-169.1225128173828,-31.509719848632812,3.155609130859375
1776021785787088100,0.867088134765625,-169.15267944335938,-31.311538696289062,3.4666900634765625
1776021785797080300,0.877080322265625,-168.79293823242188,-31.490631103515625,3.2347259521484375
1776021785807072300,0.887072265625,-168.98226928710938,-31.42437744140625,3.3893280029296875
1776021785817063200,0.897063232421875,-169.74095153808594,-30.845382690429688,3.7282257080078125
1776021785827055000,0.90705517578125,-168.96018981933594,-30.767791748046875,4.137969970703125
1776021785837049300,0.91704931640625,-169.1243896484375,-30.785308837890625,4.2285308837890625
1776021785847045000,0.927045166015625,-169.34376525878906,-30.637527465820312,4.4786529541015625
1776021785857040100,0.9370400390625,-169.55104064941406,-30.520294189453125,4.73846435546875
1776021785867036200,0.9470361328125,-169.94627380371094,-30.570266723632812,4.5902252197265625
1776021785877030100,0.957030029296875,-169.52835083007812,-30.576126098632812,5.135528564453125
1776021785887022300,0.967022216796875,-169.53787231445312,-30.685409545898438,5.5415191650390625
1776021785897015000,0.97701513671875,-169.60107421875,-30.779586791992188,5.98016357421875
1776021785907008300,0.98700830078125,-169.53990173339844,-30.573532104492188,6.3763275146484375
1776021785917001200,0.997001220703125,-169.56497192382812,-30.24554443359375,6.5439605712890625
1776021785926995200,1.0069951171875,-169.1389923095703,-29.8603515625,7.3878326416015625
1776021785936987100,1.016987060546875,-169.42625427246094,-29.556976318359375,8.661163330078125
1776021785946979300,1.026979248046875,-169.78518676757812,-28.913955688476562,9.768768310546875
1776021785956973000,1.03697314453125,-168.94778442382812,-28.41876220703125,11.476638793945312
1776021785966965200,1.04696533203125,-167.88633728027344,-27.966751098632812,12.838333129882812
1776021785976958200,1.056958251953125,-167.66807556152344,-26.969924926757812,14.504638671875
1776021785986951200,1.066951171875,-166.8237762451172,-26.462814331054688,16.202346801757812
1776021785996945200,1.076945068359375,-166.94139099121094,-25.326370239257812,17.85137939453125
1776021786006938000,1.086938232421875,-165.6641082763672,-24.62286376953125,19.4365234375
1776021786016931300,1.096931396484375,-164.5759735107422,-23.732437133789062,21.270477294921875
1776021786026924000,1.106924072265625,-162.63368225097656,-22.42535400390625,22.535232543945312
1776021786036916200,1.116916259765625,-161.65728759765625,-21.424652099609375,24.1334228515625
1776021786046908200,1.126908203125,-161.14511108398438,-20.563888549804688,25.420654296875
1776021786056901000,1.136901123046875,-159.68228149414062,-19.807601928710938,26.08172607421875
1776021786066893000,1.14689306640625,-158.89889526367188,-18.816635131835938,26.876983642578125
1776021786076886300,1.15688623046875,-157.2324676513672,-18.73895263671875,27.663192749023438
1776021786086879200,1.166879150390625,-156.7640838623047,-18.61480712890625,28.038909912109375
1776021786096872200,1.1768720703125,-155.67950439453125,-18.774612426757812,28.674179077148438
1776021786106866200,1.1868662109375,-155.28948974609375,-18.87872314453125,29.1580810546875
1776021786116860200,1.196860107421875,-154.74851989746094,-19.411529541015625,29.537307739257812
1776021786126855200,1.206855224609375,-154.44198608398438,-19.602996826171875,29.299118041992188
1776021786136849200,1.21684912109375,-154.46368408203125,-19.90740966796875,29.159408569335938
1776021786146843100,1.226843017578125,-154.8155975341797,-20.072982788085938,29.14337158203125
1776021786156836400,1.23683642578125,-154.8826446533203,-20.627349853515625,29.03240966796875
1776021786166830000,1.246830078125,-154.7718963623047,-21.30194091796875,28.698562622070312
1776021786176824000,1.256823974609375,-155.20465087890625,-21.802261352539062,28.833892822265625
1776021786186819000,1.266819091796875,-155.29238891601562,-22.20355224609375,28.628219604492188
1776021786196814000,1.27681396484375,-155.41342163085938,-22.575927734375,28.727020263671875
1776021786206808000,1.28680810546875,-155.8876190185547,-22.871627807617188,28.42303466796875
1776021786216801300,1.29680126953125,-155.3237762451172,-22.817138671875,28.1617431640625
1776021786226795300,1.306795166015625,-155.29457092285156,-23.757904052734375,28.27764892578125
1776021786236790300,1.316790283203125,-155.40432739257812,-23.69696044921875,28.193817138671875
1776021786246785300,1.326785400390625,-155.25877380371094,-24.220535278320312,28.079544067382812
1776021786256777200,1.336777099609375,-155.6675262451172,-24.643386840820312,27.766693115234375
1776021786266771200,1.346771240234375,-155.4818572998047,-24.941421508789062,27.679489135742188
1776021786276765400,1.356765380859375,-155.53701782226562,-25.3743896484375,27.392913818359375
1776021786286759400,1.366759521484375,-156.01858520507812,-25.863784790039062,27.369659423828125
1776021786296752000,1.376752197265625,-156.53240966796875,-26.233993530273438,26.818084716796875
1776021786306746400,1.386746337890625,-157.18667602539062,-26.340667724609375,26.10113525390625
1776021786316740400,1.396740234375,-156.85653686523438,-26.700302124023438,26.172836303710938
1776021786326735400,1.4067353515625,-157.5127410888672,-27.168426513671875,25.787750244140625
1776021786336727300,1.416727294921875,-158.0885772705078,-27.06097412109375,25.55560302734375
1776021786346719200,1.42671923828125,-158.1365966796875,-27.653640747070312,25.061920166015625
1776021786356711400,1.43671142578125,-159.178955078125,-27.416152954101562,24.870132446289062
1776021786366704000,1.4467041015625,-159.84909057617188,-27.02337646484375,24.548294067382812
1776021786376696300,1.4566962890625,-160.15223693847656,-27.10028076171875,23.960174560546875
1776021786386690300,1.466690185546875,-160.97097778320312,-27.08966064453125,23.153900146484375
1776021786396683300,1.476683349609375,-161.8518524169922,-27.552764892578125,22.135940551757812
1776021786406677200,1.48667724609375,-163.16696166992188,-28.121978759765625,20.392959594726562
1776021786416670200,1.496670166015625,-164.4864044189453,-28.448226928710938,19.2266845703125
1776021786426663400,1.506663330078125,-165.91908264160156,-28.834503173828125,17.461029052734375
1776021786436657200,1.5166572265625,-167.5308074951172,-29.043869018554688,15.704421997070312
1776021786446651100,1.526651123046875,-167.85128784179688,-29.133636474609375,14.086471557617188
1776021786456644400,1.536644287109375,-168.2821044921875,-29.217529296875,13.121109008789062
1776021786466637300,1.54663720703125,-168.89418029785156,-29.15802001953125,12.112884521484375
1776021786476629200,1.556629150390625,-169.9271240234375,-28.612564086914062,10.902862548828125
1776021786486623200,1.566623291015625,-169.94642639160156,-27.987213134765625,10.464492797851562
1776021786496614100,1.5766142578125,-170.16653442382812,-27.821182250976562,9.364593505859375
1776021786506606300,1.5866064453125,-170.7769317626953,-27.580123901367188,8.66546630859375
1776021786516598300,1.596598388671875,-170.86485290527344,-27.569625854492188,7.95855712890625
1776021786526592300,1.60659228515625,-171.50296020507812,-27.2392578125,7.78741455078125
1776021786536586200,1.616586181640625,-170.92758178710938,-27.121658325195312,6.969390869140625
1776021786546580200,1.626580322265625,-170.87648010253906,-27.300537109375,6.875823974609375
1776021786556573400,1.636573486328125,-172.00791931152344,-26.55859375,6.7263946533203125
1776021786566567400,1.6465673828125,-171.57740783691406,-26.073898315429688,6.5591583251953125
1776021786576561200,1.65656103515625,-171.950927734375,-25.7049560546875,5.881103515625
1776021786586555100,1.66655517578125,-171.09266662597656,-25.011749267578125,5.5647430419921875
1776021786596548400,1.67654833984375,-172.06495666503906,-25.148025512695312,5.3206329345703125
1776021786606542300,1.686542236328125,-171.86936950683594,-24.8309326171875,5.079742431640625
1776021786616535300,1.696535400390625,-172.03419494628906,-24.986953735351562,5.1378326416015625
1776021786626528300,1.7065283203125,-171.80902099609375,-24.4300537109375,5.60601806640625
1776021786636521200,1.716521240234375,-172.31065368652344,-23.959182739257812,5.841217041015625
1776021786646515500,1.726515380859375,-172.05715942382812,-23.774856567382812,6.589691162109375
1776021786656508200,1.736508056640625,-171.43849182128906,-23.140090942382812,7.1826324462890625
1776021786666501400,1.74650146484375,-171.86788940429688,-22.753509521484375,8.073898315429688
1776021786676495400,1.756495361328125,-171.24734497070312,-22.268234252929688,9.092193603515625
1776021786686488300,1.76648828125,-170.8933868408203,-21.899322509765625,10.119461059570312
1776021786696481300,1.776481201171875,-171.37684631347656,-21.676712036132812,11.344284057617188
1776021786706476300,1.786476318359375,-170.43653869628906,-21.305374145507812,12.496795654296875
1776021786716469200,1.79646923828125,-169.29962158203125,-21.123672485351562,14.595565795898438
1776021786726462500,1.80646240234375,-168.1710968017578,-20.628005981445312,15.825363159179688
1776021786736455200,1.816455078125,-167.6774444580078,-19.775543212890625,17.423721313476562
1776021786746446300,1.8264462890625,-166.81044006347656,-19.613327026367188,18.475677490234375
1776021786756439300,1.836439208984375,-166.3455352783203,-19.050949096679688,19.048934936523438
1776021786766433300,1.846433349609375,-166.20326232910156,-18.353546142578125,19.507354736328125
1776021786776424400,1.856424560546875,-166.2804718017578,-18.735580444335938,19.948623657226562
1776021786786418200,1.866418212890625,-165.54293823242188,-18.774749755859375,20.627182006835938
1776021786796411400,1.876411376953125,-164.41429138183594,-19.3277587890625,21.459014892578125
1776021786806405400,1.8864052734375,-164.32553100585938,-19.5440673828125,21.884292602539062
1776021786816397300,1.896397216796875,-163.81158447265625,-19.712509155273438,22.272613525390625
1776021786826391300,1.906391357421875,-163.24069213867188,-19.823806762695312,22.770736694335938
1776021786836384300,1.91638427734375,-162.84364318847656,-19.678543090820312,23.511810302734375
1776021786846378200,1.926378173828125,-161.79664611816406,-19.273956298828125,24.262786865234375
1776021786856371500,1.936371337890625,-160.88446044921875,-19.365921020507812,25.091705322265625
1776021786866364200,1.9463642578125,-159.63128662109375,-19.7880859375,25.526107788085938
1776021786876357400,1.956357421875,-159.0621337890625,-19.915985107421875,25.893081665039062
1776021786886351400,1.966351318359375,-158.5012664794922,-20.848861694335938,26.364974975585938
1776021786896344000,1.976343994140625,-158.06488037109375,-21.470947265625,26.73095703125
1776021786906338300,1.98633837890625,-157.3887481689453,-21.709548950195312,27.318984985351562
1776021786916331300,1.996331298828125,-157.3356475830078,-22.259735107421875,27.220504760742188
1776021786926325200,2.0063251953125,-156.361572265625,-22.201095581054688,27.52691650390625
1776021786936318500,2.016318359375,-157.08641052246094,-22.487319946289062,27.682647705078125
1776021786946311200,2.026311279296875,-156.3729705810547,-22.371307373046875,27.826202392578125
1776021786956304400,2.036304443359375,-155.99237060546875,-22.856781005859375,27.5740966796875
1776021786966297300,2.04629736328125,-156.1814727783203,-22.571975708007812,27.846893310546875
1776021786976290300,2.056290283203125,-155.83627319335938,-22.598052978515625,27.906875610351562
1776021786986282200,2.0662822265625,-155.80079650878906,-22.053817749023438,27.975372314453125
1776021786996276500,2.0762763671875,-155.3826904296875,-21.685653686523438,28.194412231445312
1776021787006268200,2.08626806640625,-155.57992553710938,-21.627700805664062,28.093963623046875
1776021787016261400,2.096261474609375,-155.7073516845703,-21.384384155273438,28.232101440429688
1776021787026255400,2.10625537109375,-155.86178588867188,-21.493209838867188,28.273727416992188
1776021787036250400,2.11625048828125,-155.72140502929688,-21.1630859375,28.051498413085938
1776021787046243000,2.1262431640625,-156.28370666503906,-21.0179443359375,27.892990112304688
1776021787056236300,2.136236328125,-156.48260498046875,-21.01043701171875,28.126861572265625
1776021787066230300,2.146230224609375,-156.41587829589844,-20.963043212890625,28.0345458984375
1776021787076224300,2.156224365234375,-156.454345703125,-20.89300537109375,27.7801513671875
1776021787086218200,2.16621826171875,-157.5577392578125,-20.07171630859375,27.553359985351562
1776021787096212500,2.17621240234375,-157.79965209960938,-19.86181640625,27.172775268554688
1776021787106205200,2.186205078125,-157.4003143310547,-18.996246337890625,26.566238403320312
1776021787116198400,2.196198486328125,-158.3248291015625,-18.407058715820312,26.564743041992188
1776021787126193400,2.206193359375,-157.76727294921875,-17.216110229492188,26.4022216796875
1776021787136188200,2.216188232421875,-156.87728881835938,-16.104232788085938,26.336196899414062
1776021787146184200,2.22618408203125,-156.1182861328125,-14.811965942382812,27.013442993164062
1776021787156180500,2.236180419921875,-154.5262908935547,-13.577178955078125,27.18975830078125
1776021787166174500,2.246174560546875,-153.70516967773438,-12.2171630859375,27.39056396484375
1776021787176167200,2.256167236328125,-152.66363525390625,-10.61541748046875,27.31463623046875
1776021787186162200,2.266162109375,-151.6865234375,-8.940948486328125,27.006607055664062
1776021787196156200,2.27615625,-151.32080078125,-7.723602294921875,26.372848510742188
1776021787206151200,2.286151123046875,-150.84498596191406,-5.996856689453125,25.806671142578125
1776021787216145200,2.296145263671875,-150.42947387695312,-4.9528656005859375,25.12139892578125
1776021787226140200,2.30614013671875,-149.9474639892578,-3.775482177734375,24.521835327148438
1776021787236137500,2.316137451171875,-149.45941162109375,-2.675628662109375,23.8680419921875
1776021787246134300,2.32613427734375,-150.33993530273438,-2.11376953125,23.366958618164062
1776021787256128300,2.336128173828125,-150.49447631835938,-1.7454071044921875,22.551025390625
1776021787266123300,2.346123291015625,-151.52532958984375,-1.2451324462890625,21.836578369140625
1776021787276118800,2.356118896484375,-152.259033203125,-1.648284912109375,21.022323608398438
1776021787286111500,2.366111572265625,-153.6295928955078,-1.5608673095703125,20.767013549804688
1776021787296106500,2.3761064453125,-154.01980590820312,-1.79541015625,20.07440185546875
1776021787306100500,2.3861005859375,-155.8450469970703,-1.97943115234375,19.388153076171875
1776021787316094700,2.3960947265625,-157.55453491210938,-3.3423919677734375,18.569595336914062
1776021787326089700,2.40608984375,-159.3885955810547,-4.468292236328125,18.098419189453125
1776021787336083700,2.416083740234375,-159.75411987304688,-4.2498016357421875,17.648101806640625
1776021787346077700,2.42607763671875,-158.68568420410156,-4.0950469970703125,17.845046997070312
1776021787356072700,2.43607275390625,-157.84564208984375,-3.3660888671875,18.155136108398438
1776021787366067700,2.446067626953125,-157.01986694335938,-2.85382080078125,18.52178955078125
1776021787376061700,2.456061767578125,-156.43031311035156,-2.49957275390625,18.6851806640625
1776021787386054700,2.4660546875,-155.68994140625,-1.749481201171875,19.1783447265625
1776021787396047600,2.476047607421875,-154.8468780517578,-1.481597900390625,19.3685302734375
1776021787406041600,2.48604150390625,-154.51792907714844,-1.2964630126953125,19.899948120117188
1776021787416036600,2.49603662109375,-153.9539794921875,-1.316986083984375,19.946945190429688
1776021787426031600,2.506031494140625,-154.06590270996094,-1.73455810546875,20.19866943359375
1776021787436025600,2.516025634765625,-154.25807189941406,-2.0624237060546875,20.3538818359375
1776021787446020600,2.5260205078125,-154.36959838867188,-2.2365570068359375,20.5389404296875
1776021787456017700,2.536017578125,-155.29251098632812,-2.793182373046875,20.817520141601562
1776021787466013700,2.546013671875,-155.3826141357422,-3.27716064453125,20.447052001953125
1776021787476008700,2.5560087890625,-155.61550903320312,-3.8032684326171875,20.543487548828125
1776021787486003700,2.566003662109375,-155.94325256347656,-3.756683349609375,20.532852172851562
1776021787495997700,2.575997802734375,-155.5784454345703,-3.46905517578125,20.639923095703125
1776021787505992700,2.58599267578125,-156.4039306640625,-3.3917694091796875,20.216156005859375
1776021787515987700,2.59598779296875,-156.0696563720703,-3.08734130859375,20.090866088867188
1776021787525982700,2.605982666015625,-156.6504364013672,-3.2851104736328125,20.064010620117188
1776021787535977700,2.615977783203125,-156.22779846191406,-3.0581817626953125,19.363143920898438
1776021787545972500,2.625972412109375,-156.70606994628906,-3.2267303466796875,18.973709106445312
1776021787555968800,2.63596875,-157.29698181152344,-3.2191009521484375,19.005172729492188
1776021787565962800,2.645962646484375,-156.73684692382812,-3.0443878173828125,18.739105224609375
1776021787575957800,2.655957763671875,-157.57725524902344,-2.965087890625,18.652008056640625
1776021787585952800,2.665952880859375,-157.20233154296875,-2.9229278564453125,18.46112060546875
1776021787595946800,2.67594677734375,-156.5995330810547,-2.6410675048828125,18.615646362304688
1776021787605941800,2.685941650390625,-157.09344482421875,-3.0868072509765625,18.810256958007812
1776021787615935500,2.695935546875,-157.50306701660156,-3.0226287841796875,18.529067993164062
1776021787625929500,2.705929443359375,-156.8973846435547,-2.9745635986328125,18.900146484375
1776021787635924500,2.715924560546875,-156.6002197265625,-2.82452392578125,19.152664184570312
1776021787645919500,2.72591943359375,-156.84841918945312,-3.3399505615234375,18.960922241210938
1776021787655914800,2.735914794921875,-156.96315002441406,-3.3312225341796875,19.104705810546875
1776021787665909800,2.74590966796875,-156.9781494140625,-3.191253662109375,19.536331176757812
1776021787675904800,2.75590478515625,-156.44358825683594,-3.095977783203125,19.514511108398438
1776021787685898800,2.765898681640625,-156.60009765625,-3.07342529296875,19.446578979492188
1776021787695892500,2.775892578125,-155.8956298828125,-3.0918731689453125,19.655181884765625
1776021787705886700,2.78588671875,-156.4311981201172,-3.0891571044921875,19.943115234375
1776021787715881500,2.795881591796875,-156.50375366210938,-3.2563934326171875,19.236831665039062
1776021787725876500,2.80587646484375,-156.82119750976562,-3.3333740234375,19.35137939453125
1776021787735872800,2.815872802734375,-156.4708251953125,-3.14117431640625,19.440444946289062
1776021787745867800,2.82586767578125,-157.05218505859375,-3.35516357421875,19.05169677734375
1776021787755863600,2.835863525390625,-156.78443908691406,-3.109405517578125,19.059967041015625
1776021787765858600,2.845858642578125,-156.750732421875,-3.08740234375,19.012603759765625
1776021787775853600,2.855853515625,-156.63174438476562,-2.8944091796875,18.779571533203125
1776021787785847600,2.86584765625,-156.19960021972656,-2.90234375,19.052703857421875
1776021787795842600,2.875842529296875,-156.2213134765625,-3.3898162841796875,18.923599243164062
1776021787805836800,2.8858369140625,-156.57655334472656,-3.003692626953125,18.94989013671875
1776021787815830800,2.895830810546875,-156.56771850585938,-3.2454986572265625,18.668045043945312
1776021787825825800,2.90582568359375,-155.9246368408203,-3.22943115234375,18.5093994140625
1776021787835820800,2.91582080078125,-156.5548553466797,-3.164459228515625,18.986312866210938
1776021787845816600,2.925816650390625,-156.64923095703125,-2.5434417724609375,19.02880859375
1776021787855811600,2.9358115234375,-156.5727081298828,-2.843841552734375,18.988571166992188
1776021787865808000,2.945807861328125,-156.6497802734375,-2.8526458740234375,19.035171508789062
1776021787875803000,2.955802978515625,-156.2750244140625,-2.729949951171875,19.103424072265625
1776021787885796900,2.965796875,-156.81951904296875,-2.67181396484375,18.875762939453125
1776021787895790600,2.97579052734375,-155.93661499023438,-2.8704986572265625,18.948837280273438
1776021787905783600,2.985783447265625,-156.1879119873047,-3.00921630859375,19.199554443359375
1776021787915778600,2.995778564453125,-156.64508056640625,-2.79443359375,19.07513427734375
1776021787925773600,3.005773681640625,-156.38331604003906,-2.9568328857421875,18.995559692382812
1776021787935768600,3.0157685546875,-156.56832885742188,-2.935211181640625,19.17474365234375
1776021787945761800,3.02576171875,-156.67648315429688,-3.0352783203125,19.1309814453125
1776021787955755800,3.035755859375,-156.62840270996094,-3.0248565673828125,18.859603881835938
1776021787965748700,3.045748779296875,-156.49069213867188,-3.385345458984375,19.095718383789062
1776021787975744800,3.055744873046875,-156.62220764160156,-3.194549560546875,18.869369506835938
1776021787985741600,3.065741455078125,-156.35720825195312,-2.9690704345703125,18.752197265625
1776021787995737900,3.07573779296875,-156.58848571777344,-3.055816650390625,18.773391723632812
1776021788005733600,3.085733642578125,-156.81982421875,-2.8682403564453125,18.868850708007812
1776021788015728600,3.095728759765625,-156.38275146484375,-2.7762298583984375,18.870849609375
1776021788025724700,3.105724609375,-156.5956573486328,-2.92559814453125,19.193618774414062
1776021788035718700,3.11571875,-156.27159118652344,-2.997711181640625,19.288955688476562
1776021788045712000,3.1257119140625,-156.7537078857422,-2.9400634765625,19.396560668945312
1776021788055704600,3.13570458984375,-155.48626708984375,-3.203155517578125,19.616775512695312
1776021788065697800,3.14569775390625,-155.6656494140625,-2.89581298828125,19.781326293945312
1776021788075690800,3.155690673828125,-155.9351348876953,-2.8474578857421875,19.534774780273438
1776021788085682700,3.1656826171875,-155.87249755859375,-3.0036773681640625,19.762481689453125
1776021788095675600,3.175675537109375,-155.86373901367188,-2.956512451171875,19.700897216796875
1776021788105666600,3.18566650390625,-156.1184539794922,-3.3562164306640625,19.827926635742188
1776021788115659800,3.19565966796875,-156.26841735839844,-2.81488037109375,20.058273315429688
1776021788125652700,3.20565283203125,-156.10104370117188,-3.016754150390625,19.101776123046875
1776021788135645700,3.215645751953125,-156.13746643066406,-3.043792724609375,19.444503784179688
1776021788145637600,3.2256376953125,-156.36239624023438,-2.8071441650390625,18.975311279296875
1776021788155631900,3.2356318359375,-156.50148010253906,-3.0642242431640625,19.431381225585938
1776021788165624600,3.24562451171875,-156.423095703125,-2.941070556640625,19.274627685546875
1776021788175617800,3.25561767578125,-156.2855987548828,-2.795196533203125,19.3834228515625
1776021788185611800,3.26561181640625,-156.17359924316406,-2.8560333251953125,19.430770874023438
1776021788195605800,3.275605712890625,-156.77633666992188,-3.05108642578125,18.980758666992188
1776021788205600800,3.285600830078125,-156.6314239501953,-2.8006591796875,19.1400146484375
1776021788215593500,3.295593505859375,-155.9193572998047,-2.878692626953125,18.967605590820312
1776021788225588500,3.30558837890625,-155.7562713623047,-3.0213470458984375,19.068496704101562
1776021788235584800,3.315584716796875,-155.45330810546875,-2.932769775390625,19.170989990234375
1776021788245578800,3.325578857421875,-155.46481323242188,-2.7950897216796875,19.35394287109375
1776021788255573800,3.33557373046875,-156.1182403564453,-2.91302490234375,19.214004516601562
1776021788265568800,3.34556884765625,-156.20843505859375,-2.867950439453125,19.29217529296875
1776021788275563000,3.35556298828125,-156.00823974609375,-2.7894134521484375,19.195663452148438
1776021788285558000,3.36555810546875,-155.99620056152344,-2.6525115966796875,19.16021728515625
1776021788295553000,3.375552978515625,-156.09628295898438,-3.0791015625,19.131744384765625
1776021788305547000,3.385547119140625,-155.5196533203125,-2.9258880615234375,19.19085693359375
1776021788315541000,3.395541015625,-155.81625366210938,-2.720947265625,19.01104736328125
1776021788325536000,3.405535888671875,-155.8974609375,-2.9107666015625,18.980667114257812
1776021788335531000,3.415531005859375,-155.86341857910156,-2.4035491943359375,19.020248413085938
1776021788345524000,3.42552392578125,-155.93112182617188,-2.8579559326171875,19.068893432617188
1776021788355516000,3.435515869140625,-156.45492553710938,-2.756439208984375,19.18994140625
1776021788365510000,3.445510009765625,-155.3046875,-2.816436767578125,19.5128173828125
1776021788375504100,3.455504150390625,-154.767822265625,-3.0357666015625,19.736892700195312
1776021788385498000,3.465498046875,-155.22117614746094,-3.1867218017578125,20.1146240234375
1776021788395492000,3.4754921875,-154.427490234375,-3.375274658203125,20.300506591796875
1776021788405484800,3.48548486328125,-154.66574096679688,-2.974609375,20.6387939453125
1776021788415479000,3.49547900390625,-154.30503845214844,-3.001190185546875,20.516448974609375
1776021788425473000,3.50547314453125,-154.32913208007812,-2.9750213623046875,20.2589111328125
1776021788435467000,3.515467041015625,-154.1125030517578,-2.55499267578125,20.420379638671875
1776021788445460000,3.5254599609375,-154.06887817382812,-3.0630950927734375,20.513778686523438
1776021788455454000,3.535453857421875,-154.70042419433594,-2.86712646484375,20.408050537109375
1776021788465448000,3.545447998046875,-154.43896484375,-3.0257568359375,20.210067749023438
1776021788475442000,3.55544189453125,-154.4557342529297,-2.9528045654296875,20.033004760742188
1776021788485436000,3.565435791015625,-154.2523956298828,-2.84747314453125,19.871383666992188
1776021788495430000,3.575429931640625,-154.95501708984375,-3.3498382568359375,19.95361328125
1776021788505421800,3.585421875,-154.9619598388672,-2.9552764892578125,19.59368896484375
1776021788515414000,3.5954140625,-155.3529510498047,-3.01837158203125,19.238037109375
1776021788525407000,3.605406982421875,-155.55140686035156,-3.14288330078125,19.191497802734375
1776021788535401000,3.61540087890625,-155.72129821777344,-3.0613861083984375,19.177215576171875
1776021788545394000,3.625393798828125,-155.56190490722656,-2.9181671142578125,18.934295654296875
1776021788555387100,3.63538720703125,-155.73873901367188,-2.8706207275390625,18.633285522460938
1776021788565381000,3.645381103515625,-155.88491821289062,-2.88323974609375,19.071823120117188
1776021788575375000,3.655375,-155.49485778808594,-3.08380126953125,19.18963623046875
1776021788585370000,3.6653701171875,-154.9615020751953,-2.85467529296875,18.989578247070312
1776021788595363800,3.67536376953125,-155.1433868408203,-2.8744964599609375,19.758590698242188
1776021788605357000,3.685357177734375,-154.67352294921875,-2.898529052734375,19.537704467773438
1776021788615351000,3.69535107421875,-154.31222534179688,-3.1256866455078125,19.432815551757812
1776021788625345000,3.705344970703125,-155.14952087402344,-2.964691162109375,19.794906616210938
1776021788635339000,3.715339111328125,-154.77415466308594,-3.11395263671875,19.812728881835938
1776021788645333000,3.7253330078125,-154.05747985839844,-3.4075469970703125,19.821868896484375
1776021788655328000,3.735327880859375,-154.82933044433594,-3.0166473388671875,19.961135864257812
1776021788665323000,3.745322998046875,-155.10589599609375,-3.0330810546875,19.467697143554688
1776021788675318000,3.755318115234375,-155.82421875,-3.0883331298828125,19.57415771484375
1776021788685313000,3.76531298828125,-155.35084533691406,-2.9913177490234375,19.310134887695312
1776021788695308000,3.77530810546875,-155.1639862060547,-3.259857177734375,19.550277709960938
1776021788705302000,3.785302001953125,-155.37388610839844,-3.0935821533203125,19.404541015625
1776021788715294000,3.7952939453125,-155.10281372070312,-3.074462890625,19.517410278320312
1776021788725287000,3.805286865234375,-155.01861572265625,-3.604095458984375,19.4691162109375
1776021788735280000,3.815280029296875,-155.29957580566406,-3.0666656494140625,19.681961059570312
1776021788745274000,3.825274169921875,-155.20761108398438,-3.5345916748046875,19.3516845703125
1776021788755267800,3.835267822265625,-154.77989196777344,-3.3184051513671875,19.40399169921875
1776021788765261000,3.845260986328125,-155.36207580566406,-3.3722991943359375,19.531356811523438
1776021788775255800,3.855255859375,-155.56002807617188,-3.413299560546875,19.461700439453125
1776021788785249000,3.8652490234375,-155.3679656982422,-3.08111572265625,19.87908935546875
1776021788795244000,3.875244140625,-155.29469299316406,-3.2762298583984375,19.243667602539062
1776021788805237000,3.885237060546875,-155.3445587158203,-3.2736053466796875,19.508682250976562
1776021788815231000,3.89523095703125,-154.7624969482422,-3.079986572265625,19.716323852539062
1776021788825225000,3.905224853515625,-154.92965698242188,-3.1091766357421875,19.463973999023438
1776021788835220000,3.915219970703125,-155.3258819580078,-3.2896270751953125,19.349380493164062
1776021788845213000,3.925212890625,-155.5890350341797,-3.2508087158203125,19.171615600585938
1776021788855207000,3.93520703125,-155.5725860595703,-3.01702880859375,19.281326293945312
1776021788865202000,3.945201904296875,-155.45774841308594,-2.9564361572265625,19.10223388671875
1776021788875197000,3.955197021484375,-155.87750244140625,-3.18902587890625,19.051437377929688
1776021788885190000,3.96518994140625,-155.722900390625,-3.025177001953125,19.197616577148438
1776021788895185000,3.975184814453125,-155.544677734375,-3.3665313720703125,19.248336791992188
1776021788905179100,3.98517919921875,-155.59083557128906,-3.1963958740234375,19.40386962890625
1776021788915171800,3.995171875,-155.188232421875,-3.4678497314453125,19.499008178710938
1776021788925165000,4.0051650390625,-154.8638458251953,-3.50244140625,19.462448120117188
1776021788935158000,4.015157958984375,-154.9757843017578,-3.628692626953125,19.093994140625
1776021788945152000,4.025152099609375,-154.820556640625,-3.157318115234375,19.284866333007812
1776021788955147000,4.03514697265625,-155.00148010253906,-3.61444091796875,19.093368530273438
1776021788965141000,4.04514111328125,-154.67449951171875,-3.30487060546875,19.59637451171875
1776021788975134000,4.055134033203125,-153.92245483398438,-3.360595703125,20.1798095703125
1776021788985128000,4.0651279296875,-152.83860778808594,-3.468475341796875,20.710205078125
1776021788995121000,4.075120849609375,-152.48458862304688,-3.729461669921875,21.555313110351562
1776021789005116000,4.085115966796875,-151.5921630859375,-4.22833251953125,21.896453857421875
1776021789015110000,4.09510986328125,-150.93186950683594,-3.925201416015625,22.0704345703125
1776021789025104100,4.105104248046875,-151.04153442382812,-3.2953033447265625,21.945709228515625
1776021789035099100,4.11509912109375,-151.52186584472656,-3.1641387939453125,21.487350463867188
1776021789045093000,4.125093017578125,-152.2949676513672,-3.2429046630859375,21.364517211914062
1776021789055086800,4.1350869140625,-152.23760986328125,-3.0554962158203125,20.822296142578125
1776021789065080800,4.145080810546875,-152.48255920410156,-2.675994873046875,21.09033203125
1776021789075074000,4.155073974609375,-153.15147399902344,-2.8226165771484375,20.460174560546875
1776021789085066000,4.16506591796875,-154.12384033203125,-2.8197174072265625,20.420257568359375
1776021789095062000,4.17506201171875,-153.8852996826172,-2.921234130859375,19.972412109375
1776021789105055000,4.185054931640625,-154.04856872558594,-2.375579833984375,19.938552856445312
1776021789115048000,4.1950478515625,-154.5607452392578,-2.4079437255859375,19.509521484375
1776021789125041000,4.205041015625,-154.91473388671875,-2.4992828369140625,19.394744873046875
1776021789135034000,4.2150341796875,-155.28013610839844,-2.17803955078125,18.821929931640625
1776021789145026800,4.22502685546875,-155.11512756347656,-2.3641815185546875,18.766799926757812
1776021789155020000,4.23502001953125,-155.04063415527344,-2.2394866943359375,18.567703247070312
1776021789165013000,4.245012939453125,-154.87351989746094,-2.6552581787109375,18.445846557617188
1776021789175006000,4.255005859375,-155.2540740966797,-2.508697509765625,18.30633544921875
1776021789184998100,4.264998046875,-155.42845153808594,-2.18402099609375,18.520004272460938
1776021789194992000,4.2749921875,-155.321044921875,-2.4070892333984375,18.314727783203125
1776021789204984800,4.28498486328125,-155.0997314453125,-2.1078948974609375,18.760910034179688
1776021789214979800,4.294979736328125,-155.3219757080078,-2.1744537353515625,18.262527465820312
1776021789224973800,4.304973876953125,-154.88424682617188,-2.4255828857421875,18.588699340820312
1776021789234968000,4.314968017578125,-154.6833953857422,-2.3146209716796875,18.989486694335938
1776021789244962800,4.324962890625,-154.3603515625,-2.176361083984375,19.008636474609375
1776021789254957800,4.334957763671875,-154.3246307373047,-2.2052459716796875,19.015716552734375
1776021789264953900,4.344953857421875,-153.61129760742188,-2.3967742919921875,19.041244506835938
1776021789274947800,4.35494775390625,-153.5508575439453,-2.185882568359375,18.985275268554688
1776021789284942600,4.364942626953125,-153.39495849609375,-2.03411865234375,19.151611328125
1776021789294937600,4.3749375,-153.26133728027344,-1.9489593505859375,18.99969482421875
1776021789304930600,4.3849306640625,-153.42494201660156,-1.9884490966796875,18.985916137695312
1776021789314925600,4.394925537109375,-153.8659210205078,-1.9793853759765625,18.6214599609375
1776021789324920600,4.404920654296875,-153.5539093017578,-1.2767791748046875,18.461257934570312
1776021789334914600,4.41491455078125,-153.32383728027344,-1.8811492919921875,18.317047119140625
1776021789344910600,4.42491064453125,-153.2024688720703,-1.335296630859375,18.276107788085938
1776021789354906600,4.43490673828125,-154.1097869873047,-1.363677978515625,18.142684936523438
1776021789364901600,4.444901611328125,-153.7729949951172,-1.5040130615234375,18.102005004882812
1776021789374895600,4.4548955078125,-153.5853271484375,-1.1231536865234375,17.945175170898438
1776021789384890600,4.464890625,-153.5402069091797,-1.1824493408203125,17.463821411132812
1776021789394884600,4.474884521484375,-154.1350555419922,-1.1663055419921875,17.3614501953125
1776021789404878600,4.484878662109375,-153.50857543945312,-1.0576324462890625,17.522552490234375
1776021789414872600,4.49487255859375,-154.11001586914062,-1.0461273193359375,16.983291625976562
1776021789424867600,4.50486767578125,-153.3872833251953,-1.2364654541015625,17.113037109375
1776021789434861600,4.514861572265625,-153.54116821289062,-1.0938720703125,17.420181274414062
1776021789444856600,4.524856689453125,-153.7266387939453,-1.115631103515625,17.36688232421875
1776021789454851600,4.5348515625,-154.00103759765625,-1.5381011962890625,17.045654296875
1776021789464846600,4.5448466796875,-154.068359375,-1.54443359375,17.063140869140625
1776021789474842600,4.554842529296875,-154.6295623779297,-1.8427276611328125,17.093505859375
1776021789484838400,4.56483837890625,-155.3069610595703,-1.7778778076171875,16.53717041015625
1776021789494835700,4.574835693359375,-154.29725646972656,-1.629913330078125,16.725082397460938
1776021789504831500,4.58483154296875,-154.70413208007812,-1.5917816162109375,16.660934448242188
1776021789514827500,4.59482763671875,-154.75059509277344,-1.8037567138671875,16.893325805664062
1776021789524821500,4.604821533203125,-154.65560913085938,-1.946319580078125,16.503692626953125
1776021789534816500,4.61481640625,-154.34994506835938,-1.5980377197265625,16.54473876953125
1776021789544811500,4.6248115234375,-155.052490234375,-2.0754852294921875,16.540771484375
1776021789554806800,4.634806884765625,-154.30392456054688,-2.1137542724609375,16.517440795898438
1776021789564801800,4.6448017578125,-154.7247314453125,-2.295379638671875,16.916412353515625
1776021789574796800,4.654796875,-154.57362365722656,-2.4826202392578125,17.1695556640625
1776021789584792600,4.66479248046875,-154.35992431640625,-2.85150146484375,17.625030517578125
1776021789594788600,4.67478857421875,-153.73782348632812,-2.8381195068359375,18.1934814453125
1776021789604784400,4.684784423828125,-153.01956176757812,-3.13165283203125,18.69696044921875
1776021789614780700,4.69478076171875,-152.1315460205078,-3.3163299560546875,19.29864501953125
1776021789624777500,4.704777587890625,-152.53707885742188,-3.827728271484375,20.01177978515625
1776021789634772500,4.7147724609375,-152.1673126220703,-4.330169677734375,20.28021240234375
1776021789644766500,4.724766357421875,-152.20387268066406,-4.35748291015625,20.448074340820312
1776021789654761500,4.734761474609375,-151.59158325195312,-4.878204345703125,20.830856323242188
1776021789664756500,4.744756591796875,-151.7589111328125,-5.020904541015625,21.083450317382812
1776021789674752800,4.754752685546875,-151.90174865722656,-4.9390411376953125,21.265777587890625
1776021789684747800,4.764747802734375,-152.1744842529297,-5.39495849609375,21.258056640625
1776021789694742800,4.77474267578125,-152.14956665039062,-5.2561798095703125,21.047256469726562
1776021789704737500,4.784737548828125,-152.72772216796875,-5.6996612548828125,21.146957397460938
1776021789714732500,4.794732666015625,-153.52455139160156,-6.0212249755859375,21.03021240234375
1776021789724726800,4.804726806640625,-153.72743225097656,-5.64581298828125,21.058731079101562
1776021789734722600,4.81472265625,-153.82188415527344,-6.0416412353515625,20.901840209960938
1776021789744716500,4.824716552734375,-154.46121215820312,-6.03265380859375,20.361862182617188
1776021789754710800,4.834710693359375,-154.91021728515625,-6.4087677001953125,20.280380249023438
1776021789764704800,4.844704833984375,-155.08740234375,-6.39532470703125,20.164138793945312
1776021789774698500,4.854698486328125,-155.58055114746094,-6.52008056640625,19.685745239257812
1776021789784692500,4.8646923828125,-155.51541137695312,-6.7414703369140625,20.029861450195312
1776021789794685700,4.874685791015625,-156.30538940429688,-7.0743408203125,19.992385864257812
1776021789804679700,4.8846796875,-156.55343627929688,-6.9384002685546875,19.92022705078125
1776021789814673700,4.894673583984375,-155.81288146972656,-6.9531402587890625,19.672332763671875
1776021789824668700,4.904668701171875,-156.3594512939453,-7.0799560546875,19.693832397460938
1776021789834661400,4.914661376953125,-156.4679718017578,-6.886749267578125,19.769546508789062
1776021789844655600,4.924655517578125,-156.61660766601562,-6.5123138427734375,19.712020874023438
1776021789854648600,4.934648681640625,-156.5238494873047,-6.3758544921875,19.136611938476562
1776021789864642600,4.944642578125,-157.1102294921875,-6.0594635009765625,19.03033447265625
1776021789874636500,4.954636474609375,-156.72537231445312,-5.9410400390625,18.536163330078125
1776021789884631600,4.964631591796875,-157.6492919921875,-5.7483062744140625,18.148834228515625
1776021789894625500,4.97462548828125,-157.5264892578125,-5.080352783203125,17.396713256835938
1776021789904619800,4.984619873046875,-157.743896484375,-5.0081939697265625,17.033370971679688
1776021789914614800,4.99461474609375,-157.68008422851562,-5.04620361328125,16.892807006835938
1776021789924608800,5.00460888671875,-157.8190155029297,-5.0448455810546875,16.95599365234375
1776021789934603800,5.014603759765625,-158.0331573486328,-4.360076904296875,16.605438232421875
1776021789944598800,5.024598876953125,-158.2790985107422,-3.9546051025390625,17.161636352539062
1776021789954592800,5.0345927734375,-157.28187561035156,-4.00628662109375,16.510787963867188
1776021789964586500,5.04458642578125,-157.72720336914062,-3.5840911865234375,16.284500122070312
1776021789974581500,5.05458154296875,-157.38877868652344,-3.5327911376953125,16.113174438476562
1776021789984577500,5.06457763671875,-156.86492919921875,-2.8385772705078125,15.669891357421875
1776021789994574600,5.07457470703125,-156.90380859375,-2.8226165771484375,15.35430908203125
1776021790004569600,5.084569580078125,-157.02902221679688,-2.3255767822265625,15.294570922851562
1776021790014565600,5.094565673828125,-157.0489501953125,-2.374420166015625,14.689208984375
1776021790024562700,5.104562744140625,-157.4326171875,-1.9171142578125,14.248443603515625
1776021790034558500,5.114558349609375,-157.32354736328125,-1.54052734375,14.261459350585938
1776021790044553500,5.124553466796875,-157.5694580078125,-1.36883544921875,13.765792846679688
1776021790054546700,5.134546630859375,-157.2610626220703,-1.19866943359375,13.031982421875
1776021790064540700,5.144540771484375,-157.730712890625,-0.8249664306640625,12.978530883789062
1776021790074535700,5.15453564453125,-157.4916229248047,-0.704864501953125,12.223129272460938
1776021790084528600,5.164528564453125,-157.23265075683594,-0.4542694091796875,12.2330322265625
1776021790094521600,5.174521484375,-157.8506317138672,-0.2883148193359375,11.905410766601562
1776021790104516600,5.1845166015625,-157.0312042236328,0.1016387939453125,11.662033081054688
1776021790114511600,5.19451171875,-156.66587829589844,0.3265533447265625,11.217788696289062
1776021790124507600,5.204507568359375,-157.4347381591797,0.1496429443359375,11.097091674804688
1776021790134502700,5.214502685546875,-157.19239807128906,0.58026123046875,11.117889404296875
1776021790144497700,5.22449755859375,-157.37875366210938,0.6802825927734375,10.410430908203125
1776021790154491600,5.23449169921875,-156.65025329589844,0.7208251953125,10.578826904296875
1776021790164486700,5.244486572265625,-156.67132568359375,1.040130615234375,10.565719604492188
1776021790174481700,5.254481689453125,-156.6840057373047,1.289154052734375,10.434494018554688
1776021790184477400,5.2644775390625,-156.57740783691406,1.601531982421875,10.175872802734375
1776021790194473500,5.274473388671875,-156.2736053466797,1.7027587890625,10.395599365234375
1776021790204469800,5.2844697265625,-155.72511291503906,1.7274169921875,10.151107788085938
1776021790214465500,5.294465576171875,-155.43536376953125,2.0067901611328125,10.130325317382812
1776021790224460500,5.30446044921875,-155.6302490234375,1.9858856201171875,10.280517578125
1776021790234455600,5.31445556640625,-155.49081420898438,2.0481109619140625,10.209030151367188
1776021790244448800,5.32444873046875,-155.31387329101562,2.510650634765625,9.819229125976562
1776021790254442800,5.33444287109375,-155.29551696777344,2.42718505859375,9.640594482421875
1776021790264436500,5.3444365234375,-155.9563751220703,2.6832275390625,9.66021728515625
1776021790274430500,5.354430419921875,-155.48031616210938,2.9876708984375,9.58123779296875
1776021790284426000,5.364426025390625,-155.164794921875,2.9951324462890625,9.53143310546875
1776021790294422000,5.374422119140625,-155.26254272460938,3.1397247314453125,9.068389892578125
1776021790304419000,5.384419189453125,-155.28219604492188,2.955352783203125,9.361038208007812
1776021790314414000,5.3944140625,-155.2834930419922,2.844482421875,9.324111938476562
1776021790324411000,5.404410888671875,-154.8790283203125,2.9762725830078125,9.698287963867188
1776021790334406000,5.414406005859375,-155.28970336914062,3.1672821044921875,9.289627075195312
1776021790344400000,5.42439990234375,-155.07603454589844,2.96539306640625,8.967788696289062
1776021790354396000,5.43439599609375,-154.92507934570312,3.2788238525390625,9.184249877929688
1776021790364390000,5.444389892578125,-155.8491973876953,3.044921875,9.333343505859375
1776021790374383900,5.4543837890625,-155.45669555664062,3.201171875,9.139266967773438
1776021790384377000,5.464377197265625,-154.7637481689453,2.9855499267578125,9.298431396484375
1776021790394370000,5.4743701171875,-155.23439025878906,2.9344329833984375,9.227127075195312
1776021790404365000,5.484364990234375,-155.05287170410156,2.9840545654296875,9.305374145507812
1776021790414361000,5.494361083984375,-154.6612091064453,3.0473785400390625,9.568374633789062
1776021790424356900,5.50435693359375,-154.8394012451172,2.63226318359375,9.531890869140625
1776021790434354200,5.514354248046875,-155.0991973876953,2.4023895263671875,9.654388427734375
1776021790444349000,5.524348876953125,-154.959228515625,2.1565704345703125,9.824691772460938
1776021790454345000,5.534344970703125,-155.04905700683594,2.605804443359375,10.166519165039062
1776021790464339000,5.5443388671875,-154.89801025390625,2.5135955810546875,10.080245971679688
1776021790474334000,5.554333984375,-155.12049865722656,2.4234771728515625,10.21142578125
1776021790484328000,5.564327880859375,-155.08009338378906,2.664520263671875,9.9119873046875
1776021790494321000,5.57432080078125,-155.67782592773438,2.3083343505859375,9.893173217773438
1776021790504317000,5.58431689453125,-155.9510498046875,1.985076904296875,10.002883911132812
1776021790514311200,5.594311279296875,-155.87176513671875,1.67706298828125,10.02947998046875
1776021790524305000,5.604304931640625,-155.7769317626953,1.7325439453125,10.054229736328125
1776021790534299000,5.614298828125,-155.3939208984375,1.337188720703125,9.8699951171875
1776021790544292900,5.62429296875,-155.61346435546875,1.647705078125,10.247390747070312
1776021790554287900,5.634287841796875,-155.67715454101562,1.7231597900390625,10.445587158203125
1776021790564281900,5.64428173828125,-155.8989715576172,1.4111785888671875,10.689300537109375
1776021790574276900,5.65427685546875,-155.945068359375,1.5810089111328125,10.676910400390625
1776021790584270800,5.664270751953125,-155.7633819580078,1.33782958984375,10.792129516601562
1776021790594265900,5.674265869140625,-155.48281860351562,1.3202362060546875,10.651107788085938
1776021790604260900,5.6842607421875,-156.0659942626953,1.2430419921875,10.950332641601562
1776021790614254800,5.6942548828125,-155.93495178222656,1.1157379150390625,11.04052734375
1776021790624249900,5.704249755859375,-155.4912109375,0.9837646484375,11.087936401367188
1776021790634246000,5.714245849609375,-155.4117431640625,1.1794281005859375,11.067031860351562
1776021790644241000,5.724240966796875,-155.07554626464844,0.8912200927734375,11.322174072265625
1776021790654237000,5.73423681640625,-155.40805053710938,0.8689422607421875,11.308731079101562
1776021790664231200,5.744231201171875,-155.58154296875,1.0508880615234375,11.702178955078125
1776021790674227000,5.75422705078125,-155.03900146484375,0.711395263671875,11.896011352539062
1776021790684221000,5.764220947265625,-154.7987060546875,0.4203338623046875,11.82440185546875
1776021790694215200,5.774215087890625,-155.00863647460938,-0.1072845458984375,11.93798828125
1776021790704209200,5.784209228515625,-154.69464111328125,0.387664794921875,11.66217041015625
1776021790714203000,5.794202880859375,-155.1897430419922,0.2976226806640625,12.114227294921875
1776021790724196900,5.80419677734375,-155.2853240966797,0.1215972900390625,12.065673828125
1776021790734191900,5.81419189453125,-154.75543212890625,0.19970703125,12.263107299804688
1776021790744187000,5.824186767578125,-154.7273406982422,0.2192230224609375,12.168609619140625
1776021790754182000,5.834181884765625,-155.18508911132812,0.0699615478515625,12.440948486328125
1776021790764178000,5.844177978515625,-155.09860229492188,0.011962890625,12.307891845703125
1776021790774172200,5.854172119140625,-155.18019104003906,-0.182342529296875,12.31732177734375
1776021790784166000,5.864165771484375,-155.71902465820312,-0.0640411376953125,12.335540771484375
1776021790794161200,5.8741611328125,-155.41278076171875,-0.1888885498046875,12.454864501953125
1776021790804153900,5.88415380859375,-155.27508544921875,-0.502838134765625,12.48455810546875
1776021790814147800,5.89414794921875,-155.6459503173828,-0.7347259521484375,12.329544067382812
1776021790824141000,5.90414111328125,-155.54554748535156,-1.0475921630859375,12.482025146484375
1776021790834136000,5.914135986328125,-155.7080535888672,-1.0625457763671875,12.2696533203125
1776021790844129000,5.92412890625,-155.88221740722656,-1.3836517333984375,12.026290893554688
1776021790854122800,5.934122802734375,-155.4901580810547,-1.5028839111328125,11.974197387695312
1776021790864116000,5.944115966796875,-156.02947998046875,-1.6293792724609375,11.846694946289062
1776021790874111000,5.954111083984375,-156.17437744140625,-1.518524169921875,11.989425659179688
1776021790884105000,5.96410498046875,-155.816162109375,-1.6634368896484375,11.936416625976562
1776021790894100000,5.974099853515625,-156.2624053955078,-1.6411895751953125,12.067672729492188
1776021790904094000,5.984093994140625,-156.43441772460938,-1.8673095703125,11.978256225585938
1776021790914089000,5.9940888671875,-156.2661895751953,-2.0946044921875,12.419601440429688
1776021790924083000,6.0040830078125,-156.265625,-2.16400146484375,12.809356689453125
1776021790934077000,6.014076904296875,-156.40220642089844,-2.151275634765625,12.54144287109375
1776021790944070000,6.02406982421875,-156.27557373046875,-2.1871337890625,12.247177124023438
1776021790954064000,6.03406396484375,-157.0108184814453,-2.732574462890625,12.6114501953125
1776021790964056000,6.04405615234375,-156.63897705078125,-3.2020721435546875,12.351593017578125
1776021790974048000,6.054048095703125,-157.01414489746094,-3.031402587890625,12.660369873046875
1776021790984042000,6.0640419921875,-157.23248291015625,-3.24652099609375,12.599700927734375
1776021790994035000,6.074034912109375,-157.06349182128906,-3.0855712890625,12.505386352539062
1776021791004030000,6.084030029296875,-157.07630920410156,-3.5543060302734375,12.52154541015625
1776021791014025000,6.09402490234375,-157.3970947265625,-3.96331787109375,12.74700927734375
1776021791024019000,6.10401904296875,-157.4609832763672,-4.1573486328125,12.34417724609375
1776021791034014000,6.114013916015625,-157.98326110839844,-4.1023406982421875,12.347854614257812
1776021791044009000,6.124009033203125,-157.62278747558594,-4.1452178955078125,12.0146484375
1776021791054003000,6.1340029296875,-158.57476806640625,-4.3125762939453125,11.785446166992188
1776021791063998000,6.143998046875,-158.39920043945312,-5.0213165283203125,11.5736083984375
1776021791073993000,6.153992919921875,-158.80911254882812,-4.88092041015625,11.053054809570312
1776021791083987000,6.163987060546875,-158.89370727539062,-4.9009857177734375,11.0699462890625
1776021791093981000,6.17398095703125,-159.69131469726562,-5.119171142578125,10.853195190429688
1776021791103976000,6.183975830078125,-159.41522216796875,-5.59857177734375,10.954452514648438
1776021791113970000,6.193969970703125,-159.1592254638672,-5.624114990234375,10.784530639648438
1776021791123965000,6.20396484375,-159.6570281982422,-5.873138427734375,11.386398315429688
1776021791133959200,6.213959228515625,-159.162353515625,-5.936279296875,11.721038818359375
1776021791143952000,6.223951904296875,-158.9807891845703,-6.3508758544921875,12.069351196289062
1776021791153945000,6.233945068359375,-159.71124267578125,-6.6345367431640625,12.25018310546875
1776021791163939800,6.24393994140625,-159.1731414794922,-6.5099334716796875,12.356246948242188
1776021791173935900,6.253935791015625,-159.33749389648438,-6.97796630859375,12.185684204101562
1776021791183929000,6.26392919921875,-159.7869415283203,-7.305755615234375,11.631790161132812
1776021791193923000,6.273923095703125,-159.52369689941406,-7.270599365234375,12.024337768554688
1776021791203916000,6.283916015625,-159.95867919921875,-7.5566864013671875,12.009140014648438
1776021791213909800,6.29390966796875,-159.72903442382812,-7.3455963134765625,11.8187255859375
1776021791223903000,6.303903076171875,-160.0063934326172,-8.29608154296875,11.330856323242188
1776021791233897000,6.31389697265625,-160.20404052734375,-8.436691284179688,11.216156005859375
1776021791243891000,6.323890869140625,-160.21206665039062,-8.85235595703125,11.145111083984375
1776021791253885000,6.333885009765625,-161.1042938232422,-8.84600830078125,11.017715454101562
1776021791263879200,6.343879150390625,-160.28868103027344,-8.92120361328125,10.508453369140625
1776021791273873000,6.353872802734375,-160.5388641357422,-9.081832885742188,10.524703979492188
1776021791283868200,6.3638681640625,-160.5183563232422,-9.483413696289062,10.38909912109375
1776021791293862100,6.373862060546875,-161.1377716064453,-10.3458251953125,10.570693969726562
1776021791303857200,6.383857177734375,-160.96124267578125,-10.130615234375,10.967254638671875
1776021791313851100,6.39385107421875,-160.77886962890625,-10.282440185546875,10.806625366210938
1776021791323846100,6.40384619140625,-160.82131958007812,-10.41009521484375,11.175155639648438
1776021791333840100,6.413840087890625,-161.08685302734375,-10.898452758789062,11.254989624023438
1776021791343833000,6.4238330078125,-161.05970764160156,-11.391403198242188,11.22113037109375
1776021791353827800,6.433827880859375,-161.16517639160156,-11.11724853515625,11.501876831054688
1776021791363824000,6.44382421875,-161.58973693847656,-11.212020874023438,11.3353271484375
1776021791373818000,6.453818115234375,-161.81971740722656,-11.6119384765625,11.243438720703125
1776021791383813000,6.463813232421875,-161.13778686523438,-11.76568603515625,11.439285278320312
1776021791393807000,6.47380712890625,-161.78697204589844,-12.270797729492188,11.306900024414062
1776021791403802000,6.483802001953125,-161.38323974609375,-12.56243896484375,11.249969482421875
1776021791413795800,6.4937958984375,-161.1551055908203,-12.527496337890625,11.334625244140625
1776021791423791000,6.503791015625,-161.58969116210938,-12.878021240234375,11.822998046875
1776021791433786000,6.5137861328125,-161.47686767578125,-12.891510009765625,11.4525146484375
1776021791443781000,6.523781005859375,-161.6243896484375,-13.118560791015625,11.358917236328125
1776021791453776100,6.533776123046875,-162.01864624023438,-13.45770263671875,11.631072998046875
1776021791463771100,6.543771240234375,-161.39529418945312,-13.536376953125,11.647003173828125
1776021791473766100,6.55376611328125,-161.8123016357422,-13.602447509765625,11.871185302734375
1776021791483759000,6.563759033203125,-161.91542053222656,-14.012344360351562,12.358047485351562
1776021791493754000,6.573754150390625,-161.62506103515625,-14.143768310546875,12.877838134765625
1776021791503749000,6.5837490234375,-161.64295959472656,-14.288040161132812,13.042190551757812
1776021791513743000,6.5937431640625,-161.23069763183594,-14.599075317382812,13.239913940429688
1776021791523739100,6.6037392578125,-161.11398315429688,-14.303680419921875,13.133041381835938
1776021791533734100,6.613734130859375,-160.8234405517578,-14.403350830078125,13.229583740234375
1776021791543729200,6.623729248046875,-161.16705322265625,-14.426483154296875,13.796310424804688
1776021791553724200,6.63372412109375,-161.02256774902344,-14.726593017578125,13.60943603515625
1776021791563720000,6.643719970703125,-161.2258758544922,-14.823898315429688,13.760955810546875
1776021791573716200,6.65371630859375,-160.82833862304688,-14.989471435546875,13.584243774414062
1776021791583710000,6.6637099609375,-161.81314086914062,-15.285995483398438,13.966949462890625
1776021791593705000,6.673705078125,-161.45501708984375,-15.186996459960938,13.93408203125
1776021791603700200,6.6837001953125,-160.83641052246094,-15.436233520507812,13.837936401367188
1776021791613695200,6.6936953125,-161.384033203125,-15.264236450195312,14.291213989257812
1776021791623691000,6.70369091796875,-161.30032348632812,-15.849044799804688,14.394912719726562
1776021791633687000,6.71368701171875,-161.24342346191406,-15.590713500976562,14.355331420898438
1776021791643682000,6.72368212890625,-161.46487426757812,-15.656326293945312,14.286819458007812
1776021791653679000,6.73367919921875,-161.09852600097656,-15.456298828125,14.712738037109375
1776021791663676000,6.743676025390625,-160.8289794921875,-16.009201049804688,14.758544921875
1776021791673671000,6.7536708984375,-160.9235382080078,-15.956756591796875,14.66094970703125
1776021791683666000,6.763666015625,-160.74758911132812,-15.99310302734375,14.864822387695312
1776021791693659100,6.7736591796875,-161.04898071289062,-16.063430786132812,14.712127685546875
1776021791703654100,6.783654052734375,-161.05282592773438,-15.744659423828125,15.092361450195312
1776021791713649200,6.793649169921875,-160.87123107910156,-15.914688110351562,14.764801025390625
1776021791723643100,6.80364306640625,-161.24209594726562,-15.940078735351562,15.122802734375
1776021791733639000,6.813638916015625,-161.4457244873047,-15.997787475585938,15.1231689453125
1776021791743636200,6.82363623046875,-161.2275390625,-16.127899169921875,15.045761108398438
1776021791753631200,6.83363134765625,-160.73033142089844,-16.203277587890625,15.337860107421875
1776021791763627000,6.843626953125,-161.5289306640625,-16.29229736328125,15.06982421875
1776021791773623000,6.853623046875,-160.75991821289062,-16.383209228515625,15.074081420898438
1776021791783616000,6.863615966796875,-160.2177734375,-16.304901123046875,15.38970947265625
1776021791793611000,6.873611083984375,-159.9559783935547,-16.01983642578125,15.331710815429688
1776021791803605000,6.88360498046875,-160.751708984375,-16.37896728515625,15.307586669921875
1776021791813600000,6.89360009765625,-160.99195861816406,-16.393692016601562,15.339920043945312
1776021791823595000,6.903594970703125,-160.5400848388672,-16.434860229492188,15.338165283203125
1776021791833590000,6.913590087890625,-160.9727783203125,-16.722381591796875,15.335983276367188
1776021791843584000,6.923583984375,-160.40660095214844,-16.689910888671875,15.338287353515625
1776021791853580000,6.933580078125,-160.79165649414062,-16.248947143554688,15.23468017578125
1776021791863575000,6.943574951171875,-160.7678985595703,-16.387954711914062,15.417510986328125
1776021791873570000,6.953570068359375,-160.53164672851562,-16.40234375,15.192138671875
1776021791883565000,6.96356494140625,-160.99774169921875,-16.249588012695312,15.4466552734375
1776021791893560000,6.97356005859375,-160.73336791992188,-16.612518310546875,15.1270751953125
1776021791903556000,6.98355615234375,-160.3892822265625,-16.29052734375,15.060043334960938
1776021791913551000,6.993551025390625,-160.1262664794922,-16.31585693359375,14.966812133789062
1776021791923546000,7.003546142578125,-161.190185546875,-16.457733154296875,15.178085327148438
1776021791933540000,7.0135400390625,-160.4130401611328,-16.275222778320312,15.139434814453125
1776021791943535000,7.02353515625,-160.1422882080078,-16.1453857421875,14.78826904296875
1776021791953529000,7.033529052734375,-161.09356689453125,-15.783279418945312,14.875015258789062
1776021791963523000,7.043523193359375,-161.30186462402344,-16.023056030273438,14.958511352539062
1776021791973518000,7.05351806640625,-160.915283203125,-15.942825317382812,14.819427490234375
1776021791983513000,7.06351318359375,-161.23443603515625,-15.538284301757812,14.868896484375
1776021791993508000,7.073508056640625,-161.14955139160156,-15.880233764648438,14.797103881835938
1776021792003504000,7.083504150390625,-160.36732482910156,-15.331802368164062,14.9063720703125
1776021792013499100,7.0934990234375,-160.3830108642578,-15.734481811523438,14.985321044921875
1776021792023494000,7.103493896484375,-160.7452392578125,-15.459579467773438,14.870864868164062
1776021792033488100,7.113488037109375,-160.56834411621094,-14.868194580078125,15.095474243164062
1776021792043481000,7.123481201171875,-160.09103393554688,-15.543106079101562,14.887069702148438
1776021792053475000,7.13347509765625,-160.9160919189453,-15.444717407226562,14.938385009765625
1776021792063468000,7.143468017578125,-160.65708923339844,-15.348556518554688,14.694534301757812
1776021792073461000,7.1534609375,-160.8433380126953,-15.6097412109375,14.758438110351562
1776021792083454200,7.1634541015625,-160.61712646484375,-15.416015625,14.579055786132812
1776021792093447000,7.173447021484375,-160.7403564453125,-16.036483764648438,14.664413452148438
1776021792103440100,7.183440185546875,-161.33116149902344,-15.484268188476562,14.572463989257812
1776021792113433000,7.19343310546875,-161.80702209472656,-15.550399780273438,14.755035400390625
1776021792123426000,7.203426025390625,-161.8217315673828,-15.559814453125,14.461334228515625
1776021792133418000,7.21341796875,-162.3216552734375,-15.921585083007812,14.50091552734375
1776021792143411200,7.2234111328125,-162.29403686523438,-16.294464111328125,14.567062377929688
1776021792153403100,7.233403076171875,-162.53024291992188,-16.00909423828125,14.795425415039062
1776021792163396000,7.24339599609375,-162.347412109375,-15.99169921875,14.82012939453125
1776021792173390000,7.25339013671875,-161.6970977783203,-16.261672973632812,15.133880615234375
1776021792183384000,7.263384033203125,-162.36424255371094,-16.442001342773438,15.071319580078125
1776021792193378000,7.2733779296875,-162.77645874023438,-15.929672241210938,15.126739501953125
1776021792203371000,7.28337109375,-162.70895385742188,-16.293075561523438,15.164566040039062
1776021792213365000,7.293364990234375,-162.56161499023438,-16.279708862304688,15.447479248046875
1776021792223359200,7.303359130859375,-162.39292907714844,-16.323715209960938,15.633392333984375
1776021792233354000,7.31335400390625,-162.60206604003906,-16.350341796875,15.80511474609375
1776021792243348200,7.32334814453125,-162.10986328125,-16.557601928710938,16.1072998046875
1776021792253341000,7.3333408203125,-161.65684509277344,-16.215255737304688,16.338409423828125
1776021792263334100,7.343334228515625,-162.45620727539062,-16.299148559570312,16.002349853515625
1776021792273327000,7.3533271484375,-161.64207458496094,-16.341766357421875,16.414627075195312
1776021792283319000,7.363319091796875,-162.008056640625,-16.17010498046875,16.206497192382812
1776021792293312000,7.37331201171875,-162.18798828125,-16.2894287109375,16.519058227539062
1776021792303303000,7.383302978515625,-161.46096801757812,-16.255157470703125,16.810104370117188
1776021792313295000,7.393295166015625,-161.12721252441406,-15.62969970703125,16.751602172851562
1776021792323286000,7.4032861328125,-161.67230224609375,-15.887374877929688,16.895309448242188
1776021792333278000,7.41327783203125,-161.34669494628906,-15.73724365234375,16.840576171875
1776021792343272000,7.42327197265625,-161.35598754882812,-15.733871459960938,17.1064453125
1776021792353265200,7.43326513671875,-161.53445434570312,-15.6297607421875,17.26666259765625
1776021792363259100,7.443259033203125,-161.36671447753906,-15.45391845703125,17.399612426757812
1776021792373253000,7.453253173828125,-160.9431610107422,-15.65380859375,16.969955444335938
1776021792383247000,7.4632470703125,-161.00584411621094,-15.953567504882812,17.119583129882812
1776021792393242000,7.4732421875,-160.9585418701172,-15.658126831054688,17.311965942382812
1776021792403236000,7.483236083984375,-161.31739807128906,-15.464828491210938,17.290573120117188
1776021792413229000,7.49322900390625,-161.05990600585938,-15.49981689453125,17.065414428710938
1776021792423223000,7.50322314453125,-161.03125,-15.451065063476562,17.141693115234375
1776021792433217000,7.513217041015625,-161.26922607421875,-15.449188232421875,17.072113037109375
1776021792443210200,7.523210205078125,-161.72621154785156,-15.582962036132812,17.432876586914062
1776021792453204200,7.533204345703125,-160.91262817382812,-15.585372924804688,17.173614501953125
1776021792463197000,7.543197021484375,-161.33363342285156,-15.501480102539062,17.233840942382812
1776021792473190100,7.553190185546875,-160.92124938964844,-15.294998168945312,17.113418579101562
1776021792483183000,7.56318310546875,-161.08131408691406,-15.22393798828125,17.311843872070312
1776021792493176800,7.5731767578125,-161.1030731201172,-15.501174926757812,17.231918334960938
1776021792503171000,7.583171142578125,-160.9785614013672,-15.463119506835938,16.819656372070312
1776021792513163000,7.5931630859375,-160.89292907714844,-14.800079345703125,17.084075927734375
1776021792523156200,7.60315625,-160.1986846923828,-14.713851928710938,16.603622436523438
1776021792533150000,7.61314990234375,-160.39695739746094,-14.921371459960938,16.501388549804688
1776021792543143000,7.623142822265625,-160.73699951171875,-14.600173950195312,16.427642822265625
1776021792553137200,7.63313720703125,-160.490234375,-14.724899291992188,16.549560546875
1776021792563130000,7.643130126953125,-160.74183654785156,-14.492156982421875,16.503738403320312
1776021792573124000,7.6531240234375,-161.45640563964844,-14.537521362304688,16.304824829101562
1776021792583117000,7.663116943359375,-161.7668914794922,-14.205902099609375,16.062408447265625
1776021792593109200,7.673109130859375,-160.8738555908203,-14.21343994140625,16.215896606445312
1776021792603102000,7.68310205078125,-160.59849548339844,-14.213607788085938,15.74310302734375
1776021792613096000,7.693095947265625,-160.6493682861328,-14.360870361328125,15.755142211914062
1776021792623090000,7.70308984375,-160.77105712890625,-13.848541259765625,15.43060302734375
1776021792633087200,7.713087158203125,-161.05972290039062,-14.029327392578125,15.433792114257812
1776021792643083000,7.7230830078125,-161.3676300048828,-14.016632080078125,15.303970336914062
1776021792653079000,7.7330791015625,-161.43203735351562,-14.002227783203125,15.296401977539062
1776021792663075000,7.743074951171875,-161.1806640625,-13.737060546875,14.954544067382812
1776021792673069000,7.753069091796875,-161.17434692382812,-13.52508544921875,14.906219482421875
1776021792683063000,7.76306298828125,-161.69898986816406,-13.40557861328125,14.727508544921875
1776021792693059000,7.77305908203125,-161.11187744140625,-12.95001220703125,14.647659301757812
1776021792703053800,7.7830537109375,-161.29183959960938,-13.185882568359375,14.710693359375
1776021792713048800,7.793048828125,-161.5525360107422,-12.794769287109375,14.4617919921875
1776021792723044000,7.803044189453125,-161.48951721191406,-12.895401000976562,14.31182861328125
1776021792733039000,7.8130390625,-162.25755310058594,-12.74554443359375,14.168685913085938
1776021792743034000,7.8230341796875,-161.65780639648438,-12.393569946289062,13.906661987304688
1776021792753029000,7.833029052734375,-161.62786865234375,-12.040496826171875,13.836578369140625
1776021792763023000,7.843023193359375,-161.46646118164062,-12.5543212890625,13.670120239257812
1776021792773017000,7.85301708984375,-162.2315216064453,-12.311233520507812,13.380218505859375
1776021792783012000,7.86301220703125,-161.47349548339844,-12.170883178710938,13.266830444335938
1776021792793007000,7.873007080078125,-161.8170623779297,-12.38763427734375,13.018722534179688
1776021792803002000,7.883002197265625,-162.0552978515625,-12.120559692382812,13.111724853515625
1776021792812996000,7.89299609375,-161.48635864257812,-12.046051025390625,12.871978759765625
1776021792822991000,7.9029912109375,-161.5410919189453,-11.565444946289062,12.807769775390625
1776021792832988000,7.91298779296875,-161.96261596679688,-11.876022338867188,12.690338134765625
1776021792842983000,7.92298291015625,-161.62896728515625,-11.561935424804688,12.87164306640625
1776021792852979000,7.93297900390625,-161.2428436279297,-11.542572021484375,12.59869384765625
1776021792862975200,7.942975341796875,-161.09678649902344,-11.920913696289062,12.62646484375
1776021792872971000,7.952970947265625,-161.08871459960938,-11.43792724609375,12.885482788085938
1776021792882965000,7.962965087890625,-160.9787139892578,-11.618560791015625,12.766006469726562
1776021792892959200,7.972959228515625,-161.10906982421875,-11.77294921875,13.06024169921875
1776021792902953200,7.982953125,-160.53262329101562,-11.985183715820312,12.989273071289062
1776021792912945200,7.992945068359375,-161.0004425048828,-11.934661865234375,12.859405517578125
1776021792922939100,8.002939208984374,-160.90255737304688,-11.688522338867188,12.7974853515625
1776021792932933000,8.01293310546875,-160.52621459960938,-11.47467041015625,12.789459228515625
1776021792942926000,8.022926025390625,-160.51559448242188,-11.499603271484375,12.672454833984375
1776021792952920000,8.032920166015625,-160.3526611328125,-11.514297485351562,12.496871948242188
1776021792962913000,8.0429130859375,-160.32530212402344,-11.947296142578125,12.836746215820312
1776021792972907000,8.052906982421876,-160.1583709716797,-11.387863159179688,12.564071655273438
1776021792982900200,8.062900146484376,-160.17086791992188,-11.649078369140625,12.998565673828125
1776021792992893000,8.072892822265626,-160.12982177734375,-11.77386474609375,12.99627685546875
1776021793002885000,8.082885009765626,-160.62281799316406,-11.77655029296875,12.708404541015625
1776021793012877800,8.0928779296875,-160.3229217529297,-11.420318603515625,12.304397583007812
1776021793022872000,8.1028720703125,-160.52005004882812,-11.529647827148438,12.146041870117188
1776021793032867000,8.1128671875,-160.48423767089844,-11.653335571289062,12.139389038085938
1776021793042861800,8.12286181640625,-160.61087036132812,-11.740814208984375,11.823699951171875
1776021793052857000,8.132857177734374,-160.66722106933594,-11.391983032226562,11.836196899414062
1776021793062852000,8.14285205078125,-160.69256591796875,-11.893966674804688,11.817779541015625
1776021793072845800,8.152845703125,-161.1666259765625,-11.603668212890625,11.621902465820312
1776021793082841000,8.162841064453126,-161.60150146484375,-12.053176879882812,11.772048950195312
1776021793092835000,8.1728349609375,-161.58738708496094,-12.336334228515625,11.102706909179688
1776021793102830000,8.182830078125,-162.18035888671875,-12.43328857421875,11.030776977539062
1776021793112825000,8.1928251953125,-161.69161987304688,-13.221511840820312,11.161651611328125
1776021793122820000,8.202820068359374,-162.32762145996094,-13.119491577148438,11.34075927734375
1776021793132814000,8.21281396484375,-162.18096923828125,-13.00604248046875,11.196548461914062
1776021793142809000,8.22280908203125,-161.72824096679688,-12.778244018554688,10.660232543945312
1776021793152803000,8.232802978515625,-162.2776336669922,-12.860946655273438,10.351089477539062
1776021793162799000,8.242799072265624,-162.93382263183594,-12.9993896484375,10.3984375
1776021793172795100,8.252795166015625,-162.82261657714844,-12.799606323242188,10.243545532226562
1776021793182790100,8.2627900390625,-163.05447387695312,-13.405242919921875,10.80596923828125
1776021793192785200,8.27278515625,-162.88430786132812,-13.57061767578125,11.068679809570312
1776021793202781000,8.282781005859375,-162.13177490234375,-14.1796875,11.274185180664062
1776021793212776000,8.29277587890625,-162.95257568359375,-14.433319091796875,11.732757568359375
1776021793222771200,8.302771240234375,-162.6928253173828,-14.753952026367188,12.16925048828125
1776021793232766200,8.31276611328125,-162.8605499267578,-15.304946899414062,12.530288696289062
1776021793242760000,8.322760009765625,-162.6501007080078,-15.766677856445312,12.590606689453125
1776021793252753000,8.3327529296875,-162.529052734375,-15.971420288085938,12.713699340820312
1776021793262748000,8.342747802734374,-162.8165283203125,-15.937149047851562,12.492950439453125
1776021793272743000,8.352742919921875,-162.9069061279297,-16.548095703125,12.5352783203125
1776021793282738000,8.362738037109375,-163.5071563720703,-17.09393310546875,12.388656616210938
1776021793292733000,8.37273291015625,-163.01734924316406,-17.368194580078125,12.029464721679688
1776021793302728000,8.38272802734375,-163.31591796875,-17.687789916992188,11.921722412109375
1776021793312722000,8.392721923828125,-164.0531463623047,-17.58465576171875,11.657852172851562
1776021793322717000,8.402717041015626,-163.44252014160156,-17.934127807617188,11.659332275390625
1776021793332711000,8.4127109375,-164.11244201660156,-17.7088623046875,11.459213256835938
1776021793342705000,8.422704833984374,-163.6109161376953,-18.193069458007812,11.771331787109375
1776021793352700000,8.432699951171875,-163.27015686035156,-18.604568481445312,11.489776611328125
1776021793362695000,8.44269482421875,-164.06085205078125,-18.700271606445312,11.7271728515625
1776021793372690000,8.45268994140625,-163.52877807617188,-18.589889526367188,11.9014892578125
1776021793382684000,8.462683837890625,-163.69456481933594,-18.708206176757812,11.574615478515625
1776021793392679000,8.472678955078125,-163.6704559326172,-18.867462158203125,11.871536254882812
1776021793402674000,8.482673828125,-164.1030731201172,-18.62689208984375,11.455398559570312
1776021793412669000,8.4926689453125,-163.1509552001953,-19.024810791015625,11.736343383789062
1776021793422664000,8.502663818359375,-163.51797485351562,-18.586944580078125,11.732559204101562
1776021793432658000,8.512657958984375,-163.6952362060547,-18.650558471679688,11.877243041992188
1776021793442653000,8.52265283203125,-162.9932403564453,-18.70794677734375,11.610183715820312
1776021793452648000,8.53264794921875,-163.80174255371094,-18.291000366210938,11.925918579101562
1776021793462642000,8.542641845703125,-163.6905517578125,-18.372360229492188,11.595016479492188
1776021793472637000,8.552636962890626,-163.50563049316406,-18.340545654296875,11.740478515625
1776021793482631000,8.562630859375,-163.4637451171875,-18.380172729492188,12.049835205078125
1776021793492626000,8.5726259765625,-164.23129272460938,-18.161880493164062,11.554641723632812
1776021793502621000,8.582620849609375,-163.50869750976562,-18.35443115234375,11.566909790039062
1776021793512615000,8.592614990234376,-164.05738830566406,-18.267776489257812,11.811416625976562
1776021793522609000,8.60260888671875,-163.5555877685547,-18.184768676757812,11.74151611328125
1776021793532603100,8.61260302734375,-163.90155029296875,-18.393661499023438,11.677810668945312
1776021793542595800,8.622595947265625,-163.9925079345703,-18.563949584960938,12.051345825195312
1776021793552589000,8.632589111328125,-163.05690002441406,-18.539642333984375,12.165328979492188
1776021793562583000,8.6425830078125,-162.9305877685547,-18.554519653320312,12.131668090820312
1776021793572577000,8.652576904296875,-163.17547607421875,-18.224441528320312,12.057647705078125
1776021793582573000,8.662572998046874,-163.5333709716797,-18.553970336914062,12.42889404296875
1776021793592567000,8.672567138671875,-162.74609375,-18.54254150390625,12.361236572265625
1776021793602562000,8.68256201171875,-163.5439453125,-18.48956298828125,12.042938232421875
1776021793612556000,8.69255615234375,-163.5924530029297,-18.71893310546875,12.341720581054688
1776021793622550000,8.702550048828124,-162.9219970703125,-18.624649047851562,12.297500610351562
1776021793632542000,8.7125419921875,-163.76504516601562,-18.798446655273438,12.291595458984375
1776021793642535000,8.722534912109374,-163.13995361328125,-19.018081665039062,12.574981689453125
1776021793652529000,8.73252880859375,-163.402099609375,-19.029891967773438,12.308395385742188
1776021793662524000,8.74252392578125,-163.5460205078125,-19.064071655273438,12.324996948242188
1776021793672519000,8.752518798828126,-163.56947326660156,-19.470413208007812,12.403167724609375
1776021793682514000,8.762513916015624,-163.03948974609375,-19.635696411132812,12.226943969726562
1776021793692508000,8.7725078125,-163.6277618408203,-19.872024536132812,12.678329467773438
1776021793702502000,8.782501953125,-163.6115264892578,-19.920547485351562,12.818496704101562
1776021793712496000,8.79249609375,-163.45970153808594,-19.6414794921875,12.863067626953125
1776021793722490000,8.802489990234376,-163.25962829589844,-19.7158203125,12.962661743164062
1776021793732483800,8.81248388671875,-163.25637817382812,-19.85845947265625,12.855682373046875
1776021793742479000,8.82247900390625,-162.703857421875,-19.875045776367188,13.103103637695312
1776021793752475100,8.83247509765625,-162.83258056640625,-19.996871948242188,12.990142822265625
1776021793762471000,8.842470947265625,-162.31228637695312,-20.2398681640625,13.292251586914062
1776021793772467000,8.852467041015625,-162.8865966796875,-20.294281005859375,13.373947143554688
1776021793782462000,8.8624619140625,-162.92185974121094,-20.4051513671875,13.263351440429688
1776021793792458000,8.8724580078125,-163.24212646484375,-20.616607666015625,13.330429077148438
1776021793802455000,8.882455078125,-163.05154418945312,-20.300582885742188,13.38201904296875
1776021793812450000,8.892449951171875,-163.40567016601562,-20.451461791992188,13.308990478515625
1776021793822444800,8.90244482421875,-163.2107391357422,-20.282470703125,13.147125244140625
1776021793832439800,8.912439697265626,-162.5389862060547,-20.471832275390625,13.000823974609375
1776021793842434000,8.92243408203125,-162.5116729736328,-20.898727416992188,13.145263671875
1776021793852428800,8.9324287109375,-163.09915161132812,-20.763824462890625,13.28515625
1776021793862423800,8.942423828125,-162.99737548828125,-20.569808959960938,13.300064086914062
1776021793872418800,8.952418701171876,-163.32257080078125,-20.596023559570312,13.346176147460938
1776021793882413800,8.962413818359375,-164.1445770263672,-20.490005493164062,13.17059326171875
1776021793892409000,8.9724091796875,-163.07843017578125,-20.860427856445312,13.643966674804688
1776021793902406000,8.982406005859374,-162.8423309326172,-21.036895751953125,13.472122192382812
1776021793912400100,8.992400146484375,-163.0243377685547,-20.769393920898438,13.5064697265625
1776021793922395000,9.002394775390625,-163.43165588378906,-20.89593505859375,13.324432373046875
1776021793932390000,9.012389892578126,-163.2976531982422,-20.90606689453125,13.298538208007812
1776021793942385000,9.022385009765625,-162.9016876220703,-21.037033081054688,13.425613403320312
1776021793952381000,9.032380859375,-163.70632934570312,-20.933212280273438,13.217071533203125
1776021793962375000,9.042375,-162.93411254882812,-21.123626708984375,12.943038940429688
1776021793972371000,9.052370849609375,-163.26898193359375,-21.35211181640625,12.887832641601562
1776021793982365000,9.062364990234375,-163.67477416992188,-21.2698974609375,12.827545166015625
1776021793992361000,9.07236083984375,-163.06838989257812,-21.431930541992188,13.022003173828125
1776021794002356000,9.08235595703125,-162.72080993652344,-21.728317260742188,13.201004028320312
1776021794012349000,9.092348876953125,-162.9700469970703,-21.463729858398438,13.023468017578125
1776021794022342000,9.102341796875,-162.55577087402344,-21.397415161132812,13.34228515625
1776021794032337000,9.1123369140625,-162.89190673828125,-21.453125,13.654541015625
1776021794042331000,9.122330810546876,-162.63250732421875,-21.7318115234375,13.44384765625
1776021794052326000,9.132325927734374,-162.01551818847656,-22.024459838867188,13.715560913085938
1776021794062322000,9.142322021484375,-162.64117431640625,-22.017974853515625,14.167144775390625
1776021794072316000,9.15231591796875,-162.57791137695312,-22.261932373046875,13.847412109375
1776021794082310000,9.162309814453126,-162.38934326171875,-22.128036499023438,14.2607421875
1776021794092305000,9.172304931640625,-162.5772247314453,-22.200592041015625,14.37872314453125
1776021794102300000,9.1822998046875,-162.3590850830078,-21.982666015625,14.255996704101562
1776021794112293000,9.192293212890625,-162.09820556640625,-21.936141967773438,14.300079345703125
1776021794122287000,9.202287109375,-162.9254608154297,-22.5423583984375,14.130783081054688
1776021794132281000,9.212281005859374,-162.45484924316406,-22.761077880859375,13.84942626953125
1776021794142276000,9.222276123046875,-163.37918090820312,-22.534881591796875,13.306793212890625
1776021794152271000,9.23227099609375,-162.84213256835938,-22.41864013671875,13.261138916015625
1776021794162266000,9.24226611328125,-163.33900451660156,-22.290679931640625,13.133941650390625
1776021794172262000,9.252261962890625,-163.49635314941406,-22.233016967773438,12.849014282226562
1776021794182258000,9.2622578125,-163.344482421875,-22.389968872070312,12.898666381835938
1776021794192251000,9.2722509765625,-163.1187744140625,-22.270584106445312,13.200515747070312
1776021794202245000,9.2822451171875,-163.0147705078125,-22.537872314453125,13.0357666015625
1776021794212240000,9.292239990234375,-163.28050231933594,-22.088027954101562,13.444381713867188
1776021794222234000,9.302234130859375,-162.90574645996094,-22.401580810546875,13.475723266601562
1776021794232227000,9.31222705078125,-162.96408081054688,-22.40069580078125,13.543060302734375
1776021794242220800,9.322220703125,-162.48745727539062,-22.491119384765625,13.562026977539062
1776021794252214000,9.332214111328126,-162.22203063964844,-22.261276245117188,13.621719360351562
1776021794262205000,9.342204833984376,-162.11497497558594,-22.657760620117188,13.8612060546875
1776021794272199000,9.352198974609376,-162.82730102539062,-22.439590454101562,13.9439697265625
1776021794282193000,9.36219287109375,-162.59588623046875,-22.428054809570312,14.038360595703125
1776021794292186000,9.37218603515625,-162.32626342773438,-22.484771728515625,14.05853271484375
1776021794302180000,9.38218017578125,-162.00405883789062,-22.578140258789062,14.056686401367188
1776021794312172000,9.392172119140625,-162.66600036621094,-22.535491943359375,14.38873291015625
1776021794322166000,9.402166015625,-162.0704345703125,-22.26739501953125,14.225448608398438
1776021794332160000,9.412159912109376,-162.39926147460938,-22.430648803710938,14.423431396484375
1776021794342154000,9.422154052734374,-162.6746368408203,-22.483001708984375,14.361007690429688
1776021794352149000,9.43214892578125,-162.23097229003906,-22.615646362304688,14.219375610351562
1776021794362144000,9.44214404296875,-162.01519775390625,-22.74383544921875,14.547027587890625
1776021794372139000,9.452138916015626,-162.26239013671875,-22.456985473632812,14.63665771484375
1776021794382133000,9.462133056640624,-162.7664794921875,-22.41583251953125,14.880172729492188
1776021794392127000,9.472126953125,-162.6695098876953,-22.817779541015625,15.044601440429688
1776021794402122000,9.4821220703125,-162.23814392089844,-22.763824462890625,14.790664672851562
1776021794412116000,9.492115966796876,-162.66001892089844,-22.65496826171875,14.826736450195312
1776021794422109000,9.50210888671875,-162.0841827392578,-22.634979248046875,14.9658203125
1776021794432103000,9.51210302734375,-162.0485076904297,-22.662261962890625,14.83123779296875
1776021794442097000,9.522096923828125,-162.21725463867188,-22.44573974609375,14.76251220703125
1776021794452093000,9.532093017578125,-162.51600646972656,-22.495758056640625,14.701828002929688
1776021794462090000,9.542090087890625,-161.76388549804688,-22.488189697265625,14.839630126953125
1776021794472085000,9.5520849609375,-162.12948608398438,-22.674530029296875,15.097442626953125
1776021794482081000,9.5620810546875,-162.1415557861328,-22.669845581054688,15.015121459960938
1776021794492076800,9.572076904296875,-162.2105255126953,-22.764755249023438,14.93206787109375
1776021794502071800,9.58207177734375,-162.0171661376953,-22.610397338867188,14.842147827148438
1776021794512065800,9.592065673828126,-162.12893676757812,-22.600967407226562,15.265396118164062
1776021794522063000,9.60206298828125,-161.93023681640625,-22.273895263671875,14.941665649414062
1776021794532058000,9.61205810546875,-161.94557189941406,-22.552993774414062,15.082244873046875
1776021794542052900,9.622052978515624,-161.71286010742188,-22.582778930664062,15.092193603515625
1776021794552047000,9.632047119140625,-161.58274841308594,-22.173507690429688,15.259796142578125
1776021794562042000,9.6420419921875,-161.8592987060547,-22.622589111328125,14.878433227539062
1776021794572036000,9.6520361328125,-162.27017211914062,-22.814468383789062,14.908493041992188
1776021794582030000,9.662030029296876,-162.4100799560547,-22.748306274414062,14.933090209960938
1776021794592022800,9.672022705078126,-162.46678161621094,-22.581405639648438,15.07562255859375
1776021794602017000,9.68201708984375,-162.75729370117188,-22.571685791015625,14.627532958984375
1776021794612010000,9.692010009765625,-162.427490234375,-22.485748291015625,14.477645874023438
1776021794622004000,9.70200390625,-161.93946838378906,-22.677886962890625,14.8232421875
1776021794631998000,9.711998046875,-162.201171875,-22.733078002929688,14.939605712890625
1776021794641992000,9.721991943359376,-162.125732421875,-22.587051391601562,14.77398681640625
1776021794651986000,9.73198583984375,-161.75051879882812,-22.6768798828125,15.186294555664062
1776021794661979000,9.741978759765624,-162.01622009277344,-22.650466918945312,14.859375
1776021794671974000,9.751973876953125,-162.30978393554688,-22.773330688476562,14.955291748046875
1776021794681967900,9.7619677734375,-161.7683868408203,-22.563522338867188,14.831573486328125
1776021794691964000,9.7719638671875,-161.68698120117188,-22.680099487304688,14.834747314453125
1776021794701958000,9.7819580078125,-162.2601318359375,-22.781005859375,14.400253295898438
1776021794711953000,9.791952880859375,-162.8154754638672,-22.323074340820312,14.462921142578125
1776021794721948000,9.801947998046876,-162.05157470703125,-22.68896484375,14.567977905273438
1776021794731942000,9.81194189453125,-162.1300048828125,-22.545700073242188,14.535125732421875
1776021794741937000,9.82193701171875,-161.77044677734375,-22.913818359375,14.622161865234375
1776021794751931000,9.831930908203125,-162.12657165527344,-22.907379150390625,14.856155395507812
1776021794761924900,9.8419248046875,-161.8804473876953,-22.590682983398438,14.878265380859375
1776021794771919000,9.851919189453126,-161.77455139160156,-22.728439331054688,14.823287963867188
1776021794781913000,9.8619130859375,-161.39859008789062,-23.198455810546875,14.856765747070312
1776021794791907000,9.871906982421875,-161.45223999023438,-23.565765380859375,14.651611328125
1776021794801900800,9.88190087890625,-161.6593475341797,-23.356918334960938,14.38079833984375
1776021794811896000,9.89189599609375,-161.97463989257812,-23.175796508789062,14.4619140625
1776021794821889800,9.901889892578126,-161.87815856933594,-23.08599853515625,14.308853149414062
1776021794831884000,9.911884033203124,-162.09043884277344,-22.87359619140625,14.498443603515625
1776021794841878000,9.9218779296875,-162.0260772705078,-22.730300903320312,14.3707275390625
1776021794851873000,9.931873046875,-161.98834228515625,-22.884933471679688,14.627059936523438
1776021794861868800,9.941868896484374,-161.93788146972656,-23.076431274414062,14.7855224609375
1776021794871865000,9.951864990234375,-161.50161743164062,-22.979598999023438,14.508621215820312
1776021794881860000,9.961860107421876,-161.89625549316406,-23.115585327148438,14.650131225585938
1776021794891854000,9.97185400390625,-162.06655883789062,-23.267837524414062,14.882461547851562
1776021794901848000,9.98184814453125,-162.0806427001953,-23.198165893554688,14.763534545898438
1776021794911843000,9.991843017578125,-162.2832489013672,-23.063323974609375,15.230819702148438
1776021794921836800,10.0018369140625,-162.27503967285156,-22.85205078125,15.207443237304688
1776021794931832000,10.01183203125,-161.4094696044922,-22.894760131835938,15.508087158203125
1776021794941825800,10.02182568359375,-161.5172882080078,-23.119125366210938,15.515579223632812
1776021794951819800,10.03181982421875,-161.57102966308594,-23.045135498046875,15.271728515625
1776021794961814800,10.041814697265625,-161.64190673828125,-23.400634765625,15.602859497070312
1776021794971811000,10.05181103515625,-160.86264038085938,-23.379989624023438,15.79376220703125
1776021794981806000,10.06180615234375,-161.25411987304688,-23.408401489257812,15.730545043945312
1776021794991801000,10.071801025390625,-161.1301727294922,-23.06085205078125,15.589523315429688
1776021795001796000,10.081796142578124,-161.200439453125,-23.408798217773438,15.679702758789062
1776021795011792000,10.0917919921875,-160.9790496826172,-23.085906982421875,15.656402587890625
1776021795021788000,10.101787841796876,-161.77198791503906,-22.880386352539062,15.631011962890625
1776021795031783000,10.111782958984374,-161.62278747558594,-23.14984130859375,15.819320678710938
1776021795041778200,10.121778076171875,-161.55682373046875,-22.938949584960938,15.959945678710938
1776021795051774000,10.13177392578125,-161.502197265625,-22.522354125976562,15.440994262695312
1776021795061771000,10.14177099609375,-161.25755310058594,-22.693634033203125,15.75128173828125
1776021795071768000,10.15176806640625,-161.58355712890625,-22.66253662109375,15.428024291992188
1776021795081764000,10.16176416015625,-161.5587158203125,-22.999725341796875,15.46710205078125
1776021795091758800,10.1717587890625,-160.94692993164062,-22.7005615234375,15.340301513671875
1776021795101755000,10.1817548828125,-161.62060546875,-22.649429321289062,15.501052856445312
1776021795111750000,10.19175,-161.09487915039062,-22.706344604492188,15.829605102539062
1776021795121744000,10.201743896484375,-161.80589294433594,-22.650909423828125,15.818878173828125
1776021795131740000,10.211739990234374,-161.5822296142578,-22.530838012695312,15.53594970703125
1776021795141735200,10.221735107421875,-161.7141876220703,-22.67962646484375,15.474838256835938
1776021795151731000,10.23173095703125,-161.87857055664062,-22.103805541992188,15.17413330078125
1776021795161725000,10.241724853515626,-161.52120971679688,-22.327728271484375,15.517227172851562
1776021795171721000,10.251720947265625,-161.67098999023438,-22.176788330078125,15.217483520507812
1776021795181715000,10.26171484375,-161.7230224609375,-22.41790771484375,15.434783935546875
1776021795191709000,10.271708984375,-161.9250030517578,-21.907577514648438,15.287704467773438
1776021795201704000,10.281703857421874,-161.9754180908203,-22.257705688476562,15.353851318359375
1776021795211698200,10.2916982421875,-162.2532958984375,-22.3204345703125,15.436569213867188
1776021795221693000,10.30169287109375,-161.6955108642578,-21.969589233398438,15.268112182617188
1776021795231687200,10.311687255859376,-162.1296844482422,-21.975814819335938,15.2310791015625
1776021795241682200,10.32168212890625,-161.14553833007812,-22.4010009765625,15.298629760742188
1776021795251677000,10.331677001953125,-162.45645141601562,-22.206390380859375,15.445510864257812
1776021795261672000,10.341671875,-161.99537658691406,-21.911514282226562,15.355010986328125
1776021795271668000,10.35166796875,-161.9415740966797,-22.188995361328125,15.300064086914062
1776021795281664000,10.3616640625,-161.53643798828125,-22.029647827148438,15.256729125976562
1776021795291661000,10.3716611328125,-161.8820343017578,-21.672195434570312,15.162582397460938
1776021795301656000,10.381656005859375,-162.010986328125,-21.738204956054688,15.219650268554688
1776021795311652900,10.39165283203125,-161.49989318847656,-21.526519775390625,15.014694213867188
1776021795321650000,10.40164990234375,-161.4588165283203,-21.735946655273438,15.372451782226562
1776021795331646000,10.41164599609375,-162.04290771484375,-21.623733520507812,15.392593383789062
1776021795341642800,10.421642822265625,-161.11758422851562,-21.5745849609375,15.2557373046875
1776021795351640000,10.43164013671875,-161.5388946533203,-21.461273193359375,15.420989990234375
1776021795361635000,10.441635009765625,-160.88006591796875,-21.521774291992188,15.36199951171875
1776021795371630800,10.451630859375,-161.5072479248047,-21.494949340820312,15.68218994140625
1776021795381625900,10.4616259765625,-161.561767578125,-21.540924072265625,15.580596923828125
1776021795391623000,10.471622802734375,-161.5465087890625,-21.36920166015625,15.733306884765625
1776021795401620000,10.481619873046874,-160.7625732421875,-21.7552490234375,15.368759155273438
1776021795411617000,10.491616943359375,-161.20529174804688,-21.390472412109375,15.96807861328125
1776021795421614800,10.50161474609375,-161.32627868652344,-21.495223999023438,15.730377197265625
1776021795431613000,10.511613037109376,-161.67684936523438,-21.376815795898438,15.740966796875
1776021795441610000,10.52160986328125,-161.66439819335938,-20.766738891601562,15.829391479492188
1776021795451607000,10.53160693359375,-161.13233947753906,-21.019332885742188,15.944442749023438
1776021795461603800,10.541603759765625,-161.67178344726562,-21.274276733398438,15.446762084960938
1776021795471599900,10.551599853515626,-161.47975158691406,-21.031051635742188,15.664306640625
1776021795481598000,10.561597900390625,-161.3350830078125,-20.667999267578125,15.456085205078125
1776021795491595000,10.571594970703124,-161.68582153320312,-21.343673706054688,15.22637939453125
1776021795501591800,10.581591796875,-162.19647216796875,-20.622573852539062,15.32598876953125
1776021795511588900,10.5915888671875,-161.43914794921875,-20.735824584960938,15.0860595703125
1776021795521587000,10.6015869140625,-161.60784912109375,-20.4747314453125,15.165206909179688
1776021795531584000,10.611583984375,-161.8597412109375,-19.737808227539062,14.925689697265625
1776021795541579000,10.6215791015625,-162.1126708984375,-19.493942260742188,14.908447265625
1776021795551575800,10.631575927734374,-162.31480407714844,-19.376251220703125,14.683822631835938
1776021795561571800,10.64157177734375,-162.5524139404297,-18.973831176757812,14.866867065429688
1776021795571566800,10.65156689453125,-161.85182189941406,-18.524200439453125,14.808456420898438
1776021795581564000,10.66156396484375,-162.39820861816406,-18.156784057617188,14.747238159179688
1776021795591560000,10.671559814453126,-162.4276885986328,-18.093948364257812,14.89727783203125
1776021795601557000,10.681556884765625,-162.00897216796875,-17.933029174804688,14.822250366210938
1776021795611553000,10.691552978515626,-162.57766723632812,-17.575241088867188,15.0191650390625
1776021795621551000,10.701551025390625,-162.66241455078125,-17.603164672851562,15.017715454101562
1776021795631546000,10.711546142578126,-162.44439697265625,-17.112518310546875,14.988479614257812
1776021795641544000,10.7215439453125,-162.7133331298828,-16.701690673828125,14.843780517578125
1776021795651541000,10.731541015625,-162.38018798828125,-16.549392700195312,14.74993896484375
1776021795661537800,10.741537841796875,-162.63780212402344,-16.47857666015625,14.891677856445312
1776021795671535900,10.751535888671874,-162.73306274414062,-16.285919189453125,15.072357177734375
1776021795681533000,10.761532958984375,-162.51364135742188,-16.216217041015625,15.180770874023438
1776021795691531000,10.771531005859375,-162.59532165527344,-16.069793701171875,15.134201049804688
1776021795701526800,10.78152685546875,-162.55621337890625,-15.9295654296875,15.111495971679688
1776021795711524000,10.791524169921875,-162.2281494140625,-15.66888427734375,15.152069091796875
1776021795721522000,10.80152197265625,-162.16383361816406,-15.80426025390625,14.704315185546875
1776021795731518000,10.81151806640625,-162.3402099609375,-15.967132568359375,15.240936279296875
1776021795741515000,10.821514892578126,-162.3343963623047,-15.272171020507812,15.243438720703125
1776021795751511800,10.83151171875,-162.0048065185547,-15.629913330078125,15.138702392578125
1776021795761508900,10.8415087890625,-161.93028259277344,-15.615432739257812,14.94696044921875
1776021795771503900,10.85150390625,-162.23159790039062,-15.493118286132812,15.251068115234375
1776021795781500000,10.8615,-161.82513427734375,-15.60491943359375,15.37091064453125
1776021795791497000,10.8714970703125,-162.1007843017578,-15.827316284179688,15.240615844726562
1776021795801493000,10.881492919921875,-162.35882568359375,-15.95452880859375,15.6483154296875
1776021795811491000,10.891490966796875,-162.38522338867188,-15.8192138671875,15.403182983398438
1776021795821486800,10.90148681640625,-162.50144958496094,-16.013916015625,15.3753662109375
1776021795831483000,10.91148291015625,-162.79800415039062,-16.226669311523438,15.622879028320312
1776021795841478000,10.921477783203125,-162.18399047851562,-16.421615600585938,15.509170532226562
1776021795851474000,10.931473876953126,-162.80657958984375,-16.467987060546875,15.416961669921875
1776021795861468000,10.941468017578124,-162.56759643554688,-16.856048583984375,15.6246337890625
1776021795871463000,10.951462890625,-162.10145568847656,-16.678863525390625,15.764984130859375
1776021795881459000,10.961458984375,-162.62657165527344,-16.705856323242188,15.659744262695312
1776021795891455000,10.971455078125,-162.8885498046875,-17.059768676757812,15.728012084960938
1776021795901453000,10.981453125,-162.5559844970703,-16.862442016601562,15.562042236328125
1776021795911449900,10.991449951171875,-162.59716796875,-17.210601806640625,15.796173095703125
1776021795921447000,11.001447021484376,-162.4034881591797,-17.288665771484375,15.365768432617188
1776021795931445000,11.011445068359375,-162.72256469726562,-16.856704711914062,15.687957763671875
1776021795941440800,11.021440673828126,-161.8999481201172,-16.829147338867188,15.511627197265625
1776021795951436000,11.03143603515625,-162.44003295898438,-17.15606689453125,15.577499389648438
1776021795961432000,11.04143212890625,-162.01869201660156,-17.049270629882812,15.85968017578125
1776021795971428900,11.051428955078125,-162.53187561035156,-16.985641479492188,15.81927490234375
1776021795981425200,11.061425048828125,-162.46383666992188,-16.90643310546875,15.73101806640625
1776021795991421000,11.0714208984375,-162.47434997558594,-17.16436767578125,15.573394775390625
1776021796001418000,11.08141796875,-162.3546600341797,-17.26776123046875,15.722503662109375
1776021796011415000,11.0914150390625,-162.96649169921875,-16.834060668945312,15.49371337890625
1776021796021414100,11.1014140625,-162.7002716064453,-17.255279541015625,15.458724975585938
1776021796031412000,11.111411865234375,-163.33554077148438,-17.1051025390625,15.500625610351562
1776021796041410000,11.12141015625,-162.53909301757812,-17.096969604492188,15.395538330078125
1776021796051406800,11.13140673828125,-162.96107482910156,-17.149124145507812,15.442489624023438
1776021796061404000,11.14140380859375,-162.58602905273438,-17.088912963867188,15.481719970703125
1776021796071399000,11.15139892578125,-162.97662353515625,-17.454360961914062,15.273880004882812
1776021796081395000,11.16139501953125,-162.6240997314453,-17.355667114257812,15.357772827148438
1776021796091392000,11.17139208984375,-163.08180236816406,-16.880035400390625,15.3887939453125
1776021796101388000,11.181387939453124,-162.40025329589844,-17.339385986328125,15.5064697265625
1776021796111384800,11.191384765625,-163.2236328125,-17.499465942382812,15.581939697265625
1776021796121381000,11.201381103515626,-162.39320373535156,-17.824462890625,15.52117919921875
1776021796131377000,11.211376953125,-162.47189331054688,-17.473846435546875,15.63836669921875
1776021796141374000,11.2213740234375,-163.13592529296875,-17.562881469726562,15.3292236328125
1776021796151369000,11.231368896484375,-162.53366088867188,-17.596206665039062,15.427581787109375
1776021796161365000,11.241364990234375,-162.98919677734375,-17.72430419921875,15.461044311523438
1776021796171362000,11.251362060546874,-163.04083251953125,-17.503997802734375,15.273345947265625
1776021796181358800,11.26135888671875,-162.7786865234375,-17.39788818359375,15.395217895507812
1776021796191355000,11.27135498046875,-163.00367736816406,-17.783218383789062,15.446029663085938
1776021796201352000,11.28135205078125,-162.56983947753906,-17.576583862304688,15.261886596679688
1776021796211349000,11.291348876953125,-162.4854278564453,-17.606887817382812,15.501953125
1776021796221346800,11.301346923828126,-162.8583984375,-17.759262084960938,15.42388916015625
1776021796231343900,11.31134375,-162.571044921875,-17.567855834960938,15.622512817382812
1776021796241341000,11.3213408203125,-162.8384552001953,-17.505233764648438,15.526351928710938
1776021796251336700,11.331336669921875,-162.54226684570312,-17.374969482421875,15.516387939453125
1776021796261332000,11.34133203125,-162.7842559814453,-17.729507446289062,15.814453125
1776021796271328000,11.351327880859374,-162.20391845703125,-18.035690307617188,15.628768920898438
1776021796281324000,11.361323974609375,-162.9086151123047,-17.701370239257812,15.54876708984375
1776021796291320000,11.371320068359376,-162.5761260986328,-17.691146850585938,15.771636962890625
1776021796301316900,11.38131689453125,-162.50889587402344,-17.524765014648438,15.713836669921875
1776021796311314200,11.391314208984374,-163.345703125,-17.48779296875,16.337326049804688
1776021796321309200,11.40130908203125,-162.38966369628906,-17.8577880859375,15.733062744140625
1776021796331304200,11.41130419921875,-163.02102661132812,-18.014602661132812,15.655410766601562
1776021796341299000,11.421298828125,-162.8321075439453,-17.7852783203125,15.84393310546875
1776021796351294000,11.4312939453125,-162.3990478515625,-18.031173706054688,15.535919189453125
1776021796361289000,11.4412890625,-162.4757537841797,-17.780960083007812,15.904098510742188
1776021796371284000,11.451283935546876,-162.26776123046875,-18.048660278320312,15.548721313476562
1776021796381278000,11.46127783203125,-162.26380920410156,-17.96539306640625,15.648895263671875
1776021796391274000,11.47127392578125,-162.70101928710938,-17.909439086914062,15.982391357421875
1776021796401269000,11.48126904296875,-161.9061737060547,-18.617462158203125,16.054672241210938
1776021796411265000,11.49126513671875,-162.1272430419922,-18.376953125,15.841140747070312
1776021796421260000,11.501260009765625,-161.9131622314453,-18.67572021484375,15.934539794921875
1776021796431255000,11.511255126953126,-161.55389404296875,-18.826248168945312,15.904251098632812
1776021796441250000,11.52125,-162.02780151367188,-19.138320922851562,15.74749755859375
1776021796451245000,11.5312451171875,-162.01683044433594,-19.030044555664062,15.9822998046875
1776021796461240000,11.541239990234375,-161.33758544921875,-18.697418212890625,15.766632080078125
1776021796471235000,11.551235107421874,-161.6146697998047,-18.6051025390625,15.93536376953125
1776021796481230800,11.56123095703125,-161.0032196044922,-18.670608520507812,15.589004516601562
1776021796491227100,11.57122705078125,-160.99844360351562,-18.187973022460938,15.563232421875
1776021796501222100,11.58122216796875,-161.5688934326172,-18.5089111328125,16.04583740234375
1776021796511217200,11.591217041015625,-161.34629821777344,-18.299240112304688,15.836044311523438
1776021796521213000,11.601212890625,-161.58444213867188,-18.07049560546875,15.7635498046875
1776021796531209000,11.611208984375,-160.88079833984375,-18.14459228515625,15.942062377929688
1776021796541206000,11.6212060546875,-160.41615295410156,-17.542495727539062,16.31317138671875
1776021796551202000,11.6312021484375,-160.7592315673828,-17.529266357421875,16.229385375976562
1776021796561198800,11.64119873046875,-160.5283660888672,-17.127960205078125,16.094711303710938
1776021796571194000,11.651194091796874,-160.14962768554688,-16.90234375,16.205062866210938
1776021796581190100,11.661190185546875,-159.82058715820312,-16.7255859375,16.165390014648438
1776021796591185200,11.67118505859375,-159.6341094970703,-16.518157958984375,16.039108276367188
1776021796601181000,11.681180908203125,-159.86630249023438,-16.087203979492188,15.993728637695312
1776021796611177000,11.691177001953125,-158.74676513671875,-16.097686767578125,16.247360229492188
1776021796621172000,11.701171875,-159.1220703125,-15.60736083984375,15.854949951171875
1776021796631168000,11.71116796875,-158.8168487548828,-15.096221923828125,15.925033569335938
1776021796641164000,11.7211640625,-158.6217498779297,-15.134307861328125,16.067306518554688
1776021796651160000,11.73116015625,-159.1717071533203,-14.254684448242188,17.300094604492188
1776021796661155800,11.74115576171875,-158.83282470703125,-14.418563842773438,16.1866455078125
1776021796671151000,11.751151123046874,-158.52590942382812,-14.246994018554688,16.246109008789062
1776021796681146000,11.76114599609375,-158.1099395751953,-13.829376220703125,15.844207763671875
1776021796691142100,11.77114208984375,-158.26953125,-13.6051025390625,16.183563232421875
1776021796701137200,11.78113720703125,-157.8994598388672,-12.798507690429688,15.817108154296875
1776021796711133000,11.7911328125,-158.18643188476562,-12.50372314453125,15.839492797851562
1776021796721127000,11.801126953125,-158.15675354003906,-12.320724487304688,15.403564453125
1776021796731123000,11.811123046875,-158.77883911132812,-11.570541381835938,15.315155029296875
1776021796741120000,11.8211201171875,-157.9459228515625,-11.44940185546875,15.362960815429688
1776021796751116000,11.831115966796874,-158.07217407226562,-10.96868896484375,14.781036376953125
1776021796761113000,11.841113037109375,-158.05496215820312,-10.724029541015625,14.787338256835938
1776021796771108000,11.851108154296876,-158.11668395996094,-10.111404418945312,14.234939575195312
1776021796781104000,11.861104248046875,-157.1886749267578,-9.839370727539062,14.505752563476562
1776021796791100000,11.871099853515625,-157.4701690673828,-9.675521850585938,14.522857666015625
1776021796801096000,11.881095947265624,-157.152099609375,-9.24578857421875,14.3333740234375
1776021796811092200,11.89109228515625,-157.1498260498047,-9.309646606445312,14.014389038085938
1776021796821087200,11.901087158203126,-157.04917907714844,-8.608413696289062,13.922454833984375
1776021796831083000,11.9110830078125,-157.29270935058594,-8.20880126953125,13.660751342773438
1776021796841080000,11.921080078125,-156.98260498046875,-7.9371795654296875,13.287368774414062
1776021796851075000,11.931074951171874,-157.08116149902344,-7.7288970947265625,12.876907348632812
1776021796861071000,11.941071044921875,-156.21958923339844,-7.643157958984375,12.654586791992188
1776021796871067100,11.951067138671876,-156.8621826171875,-7.548675537109375,12.457183837890625
1776021796881062100,11.961062255859375,-156.28465270996094,-7.03302001953125,12.035247802734375
1776021796891057000,11.971056884765625,-156.0626220703125,-6.9950408935546875,11.6383056640625
1776021796901053000,11.981052978515624,-156.06539916992188,-6.6429595947265625,11.142227172851562
1776021796911047000,11.991046875,-155.95909118652344,-6.5886077880859375,10.27142333984375
1776021796921040100,12.0010400390625,-155.86190795898438,-6.1820831298828125,10.092483520507812
1776021796931035100,12.01103515625,-155.38204956054688,-5.9867706298828125,9.584243774414062
1776021796941030100,12.021030029296876,-155.75892639160156,-5.891082763671875,9.0185546875
1776021796951024000,12.031024169921874,-155.00390625,-5.5970458984375,8.753921508789062
1776021796961017000,12.04101708984375,-155.22227478027344,-5.48284912109375,8.128890991210938
1776021796971013000,12.05101318359375,-155.19464111328125,-5.167633056640625,7.77484130859375
1776021796981007000,12.061007080078125,-155.2469482421875,-4.962799072265625,7.6098785400390625
1776021796991003100,12.071003173828124,-155.76766967773438,-4.85150146484375,7.061859130859375
1776021797001000200,12.081000244140625,-154.79823303222656,-3.95196533203125,6.39862060546875
1776021797010995200,12.0909951171875,-155.14784240722656,-3.9244232177734375,6.1385650634765625
1776021797020991000,12.100990966796875,-155.775634765625,-3.4741973876953125,5.7589111328125
1776021797030987000,12.110987060546876,-155.58065795898438,-2.545623779296875,5.6105194091796875
1776021797040983000,12.120983154296875,-155.51808166503906,-2.50262451171875,5.2961883544921875
1776021797050979000,12.13097900390625,-155.9312286376953,-2.16790771484375,5.3015899658203125
1776021797060975000,12.14097509765625,-155.86477661132812,-2.1245574951171875,4.89263916015625
1776021797070971100,12.15097119140625,-156.12948608398438,-1.762420654296875,4.4440765380859375
1776021797080966000,12.1609658203125,-155.94509887695312,-1.53045654296875,4.74591064453125
1776021797090960100,12.170960205078124,-156.383056640625,-0.83941650390625,4.502105712890625
1776021797100955100,12.180955078125,-156.34408569335938,-0.6917724609375,4.4087066650390625
1776021797110951000,12.190950927734375,-155.9810028076172,-0.090057373046875,4.5500335693359375
1776021797120947200,12.200947265625,-156.3860626220703,0.0264739990234375,4.1256256103515625
1776021797130944000,12.210944091796875,-155.7564697265625,0.188720703125,4.145782470703125
1776021797140941000,12.220941162109375,-155.73550415039062,0.6623687744140625,4.075103759765625
1776021797150937000,12.23093701171875,-156.26913452148438,0.964996337890625,3.908111572265625
1776021797160932000,12.24093212890625,-156.2301788330078,1.4375,3.943939208984375
1776021797170928000,12.25092822265625,-155.98312377929688,1.219879150390625,3.970489501953125
1776021797180924000,12.260923828125,-156.48841857910156,1.152496337890625,3.8610076904296875
1776021797190920200,12.270920166015625,-155.9303436279297,1.520233154296875,4.05548095703125
1776021797200916000,12.280916015625,-156.87208557128906,1.5672149658203125,3.8232421875
1776021797210911000,12.290910888671876,-156.03976440429688,1.579437255859375,4.17218017578125
1776021797220906000,12.300906005859375,-156.701416015625,1.6584320068359375,4.0217742919921875
1776021797230901000,12.31090087890625,-156.52154541015625,1.6867523193359375,3.9403839111328125
1776021797240896000,12.32089599609375,-156.5382843017578,1.908843994140625,4.2912750244140625
1776021797250893000,12.33089306640625,-155.93338012695312,1.9633026123046875,4.092437744140625
1776021797260890000,12.34089013671875,-156.14505004882812,1.9435272216796875,4.2685394287109375
1776021797270884900,12.350884765625,-155.50180053710938,2.12664794921875,4.06439208984375
1776021797280881200,12.360881103515625,-156.1192169189453,2.2514190673828125,4.038238525390625
1776021797290876200,12.370876220703124,-156.28659057617188,2.4069366455078125,4.250152587890625
1776021797300870100,12.3808701171875,-156.42526245117188,2.15185546875,4.5036163330078125
1776021797310866200,12.3908662109375,-156.73011779785156,2.6315460205078125,4.079010009765625
1776021797320861200,12.400861083984376,-156.35655212402344,2.31549072265625,4.134521484375
1776021797330858200,12.410858154296875,-156.83840942382812,2.7141876220703125,4.118072509765625
1776021797340854300,12.420854248046876,-157.54736328125,2.4098052978515625,3.57550048828125
1776021797350850000,12.43085009765625,-158.69485473632812,2.356719970703125,3.2449493408203125
1776021797360846300,12.440846435546876,-158.7694854736328,2.24774169921875,2.8239898681640625
1776021797370842000,12.450842041015624,-158.97999572753906,2.3395843505859375,2.7184906005859375
1776021797380839200,12.460839111328125,-159.55850219726562,2.5027008056640625,3.093536376953125
1776021797390835200,12.470835205078124,-158.90296936035156,2.77410888671875,3.3082122802734375
1776021797400830200,12.480830322265625,-159.5619354248047,3.0079193115234375,3.3734588623046875
1776021797410827300,12.4908271484375,-159.1016845703125,3.223968505859375,3.755950927734375
1776021797420824300,12.50082421875,-159.70745849609375,3.06707763671875,4.0692138671875
1776021797430821000,12.510821044921874,-159.6129913330078,3.1935577392578125,3.8875274658203125
1776021797440818200,12.520818115234375,-159.92257690429688,3.033050537109375,4.2282257080078125
1776021797450815200,12.530815185546874,-160.484375,3.072479248046875,4.6415557861328125
1776021797460811300,12.540811279296875,-160.32020568847656,3.005645751953125,4.853240966796875
1776021797470807000,12.55080712890625,-160.429931640625,2.8975067138671875,5.229949951171875
1776021797480802300,12.56080224609375,-160.8543701171875,2.989837646484375,5.6277618408203125
1776021797490796000,12.570796142578125,-160.8000030517578,3.259490966796875,5.66265869140625
1776021797500790000,12.5807900390625,-160.86448669433594,3.1897735595703125,6.1522674560546875
1776021797510785000,12.590784912109376,-160.87257385253906,3.41510009765625,6.738983154296875
1776021797520780000,12.600780029296875,-160.61981201171875,3.354766845703125,6.98101806640625
1776021797530776300,12.6107763671875,-160.7508544921875,3.1630859375,7.0531158447265625
1776021797540771300,12.620771240234374,-160.5428009033203,3.284637451171875,7.179412841796875
1776021797550766300,12.630766357421875,-160.46485900878906,3.267181396484375,7.5396270751953125
1776021797560760300,12.64076025390625,-160.56040954589844,3.534942626953125,7.84637451171875
1776021797570753000,12.6507529296875,-160.8502960205078,3.6801910400390625,7.8172149658203125
1776021797580748000,12.660748046875,-160.5408477783203,3.5228271484375,8.112335205078125
1776021797590742000,12.670741943359374,-160.36032104492188,3.5084381103515625,8.328033447265625
1776021797600736300,12.680736328125,-160.8795166015625,3.5414276123046875,8.563705444335938
1776021797610731000,12.69073095703125,-160.34597778320312,3.3957672119140625,9.006790161132812
1776021797620725200,12.700725341796876,-160.90087890625,3.4345245361328125,8.88568115234375
1776021797630719200,12.71071923828125,-160.50636291503906,3.847625732421875,8.89093017578125
1776021797640713200,12.720713134765624,-160.44937133789062,3.665771484375,9.426956176757812
1776021797650707200,12.730707275390625,-160.44207763671875,3.4474334716796875,9.6085205078125
1776021797660701200,12.740701171875,-160.77212524414062,3.4343414306640625,9.941696166992188
1776021797670696200,12.7506962890625,-160.32447814941406,3.8366241455078125,10.00079345703125
1776021797680691200,12.760691162109374,-160.14395141601562,3.6866607666015625,10.262420654296875
1776021797690688300,12.770688232421875,-160.524658203125,3.78643798828125,10.77130126953125
1776021797700683000,12.78068310546875,-160.2943115234375,3.9965057373046875,10.765960693359375
