time,seconds_elapsed,z,y,x
1776815649857270800,0.080270751953125,-0.9732513427734375,-0.342742919921875,-0.036865234375
1776815649867307800,0.090307861328125,-0.963104248046875,-0.351776123046875,-0.02490234375
1776815649877344800,0.1003447265625,-0.9352874755859375,-0.3657379150390625,-0.021453857421875
1776815649887381800,0.1103818359375,-0.9135894775390625,-0.3726043701171875,-0.016998291015625
1776815649897418800,0.120418701171875,-0.9080810546875,-0.372283935546875,-0.0118560791015625
1776815649907455700,0.130455810546875,-0.9131011962890625,-0.37530517578125,-0.004669189453125
1776815649917493000,0.140492919921875,-0.9081268310546875,-0.381195068359375,-0.000701904296875
1776815649927529700,0.15052978515625,-0.9038238525390625,-0.3779144287109375,-0.0077056884765625
1776815649937566700,0.160566650390625,-0.9056549072265625,-0.368255615234375,-0.016357421875
1776815649947603700,0.170603759765625,-0.89764404296875,-0.365264892578125,-0.0167236328125
1776815649957641000,0.180640869140625,-0.894134521484375,-0.366455078125,-0.0217132568359375
1776815649967678000,0.190677978515625,-0.900177001953125,-0.367706298828125,-0.02301025390625
1776815649977714700,0.200714599609375,-0.9046783447265625,-0.3695831298828125,-0.005706787109375
1776815649987751700,0.210751708984375,-0.9116058349609375,-0.3671417236328125,0.010589599609375
1776815649997788700,0.22078857421875,-0.9041900634765625,-0.3744049072265625,0.0172576904296875
1776815650007826000,0.230825927734375,-0.902801513671875,-0.38031005859375,0.0249481201171875
1776815650017863000,0.24086279296875,-0.92242431640625,-0.3714447021484375,0.0326080322265625
1776815650027899600,0.250899658203125,-0.9368743896484375,-0.36358642578125,0.0454254150390625
1776815650037936600,0.2609365234375,-0.943267822265625,-0.3556365966796875,0.0319366455078125
1776815650047974000,0.270973876953125,-0.9452667236328125,-0.3485565185546875,0.0050506591796875
1776815650058011000,0.281010986328125,-0.935089111328125,-0.347412109375,-0.014984130859375
1776815650068048000,0.2910478515625,-0.9349822998046875,-0.3549957275390625,-0.017242431640625
1776815650078084600,0.301084716796875,-0.927520751953125,-0.3648529052734375,-0.0152130126953125
1776815650088121900,0.311121826171875,-0.9150848388671875,-0.371856689453125,-0.0079803466796875
1776815650098158800,0.321158935546875,-0.90667724609375,-0.389556884765625,0.0130615234375
1776815650108195800,0.33119580078125,-0.893890380859375,-0.4080963134765625,0.03460693359375
1776815650118232800,0.34123291015625,-0.8885650634765625,-0.4132080078125,0.035400390625
1776815650128269600,0.35126953125,-0.8767852783203125,-0.4116058349609375,0.0270233154296875
1776815650138306800,0.361306884765625,-0.853546142578125,-0.4054412841796875,0.018157958984375
1776815650148343800,0.37134375,-0.85235595703125,-0.410186767578125,0.0155029296875
1776815650158380800,0.381380859375,-0.85552978515625,-0.424163818359375,0.0238800048828125
1776815650168417800,0.391417724609375,-0.861663818359375,-0.4353485107421875,0.0250701904296875
1776815650178454800,0.401454833984375,-0.8701629638671875,-0.4374847412109375,-0.00048828125
1776815650188491800,0.41149169921875,-0.8827972412109375,-0.432586669921875,-0.025482177734375
1776815650198528800,0.42152880859375,-0.8915252685546875,-0.4355316162109375,-0.0351409912109375
1776815650208565800,0.431565673828125,-0.8977203369140625,-0.4461517333984375,-0.0326385498046875
1776815650218603000,0.44160302734375,-0.9098052978515625,-0.453338623046875,-0.0196685791015625
1776815650228639700,0.4516396484375,-0.890655517578125,-0.448333740234375,-0.014984130859375
1776815650238676700,0.4616767578125,-0.8694610595703125,-0.421539306640625,-0.01007080078125
1776815650248713700,0.471713623046875,-0.8677978515625,-0.4109954833984375,-0.003631591796875
1776815650258750700,0.481750732421875,-0.8486175537109375,-0.4388580322265625,-0.000335693359375
1776815650268788000,0.4917880859375,-0.8301849365234375,-0.450714111328125,-0.005218505859375
1776815650278824700,0.50182470703125,-0.826080322265625,-0.446746826171875,-0.01434326171875
1776815650288861700,0.51186181640625,-0.860015869140625,-0.442138671875,-0.0093841552734375
1776815650298898700,0.521898681640625,-0.92095947265625,-0.43609619140625,0.0041656494140625
1776815650308936000,0.53193603515625,-0.9326019287109375,-0.4250030517578125,0.02301025390625
1776815650318973000,0.541972900390625,-0.9180450439453125,-0.4364013671875,0.02252197265625
1776815650329009700,0.552009765625,-0.9956512451171875,-0.50714111328125,0.03656005859375
1776815650339046700,0.562046630859375,-0.9037933349609375,-0.5098114013671875,0.0467376708984375
1776815650349084000,0.572083984375,-0.676116943359375,-0.4246063232421875,0.066192626953125
1776815650359121000,0.582120849609375,-0.6687774658203125,-0.361419677734375,0.0436248779296875
1776815650369158000,0.592157958984375,-0.75482177734375,-0.348785400390625,0.0330352783203125
1776815650379194600,0.602194580078125,-0.766082763671875,-0.3795318603515625,0.03515625
1776815650389231600,0.612231689453125,-0.7049713134765625,-0.4333648681640625,0.04132080078125
1776815650399268900,0.622268798828125,-0.7273101806640625,-0.5079498291015625,0.0512847900390625
1776815650409305900,0.632305908203125,-0.762725830078125,-0.553619384765625,0.08392333984375
1776815650419343600,0.642343505859375,-0.749542236328125,-0.5455780029296875,0.1116180419921875
1776815650429380900,0.652380859375,-0.724456787109375,-0.53973388671875,0.12835693359375
1776815650439417900,0.66241796875,-0.7145233154296875,-0.5232696533203125,0.11767578125
1776815650449454800,0.672454833984375,-0.7158203125,-0.5006561279296875,0.09600830078125
1776815650459491800,0.682491943359375,-0.7169647216796875,-0.4760284423828125,0.093231201171875
1776815650469528600,0.692528564453125,-0.819854736328125,-0.458343505859375,0.135772705078125
1776815650479565800,0.70256591796875,-1.1436920166015625,-0.47772216796875,0.304046630859375
1776815650489602800,0.712602783203125,-0.7582244873046875,-0.2835845947265625,0.0340423583984375
1776815650499639800,0.722639892578125,-0.9659423828125,-0.2845916748046875,-0.001007080078125
1776815650509676800,0.7326767578125,-0.9305419921875,-0.398773193359375,0.11553955078125
1776815650519713800,0.7427138671875,-0.9817352294921875,-0.3972625732421875,0.116180419921875
1776815650529750800,0.752750732421875,-1.011932373046875,-0.4306182861328125,0.141204833984375
1776815650539787800,0.762787841796875,-0.966217041015625,-0.43963623046875,0.1544952392578125
1776815650549824800,0.77282470703125,-0.9143829345703125,-0.4217529296875,0.1574554443359375
1776815650559862000,0.782862060546875,-0.90618896484375,-0.4035797119140625,0.1712493896484375
1776815650569898800,0.792898681640625,-0.906280517578125,-0.405853271484375,0.1918792724609375
1776815650579935700,0.802935791015625,-0.8938140869140625,-0.415435791015625,0.191162109375
1776815650589972700,0.81297265625,-0.897613525390625,-0.41143798828125,0.1661529541015625
1776815650600009700,0.823009765625,-0.96044921875,-0.369415283203125,0.110626220703125
1776815650610047000,0.833046875,-1.0398712158203125,-0.3124237060546875,0.0758056640625
1776815650620083700,0.843083740234375,-1.1147613525390625,-0.2823638916015625,0.0615692138671875
1776815650630120700,0.85312060546875,-1.177459716796875,-0.27764892578125,0.0469207763671875
1776815650640157700,0.86315771484375,-1.19940185546875,-0.2804412841796875,0.024932861328125
1776815650650195000,0.87319482421875,-1.20458984375,-0.2782745361328125,-0.001190185546875
1776815650660232000,0.88323193359375,-1.2278900146484375,-0.262237548828125,-0.034088134765625
1776815650670268700,0.8932685546875,-1.275238037109375,-0.253570556640625,-0.064910888671875
1776815650680305700,0.9033056640625,-1.301177978515625,-0.2438507080078125,-0.0851593017578125
1776815650690342700,0.9133427734375,-1.2938690185546875,-0.2361907958984375,-0.0771484375
1776815650700380000,0.9233798828125,-1.267913818359375,-0.2344207763671875,-0.0537261962890625
1776815650710417000,0.9334169921875,-1.233612060546875,-0.23309326171875,-0.0380401611328125
1776815650720453600,0.94345361328125,-1.215667724609375,-0.2141265869140625,-0.0410614013671875
1776815650730490600,0.95349072265625,-1.2093353271484375,-0.1882781982421875,-0.04547119140625
1776815650740527900,0.96352783203125,-1.1768341064453125,-0.171905517578125,-0.0569000244140625
1776815650750564900,0.97356494140625,-1.1230010986328125,-0.147796630859375,-0.0766143798828125
1776815650760601900,0.983601806640625,-1.0821533203125,-0.117828369140625,-0.0836181640625
1776815650770638600,0.993638671875,-1.063446044921875,-0.10247802734375,-0.0706787109375
1776815650780675800,1.00367578125,-1.070465087890625,-0.1104583740234375,-0.0528106689453125
1776815650790712800,1.013712890625,-1.0739593505859375,-0.1311492919921875,-0.0463409423828125
1776815650800749800,1.023749755859375,-1.0532989501953125,-0.1425933837890625,-0.0524139404296875
1776815650810786800,1.033786865234375,-1.0468902587890625,-0.135467529296875,-0.0627593994140625
1776815650820826000,1.043826171875,-1.0285491943359375,-0.13079833984375,-0.0737762451171875
1776815650830863000,1.053863037109375,-0.970855712890625,-0.1302337646484375,-0.087860107421875
1776815650840899800,1.06389990234375,-0.93017578125,-0.1392059326171875,-0.0731964111328125
1776815650850936800,1.073936767578125,-0.9473724365234375,-0.1601409912109375,-0.062744140625
1776815650860974000,1.08397412109375,-0.9921112060546875,-0.181182861328125,-0.0639190673828125
1776815650871011000,1.094010986328125,-0.9825897216796875,-0.17816162109375,-0.0748748779296875
1776815650881048000,1.104048095703125,-0.921966552734375,-0.1701202392578125,-0.097076416015625
1776815650891084800,1.114084716796875,-0.8789825439453125,-0.177642822265625,-0.1229400634765625
1776815650901122000,1.1241220703125,-0.871551513671875,-0.1830902099609375,-0.145782470703125
1776815650911159000,1.134158935546875,-0.8994903564453125,-0.1783294677734375,-0.1606292724609375
1776815650921197000,1.144197021484375,-0.94091796875,-0.1243133544921875,-0.1754302978515625
1776815650931233800,1.15423388671875,-0.9469451904296875,-0.0889434814453125,-0.1739349365234375
1776815650941271000,1.16427099609375,-0.9458160400390625,-0.113677978515625,-0.1599273681640625
1776815650951308000,1.17430810546875,-0.9049224853515625,-0.115875244140625,-0.151397705078125
1776815650961345000,1.184344970703125,-0.8865203857421875,-0.1040496826171875,-0.107940673828125
1776815650971382000,1.194382080078125,-0.935272216796875,-0.1119384765625,-0.0560150146484375
1776815650981419000,1.2044189453125,-1.0412139892578125,-0.1103515625,0.0387115478515625
1776815650991456000,1.2144560546875,-1.1788330078125,-0.0889892578125,0.2231597900390625
1776815651001493000,1.224492919921875,-1.211181640625,0.0498046875,0.3514404296875
1776815651011530000,1.234530029296875,-1.18267822265625,0.05303955078125,0.417816162109375
1776815651021567200,1.244567138671875,-1.1092376708984375,-0.0477294921875,0.417572021484375
1776815651031604000,1.25460400390625,-0.9844818115234375,-0.09820556640625,0.3760986328125
1776815651041641000,1.264640869140625,-1.1300506591796875,-0.3395843505859375,0.3238677978515625
1776815651051678000,1.274677978515625,-1.4100799560546875,-0.695068359375,0.303009033203125
1776815651061715000,1.28471484375,-0.961181640625,-0.5654754638671875,0.2613525390625
1776815651071752200,1.294752197265625,-0.408905029296875,-0.1356048583984375,0.280731201171875
1776815651081789000,1.304788818359375,-0.32794189453125,0.0306854248046875,0.3670806884765625
1776815651091826000,1.314825927734375,-0.4633331298828125,0.0065765380859375,0.3506011962890625
1776815651101863000,1.32486279296875,-0.373565673828125,0.064971923828125,0.391693115234375
1776815651111900200,1.334900146484375,-0.3388824462890625,0.101776123046875,0.4101715087890625
1776815651121937200,1.344937255859375,-0.3978424072265625,0.090911865234375,0.4064178466796875
1776815651131974000,1.354973876953125,-0.456512451171875,0.046173095703125,0.3934783935546875
1776815651142011000,1.365010986328125,-0.435546875,0.00592041015625,0.3922119140625
1776815651152047900,1.3750478515625,-0.334625244140625,-0.02960205078125,0.387939453125
1776815651162085000,1.385085205078125,-1.013275146484375,-0.313385009765625,0.539886474609375
1776815651172122000,1.3951220703125,-3.0994415283203125,-0.98773193359375,1.1172027587890625
1776815651182158800,1.405158935546875,-0.792938232421875,-0.257415771484375,0.470062255859375
1776815651192195800,1.41519580078125,-0.2535552978515625,-0.095428466796875,0.222930908203125
1776815651202233000,1.425233154296875,-0.511505126953125,-0.2879638671875,0.379547119140625
1776815651212270000,1.43527001953125,-0.7745513916015625,-0.538970947265625,0.418701171875
1776815651222307000,1.44530712890625,-0.8518218994140625,-0.8198699951171875,0.2061767578125
1776815651232343800,1.45534375,-0.993682861328125,-0.934661865234375,-0.0155792236328125
1776815651242381000,1.465381103515625,-1.09954833984375,-0.591949462890625,-0.241119384765625
1776815651252418000,1.47541796875,-0.8878173828125,-0.111236572265625,-0.3467864990234375
1776815651262455000,1.485455078125,-0.961883544921875,0.0806427001953125,-0.13037109375
1776815651272492000,1.495491943359375,-1.2012786865234375,0.0305633544921875,0.03619384765625
1776815651282528800,1.50552880859375,-1.1084747314453125,-0.106597900390625,-0.0780029296875
1776815651292566000,1.51556591796875,-0.9686279296875,-0.2636260986328125,-0.2644805908203125
1776815651302603000,1.52560302734375,-0.993194580078125,-0.262451171875,-0.2518463134765625
1776815651312640000,1.535639892578125,-0.89398193359375,-0.3199462890625,-0.2890472412109375
1776815651322677000,1.545677001953125,-0.732421875,-0.49560546875,-0.368408203125
1776815651332714000,1.5557138671875,-0.6261444091796875,-0.4840545654296875,-0.4073944091796875
1776815651342751000,1.5657509765625,-0.5133056640625,-0.31884765625,-0.4393463134765625
1776815651352789000,1.5757890625,-0.419647216796875,-0.091400146484375,-0.28814697265625
1776815651362826000,1.585825927734375,-0.286590576171875,0.033966064453125,-0.079681396484375
1776815651372863000,1.595863037109375,-0.1938934326171875,-0.0694732666015625,0.018096923828125
1776815651382900000,1.60589990234375,-0.5656890869140625,-0.2451629638671875,0.1215972900390625
1776815651392937000,1.61593701171875,-1.516845703125,-0.3828887939453125,0.13323974609375
1776815651402974000,1.625973876953125,-1.4688873291015625,-0.3403167724609375,-0.03485107421875
1776815651413011200,1.63601123046875,-0.893157958984375,-0.2813873291015625,-0.16839599609375
1776815651423048000,1.6460478515625,-0.7888641357421875,-0.1965484619140625,-0.1859588623046875
1776815651433085000,1.6560849609375,-0.7866363525390625,-0.0696258544921875,-0.156829833984375
1776815651443122000,1.666121826171875,-0.6447296142578125,0.1064453125,-0.048370361328125
1776815651453159200,1.6761591796875,-0.536590576171875,0.1311492919921875,-0.0478057861328125
1776815651463196200,1.686196044921875,-0.4563751220703125,0.0555267333984375,0.0043487548828125
1776815651473233000,1.69623291015625,-0.6243133544921875,-0.0777587890625,0.074859619140625
1776815651483270000,1.706269775390625,-1.3246917724609375,-0.222442626953125,0.145660400390625
1776815651493307000,1.716306884765625,-1.6505126953125,-0.2491912841796875,0.3277587890625
1776815651503344000,1.72634423828125,-1.3935699462890625,-0.185272216796875,0.4394378662109375
1776815651513381000,1.736381103515625,-0.8553314208984375,-0.2064361572265625,0.43389892578125
1776815651523417900,1.74641796875,-0.5714569091796875,-0.1696624755859375,0.3993072509765625
1776815651533454800,1.756454833984375,-0.6318206787109375,-0.086639404296875,0.3001556396484375
1776815651543492000,1.7664921875,-2.137481689453125,0.2096710205078125,0.039398193359375
1776815651553529000,1.776529052734375,-2.0838623046875,0.4423675537109375,0.0989990234375
1776815651563566000,1.786566162109375,-1.1248626708984375,0.355865478515625,0.157440185546875
1776815651573602800,1.796602783203125,-0.7083740234375,0.1523895263671875,0.1452484130859375
1776815651583640000,1.80664013671875,-0.68109130859375,-0.0385589599609375,0.1579132080078125
1776815651593677000,1.816677001953125,-1.1647491455078125,-0.1648712158203125,0.375823974609375
1776815651603714000,1.826714111328125,-1.4280242919921875,-0.169464111328125,0.490264892578125
1776815651613751000,1.8367509765625,-1.488189697265625,-0.1038665771484375,0.5165557861328125
1776815651623787800,1.846787841796875,-1.45562744140625,-0.0220794677734375,0.467437744140625
1776815651633825000,1.856824951171875,-1.2434234619140625,-0.0009307861328125,0.4557952880859375
1776815651643862000,1.866862060546875,-1.0029449462890625,0.0396728515625,0.51922607421875
1776815651653899000,1.87689892578125,-0.936859130859375,0.16796875,0.4134979248046875
1776815651663936000,1.88693603515625,-0.8329925537109375,0.1200103759765625,0.2952117919921875
1776815651673973000,1.896972900390625,-0.666351318359375,-0.1756591796875,0.329833984375
1776815651684010000,1.907010009765625,-0.8115234375,-0.3828277587890625,0.518585205078125
1776815651694047000,1.917046875,-0.8398590087890625,-0.3519287109375,0.5559539794921875
1776815651704084000,1.927083984375,-0.9597015380859375,-0.04132080078125,0.3760223388671875
1776815651714121200,1.937121337890625,-1.249664306640625,0.2754364013671875,0.2562103271484375
1776815651724158000,1.947157958984375,-1.1367340087890625,0.2387542724609375,0.3854217529296875
1776815651734196000,1.957196044921875,-0.97747802734375,-0.0582122802734375,0.55126953125
1776815651744233000,1.96723291015625,-0.8898162841796875,-0.1192779541015625,0.6352996826171875
1776815651754270000,1.97727001953125,-0.603363037109375,0.08319091796875,0.772064208984375
1776815651764307000,1.987306884765625,-0.9875946044921875,0.328125,0.6069793701171875
1776815651774344000,1.997343994140625,-0.6756439208984375,0.261505126953125,0.600341796875
1776815651784381000,2.007380859375,-0.682403564453125,0.1368255615234375,0.6302642822265625
1776815651794418200,2.017418212890625,-0.7610626220703125,0.1886138916015625,0.6788787841796875
1776815651804455200,2.027455078125,-0.7823333740234375,0.1446533203125,0.5323944091796875
1776815651814488800,2.03748876953125,-0.72589111328125,0.1107635498046875,0.3511962890625
1776815651824526000,2.047526123046875,-0.6059417724609375,0.134735107421875,0.1777801513671875
1776815651834563000,2.05756298828125,-0.5128936767578125,0.167572021484375,0.124908447265625
1776815651844600000,2.06760009765625,-0.491943359375,0.2043609619140625,0.142425537109375
1776815651854636800,2.07763671875,-0.4387054443359375,0.1963653564453125,0.204681396484375
1776815651864674000,2.087674072265625,-0.3253936767578125,0.194976806640625,0.196746826171875
1776815651874711000,2.0977109375,-0.168426513671875,0.1798248291015625,0.1576080322265625
1776815651884748000,2.107748046875,-0.134918212890625,0.3069000244140625,0.19451904296875
1776815651894785000,2.117784912109375,-0.168853759765625,0.37017822265625,0.2501220703125
1776815651904821800,2.12782177734375,-0.11651611328125,0.45782470703125,0.3358154296875
1776815651914859000,2.13785888671875,0.06829833984375,0.4209442138671875,0.346527099609375
1776815651924896000,2.14789599609375,0.288970947265625,0.26239013671875,0.2966766357421875
1776815651934933000,2.15793310546875,0.151763916015625,0.1986083984375,0.261077880859375
1776815651944970000,2.167969970703125,0.0722198486328125,0.2567291259765625,0.2460479736328125
1776815651955007000,2.178007080078125,-0.5277557373046875,0.8636932373046875,0.575347900390625
1776815651965044000,2.1880439453125,-0.9033203125,1.9034881591796875,0.9118499755859375
1776815651975081000,2.1980810546875,-0.33819580078125,1.7747344970703125,0.4752655029296875
1776815651985118000,2.208117919921875,-0.1426239013671875,0.9629974365234375,0.4669342041015625
1776815651995155200,2.2181552734375,-0.0407257080078125,0.6418609619140625,0.85552978515625
1776815652005192000,2.22819189453125,0.0641632080078125,0.581390380859375,1.105377197265625
1776815652015229000,2.23822900390625,0.0295562744140625,0.6454315185546875,1.2638702392578125
1776815652025266000,2.248265869140625,0.039031982421875,0.9625244140625,1.286865234375
1776815652035303000,2.258302978515625,0.0755767822265625,1.0309906005859375,1.2156982421875
1776815652045340200,2.268340087890625,0.1325531005859375,1.001556396484375,1.1196746826171875
1776815652055377000,2.278376953125,0.098968505859375,0.87957763671875,1.1494903564453125
1776815652065414000,2.288413818359375,-0.2770843505859375,1.0042724609375,1.245574951171875
1776815652075451000,2.298450927734375,-0.42340087890625,1.1241302490234375,1.3090057373046875
1776815652085488000,2.308488037109375,-0.4788818359375,1.1038818359375,1.391937255859375
1776815652095525000,2.318525146484375,-0.351104736328125,0.8907623291015625,1.48162841796875
1776815652105561900,2.328561767578125,-0.3876800537109375,0.6963043212890625,1.5655975341796875
1776815652115598800,2.338598876953125,-0.364898681640625,0.572784423828125,1.57269287109375
1776815652125636000,2.348635986328125,-0.5370025634765625,0.7424468994140625,1.55291748046875
1776815652135674000,2.358674072265625,-0.4897918701171875,0.8875885009765625,1.4600830078125
1776815652145710800,2.3687109375,-0.7720947265625,0.9043121337890625,1.336090087890625
1776815652155747800,2.378747802734375,-1.2769927978515625,0.8058319091796875,1.1185760498046875
1776815652165785000,2.38878515625,-1.7187347412109375,0.4089813232421875,1.0313873291015625
1776815652175822000,2.398822021484375,-1.44927978515625,0.5264739990234375,0.985321044921875
1776815652185859000,2.408859130859375,-1.01678466796875,0.7551116943359375,0.8599090576171875
1776815652195895800,2.418895751953125,-0.77850341796875,0.79461669921875,0.6909637451171875
1776815652205933000,2.42893310546875,-0.5769195556640625,0.8819427490234375,0.723785400390625
1776815652215970000,2.438969970703125,-0.1099090576171875,0.7779998779296875,0.9268341064453125
1776815652226007000,2.449007080078125,-0.084503173828125,0.848175048828125,1.2704620361328125
1776815652236044000,2.4590439453125,-0.0683441162109375,0.6762542724609375,1.411468505859375
1776815652246080800,2.469080810546875,-0.0421905517578125,0.535491943359375,1.1970672607421875
1776815652256118000,2.479117919921875,0.3528594970703125,0.73992919921875,1.1284027099609375
1776815652266155000,2.489155029296875,0.2976531982421875,1.03533935546875,0.9752349853515625
1776815652276192000,2.49919189453125,-0.0921478271484375,1.0975189208984375,0.655426025390625
1776815652286229000,2.50922900390625,-0.163055419921875,0.9029693603515625,0.5235595703125
1776815652296266000,2.519265869140625,-0.0406951904296875,0.676971435546875,0.5385894775390625
1776815652306303000,2.529302978515625,0.3575897216796875,0.591033935546875,0.7623138427734375
1776815652316340000,2.539340087890625,0.4136962890625,0.61785888671875,0.9413909912109375
1776815652326377000,2.549376953125,0.3107452392578125,0.61663818359375,0.906005859375
1776815652336414200,2.559414306640625,0.42156982421875,0.5238494873046875,0.8657684326171875
1776815652346451000,2.569450927734375,0.3962860107421875,0.4850616455078125,0.8153228759765625
1776815652356488000,2.579488037109375,0.27386474609375,0.3380889892578125,0.69140625
1776815652366525000,2.58952490234375,0.4066009521484375,0.1583099365234375,0.7727203369140625
1776815652376562000,2.59956201171875,0.3013763427734375,0.23724365234375,0.6515350341796875
1776815652386599200,2.60959912109375,0.5050506591796875,0.185211181640625,0.58502197265625
1776815652396636000,2.619635986328125,0.31939697265625,-0.186004638671875,0.6264801025390625
1776815652406673000,2.6296728515625,0.330230712890625,-0.1117401123046875,0.6559295654296875
1776815652416710000,2.6397099609375,0.355438232421875,-0.0837860107421875,0.5666046142578125
1776815652426747100,2.6497470703125,0.214324951171875,-0.25457763671875,0.633209228515625
1776815652436784000,2.6597841796875,0.32879638671875,-0.2288970947265625,0.672698974609375
1776815652446820900,2.66982080078125,0.3223114013671875,0.0446014404296875,0.6799468994140625
1776815652456857900,2.67985791015625,0.418182373046875,0.1458892822265625,0.7859344482421875
1776815652466895000,2.68989501953125,0.5655364990234375,0.0351409912109375,0.817626953125
1776815652476932000,2.69993212890625,0.400146484375,0.071258544921875,0.790191650390625
1776815652486969000,2.709968994140625,0.327728271484375,0.1542510986328125,0.8597564697265625
1776815652497005800,2.720005859375,0.33544921875,0.2227325439453125,0.8576507568359375
1776815652507042800,2.730042724609375,0.3015289306640625,0.138885498046875,0.88800048828125
1776815652517080000,2.740080078125,0.313995361328125,-0.0048370361328125,0.8221282958984375
1776815652527117000,2.750116943359375,0.3325653076171875,0.0322418212890625,0.7042083740234375
1776815652537154000,2.760154052734375,0.168975830078125,0.126617431640625,0.72479248046875
1776815652547192000,2.770192138671875,0.1723480224609375,0.2225799560546875,0.7312469482421875
1776815652557229000,2.78022900390625,0.3301239013671875,0.201263427734375,0.738494873046875
1776815652567266000,2.79026611328125,0.6128082275390625,-0.007354736328125,0.7674713134765625
1776815652577303000,2.800302978515625,0.701629638671875,-0.054443359375,0.7261810302734375
1776815652587339800,2.81033984375,0.541351318359375,0.162017822265625,0.653228759765625
1776815652597377000,2.820376953125,0.135284423828125,0.5533294677734375,0.5961151123046875
1776815652607414000,2.8304140625,0.2261199951171875,0.71868896484375,0.547454833984375
1776815652617451000,2.840450927734375,0.2307891845703125,1.253204345703125,0.538116455078125
1776815652627488000,2.850488037109375,0.276123046875,1.5558319091796875,0.7591705322265625
1776815652637525000,2.86052490234375,0.25897216796875,1.51129150390625,1.0468292236328125
1776815652647562000,2.87056201171875,0.148773193359375,1.071075439453125,1.1358489990234375
1776815652657599000,2.880598876953125,0.0659027099609375,0.617462158203125,1.111419677734375
1776815652667636000,2.890635986328125,0.0167694091796875,0.5337982177734375,0.94549560546875
1776815652677673200,2.900673095703125,0.008636474609375,0.5413055419921875,0.886260986328125
1776815652687710000,2.9107099609375,0.169952392578125,0.5041656494140625,0.8307952880859375
1776815652697747000,2.920746826171875,0.28948974609375,0.56878662109375,0.730712890625
1776815652707784000,2.930783935546875,0.3515625,0.5600433349609375,0.7005615234375
1776815652717821000,2.940821044921875,0.302032470703125,0.5460662841796875,0.565521240234375
1776815652727858200,2.950858154296875,0.2227020263671875,0.58782958984375,0.5045318603515625
1776815652737895000,2.96089501953125,0.15631103515625,0.6772613525390625,0.484100341796875
1776815652747932000,2.970931884765625,0.0936737060546875,0.740478515625,0.5819549560546875
1776815652757969000,2.980968994140625,0.0336456298828125,0.840484619140625,0.6288604736328125
1776815652768006100,2.991006103515625,0.17742919921875,0.584259033203125,0.6635894775390625
1776815652778043100,3.001043212890625,0.0156097412109375,0.4517822265625,0.7928009033203125
1776815652788079900,3.011079833984375,-0.0524444580078125,0.6039276123046875,0.8234100341796875
1776815652798116900,3.021116943359375,-0.01373291015625,0.6020050048828125,0.8429412841796875
1776815652808154000,3.031154052734375,0.2104644775390625,0.8637542724609375,0.7770233154296875
1776815652818190800,3.04119091796875,0.363525390625,0.9682159423828125,0.5136871337890625
1776815652828227800,3.051227783203125,0.175323486328125,0.985137939453125,0.2182159423828125
1776815652838264600,3.0612646484375,0.08636474609375,0.9735107421875,0.1313934326171875
1776815652848301600,3.071301513671875,0.1243896484375,0.68988037109375,0.2143402099609375
1776815652858338800,3.0813388671875,-0.004119873046875,0.5751953125,0.8759765625
1776815652868375800,3.091375732421875,0.197174072265625,0.6861419677734375,1.2024993896484375
1776815652878412800,3.101412841796875,0.4346923828125,0.872100830078125,1.2765655517578125
1776815652888449800,3.11144970703125,0.34393310546875,0.8755645751953125,1.1591796875
1776815652898486800,3.12148681640625,0.1185150146484375,0.695526123046875,0.9923858642578125
1776815652908523800,3.131523681640625,-0.104278564453125,0.461334228515625,0.9097442626953125
1776815652918560800,3.141560791015625,-0.2699432373046875,0.3647308349609375,0.9967193603515625
1776815652928597800,3.15159765625,-0.2562408447265625,0.3798675537109375,1.0059661865234375
1776815652938634800,3.161634765625,-0.2707061767578125,0.4266510009765625,1.0308990478515625
1776815652948671700,3.171671630859375,-0.1296234130859375,0.56756591796875,1.0428924560546875
1776815652958708700,3.181708740234375,-0.1444244384765625,0.384033203125,0.9125213623046875
1776815652968745700,3.191745849609375,-0.1811676025390625,0.2317657470703125,0.9514312744140625
1776815652978783700,3.20178369140625,-0.176544189453125,0.2309417724609375,0.9513092041015625
1776815652988820700,3.21182080078125,-0.1720123291015625,0.249786376953125,0.8109130859375
1776815652998857700,3.221857666015625,-0.1509246826171875,0.226165771484375,0.532318115234375
1776815653008894700,3.231894775390625,-0.0947418212890625,0.586395263671875,0.4182281494140625
1776815653018931700,3.241931640625,0.0315399169921875,0.804107666015625,0.39599609375
1776815653028968700,3.25196875,0.18011474609375,0.9249267578125,0.37896728515625
1776815653039005700,3.262005615234375,-0.11334228515625,1.2573089599609375,0.4669189453125
1776815653049042700,3.272042724609375,0.08038330078125,1.081024169921875,0.4676513671875
1776815653059079700,3.28207958984375,-0.082672119140625,1.201171875,0.342498779296875
1776815653069117000,3.292116943359375,0.1265716552734375,0.690460205078125,0.4154815673828125
1776815653079153700,3.302153564453125,0.0919189453125,1.154388427734375,0.1772613525390625
1776815653089190700,3.312190673828125,0.096282958984375,2.0042877197265625,0.0449676513671875
1776815653099227600,3.3222275390625,-0.01715087890625,1.576995849609375,0.2998504638671875
1776815653109265000,3.332264892578125,-0.121063232421875,1.600799560546875,0.3889312744140625
1776815653119302000,3.342302001953125,-0.126190185546875,1.4382476806640625,0.444061279296875
1776815653129338600,3.352338623046875,-0.1047821044921875,1.018524169921875,0.47552490234375
1776815653139375600,3.362375732421875,-0.0512542724609375,1.00250244140625,0.4077911376953125
1776815653149412600,3.37241259765625,0.054473876953125,0.9953765869140625,0.3818511962890625
1776815653159449900,3.382449951171875,-0.0399932861328125,0.93377685546875,0.418212890625
1776815653169486800,3.39248681640625,0.0379638671875,0.867767333984375,0.417205810546875
1776815653179523600,3.402523681640625,-0.112762451171875,0.759552001953125,0.496429443359375
1776815653189560600,3.412560546875,-0.1426849365234375,0.646820068359375,0.6135406494140625
1776815653199597800,3.422597900390625,0.19171142578125,0.4277191162109375,0.629547119140625
1776815653209634800,3.432634765625,0.0406494140625,0.691375732421875,0.5226287841796875
1776815653219671800,3.442671875,0.1334381103515625,0.971588134765625,0.5084075927734375
1776815653229708500,3.45270849609375,0.0883941650390625,0.988006591796875,0.5482940673828125
1776815653239745800,3.462745849609375,-0.054901123046875,0.908416748046875,0.5269927978515625
1776815653249782800,3.47278271484375,-0.0882110595703125,0.6990814208984375,0.3458709716796875
1776815653259819800,3.48281982421875,-0.1146087646484375,0.678497314453125,0.334381103515625
1776815653269856800,3.492856689453125,-0.276275634765625,0.708404541015625,0.357574462890625
1776815653279893800,3.502893798828125,-0.183685302734375,0.683929443359375,0.3423309326171875
1776815653289930800,3.5129306640625,-0.18817138671875,0.863189697265625,0.407989501953125
1776815653299967700,3.5229677734375,-0.167327880859375,0.86083984375,0.45489501953125
1776815653310004700,3.533004638671875,-0.0703125,0.80548095703125,0.475860595703125
1776815653320041700,3.543041748046875,0.1402435302734375,1.07867431640625,0.439453125
1776815653330078700,3.55307861328125,0.017730712890625,1.1098785400390625,0.5709381103515625
1776815653340115700,3.56311572265625,-0.0953521728515625,1.0579376220703125,0.6739349365234375
1776815653350152700,3.573152587890625,-0.0696868896484375,0.9283599853515625,0.6651611328125
1776815653360189700,3.583189697265625,0.021270751953125,0.858062744140625,0.5281829833984375
1776815653370226700,3.593226806640625,0.0364837646484375,0.815521240234375,0.43157958984375
1776815653380264700,3.6032646484375,-0.0155487060546875,0.827362060546875,0.4168548583984375
1776815653390301700,3.6133017578125,-0.0625,0.87298583984375,0.462921142578125
1776815653400338700,3.623338623046875,-0.0816192626953125,0.87591552734375,0.4916229248046875
1776815653410376000,3.6333759765625,-0.0764923095703125,0.8581390380859375,0.47381591796875
1776815653420412700,3.64341259765625,-0.064727783203125,0.85577392578125,0.4626617431640625
1776815653430449700,3.65344970703125,-0.07708740234375,0.8795318603515625,0.4807891845703125
1776815653440486700,3.663486572265625,-0.06256103515625,0.9023590087890625,0.5104827880859375
1776815653450524000,3.67352392578125,0.0126190185546875,0.894256591796875,0.5460205078125
1776815653460561000,3.683560791015625,-0.0179901123046875,0.879547119140625,0.5713043212890625
1776815653470597600,3.69359765625,-0.0560455322265625,0.8594818115234375,0.551788330078125
1776815653480634600,3.703634521484375,-0.041961669921875,0.8375396728515625,0.520721435546875
1776815653490671600,3.713671630859375,-0.031280517578125,0.826690673828125,0.483612060546875
1776815653500708900,3.723708984375,-0.0342864990234375,0.8291778564453125,0.428436279296875
1776815653510745900,3.733745849609375,-0.0468597412109375,0.852569580078125,0.4397735595703125
1776815653520782600,3.743782470703125,-0.030548095703125,0.8574981689453125,0.4984130859375
1776815653530819600,3.753819580078125,0.00543212890625,0.8211669921875,0.499603271484375
1776815653540856800,3.76385693359375,0.0236358642578125,0.753631591796875,0.4448394775390625
1776815653550893800,3.773893798828125,0.0364227294921875,0.558013916015625,0.3932342529296875
1776815653560930800,3.783930908203125,0.0310211181640625,0.6232452392578125,0.4573211669921875
1776815653570967600,3.793967529296875,0.017974853515625,0.7053070068359375,0.4830780029296875
1776815653581004800,3.8040048828125,-0.0369415283203125,0.59637451171875,0.439788818359375
1776815653591041800,3.814041748046875,-0.081512451171875,0.3480224609375,0.3687286376953125
1776815653601078800,3.824078857421875,-0.0975189208984375,0.290069580078125,0.3557891845703125
1776815653611115800,3.83411572265625,-0.0496063232421875,0.3421173095703125,0.303466796875
1776815653621152500,3.844152587890625,0.0084228515625,0.468353271484375,0.30999755859375
1776815653631189800,3.854189697265625,0.0565338134765625,0.6533966064453125,0.3251800537109375
1776815653641226800,3.864226806640625,0.041412353515625,0.5480194091796875,0.3006134033203125
1776815653651263700,3.874263671875,0.096343994140625,0.195556640625,0.1615142822265625
1776815653661300700,3.88430078125,-0.094635009765625,0.4573822021484375,0.0546722412109375
1776815653671337700,3.894337646484375,0.0001220703125,0.629058837890625,0.055877685546875
1776815653681374700,3.904374755859375,0.203582763671875,0.5976715087890625,0.1713409423828125
1776815653691411700,3.91441162109375,0.0298614501953125,0.740325927734375,0.2916259765625
1776815653701448700,3.92444873046875,0.028167724609375,1.196624755859375,0.4396820068359375
1776815653711485700,3.934485595703125,0.161956787109375,1.585357666015625,0.5817718505859375
1776815653721522700,3.944522705078125,0.1896209716796875,1.8443756103515625,0.546722412109375
1776815653731559700,3.9545595703125,-0.0457000732421875,1.8979339599609375,0.5063629150390625
1776815653741596700,3.9645966796875,-0.26739501953125,2.040252685546875,0.64300537109375
1776815653751633700,3.974633544921875,-0.2881011962890625,1.957733154296875,0.701324462890625
1776815653761669600,3.984669677734375,-0.1607818603515625,1.8081207275390625,0.686676025390625
1776815653771707000,3.994706787109375,-0.106201171875,1.5069122314453125,0.6982574462890625
1776815653781743900,4.004743896484375,0.0195159912109375,0.9904022216796875,0.5656890869140625
1776815653791780600,4.014780517578125,0.026885986328125,1.043121337890625,0.38092041015625
1776815653801817600,4.024817626953125,-0.0335693359375,0.9156951904296875,0.3292694091796875
1776815653811854800,4.034854736328125,-0.0362396240234375,0.6984405517578125,0.3947601318359375
1776815653821896000,4.04489599609375,0.1633453369140625,0.7525177001953125,0.3660430908203125
1776815653831932700,4.0549326171875,0.129974365234375,0.8319091796875,0.3773651123046875
1776815653841969700,4.0649697265625,0.0300140380859375,0.8288116455078125,0.3778076171875
1776815653852006700,4.075006591796875,0.07373046875,0.962921142578125,0.313568115234375
1776815653862044000,4.0850439453125,-0.021331787109375,0.9564971923828125,0.335845947265625
1776815653872081000,4.095080810546875,-0.0186614990234375,0.9555511474609375,0.3087005615234375
1776815653882117600,4.10511767578125,0.0046539306640625,0.9409942626953125,0.287628173828125
1776815653892154600,4.115154541015625,0.0053863525390625,0.957611083984375,0.2976226806640625
1776815653902191600,4.125191650390625,0.015869140625,0.945098876953125,0.2967987060546875
1776815653912228900,4.135228759765625,0.0305633544921875,0.9414215087890625,0.297332763671875
1776815653922265900,4.145265869140625,0.03863525390625,0.944061279296875,0.2972564697265625
1776815653932302600,4.155302490234375,0.0336151123046875,0.957550048828125,0.284698486328125
1776815653942339600,4.165339599609375,0.02056884765625,0.9673309326171875,0.2737884521484375
1776815653952376800,4.175376953125,0.0067138671875,0.9688568115234375,0.2657928466796875
1776815653962413800,4.185413818359375,0.00201416015625,0.9752655029296875,0.262420654296875
1776815653972450800,4.195450927734375,0.0158233642578125,0.94110107421875,0.25592041015625
1776815653982487600,4.205487548828125,0.008636474609375,0.990936279296875,0.2616119384765625
1776815653992524500,4.215524658203125,0.0444183349609375,0.9240570068359375,0.2684478759765625
1776815654002561800,4.225561767578125,0.0096588134765625,0.9531097412109375,0.2798309326171875
1776815654012598800,4.235598876953125,0.00750732421875,0.95159912109375,0.3051300048828125
1776815654022635800,4.2456357421875,0.0118255615234375,0.9951629638671875,0.2972412109375
1776815654032672800,4.2556728515625,0.0122222900390625,0.8853607177734375,0.303375244140625
1776815654042709800,4.265709716796875,0.0179595947265625,0.8922882080078125,0.3181610107421875
1776815654052746800,4.275746826171875,0.0381927490234375,0.9373016357421875,0.35272216796875
1776815654062783700,4.28578369140625,0.0376434326171875,0.9910736083984375,0.3542022705078125
1776815654072820700,4.29582080078125,0.0224609375,0.9636077880859375,0.3463897705078125
1776815654082857700,4.305857666015625,-0.0111541748046875,0.969879150390625,0.3161163330078125
1776815654092894700,4.315894775390625,-0.049957275390625,1.0742645263671875,0.249114990234375
1776815654102931700,4.325931640625,-0.0177154541015625,1.047882080078125,0.2732696533203125
1776815654112968700,4.33596875,0.0001220703125,1.0506134033203125,0.3591156005859375
1776815654123005700,4.346005615234375,0.007598876953125,1.086456298828125,0.3516387939453125
1776815654133042700,4.356042724609375,0.079193115234375,0.9642333984375,0.3032989501953125
1776815654143079700,4.36607958984375,0.116912841796875,0.657470703125,0.2564849853515625
1776815654153116700,4.37611669921875,0.1135406494140625,0.5918121337890625,0.24774169921875
1776815654163153700,4.386153564453125,0.0439453125,0.926513671875,0.29852294921875
1776815654173191000,4.39619091796875,0.0453033447265625,1.0100250244140625,0.3181304931640625
1776815654183228000,4.406227783203125,0.0349578857421875,1.021514892578125,0.290313720703125
1776815654193264600,4.4162646484375,-0.011322021484375,1.015228271484375,0.2741851806640625
1776815654203302700,4.426302734375,-0.0374298095703125,0.996490478515625,0.2735443115234375
1776815654213340000,4.43633984375,-0.0020294189453125,0.98004150390625,0.2756195068359375
1776815654223376600,4.446376708984375,0.03594970703125,0.9718170166015625,0.267730712890625
1776815654233413600,4.45641357421875,0.040191650390625,0.9604034423828125,0.2620849609375
1776815654243450600,4.46645068359375,0.04962158203125,0.9613189697265625,0.2564239501953125
1776815654253487900,4.47648779296875,0.0591583251953125,0.962615966796875,0.2535400390625
1776815654263524900,4.48652490234375,0.0610198974609375,0.9355010986328125,0.2723846435546875
1776815654273561600,4.4965615234375,0.0964508056640625,0.8485870361328125,0.3540496826171875
1776815654283598600,4.5065986328125,0.140228271484375,0.82421875,0.468658447265625
1776815654293635800,4.5166357421875,0.1316070556640625,0.8693695068359375,0.418975830078125
1776815654303672800,4.5266728515625,-0.09332275390625,0.8621368408203125,0.2088165283203125
1776815654313709800,4.536709716796875,-0.122406005859375,0.8358612060546875,0.1189727783203125
1776815654323746600,4.54674658203125,-0.0124969482421875,0.869903564453125,0.0818634033203125
1776815654333783600,4.556783447265625,-0.013092041015625,0.8230133056640625,0.0934295654296875
1776815654343820800,4.56682080078125,0.0443878173828125,0.7736053466796875,0.087860107421875
1776815654353857800,4.57685791015625,0.121002197265625,0.7821807861328125,0.054779052734375
1776815654363894800,4.586894775390625,0.0938262939453125,0.776397705078125,0.0315399169921875
1776815654373931500,4.596931640625,0.0820770263671875,0.7182769775390625,0.0435028076171875
1776815654383968800,4.60696875,0.062530517578125,0.53125,0.1190032958984375
1776815654394005800,4.617005859375,0.0804290771484375,0.36285400390625,0.098388671875
1776815654404042800,4.627042724609375,0.1420135498046875,0.1177978515625,0.032135009765625
1776815654414079700,4.637079833984375,0.154510498046875,0.05224609375,-0.0501708984375
1776815654424116700,4.64711669921875,0.1100616455078125,0.3173980712890625,-0.056732177734375
1776815654434153700,4.65715380859375,0.058074951171875,0.492889404296875,-0.0628509521484375
1776815654444190700,4.667190673828125,0.135833740234375,0.56512451171875,-0.0908660888671875
1776815654454227700,4.677227783203125,0.19671630859375,0.719635009765625,-0.1169281005859375
1776815654464264700,4.6872646484375,0.2797393798828125,1.16082763671875,-0.03375244140625
1776815654474301700,4.6973017578125,0.35174560546875,1.4564056396484375,0.1093292236328125
1776815654484338700,4.707338623046875,0.1656494140625,1.9864044189453125,0.200531005859375
1776815654494375700,4.717375732421875,0.0614471435546875,1.8972015380859375,0.242279052734375
1776815654504412700,4.72741259765625,0.0703582763671875,1.6019439697265625,0.2293701171875
1776815654514450000,4.737449951171875,0.0196685791015625,1.5467529296875,0.155487060546875
1776815654524486700,4.747486572265625,0.022003173828125,1.668182373046875,0.144287109375
1776815654534523600,4.757523681640625,0.0330352783203125,1.8870086669921875,0.2174072265625
1776815654544560600,4.767560546875,0.14312744140625,1.7005767822265625,0.120635986328125
1776815654554598000,4.777597900390625,0.139434814453125,1.3404541015625,0.0677490234375
1776815654564635000,4.787634765625,0.2093353271484375,1.107147216796875,-0.068206787109375
1776815654574672000,4.797671875,0.11297607421875,1.1020355224609375,-0.1588592529296875
1776815654584708600,4.80770849609375,0.0225830078125,1.1255035400390625,-0.1786041259765625
1776815654594745600,4.81774560546875,0.0382080078125,1.0505828857421875,-0.1927032470703125
1776815654604782800,4.827782958984375,0.0694732666015625,1.048583984375,-0.1555023193359375
1776815654614819800,4.83781982421875,0.10650634765625,1.0491943359375,-0.0944061279296875
1776815654624857600,4.847857666015625,0.121368408203125,0.9985809326171875,-0.0589599609375
1776815654634894800,4.857894775390625,0.1150360107421875,0.986297607421875,-0.0475311279296875
1776815654644931800,4.867931884765625,0.090728759765625,0.9914703369140625,-0.0164947509765625
1776815654654968800,4.87796875,0.08843994140625,0.96697998046875,0.0279693603515625
1776815654665005600,4.888005615234375,0.11688232421875,0.9764404296875,0.1192474365234375
1776815654675042600,4.89804248046875,0.13525390625,0.9692840576171875,0.1866607666015625
1776815654685079800,4.908079833984375,0.0937957763671875,0.9806671142578125,0.2181396484375
1776815654695116800,4.91811669921875,0.1060333251953125,0.9837493896484375,0.1929473876953125
1776815654705153800,4.92815380859375,0.09478759765625,0.8985137939453125,0.1602630615234375
1776815654715190500,4.9381904296875,0.0960845947265625,0.94781494140625,0.158660888671875
1776815654725227800,4.948227783203125,0.1146697998046875,1.0008697509765625,0.15679931640625
1776815654735264800,4.9582646484375,0.1013641357421875,1.0714263916015625,0.1123809814453125
1776815654745301800,4.9683017578125,0.0818328857421875,1.0349884033203125,0.065826416015625
1776815654755338800,4.9783388671875,0.088165283203125,0.9273681640625,0.044097900390625
1776815654765375700,4.988375732421875,0.1005706787109375,0.918609619140625,0.0410614013671875
1776815654775412700,4.998412841796875,0.1116485595703125,0.8919830322265625,0.0632781982421875
1776815654785449700,5.00844970703125,0.1266632080078125,0.9065093994140625,0.09783935546875
1776815654795486700,5.01848681640625,0.1589508056640625,0.960601806640625,0.0976104736328125
1776815654805523700,5.028523681640625,0.140899658203125,0.9926910400390625,0.0465087890625
1776815654815560700,5.038560791015625,0.06524658203125,1.0017242431640625,-0.010955810546875
1776815654825595600,5.048595703125,0.004241943359375,1.00579833984375,-0.05023193359375
1776815654835632600,5.058632568359375,0.0064697265625,0.9906158447265625,-0.064666748046875
1776815654845669600,5.068669677734375,0.046844482421875,0.967041015625,-0.05865478515625
1776815654855706400,5.078706298828125,0.1042633056640625,0.9436798095703125,-0.05523681640625
1776815654865743600,5.08874365234375,0.0968170166015625,0.9103240966796875,-0.043060302734375
1776815654875780600,5.098780517578125,0.08441162109375,0.917388916015625,-0.02142333984375
1776815654885817600,5.108817626953125,0.0849456787109375,0.9391326904296875,0.006988525390625
1776815654895854600,5.1188544921875,0.126617431640625,0.9422454833984375,0.0286407470703125
1776815654905891300,5.128891357421875,0.1413116455078125,0.96514892578125,0.0458221435546875
1776815654915928600,5.138928466796875,0.139739990234375,1.0123138427734375,0.0571746826171875
1776815654925965600,5.148965576171875,0.0588836669921875,1.0228424072265625,0.0992889404296875
1776815654936002600,5.15900244140625,-0.002166748046875,1.0183868408203125,0.1239166259765625
1776815654946039600,5.16903955078125,-0.064544677734375,1.0013580322265625,0.138916015625
1776815654956076500,5.17907666015625,-0.0420074462890625,0.9856414794921875,0.1456146240234375
1776815654966113500,5.189113525390625,0.0112762451171875,0.937896728515625,0.18438720703125
1776815654976150500,5.199150634765625,0.0225067138671875,0.90380859375,0.1964111328125
1776815654986187500,5.2091875,-0.0558624267578125,0.8847198486328125,0.1613006591796875
1776815654996225500,5.2192255859375,-0.1365509033203125,0.9099578857421875,0.068084716796875
1776815655006262500,5.229262451171875,-0.1551971435546875,0.9635009765625,-0.055023193359375
1776815655016299500,5.239299560546875,-0.120269775390625,1.065521240234375,-0.166046142578125
1776815655026336500,5.24933642578125,-0.17474365234375,1.1605224609375,-0.1918182373046875
1776815655036373500,5.25937353515625,-0.2587738037109375,1.2638092041015625,-0.1758270263671875
1776815655046410500,5.269410400390625,-0.3232879638671875,1.37347412109375,-0.1933135986328125
1776815655056447500,5.279447509765625,-0.4176177978515625,1.501617431640625,-0.2111053466796875
1776815655066484500,5.289484375,-0.3945159912109375,1.5850830078125,-0.2240753173828125
1776815655076521700,5.299521728515625,-0.2879180908203125,1.50128173828125,-0.2124786376953125
1776815655086558500,5.309558349609375,-0.2033233642578125,1.31134033203125,-0.1920013427734375
1776815655096595500,5.319595458984375,-0.1625518798828125,1.1691131591796875,-0.12493896484375
1776815655106632400,5.329632568359375,-0.0422210693359375,1.0493316650390625,-0.021728515625
1776815655116669400,5.33966943359375,0.160675048828125,0.950927734375,0.086334228515625
1776815655126706700,5.349706787109375,0.34429931640625,0.8633575439453125,0.1847686767578125
1776815655136743400,5.359743408203125,0.37841796875,0.793701171875,0.284912109375
1776815655146780400,5.369780517578125,0.2696075439453125,0.7308807373046875,0.329193115234375
1776815655156817400,5.3798173828125,0.0221710205078125,0.712921142578125,0.3123779296875
1776815655166854700,5.389854736328125,-0.2568511962890625,0.7570953369140625,0.266357421875
1776815655176891600,5.3998916015625,-0.4170989990234375,0.833526611328125,0.205291748046875
1776815655186928400,5.409928466796875,-0.406768798828125,0.841461181640625,0.161529541015625
1776815655196965400,5.41996533203125,-0.286590576171875,0.8208160400390625,0.1368408203125
1776815655207002600,5.430002685546875,-0.1599884033203125,0.733184814453125,0.1778106689453125
1776815655217039600,5.44003955078125,-0.1037445068359375,0.5837554931640625,0.258941650390625
1776815655227076600,5.45007666015625,-0.0624847412109375,0.4739227294921875,0.2381744384765625
1776815655237113600,5.460113525390625,0.007781982421875,0.3357696533203125,0.1236114501953125
1776815655247150300,5.470150390625,0.05450439453125,0.2270660400390625,0.0324249267578125
1776815655257187600,5.4801875,0.0223846435546875,0.1491546630859375,-0.0207366943359375
1776815655267224600,5.490224609375,-0.1134796142578125,0.0624847412109375,-0.0671234130859375
1776815655277261600,5.500261474609375,-0.3440399169921875,0.06341552734375,-0.0928192138671875
1776815655287298600,5.510298583984375,-0.599456787109375,0.3392791748046875,-0.0291290283203125
1776815655297335600,5.52033544921875,-0.6694488525390625,0.651641845703125,0.0742645263671875
1776815655307372500,5.53037255859375,-0.557403564453125,0.7100830078125,-0.0340118408203125
1776815655317409500,5.540409423828125,-0.6209259033203125,0.72528076171875,-0.24749755859375
1776815655327447300,5.550447265625,-0.6547698974609375,0.8212432861328125,-0.2876434326171875
1776815655337484500,5.560484619140625,-0.6134185791015625,0.8724822998046875,-0.1600494384765625
1776815655347521500,5.570521484375,-0.7491302490234375,0.9112396240234375,0.08392333984375
1776815655357558500,5.58055859375,-0.7877655029296875,0.8786773681640625,0.364532470703125
1776815655367595500,5.590595458984375,-0.7029266357421875,0.8712158203125,0.536224365234375
1776815655377632500,5.600632568359375,-0.7021484375,0.8113861083984375,0.5521087646484375
1776815655387669500,5.61066943359375,-0.83636474609375,0.7718048095703125,0.4668731689453125
1776815655397706500,5.62070654296875,-0.8830108642578125,0.76995849609375,0.4403839111328125
1776815655407743500,5.630743408203125,-0.850341796875,0.775177001953125,0.3941192626953125
1776815655417780700,5.64078076171875,-0.8037109375,0.82373046875,0.3375396728515625
1776815655427817500,5.6508173828125,-0.75653076171875,0.8330535888671875,0.3154754638671875
1776815655437854500,5.6608544921875,-0.699066162109375,0.7588043212890625,0.2502593994140625
1776815655447891500,5.670891357421875,-0.8315582275390625,0.705780029296875,0.255615234375
1776815655457928400,5.680928466796875,-0.7314910888671875,0.57177734375,0.25079345703125
1776815655467965700,5.690965576171875,-0.58966064453125,0.403167724609375,0.23309326171875
1776815655478002400,5.70100244140625,-0.58990478515625,0.334564208984375,0.2432403564453125
1776815655488039400,5.711039306640625,-0.6063232421875,0.3582305908203125,0.2514495849609375
1776815655498076400,5.721076416015625,-0.552978515625,0.445037841796875,0.2135772705078125
1776815655508113700,5.73111376953125,-0.732177734375,0.56884765625,0.181854248046875
1776815655518150700,5.741150634765625,-0.7353363037109375,0.6296234130859375,0.1293182373046875
1776815655528187400,5.7511875,-0.6745452880859375,0.6076812744140625,0.0717926025390625
1776815655538224400,5.761224365234375,-0.7514495849609375,0.538299560546875,0.0576019287109375
1776815655548261600,5.77126171875,-0.6753692626953125,0.472137451171875,0.0564727783203125
1776815655558298600,5.781298583984375,-0.8072052001953125,0.459014892578125,0.1559295654296875
1776815655568335600,5.791335693359375,-0.916656494140625,0.519287109375,0.2209625244140625
1776815655578372400,5.801372314453125,-0.934539794921875,0.5200958251953125,0.2371368408203125
1776815655588409300,5.811409423828125,-1.0367279052734375,0.55291748046875,0.28204345703125
1776815655598446600,5.821446533203125,-0.8986663818359375,0.5284576416015625,0.2891082763671875
1776815655608483600,5.831483642578125,-0.9333648681640625,0.49810791015625,0.3084716796875
1776815655618520600,5.8415205078125,-0.99481201171875,0.4871673583984375,0.3042144775390625
1776815655628557600,5.8515576171875,-0.95538330078125,0.454437255859375,0.3003692626953125
1776815655638594600,5.861594482421875,-1.0409393310546875,0.434478759765625,0.2781219482421875
1776815655648631600,5.871631591796875,-1.0333099365234375,0.3892974853515625,0.26568603515625
1776815655658668500,5.88166845703125,-0.977569580078125,0.3255462646484375,0.2238616943359375
1776815655668705500,5.89170556640625,-0.988525390625,0.28363037109375,0.196685791015625
1776815655678742500,5.901742431640625,-0.9619598388671875,0.2889862060546875,0.19390869140625
1776815655688780500,5.911780517578125,-0.902618408203125,0.313995361328125,0.17071533203125
1776815655698817500,5.921817626953125,-0.914306640625,0.3000640869140625,0.1563720703125
1776815655708854500,5.9318544921875,-1.000091552734375,0.2736663818359375,0.1900177001953125
1776815655718891500,5.9418916015625,-1.0463104248046875,0.1893310546875,0.2409210205078125
1776815655728928500,5.951928466796875,-1.048828125,0.1131591796875,0.25445556640625
1776815655738965500,5.961965576171875,-1.09283447265625,0.1348419189453125,0.3224334716796875
1776815655749002500,5.97200244140625,-1.10906982421875,0.190582275390625,0.406707763671875
1776815655759039700,5.982039794921875,-1.1202850341796875,0.1846466064453125,0.3605804443359375
1776815655769076500,5.992076416015625,-1.1084442138671875,0.1331939697265625,0.3306427001953125
1776815655779113500,6.002113525390625,-1.1099853515625,0.061737060546875,0.379425048828125
1776815655789150500,6.012150390625,-1.141693115234375,-0.0170745849609375,0.3813629150390625
1776815655799187500,6.0221875,-1.142120361328125,0.017547607421875,0.3343658447265625
1776815655809224700,6.032224609375,-1.2178802490234375,0.09124755859375,0.3380279541015625
1776815655819261400,6.042261474609375,-1.3287353515625,0.1717987060546875,0.4852752685546875
1776815655829297200,6.052297119140625,-1.516693115234375,0.1331024169921875,0.554229736328125
1776815655839334000,6.062333984375,-1.724945068359375,0.141387939453125,0.595855712890625
1776815655849371000,6.072370849609375,-1.8153228759765625,0.1585235595703125,0.5975799560546875
1776815655859408000,6.082407958984375,-1.76416015625,0.20233154296875,0.608123779296875
1776815655869445000,6.092445068359375,-1.6382904052734375,0.195281982421875,0.678619384765625
1776815655879482000,6.102482177734375,-1.4301910400390625,0.0751190185546875,0.635406494140625
1776815655889519000,6.11251904296875,-1.2054595947265625,-0.0218353271484375,0.593597412109375
1776815655899555800,6.122555908203125,-0.910980224609375,-0.0880279541015625,0.3522796630859375
1776815655909593000,6.132593017578125,-0.76898193359375,-0.081207275390625,0.2278289794921875
1776815655919630000,6.142630126953125,-0.8225860595703125,0.005157470703125,0.239471435546875
1776815655929667000,6.1526669921875,-0.7139434814453125,0.0912322998046875,0.271942138671875
1776815655939704000,6.1627041015625,-0.8101806640625,0.24908447265625,0.1243133544921875
1776815655949740800,6.17274072265625,-0.891082763671875,0.381103515625,0.0427703857421875
1776815655959779000,6.182779052734375,-0.9009552001953125,0.401214599609375,0.048675537109375
1776815655969816000,6.192816162109375,-1.04693603515625,0.4525299072265625,0.1006317138671875
1776815655979852800,6.202852783203125,-1.1665802001953125,0.6172637939453125,0.161773681640625
1776815655989890000,6.21289013671875,-1.06500244140625,0.64044189453125,0.213470458984375
1776815655999927000,6.222927001953125,-0.86138916015625,0.345611572265625,0.196868896484375
1776815656009964000,6.232964111328125,-0.8175048828125,0.1785888671875,0.2575836181640625
1776815656020001000,6.2430009765625,-0.6181488037109375,0.0826263427734375,0.325103759765625
1776815656030037800,6.253037841796875,-0.3470916748046875,0.049530029296875,0.234100341796875
1776815656040075000,6.263074951171875,-0.0572357177734375,-0.0820159912109375,0.1449127197265625
1776815656050112000,6.273112060546875,-0.1123199462890625,-0.0806121826171875,0.0209197998046875
1776815656060149000,6.28314892578125,-0.275299072265625,-0.114593505859375,-0.0243682861328125
1776815656070186000,6.29318603515625,0.1490936279296875,-0.5410919189453125,0.107666015625
1776815656080223000,6.303222900390625,0.4949493408203125,-0.7605133056640625,0.10955810546875
1776815656090260000,6.313260009765625,0.454345703125,-0.5452117919921875,-0.026947021484375
1776815656100297000,6.323296875,0.307373046875,-0.4114837646484375,-0.108551025390625
1776815656110334000,6.333333984375,0.1537628173828125,-0.379150390625,-0.0483551025390625
1776815656120371200,6.34337109375,0.1889495849609375,-0.36163330078125,0.047088623046875
1776815656130408000,6.353407958984375,0.2396392822265625,-0.3919677734375,0.1534423828125
1776815656140446000,6.363446044921875,0.2124481201171875,-0.4522552490234375,0.23870849609375
1776815656150483000,6.37348291015625,0.142303466796875,-0.47625732421875,0.266693115234375
1776815656160520200,6.383520263671875,0.0520477294921875,-0.4680328369140625,0.2782440185546875
1776815656170557000,6.393556884765625,-0.079498291015625,-0.4564971923828125,0.31988525390625
1776815656180594000,6.403593994140625,-0.1796875,-0.5174407958984375,0.340087890625
1776815656190631000,6.413630859375,-0.311737060546875,-0.484466552734375,0.370849609375
1776815656200669000,6.4236689453125,-0.4438629150390625,-0.3995819091796875,0.460784912109375
1776815656210706000,6.433705810546875,-0.5369720458984375,-0.4054412841796875,0.589813232421875
1776815656220743000,6.443742919921875,-0.6011810302734375,-0.481109619140625,0.75054931640625
1776815656230780000,6.45377978515625,-0.8062896728515625,-0.6868438720703125,0.874786376953125
1776815656240817200,6.463817138671875,-1.1791534423828125,-0.7047576904296875,1.0434112548828125
1776815656250854000,6.47385400390625,-1.5062255859375,-0.993438720703125,1.2284698486328125
1776815656260891000,6.483890869140625,-1.8828125,-2.0806121826171875,1.7722320556640625
1776815656270928000,6.493927978515625,-2.338470458984375,-3.0998992919921875,2.6368408203125
1776815656280965000,6.503965087890625,-2.26348876953125,-2.7249298095703125,3.2874755859375
1776815656291002000,6.514002197265625,-1.7942657470703125,-1.91827392578125,2.707611083984375
1776815656301039000,6.5240390625,-1.398284912109375,-1.390899658203125,1.209381103515625
1776815656311075800,6.534075927734375,-1.0864105224609375,-0.833038330078125,0.1600494384765625
1776815656321113000,6.544113037109375,-0.743743896484375,-0.445343017578125,0.2667083740234375
1776815656331150000,6.554150146484375,-0.333740234375,-0.0508575439453125,0.766815185546875
1776815656341187000,6.56418701171875,-0.4314117431640625,0.085723876953125,1.084197998046875
1776815656351224000,6.57422412109375,-0.6246490478515625,-0.0848388671875,1.09686279296875
1776815656361260800,6.5842607421875,-0.68841552734375,-0.31475830078125,0.8609771728515625
1776815656371299000,6.594299072265625,-0.7426910400390625,-0.44952392578125,0.52606201171875
1776815656381336000,6.604336181640625,-0.89410400390625,-0.226806640625,0.2479400634765625
1776815656391372800,6.614372802734375,-0.9532470703125,0.4261627197265625,0.1014862060546875
1776815656401410000,6.62441015625,-0.722503662109375,0.6013946533203125,0.236083984375
1776815656411447000,6.634447021484375,-0.39630126953125,0.2046051025390625,0.5765228271484375
1776815656421484000,6.644484130859375,-0.3629302978515625,-0.22021484375,0.632965087890625
1776815656431521000,6.65452099609375,-0.613372802734375,-0.4176483154296875,0.5277862548828125
1776815656441557800,6.664557861328125,-0.691070556640625,-0.4964599609375,0.3576202392578125
1776815656451595000,6.674594970703125,-0.72821044921875,-0.5759735107421875,0.3826446533203125
1776815656461632000,6.684632080078125,-0.8301849365234375,-0.5765228271484375,0.6257171630859375
1776815656471669000,6.6946689453125,-0.8836669921875,-0.5435028076171875,0.8769073486328125
1776815656481706000,6.7047060546875,-0.848602294921875,-0.42547607421875,0.9963531494140625
1776815656491743000,6.714742919921875,-0.801544189453125,-0.307037353515625,0.9648284912109375
1776815656501780000,6.724780029296875,-0.754486083984375,-0.262420654296875,0.8881683349609375
1776815656511817000,6.73481689453125,-0.7183685302734375,-0.2604522705078125,0.7506256103515625
1776815656521854000,6.74485400390625,-0.6998748779296875,-0.2818756103515625,0.66650390625
1776815656531892000,6.75489208984375,-0.6784820556640625,-0.318450927734375,0.637451171875
1776815656541929000,6.764928955078125,-0.69927978515625,-0.332061767578125,0.6517333984375
1776815656551966000,6.774966064453125,-0.773101806640625,-0.328887939453125,0.652374267578125
1776815656562003000,6.7850029296875,-0.7887725830078125,-0.3295745849609375,0.66021728515625
1776815656572040200,6.795040283203125,-0.737060546875,-0.355133056640625,0.6890869140625
1776815656582077000,6.805076904296875,-0.6710662841796875,-0.3920440673828125,0.6942596435546875
1776815656592114000,6.815114013671875,-0.626373291015625,-0.46240234375,0.685455322265625
1776815656602151000,6.82515087890625,-0.6069183349609375,-0.5662841796875,0.6364288330078125
1776815656612188200,6.835188232421875,-0.5594940185546875,-0.6000213623046875,0.5942535400390625
1776815656622225200,6.84522509765625,-0.59130859375,-0.569976806640625,0.564208984375
1776815656632262000,6.855261962890625,-0.6489410400390625,-0.5378265380859375,0.537841796875
1776815656642299000,6.865298828125,-0.631683349609375,-0.4163360595703125,0.483856201171875
1776815656652335900,6.8753359375,-0.65142822265625,-0.323150634765625,0.427490234375
1776815656662373000,6.885373046875,-0.62799072265625,-0.3355712890625,0.3742523193359375
1776815656672410000,6.89541015625,-0.53753662109375,-0.4755859375,0.37030029296875
1776815656682446800,6.90544677734375,-0.4797210693359375,-0.6241607666015625,0.4161376953125
1776815656692483800,6.91548388671875,-0.433746337890625,-0.691558837890625,0.4735107421875
1776815656702522000,6.925522216796875,-0.415863037109375,-0.6598968505859375,0.5077667236328125
1776815656712559000,6.93555908203125,-0.40325927734375,-0.6173553466796875,0.4686737060546875
1776815656722595800,6.945595947265625,-0.4113922119140625,-0.5628204345703125,0.396728515625
1776815656732632800,6.9556328125,-0.4592132568359375,-0.5316314697265625,0.3911590576171875
1776815656742670000,6.965670166015625,-0.550079345703125,-0.5553436279296875,0.4417724609375
1776815656752707000,6.97570703125,-0.6460113525390625,-0.5728759765625,0.494903564453125
1776815656762744000,6.985744140625,-0.7295379638671875,-0.5593414306640625,0.53546142578125
1776815656772780800,6.99578076171875,-0.782470703125,-0.5282135009765625,0.5768890380859375
1776815656782818000,7.005818115234375,-0.775604248046875,-0.4984130859375,0.614776611328125
1776815656792855000,7.01585498046875,-0.69293212890625,-0.488372802734375,0.6628570556640625
1776815656802892000,7.02589208984375,-0.6300811767578125,-0.48065185546875,0.725555419921875
1776815656812929000,7.035928955078125,-0.63287353515625,-0.4672088623046875,0.753326416015625
1776815656822965500,7.045965576171875,-0.6718902587890625,-0.4361419677734375,0.7508697509765625
1776815656833002200,7.056002197265625,-0.7302703857421875,-0.400390625,0.7261962890625
1776815656843039200,7.066039306640625,-0.79473876953125,-0.385986328125,0.686004638671875
1776815656853076500,7.076076416015625,-0.8213958740234375,-0.4103851318359375,0.631988525390625
1776815656863113500,7.086113525390625,-0.7981109619140625,-0.428802490234375,0.567138671875
1776815656873150500,7.096150390625,-0.7400665283203125,-0.43841552734375,0.53619384765625
1776815656883188200,7.106188232421875,-0.6993560791015625,-0.472381591796875,0.5552215576171875
1776815656893225500,7.1162255859375,-0.6806488037109375,-0.4815521240234375,0.6060028076171875
1776815656903262500,7.126262451171875,-0.67742919921875,-0.477630615234375,0.6471099853515625
1776815656913299200,7.13629931640625,-0.7095184326171875,-0.4456024169921875,0.6557769775390625
1776815656923336200,7.146336181640625,-0.7005157470703125,-0.4039154052734375,0.6254119873046875
1776815656933373400,7.15637353515625,-0.68743896484375,-0.3750762939453125,0.589935302734375
1776815656943410400,7.166410400390625,-0.6930694580078125,-0.38116455078125,0.5778961181640625
1776815656953447400,7.176447509765625,-0.7200775146484375,-0.3843231201171875,0.5778045654296875
1776815656963484200,7.186484130859375,-0.750274658203125,-0.3942718505859375,0.5825653076171875
1776815656973521400,7.196521484375,-0.74407958984375,-0.4001007080078125,0.58538818359375
1776815656983558400,7.206558349609375,-0.700347900390625,-0.4008026123046875,0.5875396728515625
1776815656993595400,7.216595458984375,-0.625274658203125,-0.390289306640625,0.6006927490234375
1776815657003632400,7.22663232421875,-0.5985260009765625,-0.3988189697265625,0.58941650390625
1776815657013669400,7.23666943359375,-0.5882568359375,-0.4164276123046875,0.5575103759765625
1776815657023706400,7.246706298828125,-0.5943145751953125,-0.450836181640625,0.548065185546875
1776815657033743400,7.256743408203125,-0.571197509765625,-0.489471435546875,0.5671539306640625
1776815657043780400,7.2667802734375,-0.5401763916015625,-0.5189666748046875,0.6096038818359375
1776815657053817300,7.2768173828125,-0.54681396484375,-0.52801513671875,0.662200927734375
1776815657063854300,7.286854248046875,-0.60150146484375,-0.50006103515625,0.6601715087890625
1776815657073892400,7.296892333984375,-0.7068634033203125,-0.4700469970703125,0.6261444091796875
1776815657083929300,7.306929443359375,-0.7448272705078125,-0.453155517578125,0.6007232666015625
1776815657093966600,7.316966552734375,-0.692718505859375,-0.4637603759765625,0.5771942138671875
1776815657104003300,7.32700341796875,-0.6461029052734375,-0.4781341552734375,0.6090087890625
1776815657114040300,7.337040283203125,-0.6043243408203125,-0.4572601318359375,0.634002685546875
1776815657124077300,7.347077392578125,-0.6062164306640625,-0.427642822265625,0.5679168701171875
1776815657134114300,7.3571142578125,-0.6095733642578125,-0.40570068359375,0.50177001953125
1776815657144151600,7.367151611328125,-0.633270263671875,-0.4049072265625,0.5200042724609375
1776815657154188300,7.377188232421875,-0.6762237548828125,-0.4298858642578125,0.56396484375
1776815657164225300,7.387225341796875,-0.7253875732421875,-0.4525909423828125,0.58941650390625
1776815657174262300,7.39726220703125,-0.6649627685546875,-0.470916748046875,0.6027069091796875
1776815657184299500,7.407299560546875,-0.626129150390625,-0.465850830078125,0.612457275390625
1776815657194336500,7.41733642578125,-0.639007568359375,-0.4893951416015625,0.5756378173828125
1776815657204373200,7.427373291015625,-0.6226806640625,-0.5064544677734375,0.589111328125
1776815657214410200,7.43741015625,-0.6250762939453125,-0.4850006103515625,0.689666748046875
1776815657224447200,7.447447265625,-0.6641387939453125,-0.4639129638671875,0.781341552734375
1776815657234484500,7.457484375,-0.703887939453125,-0.4528045654296875,0.826019287109375
1776815657244521500,7.467521484375,-0.7010498046875,-0.4559478759765625,0.8104400634765625
1776815657254558200,7.47755810546875,-0.6893463134765625,-0.497772216796875,0.7303009033203125
1776815657264596500,7.487596435546875,-0.6336517333984375,-0.5393218994140625,0.7036590576171875
1776815657274633500,7.497633544921875,-0.592376708984375,-0.5447540283203125,0.7004241943359375
1776815657284670500,7.50767041015625,-0.5995330810546875,-0.555145263671875,0.702117919921875
1776815657294707200,7.517707275390625,-0.604766845703125,-0.5664215087890625,0.755645751953125
1776815657304744400,7.527744384765625,-0.6075592041015625,-0.566314697265625,0.83416748046875
1776815657314781400,7.537781494140625,-0.570709228515625,-0.5450897216796875,0.907470703125
1776815657324818400,7.547818359375,-0.5204925537109375,-0.5141448974609375,0.9122772216796875
1776815657334855400,7.55785546875,-0.5386199951171875,-0.5058441162109375,0.860198974609375
1776815657344892200,7.56789208984375,-0.556488037109375,-0.5037689208984375,0.8188629150390625
1776815657354929400,7.577929443359375,-0.5862884521484375,-0.5118560791015625,0.77984619140625
1776815657364966400,7.58796630859375,-0.6219482421875,-0.5502777099609375,0.7753448486328125
1776815657375003400,7.59800341796875,-0.630035400390625,-0.587493896484375,0.784942626953125
1776815657385040400,7.608040283203125,-0.612579345703125,-0.617767333984375,0.7779693603515625
1776815657395077400,7.618077392578125,-0.583709716796875,-0.650390625,0.7749481201171875
1776815657405114400,7.6281142578125,-0.5294342041015625,-0.674896240234375,0.7570953369140625
1776815657415151400,7.6381513671875,-0.4611053466796875,-0.66400146484375,0.7117462158203125
1776815657425188400,7.648188232421875,-0.4589691162109375,-0.6313629150390625,0.633026123046875
1776815657435225300,7.658225341796875,-0.4584197998046875,-0.6144561767578125,0.525787353515625
1776815657445263400,7.668263427734375,-0.48455810546875,-0.6163482666015625,0.43597412109375
1776815657455300400,7.67830029296875,-0.52825927734375,-0.6104278564453125,0.3675537109375
1776815657465337300,7.68833740234375,-0.5068206787109375,-0.6111297607421875,0.3170928955078125
1776815657475374300,7.698374267578125,-0.4506378173828125,-0.6172637939453125,0.29656982421875
1776815657485411300,7.708411376953125,-0.4269256591796875,-0.5986328125,0.33502197265625
1776815657495448300,7.7184482421875,-0.3970794677734375,-0.594451904296875,0.355194091796875
1776815657505485300,7.7284853515625,-0.412445068359375,-0.597930908203125,0.3714141845703125
1776815657515522600,7.7385224609375,-0.470123291015625,-0.591400146484375,0.40460205078125
1776815657525559600,7.7485595703125,-0.5173492431640625,-0.5764312744140625,0.4474334716796875
1776815657535596300,7.75859619140625,-0.529937744140625,-0.53985595703125,0.48358154296875
1776815657545633300,7.76863330078125,-0.5308990478515625,-0.505615234375,0.4945831298828125
1776815657555670300,7.778670166015625,-0.516082763671875,-0.511810302734375,0.4611968994140625
1776815657565707500,7.78870751953125,-0.4532623291015625,-0.576629638671875,0.39703369140625
1776815657575744500,7.79874462890625,-0.3628997802734375,-0.6665802001953125,0.3354949951171875
1776815657585781200,7.80878125,-0.2879791259765625,-0.725311279296875,0.2857208251953125
1776815657595818200,7.818818359375,-0.25921630859375,-0.7402191162109375,0.2545623779296875
1776815657605855500,7.82885546875,-0.310333251953125,-0.7375640869140625,0.2413177490234375
1776815657615892500,7.838892578125,-0.39251708984375,-0.7281036376953125,0.250244140625
1776815657625929500,7.848929443359375,-0.443389892578125,-0.7317962646484375,0.2767486572265625
1776815657635967200,7.85896728515625,-0.4550323486328125,-0.7594451904296875,0.318878173828125
1776815657646004500,7.86900439453125,-0.441070556640625,-0.7895660400390625,0.3683319091796875
1776815657656041500,7.87904150390625,-0.403289794921875,-0.8624420166015625,0.41552734375
1776815657666078200,7.889078125,-0.38470458984375,-0.8751068115234375,0.4234161376953125
1776815657676115200,7.899115234375,-0.4084625244140625,-0.8188323974609375,0.3969268798828125
1776815657686152400,7.90915234375,-0.442474365234375,-0.7932281494140625,0.3674774169921875
1776815657696189400,7.919189453125,-0.4910430908203125,-0.7873077392578125,0.3618011474609375
1776815657706226400,7.929226318359375,-0.5433807373046875,-0.7966156005859375,0.402587890625
1776815657716263200,7.93926318359375,-0.5872802734375,-0.795166015625,0.47674560546875
1776815657726300400,7.949300537109375,-0.6479644775390625,-0.7643280029296875,0.5553131103515625
1776815657736337400,7.95933740234375,-0.7046966552734375,-0.6934051513671875,0.6173095703125
1776815657746374400,7.96937451171875,-0.733184814453125,-0.629425048828125,0.650238037109375
1776815657756411400,7.979411376953125,-0.7405242919921875,-0.5726470947265625,0.6434478759765625
1776815657766448400,7.989448486328125,-0.73907470703125,-0.5498809814453125,0.6115264892578125
1776815657776485400,7.9994853515625,-0.7347412109375,-0.5673675537109375,0.5764923095703125
1776815657786522400,8.0095224609375,-0.726959228515625,-0.5999298095703125,0.5542755126953125
1776815657796559400,8.019559326171875,-0.7117919921875,-0.622222900390625,0.546844482421875
1776815657806596400,8.029596435546875,-0.6884613037109375,-0.6364288330078125,0.55377197265625
1776815657816633300,8.03963330078125,-0.6407012939453125,-0.632904052734375,0.562774658203125
1776815657826671600,8.049671630859375,-0.5856475830078125,-0.626129150390625,0.548187255859375
1776815657836708600,8.05970849609375,-0.547149658203125,-0.62664794921875,0.5092620849609375
1776815657846745900,8.069745849609374,-0.5399932861328125,-0.620880126953125,0.4572601318359375
1776815657856782600,8.079782470703124,-0.551605224609375,-0.60992431640625,0.4131927490234375
1776815657866819600,8.089819580078125,-0.567657470703125,-0.5991363525390625,0.3892669677734375
1776815657876856600,8.099856689453125,-0.5819091796875,-0.5995941162109375,0.387481689453125
1776815657886893600,8.1098935546875,-0.600341796875,-0.603729248046875,0.399505615234375
1776815657896930800,8.119930908203125,-0.6239471435546875,-0.611541748046875,0.41180419921875
1776815657906967600,8.129967529296875,-0.6415557861328125,-0.6220703125,0.41943359375
1776815657917004500,8.140004638671876,-0.65106201171875,-0.6293182373046875,0.4162139892578125
1776815657927041500,8.15004150390625,-0.660919189453125,-0.628936767578125,0.4059600830078125
1776815657937078800,8.160078857421874,-0.6702728271484375,-0.62884521484375,0.39599609375
1776815657947115800,8.17011572265625,-0.6683349609375,-0.6298828125,0.390350341796875
1776815657957152500,8.180152587890625,-0.6589813232421875,-0.6376953125,0.389862060546875
1776815657967189500,8.190189453125,-0.6457672119140625,-0.637908935546875,0.3912353515625
1776815657977226800,8.200226806640625,-0.636932373046875,-0.637908935546875,0.395050048828125
1776815657987263700,8.210263671875,-0.638824462890625,-0.63427734375,0.3891754150390625
1776815657997300700,8.22030078125,-0.654296875,-0.6295928955078125,0.3884124755859375
1776815658007338500,8.23033837890625,-0.6700286865234375,-0.6199188232421875,0.393585205078125
1776815658017375700,8.240375732421874,-0.68743896484375,-0.616912841796875,0.39715576171875
1776815658027412700,8.250412841796875,-0.6949310302734375,-0.619903564453125,0.4038543701171875
1776815658037449500,8.260449462890625,-0.694091796875,-0.62127685546875,0.4121551513671875
1776815658047486500,8.270486572265625,-0.68585205078125,-0.618499755859375,0.41546630859375
1776815658057523700,8.280523681640625,-0.67724609375,-0.6154022216796875,0.4147796630859375
1776815658067560700,8.290560791015626,-0.670379638671875,-0.610992431640625,0.4113616943359375
1776815658077597700,8.30059765625,-0.660552978515625,-0.6038055419921875,0.40753173828125
1776815658087634700,8.310634765625,-0.65228271484375,-0.599090576171875,0.4046630859375
1776815658097671400,8.32067138671875,-0.647247314453125,-0.59722900390625,0.4048614501953125
1776815658107708700,8.330708740234375,-0.641510009765625,-0.59246826171875,0.412353515625
1776815658117745700,8.34074560546875,-0.6368408203125,-0.5932769775390625,0.4219970703125
1776815658127782700,8.35078271484375,-0.6380157470703125,-0.599365234375,0.427276611328125
1776815658137819600,8.360819580078125,-0.638031005859375,-0.60260009765625,0.4313812255859375
1776815658147856600,8.370856689453126,-0.637420654296875,-0.6042938232421875,0.43310546875
1776815658157893600,8.3808935546875,-0.64263916015625,-0.6067962646484375,0.432525634765625
1776815658167930600,8.3909306640625,-0.6482086181640625,-0.6061859130859375,0.4325408935546875
1776815658177967600,8.400967529296874,-0.6558380126953125,-0.60302734375,0.4336395263671875
1776815658188005600,8.411005615234375,-0.663482666015625,-0.601226806640625,0.4335174560546875
1776815658198042600,8.421042724609375,-0.6642303466796875,-0.6038665771484375,0.432098388671875
1776815658208079600,8.43107958984375,-0.661590576171875,-0.6077728271484375,0.430938720703125
1776815658218116600,8.44111669921875,-0.6589813232421875,-0.610015869140625,0.427093505859375
1776815658228153600,8.451153564453126,-0.6595001220703125,-0.6080780029296875,0.4199371337890625
1776815658238190600,8.461190673828124,-0.6598663330078125,-0.608001708984375,0.4131317138671875
1776815658248227600,8.4712275390625,-0.6611175537109375,-0.6089324951171875,0.4088897705078125
1776815658258264600,8.4812646484375,-0.65814208984375,-0.6125335693359375,0.409820556640625
1776815658268301800,8.4913017578125,-0.649932861328125,-0.618255615234375,0.412445068359375
1776815658278338600,8.501338623046875,-0.639007568359375,-0.62255859375,0.412689208984375
1776815658288375600,8.51137548828125,-0.6295013427734375,-0.626007080078125,0.4113922119140625
1776815658298412500,8.52141259765625,-0.623443603515625,-0.6298370361328125,0.41015625
1776815658308449500,8.531449462890626,-0.6172332763671875,-0.6306915283203125,0.4093475341796875
1776815658318486800,8.54148681640625,-0.615509033203125,-0.632232666015625,0.40704345703125
1776815658328523500,8.5515234375,-0.619384765625,-0.636077880859375,0.40545654296875
1776815658338560500,8.561560546875,-0.6220245361328125,-0.6409759521484375,0.4100799560546875
1776815658348597500,8.571597412109375,-0.626251220703125,-0.644683837890625,0.41827392578125
1776815658358634800,8.581634765625,-0.6291656494140625,-0.6425628662109375,0.427947998046875
1776815658368671700,8.591671630859375,-0.6328125,-0.6356353759765625,0.4396209716796875
1776815658378709500,8.60170947265625,-0.6353912353515625,-0.6335906982421875,0.4481201171875
1776815658388746500,8.61174658203125,-0.6337890625,-0.63482666015625,0.4565277099609375
1776815658398783700,8.62178369140625,-0.6280670166015625,-0.6377716064453125,0.463836669921875
1776815658408820700,8.63182080078125,-0.620849609375,-0.6390380859375,0.4677276611328125
1776815658418857500,8.641857421875,-0.616302490234375,-0.639495849609375,0.4673004150390625
1776815658428894500,8.65189453125,-0.6186981201171875,-0.64044189453125,0.4671478271484375
1776815658438931700,8.661931640625,-0.622100830078125,-0.6378021240234375,0.465850830078125
1776815658448968700,8.67196875,-0.624603271484375,-0.63372802734375,0.46759033203125
1776815658459005700,8.682005615234376,-0.6244659423828125,-0.62799072265625,0.47503662109375
1776815658469042400,8.69204248046875,-0.6232757568359375,-0.6231689453125,0.4814453125
1776815658479079700,8.70207958984375,-0.62091064453125,-0.6233673095703125,0.486175537109375
1776815658489116700,8.71211669921875,-0.6169586181640625,-0.628570556640625,0.4893035888671875
1776815658499153700,8.722153564453125,-0.6072845458984375,-0.63763427734375,0.4885101318359375
1776815658509190700,8.732190673828125,-0.60009765625,-0.64288330078125,0.4801177978515625
1776815658519227400,8.742227294921875,-0.5993499755859375,-0.645721435546875,0.4720001220703125
1776815658529264600,8.7522646484375,-0.60443115234375,-0.6472015380859375,0.4650115966796875
1776815658539301600,8.762301513671876,-0.607452392578125,-0.6466064453125,0.4634857177734375
1776815658549339600,8.772339599609374,-0.6070404052734375,-0.6436920166015625,0.4663543701171875
1776815658559376600,8.782376708984375,-0.6042022705078125,-0.640869140625,0.470947265625
1776815658569413600,8.79241357421875,-0.601806640625,-0.639862060546875,0.4766845703125
1776815658579450600,8.80245068359375,-0.5997314453125,-0.6392364501953125,0.481597900390625
1776815658589487600,8.812487548828125,-0.596923828125,-0.6389617919921875,0.484100341796875
1776815658599524600,8.822524658203125,-0.5948028564453125,-0.637542724609375,0.4826812744140625
1776815658609561600,8.8325615234375,-0.5944976806640625,-0.639495849609375,0.47918701171875
1776815658619598600,8.8425986328125,-0.5947265625,-0.643585205078125,0.474334716796875
1776815658629635600,8.852635498046874,-0.5941009521484375,-0.646728515625,0.4709320068359375
1776815658639672600,8.862672607421874,-0.5930938720703125,-0.6492919921875,0.468719482421875
1776815658649709800,8.872709716796875,-0.592742919921875,-0.6503143310546875,0.4691619873046875
1776815658659746600,8.88274658203125,-0.595489501953125,-0.6516265869140625,0.4739837646484375
1776815658669783600,8.892783447265625,-0.5964202880859375,-0.6529083251953125,0.480621337890625
1776815658679820500,8.902820556640625,-0.5955352783203125,-0.6533203125,0.4875946044921875
1776815658689857800,8.91285791015625,-0.591339111328125,-0.65216064453125,0.4931488037109375
1776815658699894800,8.922894775390626,-0.592041015625,-0.6512298583984375,0.49566650390625
1776815658709931500,8.932931640625,-0.591766357421875,-0.64776611328125,0.4976348876953125
1776815658719968500,8.942968505859374,-0.588958740234375,-0.645538330078125,0.498443603515625
1776815658730006800,8.9530068359375,-0.5873565673828125,-0.6455841064453125,0.4976348876953125
1776815658740043500,8.96304345703125,-0.5849761962890625,-0.6460418701171875,0.495147705078125
1776815658750080500,8.97308056640625,-0.5839691162109375,-0.6467742919921875,0.4937286376953125
1776815658760117500,8.983117431640625,-0.586517333984375,-0.646728515625,0.49285888671875
1776815658770154800,8.99315478515625,-0.588409423828125,-0.6477508544921875,0.492156982421875
1776815658780191700,9.003191650390624,-0.5912933349609375,-0.6491241455078125,0.492584228515625
1776815658790228500,9.013228515625,-0.5932464599609375,-0.6491851806640625,0.492156982421875
1776815658800265500,9.023265380859375,-0.5920867919921875,-0.646820068359375,0.4901580810546875
1776815658810302700,9.033302734375,-0.592315673828125,-0.643035888671875,0.486724853515625
1776815658820339700,9.043339599609375,-0.593017578125,-0.64019775390625,0.485565185546875
1776815658830376400,9.05337646484375,-0.593658447265625,-0.638916015625,0.4862060546875
1776815658840413700,9.06341357421875,-0.59173583984375,-0.640289306640625,0.48480224609375
1776815658850450400,9.073450439453126,-0.589447021484375,-0.6410675048828125,0.4846343994140625
1776815658860487400,9.0834873046875,-0.587158203125,-0.6431427001953125,0.4834747314453125
1776815658870524400,9.0935244140625,-0.589569091796875,-0.645233154296875,0.4836578369140625
1776815658880561700,9.103561767578125,-0.594146728515625,-0.6457061767578125,0.4862518310546875
1776815658890598700,9.1135986328125,-0.5986480712890625,-0.643585205078125,0.4881744384765625
1776815658900636400,9.123636474609375,-0.5985565185546875,-0.6403961181640625,0.490234375
1776815658910673400,9.13367333984375,-0.5947723388671875,-0.63873291015625,0.49072265625
1776815658920710700,9.143710693359376,-0.592620849609375,-0.6366424560546875,0.489044189453125
1776815658930747400,9.153747314453126,-0.5927581787109375,-0.6339874267578125,0.4882354736328125
1776815658940784400,9.163784423828124,-0.5896148681640625,-0.6340484619140625,0.4878997802734375
1776815658950821400,9.1738212890625,-0.5912017822265625,-0.6392669677734375,0.4845733642578125
1776815658960858600,9.183858642578125,-0.5928192138671875,-0.6445465087890625,0.48260498046875
1776815658970895600,9.1938955078125,-0.59423828125,-0.647308349609375,0.4822235107421875
1776815658980932400,9.203932373046875,-0.5939483642578125,-0.648162841796875,0.483245849609375
1776815658990969300,9.21396923828125,-0.5949554443359375,-0.6493377685546875,0.48394775390625
1776815659001006600,9.224006591796876,-0.5961456298828125,-0.6462554931640625,0.483551025390625
1776815659011043600,9.234043701171874,-0.594512939453125,-0.6418609619140625,0.4844207763671875
1776815659021080600,9.24408056640625,-0.592376708984375,-0.6382904052734375,0.4836883544921875
1776815659031117300,9.254117431640625,-0.5910797119140625,-0.6378631591796875,0.4826507568359375
1776815659041154300,9.264154296875,-0.591583251953125,-0.6378173828125,0.4821014404296875
1776815659051191600,9.274191650390625,-0.5919952392578125,-0.6380615234375,0.4808502197265625
1776815659061229600,9.2842294921875,-0.5916290283203125,-0.63958740234375,0.479949951171875
1776815659071266300,9.294266357421876,-0.592132568359375,-0.6412353515625,0.4794769287109375
1776815659081303600,9.304303466796876,-0.5928192138671875,-0.6433868408203125,0.477264404296875
1776815659091340500,9.314340576171874,-0.592376708984375,-0.6439208984375,0.4766082763671875
1776815659101377500,9.32437744140625,-0.5926361083984375,-0.6435699462890625,0.4764862060546875
1776815659111414500,9.33441455078125,-0.5926361083984375,-0.6433868408203125,0.4773712158203125
1776815659121451300,9.344451171875,-0.592926025390625,-0.6442108154296875,0.47747802734375
1776815659131488500,9.354488525390625,-0.5952911376953125,-0.6426849365234375,0.4779205322265625
1776815659141525500,9.364525390625,-0.5968170166015625,-0.6408538818359375,0.4775543212890625
1776815659151562500,9.3745625,-0.596710205078125,-0.6413726806640625,0.47845458984375
1776815659161599500,9.384599609375,-0.5968780517578125,-0.6406097412109375,0.478485107421875
1776815659171636500,9.394636474609374,-0.5963897705078125,-0.6393585205078125,0.4787750244140625
1776815659181673500,9.404673583984374,-0.5984649658203125,-0.6390380859375,0.4796600341796875
1776815659191710500,9.41471044921875,-0.59832763671875,-0.640838623046875,0.480712890625
1776815659201747500,9.42474755859375,-0.597747802734375,-0.6414642333984375,0.481475830078125
1776815659211784700,9.43478466796875,-0.5976104736328125,-0.6414337158203125,0.481231689453125
1776815659221821400,9.444821533203125,-0.598785400390625,-0.641326904296875,0.48211669921875
1776815659231859500,9.454859375,-0.5981597900390625,-0.6406707763671875,0.4824676513671875
1776815659241896400,9.464896484375,-0.5990753173828125,-0.6397705078125,0.4810638427734375
1776815659251933700,9.47493359375,-0.59686279296875,-0.639190673828125,0.4798736572265625
1776815659261970400,9.484970458984375,-0.5978851318359375,-0.6381378173828125,0.4784393310546875
1776815659272007400,9.49500732421875,-0.5982208251953125,-0.63836669921875,0.47833251953125
1776815659282044400,9.50504443359375,-0.59912109375,-0.6382293701171875,0.477874755859375
1776815659292081700,9.51508154296875,-0.5991668701171875,-0.6370697021484375,0.477142333984375
1776815659302118700,9.52511865234375,-0.6000518798828125,-0.6353759765625,0.4752655029296875
1776815659312155400,9.5351552734375,-0.6017913818359375,-0.6338043212890625,0.4727020263671875
1776815659322192400,9.5451923828125,-0.603302001953125,-0.633209228515625,0.47149658203125
1776815659332229400,9.5552294921875,-0.6052093505859375,-0.6328582763671875,0.4696807861328125
1776815659342266600,9.5652666015625,-0.6061859130859375,-0.6315460205078125,0.4666595458984375
1776815659352303600,9.5753037109375,-0.608734130859375,-0.6306304931640625,0.464508056640625
1776815659362340400,9.58534033203125,-0.610076904296875,-0.630340576171875,0.4642181396484375
1776815659372377300,9.59537744140625,-0.609710693359375,-0.6302490234375,0.463653564453125
1776815659382414600,9.60541455078125,-0.60882568359375,-0.63287353515625,0.464080810546875
1776815659392451600,9.61545166015625,-0.6065521240234375,-0.6343994140625,0.463897705078125
1776815659402489300,9.6254892578125,-0.6057891845703125,-0.6345977783203125,0.46319580078125
1776815659412526600,9.635526611328125,-0.6055145263671875,-0.6358184814453125,0.4608612060546875
1776815659422563600,9.6455634765625,-0.6077880859375,-0.6368255615234375,0.4588165283203125
1776815659432600600,9.6556005859375,-0.6096954345703125,-0.6358795166015625,0.4580230712890625
1776815659442637600,9.665637451171875,-0.6111297607421875,-0.6337738037109375,0.459381103515625
1776815659452674300,9.67567431640625,-0.6140594482421875,-0.63372802734375,0.4615478515625
1776815659462711600,9.685711669921876,-0.614471435546875,-0.6341094970703125,0.4652099609375
1776815659472748500,9.69574853515625,-0.614959716796875,-0.6318817138671875,0.468353271484375
1776815659482785500,9.70578564453125,-0.6121826171875,-0.63201904296875,0.4697265625
1776815659492822500,9.715822509765625,-0.6099395751953125,-0.6337890625,0.4685821533203125
1776815659502859500,9.725859619140625,-0.609039306640625,-0.6356048583984375,0.4669342041015625
1776815659512896500,9.735896484375,-0.608001708984375,-0.63677978515625,0.4675750732421875
1776815659522933500,9.74593359375,-0.6079254150390625,-0.6373748779296875,0.4674224853515625
1776815659532970500,9.755970458984375,-0.6073455810546875,-0.6383819580078125,0.4659576416015625
1776815659543007500,9.766007568359376,-0.606475830078125,-0.637542724609375,0.4650726318359375
1776815659553044500,9.77604443359375,-0.6025543212890625,-0.63629150390625,0.46380615234375
1776815659563081500,9.78608154296875,-0.59906005859375,-0.6353759765625,0.462860107421875
1776815659573119500,9.796119384765625,-0.599884033203125,-0.6358795166015625,0.4615936279296875
1776815659583156500,9.806156494140625,-0.6045684814453125,-0.6356048583984375,0.4617919921875
1776815659593193500,9.816193359375,-0.6096038818359375,-0.6371002197265625,0.4622802734375
1776815659603230500,9.82623046875,-0.611968994140625,-0.635986328125,0.4654541015625
1776815659613267500,9.836267333984376,-0.610748291015625,-0.63616943359375,0.467498779296875
1776815659623304700,9.8463046875,-0.607940673828125,-0.638671875,0.4691009521484375
1776815659633341400,9.856341552734374,-0.6035308837890625,-0.63958740234375,0.469329833984375
1776815659643378400,9.86637841796875,-0.6005096435546875,-0.640625,0.46881103515625
1776815659653415400,9.87641552734375,-0.599578857421875,-0.64019775390625,0.46722412109375
1776815659663452400,9.886452392578125,-0.602569580078125,-0.6389312744140625,0.465606689453125
1776815659673489700,9.89648974609375,-0.605194091796875,-0.63775634765625,0.465301513671875
1776815659683526400,9.9065263671875,-0.60565185546875,-0.6375732421875,0.467437744140625
1776815659693563400,9.9165634765625,-0.60626220703125,-0.6387481689453125,0.4690399169921875
1776815659703600400,9.926600341796876,-0.6076812744140625,-0.639007568359375,0.470977783203125
1776815659713637600,9.9366376953125,-0.6068267822265625,-0.6400146484375,0.47308349609375
1776815659723674600,9.946674560546874,-0.6051025390625,-0.640869140625,0.4748382568359375
1776815659733712400,9.95671240234375,-0.603851318359375,-0.6391143798828125,0.475799560546875
1776815659743749400,9.966749267578125,-0.6019439697265625,-0.63763427734375,0.4760284423828125
1776815659753786600,9.97678662109375,-0.6005706787109375,-0.6367950439453125,0.4766693115234375
1776815659763823600,9.98682373046875,-0.601348876953125,-0.6364288330078125,0.477081298828125
1776815659773860400,9.9968603515625,-0.6041259765625,-0.6357421875,0.47650146484375
1776815659783897300,10.0068974609375,-0.604766845703125,-0.634246826171875,0.4752197265625
1776815659793934600,10.0169345703125,-0.6050262451171875,-0.6347808837890625,0.4760589599609375
1776815659803971600,10.0269716796875,-0.605682373046875,-0.636993408203125,0.4762115478515625
1776815659814007600,10.037007568359375,-0.60504150390625,-0.6385040283203125,0.4762725830078125
1776815659824044500,10.04704443359375,-0.6039276123046875,-0.639434814453125,0.4761810302734375
1776815659834081800,10.057081787109375,-0.60430908203125,-0.6390380859375,0.4742889404296875
1776815659844120000,10.0671201171875,-0.604888916015625,-0.6396942138671875,0.4727630615234375
1776815659854157000,10.077156982421876,-0.60467529296875,-0.6407928466796875,0.470672607421875
1776815659864193800,10.08719384765625,-0.6065216064453125,-0.64019775390625,0.4700469970703125
1776815659874231000,10.09723095703125,-0.60546875,-0.63958740234375,0.4695281982421875
1776815659884268000,10.10726806640625,-0.603485107421875,-0.64019775390625,0.4677734375
1776815659894305000,10.117304931640625,-0.603363037109375,-0.6388092041015625,0.4653472900390625
1776815659904342000,10.127342041015625,-0.603607177734375,-0.638397216796875,0.4622802734375
1776815659914379000,10.13737890625,-0.6041259765625,-0.6384124755859375,0.461090087890625
1776815659924416000,10.147416015625,-0.6048126220703125,-0.6378021240234375,0.4621734619140625
1776815659934453000,10.157452880859376,-0.6071929931640625,-0.637542724609375,0.4640655517578125
1776815659944490000,10.167489990234374,-0.60662841796875,-0.6370391845703125,0.46551513671875
1776815659954527000,10.17752685546875,-0.6064300537109375,-0.6367645263671875,0.4676666259765625
1776815659964564000,10.18756396484375,-0.6063079833984375,-0.6360931396484375,0.46783447265625
1776815659974601000,10.19760107421875,-0.60772705078125,-0.634765625,0.46710205078125
1776815659984638000,10.207637939453125,-0.6099395751953125,-0.633697509765625,0.4658660888671875
1776815659994675000,10.217675048828125,-0.612213134765625,-0.6329803466796875,0.4655609130859375
1776815660004712200,10.227712158203126,-0.611724853515625,-0.6338348388671875,0.4682464599609375
1776815660014750000,10.23775,-0.6121368408203125,-0.6351165771484375,0.4693450927734375
1776815660024787000,10.247786865234374,-0.6107940673828125,-0.634246826171875,0.4684906005859375
1776815660034824000,10.257823974609375,-0.6064300537109375,-0.634735107421875,0.46844482421875
1776815660044861200,10.267861083984375,-0.6046600341796875,-0.6360321044921875,0.4689178466796875
1776815660054898000,10.27789794921875,-0.606475830078125,-0.6379852294921875,0.46820068359375
1776815660064935000,10.287934814453125,-0.60650634765625,-0.6408538818359375,0.46923828125
1776815660074972000,10.297971923828126,-0.60369873046875,-0.6399993896484375,0.468658447265625
1776815660085009200,10.308009033203126,-0.605255126953125,-0.639678955078125,0.46826171875
1776815660095046100,10.318046142578124,-0.605926513671875,-0.637176513671875,0.4696197509765625
1776815660105083000,10.328082763671874,-0.6038055419921875,-0.635467529296875,0.469451904296875
1776815660115119900,10.338119873046875,-0.6027374267578125,-0.6359405517578125,0.469451904296875
1776815660125156900,10.348156982421875,-0.6025543212890625,-0.6357879638671875,0.468475341796875
1776815660135194000,10.358194091796875,-0.6041717529296875,-0.63671875,0.46673583984375
1776815660145231000,10.368231201171875,-0.604583740234375,-0.63787841796875,0.4676055908203125
1776815660155267800,10.378267822265625,-0.6048431396484375,-0.6380157470703125,0.4686737060546875
1776815660165304800,10.388304931640626,-0.604949951171875,-0.6395111083984375,0.4703216552734375
1776815660175343000,10.398343017578124,-0.606048583984375,-0.639801025390625,0.47137451171875
1776815660185380000,10.408380126953125,-0.6024322509765625,-0.63983154296875,0.4729156494140625
1776815660195416800,10.418416748046875,-0.59918212890625,-0.6401824951171875,0.47509765625
1776815660205453800,10.428453857421875,-0.596771240234375,-0.6392059326171875,0.474517822265625
1776815660215491000,10.438490966796875,-0.597076416015625,-0.6392822265625,0.47198486328125
1776815660225528000,10.448528076171876,-0.598785400390625,-0.6406707763671875,0.4710845947265625
1776815660235565000,10.45856494140625,-0.6014251708984375,-0.6403656005859375,0.470611572265625
1776815660245601800,10.468601806640624,-0.605194091796875,-0.6409912109375,0.472412109375
1776815660255639000,10.47863916015625,-0.6065216064453125,-0.6389312744140625,0.475677490234375
1776815660265676000,10.488676025390625,-0.606231689453125,-0.6380615234375,0.478271484375
1776815660275713000,10.498713134765625,-0.605560302734375,-0.6365814208984375,0.4784698486328125
1776815660285750000,10.50875,-0.6020050048828125,-0.6351165771484375,0.4785003662109375
1776815660295787000,10.518787109375,-0.601715087890625,-0.6350860595703125,0.4771881103515625
1776815660305824000,10.528823974609375,-0.6030731201171875,-0.6347198486328125,0.4742279052734375
1776815660315861000,10.538861083984376,-0.602142333984375,-0.6367034912109375,0.4722137451171875
1776815660325898000,10.54889794921875,-0.6039276123046875,-0.6369171142578125,0.471832275390625
1776815660335935000,10.55893505859375,-0.604949951171875,-0.6400909423828125,0.47137451171875
1776815660345973000,10.568972900390625,-0.605133056640625,-0.6407318115234375,0.471527099609375
1776815660356010000,10.579010009765625,-0.604217529296875,-0.6400604248046875,0.4712677001953125
1776815660366047000,10.589046875,-0.6026611328125,-0.64056396484375,0.4715728759765625
1776815660376084000,10.599083984375,-0.6007843017578125,-0.638641357421875,0.471710205078125
1776815660386121000,10.609120849609376,-0.600250244140625,-0.6383209228515625,0.4709014892578125
1776815660396158000,10.619157958984376,-0.6018829345703125,-0.637359619140625,0.4697113037109375
1776815660406195000,10.62919482421875,-0.6028900146484375,-0.6370391845703125,0.469573974609375
1776815660416232200,10.639232177734375,-0.60455322265625,-0.6369781494140625,0.4702911376953125
1776815660426269000,10.64926904296875,-0.6063079833984375,-0.636810302734375,0.4722900390625
1776815660436306000,10.659305908203125,-0.6054534912109375,-0.63800048828125,0.47381591796875
1776815660446343000,10.669343017578125,-0.606201171875,-0.6387939453125,0.4733428955078125
1776815660456380000,10.6793798828125,-0.6053924560546875,-0.6367340087890625,0.473175048828125
1776815660466417200,10.689417236328126,-0.6041259765625,-0.636322021484375,0.471649169921875
1776815660476454100,10.6994541015625,-0.601470947265625,-0.6368408203125,0.47052001953125
1776815660486491000,10.709490966796874,-0.6025543212890625,-0.6378326416015625,0.4699249267578125
1776815660496528000,10.71952783203125,-0.60125732421875,-0.6403961181640625,0.47119140625
1776815660506566100,10.729566162109375,-0.602874755859375,-0.6401214599609375,0.4710540771484375
1776815660516603000,10.739602783203125,-0.6042327880859375,-0.6395111083984375,0.4700775146484375
1776815660526639900,10.749639892578125,-0.605224609375,-0.6378021240234375,0.470794677734375
1776815660536676900,10.7596767578125,-0.6068878173828125,-0.6369476318359375,0.4707489013671875
1776815660546714000,10.769714111328126,-0.6061859130859375,-0.6362457275390625,0.470672607421875
1776815660556751000,10.779751220703124,-0.605072021484375,-0.635650634765625,0.4697723388671875
1776815660566787800,10.789787841796874,-0.6058807373046875,-0.634002685546875,0.468353271484375
1776815660576824800,10.799824951171875,-0.6073150634765625,-0.6340179443359375,0.46759033203125
1776815660586862000,10.809862060546875,-0.6088104248046875,-0.6336212158203125,0.469024658203125
1776815660596899000,10.819899169921875,-0.6104736328125,-0.6338043212890625,0.4710235595703125
1776815660606936000,10.82993603515625,-0.609588623046875,-0.6368865966796875,0.4729461669921875
1776815660616972800,10.839972900390626,-0.6079864501953125,-0.6381072998046875,0.4745941162109375
1776815660627010000,10.850010009765626,-0.607666015625,-0.6370391845703125,0.4769134521484375
1776815660637047000,10.860047119140624,-0.6053009033203125,-0.638885498046875,0.475799560546875
1776815660647084000,10.870083984375,-0.6043243408203125,-0.64105224609375,0.4733428955078125
1776815660657121000,10.88012109375,-0.60260009765625,-0.644256591796875,0.4704742431640625
1776815660667159000,10.890158935546875,-0.600372314453125,-0.644134521484375,0.4691009521484375
1776815660677196000,10.900196044921875,-0.600494384765625,-0.643310546875,0.46771240234375
1776815660687233000,10.91023291015625,-0.6019439697265625,-0.6405181884765625,0.4670562744140625
1776815660697270000,10.92027001953125,-0.6023712158203125,-0.6380157470703125,0.466949462890625
1776815660707307000,10.93030712890625,-0.6011962890625,-0.6364288330078125,0.4669952392578125
1776815660717344000,10.940343994140624,-0.6040191650390625,-0.6343231201171875,0.4691925048828125
1776815660727381000,10.950381103515625,-0.6066131591796875,-0.6347198486328125,0.4704742431640625
1776815660737418000,10.96041796875,-0.607330322265625,-0.6327362060546875,0.4716796875
1776815660747455000,10.970455078125,-0.607421875,-0.6324920654296875,0.4717559814453125
1776815660757492000,10.980491943359375,-0.608306884765625,-0.6332855224609375,0.47119140625
1776815660767529000,10.990529052734376,-0.609161376953125,-0.633087158203125,0.4716949462890625
1776815660777566000,11.00056591796875,-0.6084442138671875,-0.633941650390625,0.4717864990234375
1776815660787603000,11.01060302734375,-0.60699462890625,-0.636322021484375,0.472015380859375
1776815660797640200,11.02064013671875,-0.6058807373046875,-0.63739013671875,0.4703826904296875
1776815660807677000,11.030677001953125,-0.603790283203125,-0.6379241943359375,0.4691009521484375
1776815660817715000,11.04071484375,-0.6021270751953125,-0.6394805908203125,0.465789794921875
1776815660827752400,11.05075244140625,-0.600921630859375,-0.641387939453125,0.464019775390625
1776815660837789200,11.0607890625,-0.6016845703125,-0.6428985595703125,0.4614410400390625
1776815660847826200,11.070826171875,-0.6038360595703125,-0.641326904296875,0.4625091552734375
1776815660857863200,11.08086328125,-0.606170654296875,-0.64019775390625,0.464996337890625
1776815660867900200,11.090900146484374,-0.606781005859375,-0.638031005859375,0.4658050537109375
1776815660877937400,11.1009375,-0.606048583984375,-0.63568115234375,0.46832275390625
1776815660887974100,11.11097412109375,-0.6034393310546875,-0.6358489990234375,0.4702301025390625
1776815660898011100,11.12101123046875,-0.6031494140625,-0.63623046875,0.4712066650390625
1776815660908048100,11.131048095703125,-0.604888916015625,-0.6364288330078125,0.4712982177734375
1776815660918085400,11.14108544921875,-0.6071319580078125,-0.636077880859375,0.4709014892578125
1776815660928122400,11.151122314453126,-0.607879638671875,-0.636749267578125,0.4722900390625
1776815660938159000,11.1611591796875,-0.6098480224609375,-0.6360015869140625,0.4729461669921875
1776815660948196000,11.171196044921874,-0.6075439453125,-0.635528564453125,0.4738616943359375
1776815660958233300,11.1812333984375,-0.60516357421875,-0.6350250244140625,0.4731597900390625
1776815660968270300,11.191270263671875,-0.605072021484375,-0.6337738037109375,0.470916748046875
1776815660978308000,11.20130810546875,-0.6052093505859375,-0.6358642578125,0.4687957763671875
1776815660988345000,11.211344970703125,-0.6063385009765625,-0.636932373046875,0.466705322265625
1776815660998382300,11.22138232421875,-0.606231689453125,-0.6384735107421875,0.465576171875
1776815661008419300,11.23141943359375,-0.6051483154296875,-0.6395111083984375,0.465606689453125
1776815661018456300,11.241456298828124,-0.60504150390625,-0.6376495361328125,0.466400146484375
1776815661028493000,11.2514931640625,-0.60504150390625,-0.6375579833984375,0.467376708984375
1776815661038530300,11.2615302734375,-0.6053619384765625,-0.637908935546875,0.4690704345703125
1776815661048567300,11.2715673828125,-0.6060333251953125,-0.6376190185546875,0.4698944091796875
1776815661058604300,11.281604248046875,-0.6051177978515625,-0.6383819580078125,0.4697113037109375
1776815661068641300,11.291641357421875,-0.60491943359375,-0.6378326416015625,0.4718780517578125
1776815661078678000,11.301677978515626,-0.605499267578125,-0.6373138427734375,0.4716339111328125
1776815661088715300,11.31171533203125,-0.606964111328125,-0.6374053955078125,0.47119140625
1776815661098752300,11.321752197265624,-0.6068115234375,-0.637847900390625,0.472137451171875
1776815661108789200,11.331789306640625,-0.6057586669921875,-0.637664794921875,0.47186279296875
1776815661118827300,11.3418271484375,-0.6045989990234375,-0.63775634765625,0.471343994140625
1776815661128864300,11.3518642578125,-0.60382080078125,-0.6368865966796875,0.470062255859375
1776815661138901200,11.3619013671875,-0.601654052734375,-0.63671875,0.46893310546875
1776815661148938200,11.371938232421876,-0.6021270751953125,-0.637542724609375,0.469390869140625
1776815661158975200,11.381975341796876,-0.6034393310546875,-0.6375579833984375,0.471649169921875
1776815661169012200,11.39201220703125,-0.6026763916015625,-0.6388702392578125,0.47308349609375
1776815661179049200,11.40204931640625,-0.60284423828125,-0.639801025390625,0.4740447998046875
1776815661189086200,11.412086181640625,-0.6041107177734375,-0.639068603515625,0.4743804931640625
1776815661199123200,11.422123291015625,-0.605712890625,-0.6375885009765625,0.472991943359375
1776815661209160400,11.432160400390625,-0.605804443359375,-0.637176513671875,0.472747802734375
1776815661219197200,11.442197265625,-0.6061248779296875,-0.636444091796875,0.47235107421875
1776815661229234200,11.452234130859376,-0.60504150390625,-0.63848876953125,0.471588134765625
1776815661239271200,11.462271240234376,-0.6051483154296875,-0.638427734375,0.470733642578125
1776815661249308400,11.472308349609374,-0.604644775390625,-0.63800048828125,0.4694061279296875
1776815661259345400,11.482345458984375,-0.6060943603515625,-0.6372833251953125,0.46795654296875
1776815661269383200,11.492383056640625,-0.6053924560546875,-0.6364898681640625,0.4661102294921875
1776815661279420200,11.502420166015625,-0.6038360595703125,-0.63726806640625,0.465850830078125
1776815661289457400,11.51245751953125,-0.6044158935546875,-0.63629150390625,0.4676971435546875
1776815661299494100,11.522494140625,-0.6066436767578125,-0.6368408203125,0.470062255859375
1776815661309531100,11.53253125,-0.60888671875,-0.6376953125,0.4729156494140625
1776815661319568100,11.542568115234374,-0.608795166015625,-0.6356048583984375,0.47650146484375
1776815661329605400,11.55260546875,-0.6078338623046875,-0.63372802734375,0.4794158935546875
1776815661339642400,11.562642333984375,-0.6061553955078125,-0.636077880859375,0.478515625
1776815661349679000,11.57267919921875,-0.603668212890625,-0.637481689453125,0.47735595703125
1776815661359716000,11.582716064453125,-0.6020965576171875,-0.638763427734375,0.47613525390625
1776815661369753000,11.592753173828125,-0.6020050048828125,-0.639190673828125,0.473602294921875
1776815661379790300,11.602790283203126,-0.6033782958984375,-0.6382598876953125,0.471099853515625
1776815661389827300,11.612827392578126,-0.6046905517578125,-0.6369781494140625,0.4699859619140625
1776815661399864300,11.6228642578125,-0.603973388671875,-0.6367034912109375,0.4698486328125
1776815661409901000,11.632901123046874,-0.60455322265625,-0.6364898681640625,0.4686126708984375
1776815661419939300,11.642939208984375,-0.6043548583984375,-0.6370086669921875,0.4675750732421875
1776815661429976300,11.652976318359375,-0.6045379638671875,-0.6363677978515625,0.4670562744140625
1776815661440013000,11.663012939453125,-0.60382080078125,-0.63677978515625,0.4672698974609375
1776815661450050300,11.67305029296875,-0.603759765625,-0.6358642578125,0.4672088623046875
1776815661460087300,11.68308740234375,-0.6056365966796875,-0.6352996826171875,0.4675140380859375
1776815661470124300,11.693124267578124,-0.6065216064453125,-0.6345672607421875,0.46942138671875
1776815661480161300,11.703161376953124,-0.606353759765625,-0.636199951171875,0.47186279296875
1776815661490198000,11.713197998046875,-0.603790283203125,-0.6375579833984375,0.4723968505859375
1776815661500235300,11.7232353515625,-0.603729248046875,-0.6380615234375,0.47113037109375
1776815661510272300,11.733272216796875,-0.6036376953125,-0.638397216796875,0.4697418212890625
1776815661520309200,11.743309326171875,-0.602264404296875,-0.638427734375,0.468902587890625
1776815661530346200,11.75334619140625,-0.603973388671875,-0.6388702392578125,0.4686126708984375
1776815661540383200,11.76338330078125,-0.6061859130859375,-0.637176513671875,0.4702606201171875
1776815661550420200,11.773420166015624,-0.6087646484375,-0.6351318359375,0.47216796875
1776815661560458200,11.783458251953125,-0.60791015625,-0.6342620849609375,0.4728851318359375
1776815661570495200,11.7934951171875,-0.60552978515625,-0.632659912109375,0.472625732421875
1776815661580532200,11.8035322265625,-0.6035919189453125,-0.6323089599609375,0.47259521484375
1776815661590569200,11.8135693359375,-0.60284423828125,-0.6331787109375,0.4724884033203125
1776815661600606200,11.823606201171875,-0.6017303466796875,-0.633941650390625,0.4710845947265625
1776815661610643200,11.833643310546876,-0.5996856689453125,-0.636566162109375,0.4691619873046875
1776815661620680400,11.843680419921874,-0.5974884033203125,-0.6407318115234375,0.46728515625
1776815661630717200,11.85371728515625,-0.59295654296875,-0.6456756591796875,0.4646148681640625
1776815661640754200,11.863754150390625,-0.5911712646484375,-0.651947021484375,0.4593658447265625
1776815661650791200,11.873791259765625,-0.5912017822265625,-0.6543731689453125,0.453155517578125
1776815661660828400,11.883828369140625,-0.592437744140625,-0.6544952392578125,0.447723388671875
1776815661670865400,11.893865478515625,-0.59368896484375,-0.65185546875,0.446502685546875
1776815661680902100,11.903902099609375,-0.5965118408203125,-0.6466217041015625,0.4505615234375
1776815661690939100,11.913939208984376,-0.5991363525390625,-0.6417388916015625,0.4569244384765625
1776815661700977400,11.923977294921874,-0.601470947265625,-0.6408233642578125,0.465179443359375
1776815661711014100,11.93401416015625,-0.6031341552734375,-0.639190673828125,0.4725799560546875
1776815661721051100,11.944051025390625,-0.602294921875,-0.64080810546875,0.4751129150390625
1776815661731088100,11.954088134765625,-0.602081298828125,-0.641510009765625,0.473236083984375
1776815661741125400,11.96412548828125,-0.6029815673828125,-0.6396484375,0.4717864990234375
1776815661751162400,11.974162353515625,-0.6050567626953125,-0.6367950439453125,0.4730987548828125
1776815661761199400,11.984199462890626,-0.6085357666015625,-0.630767822265625,0.475921630859375
1776815661771236000,11.994236083984376,-0.61016845703125,-0.6277313232421875,0.480621337890625
1776815661781273000,12.004273193359374,-0.6093902587890625,-0.628662109375,0.4840087890625
1776815661791310300,12.014310302734375,-0.6066436767578125,-0.63134765625,0.48345947265625
1776815661801347300,12.024347412109375,-0.6033782958984375,-0.632843017578125,0.47930908203125
1776815661811384300,12.03438427734375,-0.6026611328125,-0.632354736328125,0.4747772216796875
1776815661821421000,12.044421142578125,-0.6024017333984375,-0.6330718994140625,0.4708404541015625
1776815661831459600,12.05445947265625,-0.60479736328125,-0.6346588134765625,0.4686126708984375
1776815661841496600,12.06449658203125,-0.605926513671875,-0.6342315673828125,0.4701080322265625
1776815661851533300,12.074533203125,-0.6045989990234375,-0.634063720703125,0.4741668701171875
1776815661861570600,12.084570556640625,-0.605926513671875,-0.63214111328125,0.477874755859375
1776815661871607600,12.094607666015625,-0.60858154296875,-0.6311798095703125,0.4789581298828125
1776815661881644500,12.10464453125,-0.6111602783203125,-0.6288299560546875,0.477294921875
1776815661891681500,12.114681640625,-0.60955810546875,-0.624786376953125,0.4739532470703125
1776815661901718300,12.12471826171875,-0.609375,-0.6244964599609375,0.47003173828125
1776815661911755500,12.134755615234376,-0.60858154296875,-0.6255645751953125,0.4671630859375
1776815661921792500,12.14479248046875,-0.6066131591796875,-0.628204345703125,0.468414306640625
1776815661931829500,12.15482958984375,-0.6039886474609375,-0.6333160400390625,0.4697113037109375
1776815661941866500,12.164866455078124,-0.6031646728515625,-0.6385650634765625,0.4720916748046875
1776815661951903500,12.174903564453125,-0.6027984619140625,-0.638946533203125,0.4726104736328125
1776815661961940500,12.1849404296875,-0.6046600341796875,-0.6376800537109375,0.4732513427734375
1776815661971978500,12.194978515625,-0.6073455810546875,-0.6372222900390625,0.476043701171875
1776815661982015500,12.205015380859376,-0.6082611083984375,-0.6369171142578125,0.4800262451171875
1776815661992052500,12.215052490234376,-0.609771728515625,-0.635833740234375,0.4832305908203125
1776815662002089500,12.22508935546875,-0.607635498046875,-0.6365966796875,0.485382080078125
1776815662012126500,12.23512646484375,-0.6042327880859375,-0.6354522705078125,0.4864654541015625
1776815662022163500,12.24516357421875,-0.601654052734375,-0.6355438232421875,0.4859771728515625
1776815662032200400,12.255200439453125,-0.6000823974609375,-0.635772705078125,0.4831695556640625
1776815662042237400,12.265237548828125,-0.5989990234375,-0.6386566162109375,0.481719970703125
1776815662052274400,12.2752744140625,-0.5969696044921875,-0.64202880859375,0.4809417724609375
1776815662062311400,12.2853115234375,-0.593963623046875,-0.6459503173828125,0.482147216796875
1776815662072348700,12.2953486328125,-0.59222412109375,-0.64727783203125,0.48199462890625
1776815662082385700,12.3053857421875,-0.5894927978515625,-0.6448211669921875,0.4821319580078125
1776815662092422400,12.31542236328125,-0.587646484375,-0.6444549560546875,0.4803619384765625
1776815662102460400,12.32546044921875,-0.5900421142578125,-0.642669677734375,0.478271484375
1776815662112497700,12.33549755859375,-0.5933074951171875,-0.642303466796875,0.4770965576171875
1776815662122534400,12.345534423828125,-0.596649169921875,-0.64178466796875,0.476104736328125
1776815662132571400,12.3555712890625,-0.597808837890625,-0.6397857666015625,0.478607177734375
1776815662142608400,12.3656083984375,-0.596435546875,-0.6397247314453125,0.4831085205078125
1776815662152645600,12.375645751953124,-0.5928955078125,-0.6404571533203125,0.4847564697265625
1776815662162682600,12.3856826171875,-0.591033935546875,-0.639984130859375,0.485687255859375
1776815662172719400,12.39571923828125,-0.590362548828125,-0.6406402587890625,0.4842071533203125
1776815662182756400,12.40575634765625,-0.5904541015625,-0.64215087890625,0.483306884765625
1776815662192793600,12.415793701171875,-0.59259033203125,-0.645050048828125,0.4823455810546875
1776815662202830600,12.42583056640625,-0.5938568115234375,-0.64666748046875,0.4825439453125
1776815662212867600,12.43586767578125,-0.5916290283203125,-0.6483001708984375,0.4840850830078125
1776815662222904300,12.445904296875,-0.590545654296875,-0.65008544921875,0.486663818359375
1776815662232942600,12.455942626953124,-0.5902557373046875,-0.65057373046875,0.4876556396484375
1776815662242979600,12.4659794921875,-0.591644287109375,-0.6475677490234375,0.4867095947265625
1776815662253016600,12.4760166015625,-0.5915985107421875,-0.643585205078125,0.4847259521484375
1776815662263053300,12.48605322265625,-0.59222412109375,-0.6410675048828125,0.4833831787109375
1776815662273090600,12.496090576171875,-0.5949249267578125,-0.6373748779296875,0.4822540283203125
1776815662283127600,12.50612744140625,-0.59759521484375,-0.63616943359375,0.4831695556640625
1776815662293164500,12.51616455078125,-0.5997161865234375,-0.637359619140625,0.484100341796875
1776815662303201500,12.526201416015626,-0.599945068359375,-0.6379547119140625,0.4850311279296875
1776815662313238300,12.53623828125,-0.599609375,-0.6382598876953125,0.485687255859375
1776815662323275500,12.546275634765625,-0.5987701416015625,-0.6371917724609375,0.4852142333984375
1776815662333312500,12.5563125,-0.59942626953125,-0.6373443603515625,0.4844512939453125
1776815662343349500,12.566349609375,-0.5977020263671875,-0.6357574462890625,0.48150634765625
1776815662353386500,12.576386474609375,-0.599884033203125,-0.6355133056640625,0.48040771484375
1776815662363424500,12.586424560546876,-0.60064697265625,-0.6356964111328125,0.4795379638671875
1776815662373461500,12.59646142578125,-0.6014556884765625,-0.637420654296875,0.4802398681640625
1776815662383498500,12.60649853515625,-0.599365234375,-0.639984130859375,0.479156494140625
1776815662393535500,12.616535400390624,-0.600433349609375,-0.6405029296875,0.4774322509765625
1776815662403572500,12.626572509765625,-0.6001434326171875,-0.6403350830078125,0.474151611328125
1776815662413609500,12.636609375,-0.6003875732421875,-0.640899658203125,0.47174072265625
1776815662423646500,12.646646484375,-0.59912109375,-0.6411590576171875,0.47088623046875
1776815662433683500,12.656683349609375,-0.598968505859375,-0.64093017578125,0.470001220703125
1776815662443720700,12.666720703125,-0.5994415283203125,-0.6405792236328125,0.47027587890625
1776815662453757400,12.67675732421875,-0.6002197265625,-0.6399383544921875,0.4692535400390625
1776815662463794400,12.68679443359375,-0.6014556884765625,-0.638427734375,0.4694976806640625
1776815662473831400,12.69683154296875,-0.602569580078125,-0.637542724609375,0.4681549072265625
1776815662483868700,12.70686865234375,-0.6047210693359375,-0.6379852294921875,0.467498779296875
1776815662493906400,12.716906494140625,-0.60504150390625,-0.63665771484375,0.467529296875
1776815662503943400,12.726943359375,-0.60467529296875,-0.635772705078125,0.466888427734375
1776815662513980400,12.73698046875,-0.6038055419921875,-0.6363067626953125,0.468048095703125
1776815662524017700,12.747017578125,-0.6055908203125,-0.635589599609375,0.4692230224609375
1776815662534054400,12.757054443359374,-0.605499267578125,-0.6356658935546875,0.470550537109375
1776815662544091400,12.76709130859375,-0.6041107177734375,-0.636962890625,0.4723663330078125
1776815662554128400,12.77712841796875,-0.6035919189453125,-0.637359619140625,0.4717864990234375
1776815662564165600,12.78716552734375,-0.603973388671875,-0.637664794921875,0.4719696044921875
1776815662574202600,12.79720263671875,-0.6038970947265625,-0.637359619140625,0.471160888671875
1776815662584239400,12.8072392578125,-0.6035003662109375,-0.63623046875,0.4705047607421875
1776815662594276400,12.8172763671875,-0.605194091796875,-0.6355743408203125,0.47015380859375
1776815662604313300,12.827313232421876,-0.6068878173828125,-0.6357879638671875,0.4705810546875
1776815662614350600,12.8373505859375,-0.6059112548828125,-0.6366729736328125,0.4710235595703125
1776815662624388400,12.847388427734375,-0.6056976318359375,-0.6384735107421875,0.4718017578125
1776815662634425300,12.85742529296875,-0.6053924560546875,-0.639923095703125,0.4709014892578125
1776815662644462600,12.867462646484375,-0.6040191650390625,-0.640167236328125,0.4677734375
1776815662654499600,12.87749951171875,-0.6046142578125,-0.6396484375,0.463226318359375
1776815662664536600,12.88753662109375,-0.604339599609375,-0.6392059326171875,0.4603118896484375
1776815662674573300,12.8975732421875,-0.6060333251953125,-0.637908935546875,0.4598388671875
1776815662684610600,12.907610595703124,-0.6092987060546875,-0.6378936767578125,0.46112060546875
1776815662694647600,12.9176474609375,-0.6114044189453125,-0.634613037109375,0.4626617431640625
1776815662704684500,12.9276845703125,-0.6110687255859375,-0.6330108642578125,0.4647674560546875
1776815662714721500,12.937721435546875,-0.610809326171875,-0.633056640625,0.4658660888671875
1776815662724758300,12.94775830078125,-0.610443115234375,-0.6341552734375,0.4662933349609375
1776815662734795500,12.95779541015625,-0.609619140625,-0.6364593505859375,0.46734619140625
1776815662744832500,12.96783251953125,-0.609832763671875,-0.6375274658203125,0.467193603515625
1776815662754870500,12.97787060546875,-0.6104736328125,-0.6375732421875,0.466033935546875
1776815662764907500,12.987907470703124,-0.6105499267578125,-0.63702392578125,0.4649200439453125
1776815662774944500,12.997944580078125,-0.6123199462890625,-0.637847900390625,0.4633331298828125
1776815662784981500,13.0079814453125,-0.6087188720703125,-0.63720703125,0.4625091552734375
1776815662795018500,13.0180185546875,-0.6078643798828125,-0.63763427734375,0.4625244140625
1776815662805055500,13.028055419921875,-0.608154296875,-0.6355133056640625,0.46282958984375
1776815662815092500,13.038092529296875,-0.6094970703125,-0.633087158203125,0.461181640625
