time,seconds_elapsed,roll,rotationRateZ,quaternionY,rotationRateY,quaternionZ,quaternionW,yaw,devicelocation,accelerationZ,pitch,gravityX,gravityZ,quaternionX,rotationRateX,accelerationX,gravityY,accelerationY
1776815650471984400,0.694984375,0.03255001953533792,-0.16233934462070465,0.015947968522022283,0.05522150546312332,-5.062195561811755e-17,0.9932018029404077,0.0037782722537122774,right,-0.007476925849914551,-0.23109748124405272,0.310665895181708,-9.540889524069428,-0.1153068620866334,-0.07409321516752243,0.03051450476050377,2.2461738296806812,0.0268317312002182
1776815650511984400,0.734984375,0.04139069073925165,-0.20906686782836914,0.020531746290514477,0.10008963942527771,-0.0021946979349556205,0.9930741568371196,0.000401122343789283,right,-0.012808799743652344,-0.23187938309968262,0.3949277212547138,-9.536012273421884,-0.11565948447260554,-0.040383946150541306,0.019707761704921722,2.2536370051681995,0.06140291690826416
1776815650551984600,0.774984619140625,0.05023029818529245,-0.25579437613487244,0.025115001612976064,0.1449577808380127,-0.00438929256846468,0.9929207671861857,-0.002969330992397081,right,-0.018223822116851807,-0.2326903188627379,0.4791139248082414,-9.530320783782004,-0.11600910256296341,-0.006674677133560181,0.008908741176128387,2.2613760749876497,0.09594595432281494
1776815650697449500,0.920449462890625,0.036585876552204896,-0.2506088614463806,0.02110232364831461,-0.20889954268932343,-0.02393904126833849,0.9899326303127736,-0.043244513673920786,right,-0.09130764752626419,-0.2775733067885196,0.34497480935566127,-9.424971819081902,-0.13789438962062822,-0.40466174483299255,-0.22003518044948578,2.6872444030269977,0.2783195972442627
1776815650737449500,0.960449462890625,0.029900115519316085,-0.29997119307518005,0.01881442624158464,-0.07053974270820618,-0.03026440056787075,0.9893807048375933,-0.05688816084454862,right,0.0035241246223449707,-0.28375962061685744,0.2814520939233713,-9.410270509034394,-0.14091040726682647,-0.2363087236881256,-0.20967543125152588,2.7455376020416615,0.25591981410980225
1776815650777449500,1.000449462890625,0.023114781650162817,-0.3493335247039795,0.016525496963255015,0.06782005727291107,-0.03658808915855463,0.9887747763944832,-0.07059937003286015,right,0.09830302000045776,-0.28985750399631127,0.21720327443992718,-9.395051312592624,-0.1439187216145282,-0.06795570254325867,-0.19924162328243256,2.802894396989047,0.23361554741859436
1776815650817449200,1.04044921875,0.009517223027565707,-0.3384370505809784,0.011213692059814425,0.10364873707294464,-0.04245581079834973,0.9870986210094329,-0.08448199315989671,right,0.0949750542640686,-0.30986261758537753,0.088885850878153,-9.339189724639057,-0.15397429417535427,-0.023838374763727188,-0.18952855467796326,2.990320464134216,0.19051817059516907
1776815650857449200,1.08044921875,-0.00446245620806792,-0.3275405764579773,0.005900023279832893,0.1394774168729782,-0.048316461572899795,0.9852579818751755,-0.09874262521747434,right,0.09114652872085571,-0.32968294303685,-0.041404818118503314,-9.278421075421571,-0.16400421628098855,0.020278949290513992,-0.17961424589157104,3.174835027746856,0.14771771430969238
1776815650897449200,1.12044921875,-0.03987513871519377,-0.19170235097408295,-0.008626591889575904,0.11453884094953537,-0.05653275268627586,0.9819888478842342,-0.12227850941186987,right,0.05605226755142212,-0.3604451478942997,-0.3658162295933813,-9.169179194936156,-0.1800764752026308,0.04038488119840622,-0.14914898574352264,3.458715682257712,0.12052339315414429
1776815650937449500,1.160449462890625,-0.06474220388302203,-0.10890272259712219,-0.019173647301784127,0.08588564395904541,-0.061147621340827824,0.9805107045500078,-0.13669339196173144,right,0.05038231611251831,-0.3702596056572695,-0.5914654982794075,-9.122934161111711,-0.1857207174739852,0.08357404172420502,-0.12635743618011475,3.548609595933556,0.09832096099853516
1776815650977449500,1.200449462890625,-0.08985355391699491,-0.02610308676958084,-0.029717507492756437,0.05723244324326515,-0.0657523455178229,0.9788690781849904,-0.15142141426189187,right,0.04416400194168091,-0.37973445180705145,-0.8172903427280486,-9.071311525902152,-0.19133398485622521,0.1267632097005844,-0.10354796051979065,3.6350688589856026,0.07646873593330383
1776815651017449500,1.240449462890625,-0.099598054389419,0.15739578008651733,-0.03463515543086883,0.022051289677619934,-0.06398001645066521,0.9787369138757224,-0.1497274041632832,right,0.09445041418075562,-0.3800630925307514,-0.9055266984552145,-9.06172770499885,-0.19178339489549054,0.31984764337539673,-0.09820723533630371,3.6380621955826875,0.07916823029518127
1776815651057449200,1.28044921875,-0.10164815444663877,0.28963685035705566,-0.0366398808072848,0.01929941028356552,-0.059930914788230795,0.9794506770601291,-0.14150749602051815,right,0.1155659556388855,-0.3746531096830592,-0.9260858676854521,-9.079299602046609,-0.18905568947685417,0.42354121804237366,-0.09606478363275528,3.588741115313768,0.0918525755405426
1776815651097449200,1.32044921875,-0.10374150011376153,0.421877920627594,-0.03864354830744739,0.01654753088951111,-0.05588008579606173,0.9801366339811977,-0.13329294864004473,right,0.1366397738456726,-0.3692589618967227,-0.9470808710496872,-9.096463502815364,-0.18632262053009893,0.5272347927093506,-0.0938778966665268,3.539460074794292,0.10453283786773682
1776815651137449200,1.36044921875,-0.09576837305430008,0.44023793935775757,-0.03715565375861469,-0.009294282644987106,-0.04679652988389416,0.9821406467924144,-0.11238234099149697,right,-0.06869244575500488,-0.3543326583778672,-0.8794784302894025,-9.155297969099879,-0.1784072728392121,0.5221487283706665,-0.08114726841449738,3.402560079793632,0.0714862048625946
1776815651177449500,1.400449462890625,-0.08817101579705124,0.45859792828559875,-0.035662134327155065,-0.03513609617948532,-0.037705846171297644,0.9839959767165485,-0.09171155921599071,right,-0.274264931678772,-0.3392545900729545,-0.8143230904202908,-9.211776812168955,-0.17046492603166907,0.5170626044273376,-0.06816713511943817,3.2634991073668003,0.0386599600315094
1776815651217449500,1.440449462890625,-0.07906360969102753,0.24939514696598053,-0.032580960990337034,0.07024393230676651,-0.033980216306701456,0.9861718674602432,-0.08150757152161278,right,-0.16765505075454712,-0.31644386641368866,-0.7360841778986156,-9.290616540127992,-0.15889886809205236,0.5841569304466248,-0.016277439892292023,3.0517215660363433,0.05112901329994202
1776815651257449500,1.480449462890625,-0.07026504689505852,0.04019235074520111,-0.02949449336949888,0.17562396824359894,-0.030249065871427415,0.9881880786403945,-0.07159411003270763,right,-0.06160235404968262,-0.29354755457039305,-0.6590463117297738,-9.36399157294035,-0.1473070810506618,0.6512512564659119,0.035734742879867554,2.837552745655179,0.06384196877479553
1776815651297449500,1.520449462890625,-0.061760786315572684,-0.1690104603767395,-0.026403270679213706,0.2810039818286896,-0.02651309201388452,0.9900443231712348,-0.06195589663894929,right,0.0438881516456604,-0.27057029960193285,-0.5832605279812589,-9.431853395289183,-0.13569144827317312,0.7183455228805542,0.08787459135055542,2.621131762433052,0.07678452134132385
1776815651337449200,1.56044921875,-0.052718350078843894,-0.38490086793899536,-0.021957903730904362,0.363124817609787,-0.03133921120198643,0.9918757955663291,-0.06957270460159969,right,0.11428487300872803,-0.24163413774889425,-0.5017384656030685,-9.508521039906144,-0.12131856439688947,0.8615071773529053,0.09941169619560242,2.346629615511745,0.04437841475009918
1776815651377449200,1.60044921875,-0.030498673737914574,-0.44570276141166687,-0.010403759473690282,0.3168853521347046,-0.04270781521464798,0.9932917470194235,-0.08920329711026807,right,0.0701897144317627,-0.21319732085101267,-0.29227294580833985,-9.580164134359359,-0.10695475520623578,0.7443941831588745,0.07529547810554504,2.074949101882428,0.022647112607955933
1776815651417449500,1.640449462890625,-0.01887560054120252,-0.47444725036621094,-0.004289900074383592,0.2896193861961365,-0.05184026788277086,0.9939796018924402,-0.10603598361937198,right,0.04886287450790405,-0.19243982596539722,-0.18167866433328017,-9.623909752583502,-0.09643006188902184,0.6321821212768555,0.06871694326400757,1.8755635707437992,0.016205251216888428
1776815651457449500,1.680449462890625,-0.006943711659713182,-0.5031917095184326,0.001824966963314683,0.26235342025756836,-0.06096068146754708,0.9944368539678556,-0.12304841318662553,right,0.026951193809509277,-0.17187795918141105,-0.06709065531324594,-9.661918872982262,-0.08588299723100436,0.5199700593948364,0.06173116713762283,1.677260281883925,0.0096530020236969
1776815651497449500,1.720449462890625,0.0017424816013023661,-0.5354476571083069,0.0066525845241494725,0.2429167479276657,-0.0726276162387201,0.9941856005591335,-0.14570672412406596,right,0.02392113208770752,-0.15915935949916588,0.016871935509791363,-9.682687520244716,-0.07922158819270078,0.48326221108436584,0.05192208290100098,1.554238882371038,0.004068493843078613
1776815651537449500,1.760449462890625,0.010700833296463982,-0.5677036046981812,0.01147884713869766,0.22348007559776306,-0.08427983691734221,0.9937316512218878,-0.1684319991224029,right,0.020625174045562744,-0.14663844162793888,0.10381114240726455,-9.70084803083539,-0.07254403731690649,0.44655436277389526,0.04180946573615074,1.4328838086351752,-0.0016859471797943115
1776815651577449200,1.80044921875,0.019928263757507694,-0.5999594926834106,0.01630277331693639,0.2040434032678604,-0.09591484194314703,0.993075118807159,-0.1912295861366281,right,0.01706165075302124,-0.13432224797240233,0.1936563581031747,-9.716385207185148,-0.06585168454615628,0.4098464846611023,0.03140052407979965,1.3132938448756932,-0.007620364427566528
1776815651617449200,1.84044921875,0.025005537169305116,-0.5458171367645264,0.018977016456500812,0.17300942540168762,-0.10772625831745945,0.9922103033259407,-0.21476076243312853,right,0.008980751037597656,-0.12269005063549535,0.24335189770767462,-9.729890585446357,-0.05961126894096389,0.3722590506076813,0.023248273879289627,1.2001621904101223,-0.010575979948043823
1776815651657449500,1.880449462890625,0.03034988436681377,-0.4916747510433197,0.021647720419246595,0.14197544753551483,-0.11951768119977839,0.9911606618523888,-0.2383192674146225,right,0.0007181167602539062,-0.11117964310537212,0.295747727513127,-9.741614340987802,-0.05335974833211741,0.33467161655426025,0.014820674434304237,1.0880550566866993,-0.013636074960231781
1776815651697449500,1.920449462890625,0.035958776962001636,-0.43753236532211304,0.024314392680940187,0.11094147711992264,-0.13128681612823953,0.9899263646442201,-0.26191069367505226,right,-0.007727205753326416,-0.09979756346843571,0.3508049768138677,-9.751547705981135,-0.047098286467825975,0.2970842123031616,0.006121683865785599,0.977056103400886,-0.01680915802717209
1776815651737449500,1.960449462890625,0.039494326560761274,-0.3482835590839386,0.0257078449059789,0.08525979518890381,-0.13942354130645027,0.9890358572496383,-0.278332989507475,right,-0.005199551582336426,-0.08903668430033751,0.38567262084912507,-9.760187524032592,-0.04132839703860069,0.2742047905921936,0.010856404900550842,0.8719984497975558,-0.018170803785324097
1776815651777449500,2.000449462890625,0.043203468411300794,-0.25903475284576416,0.027098663729421026,0.059578120708465576,-0.147546012721564,0.9880444060403214,-0.29477861201942124,right,-0.0028119683265686035,-0.07833510481586976,0.4222506855314597,-9.767453715643287,-0.03555427955590033,0.2513253390789032,0.015416707843542099,0.7674195196218788,-0.01958129182457924
1776815651817449200,2.04044921875,0.04426496438649257,-0.24196523427963257,0.02727778596067357,0.06109113246202469,-0.151132093676937,0.9876112297938726,-0.30210580556539557,right,0.0062596797943115234,-0.07198039287253405,0.43282563636396076,-9.771675132730604,-0.03223594064833979,0.227940633893013,0.029880467802286148,0.7052770978331565,-0.013214122503995895
1776815652024578800,2.247578857421875,0.07274533206298091,-0.07326529920101166,0.03957297098361903,0.15196368098258972,-0.16915452435658324,0.9846690121501958,-0.33863971938622583,right,0.003559133503586054,-0.0443880507382526,0.7120570402968674,-9.771079504925012,-0.015734008755521892,0.14537572860717773,0.035293564200401306,0.4351551387574523,0.002305456670001149
1776815652064578800,2.287578857421875,0.07742324886663739,-0.02668176218867302,0.04139201431772381,0.10696003586053848,-0.1696085119142403,0.9845633524789833,-0.3396941181728201,right,-0.0034765005111694336,-0.03853331262712938,0.7579414241153747,-9.770014506042003,-0.012433380519357431,0.14057078957557678,0.023720920085906982,0.3777891741229221,-0.011484859511256218
1776815652104578800,2.327578857421875,0.08210636965686426,0.01990177109837532,0.043210464422197725,0.061956387013196945,-0.1700600733457562,0.9844434852297229,-0.3407757256334657,right,-0.010568797588348389,-0.03268357697544319,0.8038545956369489,-9.768393042320012,-0.00913257551281457,0.13576585054397583,0.01214534044265747,0.32045930371508,-0.025278853252530098
1776815652144578800,2.367578857421875,0.08509900012619204,0.06562809646129608,0.04422842742815236,0.058938778936862946,-0.16944036269929288,0.9845275155052143,-0.3397034664061992,right,-0.006518065929412842,-0.027330818505553352,0.8332179797001182,-9.767513336876034,-0.006266586916759853,0.14417994022369385,0.004474565386772156,0.2679903721407987,-0.02841833233833313
1776815652184578800,2.407578857421875,0.08808548222805575,0.11135442554950714,0.04524595663132277,0.05592116713523865,-0.16881901959907306,0.9846020870487211,-0.33864738954392565,right,-0.002504289150238037,-0.021974872143176612,0.862498653915897,-9.76627064333856,-0.0034005348976244077,0.15259402990341187,-0.0031877830624580383,0.21548249679561704,-0.03155384957790375
1776815652224578800,2.447578857421875,0.08959261006749053,0.13356731832027435,0.045270946612819295,0.03269173204898834,-0.16520934541836374,0.9852185917397054,-0.3316837385189854,right,0.003704547882080078,-0.013401053529977763,0.8773497476976364,-9.76644132373035,0.0007905425781418247,0.11517195403575897,-0.002375371754169464,0.1314154626423493,-0.00572058092802763
1776815652264578800,2.487578857421875,0.09076416767941904,0.13454392552375793,0.045465071256468,0.04552600160241127,-0.16278710539405097,0.9856082117580881,-0.32697952231480437,right,0.007487893104553223,-0.008658747253801186,0.8888375755913555,-9.765917592117189,0.0031166621594318784,0.09493054449558258,-0.004511229693889618,0.08491219800682738,-0.005157527979463339
1776815652304578800,2.527578857421875,0.09191335154392391,0.13552053272724152,0.04565866752283724,0.0583602711558342,-0.16036303191403972,0.9859864989282681,-0.32228106466770456,right,0.011249542236328125,-0.0039109908939873594,0.9000866993583738,-9.765181094536185,0.005442743791232144,0.07468914240598679,-0.006622746586799622,0.03835357275514398,-0.004588833544403315
1776815652344578800,2.567578857421875,0.09535253121778174,0.22324955463409424,0.046873336122846374,0.07031449675559998,-0.1556153942422186,0.9866665818407783,-0.31298361202544484,right,0.003592967987060547,0.002600916874956678,0.933669527747482,-9.762069099995493,0.008710814584833906,0.0989849716424942,-0.005862317979335785,-0.025506309059506748,-0.008515923283994198
1776815652384578800,2.607578857421875,0.098731142082619,0.31097856163978577,0.04808635648112229,0.08226871490478516,-0.1508623115429002,0.9873119095865184,-0.30370828800685556,right,-0.004111826419830322,0.009144472599278862,0.9666091628622263,-9.758484227246045,0.011978576734167664,0.12328080832958221,-0.005036316812038422,-0.08967545775272882,-0.012411477975547314
1776815652424578600,2.64757861328125,0.1020491803141492,0.3987075686454773,0.04929768336275983,0.09422294050455093,-0.1461038617363692,0.9879225723834614,-0.294454254172353,right,-0.011864960193634033,0.015719055240066455,0.9989012207884341,-9.754425891765951,0.015245917334300018,0.14757664501667023,-0.004144266247749329,-0.1541449981816113,-0.016276398673653603
1776815652464578800,2.687578857421875,0.10656234251205869,0.4240051209926605,0.05103687732804628,0.11139325052499771,-0.1349323744192927,0.9893415592246114,-0.27245345417067734,right,-0.011340200901031494,0.025388330913160853,1.0427068986367434,-9.747880415645241,0.019790262171206302,0.12168404459953308,0.0015435516834259033,-0.2489477997522801,-0.011239901185035706
1776815652504578800,2.727578857421875,0.10918000778588965,0.41467583179473877,0.052101714435679326,0.07586320489645004,-0.12716493000026785,0.9902566671752329,-0.2571453067493044,right,-0.00509411096572876,0.031309890327504024,1.0680406618576497,-9.74348130390346,0.022497095061791903,0.10701874643564224,-0.000027589499950408936,-0.30699506118185815,-0.008995655924081802
1776815652544578800,2.767578857421875,0.1117072095593807,0.4053465723991394,0.05316292970573407,0.040333159267902374,-0.11938866651025376,0.9911028388590643,-0.24184967906071445,right,0.001119077205657959,0.03727079697906303,1.0924375095546246,-9.738759536078572,0.025202365134699988,0.092353455722332,-0.0015032142400741577,-0.36541714727319774,-0.006713192909955978
1776815652584578800,2.807578857421875,0.10954708032025258,0.35670730471611023,0.051887836776020164,0.00984637625515461,-0.11282089161053423,0.9918676014187657,-0.2289105328210573,right,0.0038117170333862305,0.04362521568231603,1.071122553521022,-9.738591778296232,0.027886505877387502,0.10380599647760391,-0.0035119131207466125,-0.4276816245390102,-0.012780223041772842
1776815652624578800,2.847578857421875,0.10730416040333896,0.30806803703308105,0.050610010016279655,-0.020640406757593155,-0.10624720570482706,0.9925802906234827,-0.21595387805862193,right,0.006469786167144775,0.04995114209258065,1.0489662512924522,-9.738084997817873,0.030569172703910498,0.11525853723287582,-0.0054348185658454895,-0.4896497857393697,-0.018877465277910233
1776815652664578600,2.88757861328125,0.10497860156999388,0.2594287693500519,0.04932953242593308,-0.05112719535827637,-0.09966795736733779,0.9932407629303339,-0.20297873113108322,right,0.009093225002288818,0.056247496479513735,1.0259734982397406,-9.737238610121608,0.033250241019172164,0.12671107053756714,-0.007272444665431976,-0.5513088079253211,-0.025006238371133804
1776815652704578800,2.927578857421875,0.1024938353827099,0.25946876406669617,0.04796152599109873,-0.04038333147764206,-0.09503470134257408,0.993673753505597,-0.19388254526646015,right,-0.0007805228233337402,0.0620388630468008,1.001432127505541,-9.736418525910377,0.035783924540456744,0.10592062026262283,-0.013368666172027588,-0.6080033395716921,-0.03362999111413956
1776815652744578800,2.967578857421875,0.09995543777406661,0.25950872898101807,0.04659208303980979,-0.02963946759700775,-0.0903986373346941,0.9940769571038549,-0.1847686165876907,right,-0.010687112808227539,0.06780739803575413,0.9763478090010583,-9.735277539181709,0.03831653564277391,0.08513016998767853,-0.01940949261188507,-0.6644540890574455,-0.042278602719306946
1776815652784578800,3.007578857421875,0.09800463362312437,0.2506887912750244,0.04563119502555772,0.004253175109624863,-0.0850447160123373,0.9945211342318552,-0.17415272479428084,right,0.004883527755737305,0.07217975228407368,0.9570609247289598,-9.734179222550988,0.040159266013369666,0.0860070213675499,-0.01817813515663147,-0.7072272089876234,-0.0399535596370697
1776815652824578800,3.047578857421875,0.09600674988763216,0.24186885356903076,0.04466879149990975,0.03814581781625748,-0.07968792304657353,0.994932350269553,-0.16352475409469805,right,0.020437300205230713,0.07653119404467952,0.9373073727931827,-9.732916655269264,0.042000662072162014,0.08688387274742126,-0.016899168491363525,-0.7497823022529483,-0.03765076398849487
1776815652864578800,3.087578857421875,0.09707067743460926,0.19676068425178528,0.0451978967637136,0.09400728344917297,-0.07588254413820367,0.9951276672633903,-0.15612247807000262,right,0.016069114208221436,0.08043082648757242,0.9473713784288614,-9.728929631459712,0.04381528158559909,0.0771615132689476,-0.013207763433456421,-0.7879069387901574,-0.019363462924957275
1776815652904578600,3.12757861328125,0.09810595044437,0.151652529835701,0.04572618193080937,0.14986875653266907,-0.07207586264182088,0.9953049709876809,-0.1487221239632465,right,0.011686980724334717,0.0843381917201374,0.957134136095643,-9.724805829527973,0.04562910664841117,0.06743916124105453,-0.0094856396317482,-0.8260951420828699,-0.001069672405719757
1776815652944578800,3.167578857421875,0.10237675530234684,-0.10092125833034515,0.047716975067518375,0.15710414946079254,-0.07572066289609196,0.9949466204669105,-0.156193744752158,right,0.017894208431243896,0.08341573959324163,0.9987354357674717,-9.72138286934197,0.04550262110279368,0.023408621549606323,0.0005128830671310425,-0.8170807185653597,0.007436417043209076
1776815652984578800,3.207578857421875,0.10664020362239689,-0.3534950017929077,0.049706943161407384,0.16433954238891602,-0.07936415033173817,0.9945709743386131,-0.16366077201326518,right,0.0240858793258667,0.08246153051559808,1.0402554138313977,-9.717807348942756,0.045375346833275924,-0.02062191441655159,0.010519713163375854,-0.8077553294025361,0.0159107968211174
1776815653024578800,3.247578857421875,0.11089605751386407,-0.6060687899589539,0.051696053754401394,0.1715749204158783,-0.08300624087963022,0.9941780264539443,-0.1711230216760764,right,0.030261874198913574,0.08147564035402861,1.0816910015475005,-9.714079268330336,0.045247287224942256,-0.0646524503827095,0.020535141229629517,-0.7981194860510528,0.0243535079061985
1776815653064578800,3.287578857421875,0.1128742357552139,-0.48980283737182617,0.05239464259260815,0.11007153242826462,-0.09461525423692613,0.9931823627331317,-0.19428320993477577,right,0.028900325298309326,0.07655068982096751,1.1013344441723079,-9.715708330836891,0.04349181742151762,-0.04998026043176651,0.017655886709690094,-0.7499730025194585,-0.0071351900696754456
1776815653104578800,3.327578857421875,0.11473678030651961,-0.3735368847846985,0.05308592186243931,0.04856814816594124,-0.10621106868424486,0.992048221458214,-0.21742503561032797,right,0.027527153491973877,0.07158138406462801,1.1198412839826195,-9.71722224253118,0.04173027765944488,-0.03530807048082352,0.014892518520355225,-0.7013743913061916,-0.03866998106241226
1776815653144578800,3.367578857421875,0.11698211876505944,-0.28378796577453613,0.05398139473236177,0.05640760809183121,-0.11213544930097254,0.9913411619572907,-0.22943142605373573,right,0.013064801692962646,0.0709970363894939,1.141704594613984,-9.715088737633824,0.04188460347817316,-0.0028981827199459076,0.003296010196208954,-0.6956584248121828,-0.04056880623102188
1776815653184578800,3.407578857421875,0.11922015909817452,-0.19403904676437378,0.05487490090305276,0.06424707174301147,-0.11805571149734945,0.9905979652380766,-0.2414358857472284,right,-0.0014001131057739258,0.07038583621853779,1.1634948400091378,-9.712930098295212,0.04203739927248618,0.029511708766222,-0.00829305499792099,-0.6896795695982874,-0.042494431138038635
1776815653224578800,3.447578857421875,0.12101806880486556,-0.12910544872283936,0.05559658313257276,0.031456783413887024,-0.12155777942273648,0.9901151170302437,-0.24860277648772383,right,-0.010623157024383545,0.07066286052582302,1.1809328084789217,-9.710632342746853,0.04248014298290512,-0.008403006941080093,-0.01933770626783371,-0.6923894861441106,-0.025111019611358643
1776815653369607200,3.592607177734375,0.1259445973462249,-0.10304661095142365,0.057890601905865556,0.0175849050283432,-0.12873816734158466,0.9890981619327937,-0.2631569648618047,right,-0.00666859420016408,0.06813518583286442,1.2289739319398998,-9.706401573309302,0.041951316233846334,-0.008807240054011345,-0.00021305447444319725,-0.6676611414704472,-0.005885526537895203
1776815653409607200,3.632607177734375,0.12662474033872526,-0.11407643556594849,0.058118564248585636,0.031011665239930153,-0.13110885425805424,0.9887633851381199,-0.2679871534548026,right,0.0008624792098999023,0.0682357359232957,1.2355669004641472,-9.705497317945957,0.0421852760713705,-0.004790070932358503,-0.0033016204833984375,-0.6686448918107897,-0.01247590035200119
1776815653449607400,3.672607421875,0.12730534928858006,-0.12510626018047333,0.058346180230937426,0.044438425451517105,-0.13347878232812763,0.988422805558846,-0.2728174473602014,right,0.00839322805404663,0.06833300111825204,1.2421639606416224,-9.704589555451273,0.04241898721584156,-0.0007729013450443745,-0.006390616297721863,-0.6695965665124356,-0.019069552421569824
1776815653489607400,3.712607421875,0.12798643407547414,-0.13613608479499817,0.05857346066593832,0.05786518752574921,-0.1358479064428182,0.988076462155114,-0.27764778948015834,right,0.015923738479614258,0.068426983144599,1.248765258602798,-9.703678285825251,0.042652448546239896,0.0032442687079310417,-0.0094800665974617,-0.6705160194449127,-0.025666482746601105
1776815653529607200,3.752607177734375,0.13015424769166292,-0.15073150396347046,0.059565985699533204,0.03236529231071472,-0.13869038465181927,0.9876219876773343,-0.2834515965746904,right,0.003771543502807617,0.06778353542849548,1.269853785469383,-9.701374685057997,0.04265503445746792,-0.02302667871117592,-0.007063612341880798,-0.6642205725625157,-0.01548832654953003
1776815653569607200,3.792607177734375,0.13231817328376147,-0.16532692313194275,0.060557950889011114,0.006865397095680237,-0.14153158719718933,0.98715837637932,-0.2892537618586745,right,-0.008384406566619873,0.0671275406867757,1.2909011035427451,-9.699033674889803,0.042657219902969334,-0.04929763078689575,-0.004642978310585022,-0.6578021568875759,-0.00532270222902298
1776815653609607200,3.832607177734375,0.1344781913947393,-0.17992232739925385,0.061549365989738154,-0.018634501844644547,-0.1443715079300843,0.9866857123301999,-0.2950543259746527,right,-0.020544111728668213,0.06645904634778675,1.311906774431467,-9.696656424364447,0.042659016384849285,-0.07556857913732529,-0.002218097448348999,-0.6512610646810382,0.004830420017242432
1776815653649607200,3.872607177734375,0.13538039518840098,-0.21983522176742554,0.06210017380340207,0.08978061378002167,-0.14827760088789194,0.9861331895043185,-0.302755478162599,right,0.0028187036514282227,0.06290991425788664,1.3209582420237362,-9.697698042371869,0.041213781731418084,-0.057034507393836975,0.016023650765419006,-0.6165287739958614,0.00201425701379776
1776815653689607400,3.912607421875,0.13407143152973128,-0.1560913622379303,0.06164682669644318,0.0016331076622009277,-0.15107853871687274,0.985812174698894,-0.30810235176735506,right,0.0025764107704162598,0.05901146516755423,1.3085745612688362,-9.701727151757478,0.03936056396827468,-0.05955267697572708,-0.0036007165908813477,-0.5783690661452711,-0.01963227242231369
1776815653729607400,3.952607421875,0.13274189724565005,-0.09234748780727386,0.061192762069760466,-0.08651438355445862,-0.1538777333081279,0.9854797491249809,-0.31345316092846853,right,0.0023197531700134277,0.05512005885559382,1.295962770846486,-9.705615391367674,0.03750688893043811,-0.06207084283232689,-0.023201830685138702,-0.5402695640493184,-0.041272666305303574
1776815653769607400,3.992607421875,0.13056220398478727,-0.06992802768945694,0.060204167541156185,-0.01120564341545105,-0.15546250210784382,0.9853278193838956,-0.3164625320689533,right,0.03266191482543945,0.053336624482407294,1.2749278738632797,-9.709357500505448,0.036551449719107926,-0.00779106467962265,-0.016748636960983276,-0.522805730485916,-0.07238739728927612
1776815653809607200,4.032607177734375,0.13292245351385765,-0.06765535473823547,0.06116897678851555,0.03997545316815376,-0.15692156594691667,0.9849942348168914,-0.31963582152148584,right,0.00761038064956665,0.05507606733417604,1.2977182362116872,-9.705404963487386,0.037688388319926054,0.001651630736887455,-0.015093356370925903,-0.5398388079492374,-0.05741633102297783
1776815653849607200,4.072607177734375,0.1352884260716553,-0.06538268178701401,0.06213350826744521,0.09115655720233917,-0.1583799017362009,0.9846561597600546,-0.32281343695837944,right,-0.017449915409088135,0.05680801459607065,1.320549222831428,-9.701366501751542,0.03882515839001102,0.01109432615339756,-0.013442210853099823,-0.5567968108823522,-0.042452920228242874
1776815653889607200,4.112607177734375,0.13854924968339138,-0.05253193527460098,0.06367142305540367,0.08432939648628235,-0.1593587327291214,0.9843808863967695,-0.32495415848091846,right,-0.007454514503479004,0.05712074871157581,1.3521524217106402,-9.69683587258458,0.03930535799414758,-0.03386067599058151,0.01108194887638092,-0.5598587192036211,-0.003406822681427002
1776815653929607400,4.152607421875,0.140613156208464,-0.003743249922990799,0.06481148313541393,0.040616847574710846,-0.15992626769210633,0.9842411876614865,-0.32605618861675356,right,-0.00637441873550415,0.055337796567005514,1.3723007451176643,-9.694997551241517,0.03862857794354486,-0.024581363424658775,0.005209982395172119,-0.5424015711093321,-0.024034421890974045
1776815653969607400,4.192607421875,0.1426749136070444,0.04504543915390968,0.06595141339789627,-0.0030957013368606567,-0.16049352988170845,0.9840994405228833,-0.327154561094274,right,-0.005301237106323242,0.053552576388543056,1.392421888256818,-9.69309025631547,0.03795172022777377,-0.015302049927413464,-0.0006592720746994019,-0.524920494150184,-0.04466445744037628
1776815654009607400,4.232607421875,0.1426700008857679,0.204604834318161,0.06602922885471905,0.017000950872898102,-0.15504318356108004,0.9849513836432429,-0.3162032403101134,right,0.0002435445785522461,0.055145804319663996,1.3922536920830606,-9.692257312622665,0.03837378333754453,0.010885677300393581,-0.0005571693181991577,-0.5405216391142458,-0.06133955717086792
1776815654049607200,4.272607177734375,0.14264757522764948,0.36416423320770264,0.0661050108335325,0.03709760308265686,-0.14958812026274146,0.9857730620866617,-0.3052509611879927,right,0.005788326263427734,0.05673886567286529,1.3919120390385389,-9.691423784407974,0.038794667306178414,0.03707340732216835,-0.00043739378452301025,-0.5561197884036228,-0.07801495492458344
1776815654089607200,4.312607177734375,0.14260767037192432,0.5237236618995667,0.06617877090062864,0.05719425901770592,-0.14412841790697753,0.986564566071113,-0.29429752004883986,right,0.011333167552947998,0.05833158449316516,1.3913976597756146,-9.69059025619328,0.039214358741944746,0.06326113641262054,-0.0003000199794769287,-0.5717131884526461,-0.09469083696603775
1776815654129607200,4.352607177734375,0.14419284796603604,0.6143004894256592,0.06692156431970053,0.047449108213186264,-0.13294542096581674,0.9879710474868685,-0.27222842413596327,right,-0.022702157497406006,0.06515457505605149,1.4061639978833496,-9.6842867721349,0.04195584373682045,0.06338673830032349,-0.01475401222705841,-0.6384962756540626,-0.05040424317121506
1776815654169607400,4.392607421875,0.14395209068923526,0.5204871296882629,0.06683159266513927,0.03146357834339142,-0.12243719377360786,0.9892288541040074,-0.25144434028156193,right,-0.015813350677490234,0.07148383653295258,1.403224583430588,-9.680431850272416,0.04437209720048148,0.05784520134329796,-0.005038723349571228,-0.7004202323865145,-0.02346637099981308
1776815654209607400,4.432607421875,0.14357931795239784,0.4266737699508667,0.06673373409862512,0.01547805406153202,-0.11191454420856049,0.9903701108449755,-0.23064891596161116,right,-0.008944809436798096,0.07780673869400855,1.3989542126350103,-9.67637760644555,0.04678312014592745,0.05230366066098213,0.004812270402908325,-0.762253953552246,0.0034623071551322937
1776815654249607400,4.472607421875,0.1428489434570242,0.36371779441833496,0.06651349437459082,0.01832210086286068,-0.10401858992758534,0.9911760027666551,-0.21498402706110048,right,-0.004184305667877197,0.08186347718483948,1.3914347769156097,-9.674256376507877,0.04823025925921322,0.041128747165203094,0.018961042165756226,-0.8019101835709065,-0.0033019408583641052
1776815654289607200,4.512607177734375,0.1424523554730013,0.31843093037605286,0.06639949602821141,0.019647257402539253,-0.09764543296561656,0.9917499147364406,-0.2024284303222807,right,0.0015553832054138184,0.08608456410899892,1.3871050771482287,-9.671370591938494,0.049884297817889875,0.06445758789777756,0.015754729509353638,-0.8431590165432542,-0.015605710446834564
1776815654329607200,4.552607177734375,0.14200243430449136,0.27314406633377075,0.06628259065732252,0.020972415804862976,-0.09126809175115616,0.9922805005700489,-0.18986663753430247,right,0.00728529691696167,0.09030033489619525,1.3822382017642258,-9.668388945779204,0.05153615110500835,0.08778642863035202,0.01260317862033844,-0.8843409217592328,-0.027916312217712402
1776815654369607200,4.592607177734375,0.1387378548945623,0.2911657691001892,0.0647206622501706,-0.10653902590274811,-0.08559830062808071,0.9927850795066038,-0.1786408078178032,right,0.0034304261207580566,0.09528569089010194,1.3500411286450922,-9.668363226816057,0.05349673712859805,0.07946135848760605,0.005552411079406738,-0.9330201969932764,-0.030833251774311066
1776815654409607200,4.632607177734375,0.13383829404164155,0.25175565481185913,0.06237421205912117,-0.07784581184387207,-0.08046931435575284,0.9932762197665822,-0.16835500250782018,right,0.01330488920211792,0.09959151118104619,1.3021062420375644,-9.670790746223926,0.05510319195702961,0.06080283969640732,0.020626753568649292,-0.9750455672960728,-0.026524238288402557
1776815654449607400,4.672607421875,0.12572312931536697,0.3395973742008209,0.058625511423194145,-0.2215571403503418,-0.07430364546614494,0.9939784782295683,-0.15560697512666827,right,0.02006608247756958,0.10122527335732022,1.2233828339345751,-9.679445177322625,0.05521481316369073,-0.07095099240541458,0.03432876616716385,-0.9909865752063691,-0.015000663697719574
1776815654489607400,4.712607421875,0.1173883193222612,0.39534395933151245,0.05495603771397381,-0.19720855355262756,-0.06666071455397136,0.9947997491597005,-0.1397087955939762,right,0.029324591159820557,0.10016040279023608,1.142787859806046,-9.69034826413095,0.05394042086511901,-0.09854815155267715,0.03441113978624344,-0.9805966255519538,-0.03786148875951767
1776815654529607200,4.752607177734375,0.10907252052451699,0.451090544462204,0.05128249350991825,-0.17285995185375214,-0.0590127864846034,0.9955472077087761,-0.12382177485185109,right,0.038524508476257324,0.09896389465563422,1.0622932042468338,-9.700675596877932,0.052662032990275935,-0.12614531815052032,0.03448326885700226,-0.968921020001173,-0.06085339933633804
1776815654569607200,4.792607177734375,0.1036145631253323,0.42409396171569824,0.04917560310930383,-0.029294580221176147,-0.050221147504413546,0.9962912232488922,-0.10561383614365807,right,0.03150266408920288,0.09409744337223447,1.0098075224671512,-9.710904145425557,0.04963305474573978,-0.269237220287323,0.04404497891664505,-0.921419629440084,-0.05049436539411545
1776815654609607200,4.832607177734375,0.1016966911850447,0.4077558219432831,0.04899665437868669,-0.029702410101890564,-0.04154493968385389,0.9970482454675319,-0.08735426626076055,right,-0.00839775800704956,0.07986340486447586,0.9924124432910233,-9.72488649354875,0.04204894870575068,-0.5685011744499207,0.05263929069042206,-0.782360264448449,-0.0774514451622963
1776815654649607200,4.872607177734375,0.10041434329117938,0.35818085074424744,0.049240393196202235,-0.007000695914030075,-0.0332990164817065,0.9978486137268714,-0.06932693234681815,right,0.026830315589904785,0.051930708578247504,0.9817491565879434,-9.74409738997519,0.027652833899829258,-0.7196131348609924,0.05500757694244385,-0.5090375000374391,-0.1209038496017456
1776815654689607400,4.912607421875,0.09963716078029876,0.3086059093475342,0.04947054171512633,0.015701020136475563,-0.025043905035697006,0.998373623667612,-0.051354554993574296,right,0.06123226881027222,0.023979505412340497,0.9752104755342006,-9.755206813010572,0.013249087238595858,-0.870725154876709,0.0569552481174469,-0.23513615028718485,-0.16441524028778076
1776815654729607400,4.952607421875,0.09992079344618199,0.2611696124076843,0.05001595267864712,-0.0300662349909544,-0.01836006098532465,0.998572494966314,-0.0362988796615645,right,0.06262803077697754,-0.009391422490873805,0.9782154295038431,-9.757304662072658,-0.003782746167488473,-0.9166317582130432,0.05777392536401749,0.09209698581122792,-0.18473213911056519
1776815654769607400,4.992607421875,0.09868286916999185,0.21813523769378662,0.049562109278549496,-0.05108435079455376,-0.013299081133690464,0.9984793437101485,-0.024584800881235748,right,0.06963473558425903,-0.04155400275109201,0.9653444766886532,-9.750514271280169,-0.020142521835424167,-0.8466179370880127,0.07363070547580719,0.40738826663810757,-0.1684766709804535
1776815654809607200,5.032607177734375,0.09782043524904878,0.17510086297988892,0.049093720234632265,-0.07210247218608856,-0.008234219100079918,0.998093177446463,-0.012888921254160872,right,0.07557368278503418,-0.07372885559101122,0.9551596942175179,-9.733253339877724,-0.036496381718556105,-0.7766041159629822,0.08921358734369278,0.7223782355640083,-0.15219047665596008
1776815654977738500,5.200738525390625,0.07056343023337304,0.029830073937773705,0.03473134099085471,-0.36339670419692993,0.00030876483086162137,0.994552904819795,0.007587005505464243,right,0.2561209201812744,-0.19672395745416496,0.6780809017412364,-9.593567221289872,-0.09827480132708939,-0.8142791390419006,0.004844490438699722,1.9167837621435522,-0.255697101354599
1776815655017738500,5.240738525390625,0.06028698484477034,0.059325605630874634,0.029223687874655596,-0.2893974781036377,0.00303784238171277,0.9932396786629321,0.012923840553549667,right,0.3043363094329834,-0.22479500697189866,0.5759893314018846,-9.54254547458291,-0.11230123511835428,-0.800758957862854,-0.04979926720261574,2.1859664676077664,-0.1846119463443756
1776815655057738500,5.280738525390625,0.05009480262620211,0.08882113546133041,0.023709122361264795,-0.21539826691150665,0.0057661478541685355,0.9916917155896887,0.0179990148741376,right,0.3516574501991272,-0.2529179613668643,0.4754345056431368,-9.48275414596498,-0.12630113152572373,-0.7872387170791626,-0.10459974408149719,2.4539196312770244,-0.1134013831615448
1776815655097738500,5.320738525390625,0.039972538102030865,0.1183166652917862,0.018188963054454298,-0.1413990557193756,0.008493129657387667,0.9899095630567596,0.02281493798066408,right,0.398090124130249,-0.281089582596494,0.37651203032657504,-9.41424993405938,-0.1402711956731586,-0.773718535900116,-0.15956664085388184,2.72039059356451,-0.042039722204208374
1776815655137738500,5.360738525390625,0.03872309922932721,0.16875819861888885,0.016662614653153968,-0.17415322363376617,0.012502310484719942,0.9874485905175219,0.03144993257052566,right,0.29430127143859863,-0.3139047948005528,0.36109753050841387,-9.320456967118382,-0.15656086495158117,-0.8064695000648499,-0.17180152237415314,3.028048137243092,0.05799737572669983
1776815655177738500,5.400738525390625,0.03776086365872721,0.2191997468471527,0.0151314650050698,-0.20690739154815674,0.01650788705020641,0.9847014471867869,0.0401391160697803,right,0.1894734501838684,-0.3467291461791316,0.34818756085708735,-9.216474030074476,-0.17280517149023625,-0.8392204642295837,-0.184291809797287,3.3325296812340617,0.15835830569267273
1776815655217738500,5.440738525390625,0.033534541223785665,0.12916234135627747,0.011892468215842927,0.14571690559387207,0.02097496493289066,0.9820991378477847,0.0490742845890652,right,0.37859177589416504,-0.37518326643401007,0.3059287471245974,-9.11937383828163,-0.18681512273780046,-0.4485231935977936,-0.07205087691545486,3.593578910733759,0.16639456152915955
1776815655257738500,5.480738525390625,0.038130791080522024,0.09394779801368713,0.013661939289515493,0.08962708711624146,0.02167153493376953,0.9804930012203683,0.051759640211607214,right,0.27810245752334595,-0.39148245114514,0.3455613040067255,-9.058132895377279,-0.19487710736678673,-0.40208834409713745,-0.05842478200793266,3.741817169089615,0.16491559147834778
1776815655297738500,5.520738525390625,0.04280648134136001,0.0587332546710968,0.015430449814740264,0.03353726491332054,0.022366595852826247,0.9788171201319017,0.05454519272141748,right,0.17735189199447632,-0.40776992779340493,0.38525103443618863,-8.994331162074207,-0.20292521347236434,-0.3556535243988037,-0.044804513454437256,3.888955649510026,0.16354882717132568
1776815655337738500,5.560738525390625,0.04756565552872738,0.023518718779087067,0.01719786188071097,-0.02255256101489067,0.023060024660789727,0.9770715458402176,0.05743428347940028,right,0.07634192705154419,-0.4240451122980385,0.4249861018447205,-8.927985589507221,-0.21095887103025884,-0.3092186748981476,-0.031188879162073135,4.034952850940823,0.16229838132858276
1776815655377738500,5.600738525390625,0.04974219113356792,0.13884025812149048,0.017779027609428285,-0.02328110672533512,0.024360016029239408,0.9762413612604527,0.060794963381523515,right,0.017486572265625,-0.4313429305054066,0.4429411895237863,-8.897391713801026,-0.2145766996825166,-0.13537070155143738,-0.05529732257127762,4.1000735578879715,0.16719278693199158
1776815655417738500,5.640738525390625,0.05019101644442291,0.19972538948059082,0.01710697109941336,0.025418372824788094,0.027954867077817774,0.9757162974061737,0.0683872779477807,right,0.1263885498046875,-0.4352854174263427,0.44612007528822867,-8.880978923660516,-0.21657200358434647,0.11868181824684143,-0.055420998483896255,4.135162699186802,0.2123434841632843
1776815655457738500,5.680738525390625,0.0524180635623073,0.12477768957614899,0.01748760085555325,-0.08127216249704361,0.030894234487783678,0.9756026491979689,0.0749066186911783,right,0.021361947059631348,-0.4352708605873744,0.4659004786983132,-8.880023814892768,-0.2166540618190908,-0.006803557276725769,-0.043151117861270905,4.135033227588236,0.18898126482963562
1776815655497738500,5.720738525390625,0.05342158140941787,-0.06787590682506561,0.018474853433919806,-0.04788683354854584,0.028656346922253693,0.9757714001781159,0.0705057745343817,right,-0.07017743587493896,-0.4342242183365254,0.4750423279877752,-8.883868215361238,-0.21611905463652606,0.03116321563720703,0.011087935417890549,4.1257241319730875,0.23793327808380127
1776815655537738500,5.760738525390625,0.05442972512263214,-0.2605295181274414,0.019462013701044077,-0.014501508325338364,0.026418262698477597,0.9759339956653091,0.0661058822834046,right,-0.16172057390213013,-0.4331816352100185,0.4842320350069552,-8.887675206428765,-0.21558270953026007,0.06912998855113983,0.06532212346792221,4.116446308279037,0.2868821322917938
1776815655577738500,5.800738525390625,0.05033496295741658,-0.24646340310573578,0.018481624331517427,-0.06483478099107742,0.022695614381379358,0.9766005518902259,0.057419289718461324,right,-0.2198704481124878,-0.42828334887302744,0.4488443126203492,-8.909614651036263,-0.21305984043999837,0.18091093003749847,0.10620519518852234,4.072798305210471,0.35800880193710327
1776815655617738500,5.840738525390625,0.04513346280735063,-0.004274040460586548,0.016891939353473495,-0.06697282195091248,0.01980144007376418,0.9779046812809773,0.05004263924284203,right,-0.26416826248168945,-0.4169931650687692,0.40454401965551073,-8.95719590190053,-0.20742414030711578,0.3315421938896179,0.11179926246404648,3.9718221487671133,0.23998481035232544
1776815655657738500,5.880738525390625,0.03689127399925114,0.04452946037054062,0.013007181914515097,-0.28163284063339233,0.021053369328070736,0.9793571475265069,0.050528970670805085,right,-0.2683468461036682,-0.4032423179704392,0.3326872824516147,-9.013955899998544,-0.2006164726463937,0.393158882856369,0.08851587772369385,3.8481557293489574,0.34446871280670166
1776815655697738500,5.920738525390625,0.02555699512783883,0.09536967426538467,0.007278267277248555,-0.3499947190284729,0.024265059614603974,0.9808382298106565,0.05449309794829886,right,-0.2629653811454773,-0.3882647602374539,0.2319483322976157,-9.073751320269704,-0.19316953001450887,0.3259870707988739,0.14053431153297424,3.712630237571895,0.3284817636013031
1776815655737738500,5.960738525390625,0.015438187591676063,-0.10937211662530899,0.0024705579252375276,-0.23791179060935974,0.02550004702444008,0.9821179953789342,0.054845788943038425,right,-0.3281482458114624,-0.3749572383097915,0.14087275282284245,-9.124228292575477,-0.18651462404866412,0.3437834680080414,0.17208972573280334,3.591516425246,0.4255360960960388
1776815655777738500,6.000738525390625,-0.0018199618061006332,-0.27324309945106506,-0.004139145294180684,-0.25039684772491455,0.017761111490521606,0.9832624707970467,0.03578739908475508,right,-0.23954641819000244,-0.36466622128948994,-0.01667410339124035,-9.161777394247055,-0.1812793953396957,0.3417030870914459,0.13561391830444336,3.497419214661419,0.41470757126808167
1776815655817738500,6.040738525390625,-0.018798343540079185,-0.43711408972740173,-0.010748306892505268,-0.26288190484046936,0.01001988542365491,0.9842768279265216,0.016995893384606175,right,-0.15121197700500488,-0.3540724517972535,-0.17290316413817927,-9.196703161677718,-0.1760201500648354,0.33962270617485046,0.09900374710559845,3.40016675491631,0.4042007625102997
1776815655857738500,6.080738525390625,-0.035496247408944574,-0.600985050201416,-0.017356045661444497,-0.27536696195602417,0.0022772484752708326,0.9851609601699273,-0.0015289011499030924,right,-0.06314682960510254,-0.3431840030263732,-0.327732107729651,-9.228988059210776,-0.17073762354438551,0.337542325258255,0.06225080415606499,3.2998116529807446,0.3940103352069855
1776815655897738500,6.120738525390625,-0.06857630961344637,-0.9238563776016235,-0.030732696464364127,-0.7204574346542358,-0.011890067919749354,0.9848788373039383,-0.035950157737496345,right,0.15762048959732056,-0.3408501342697993,-0.633318653820455,-9.2207574064821,-0.1700814631152605,-0.01315876841545105,-0.09418442845344543,3.278249809513986,0.29754847288131714
1776815655937738500,6.160738525390625,-0.08472496947336294,-0.8988756537437439,-0.03639094687357708,-0.21146178245544434,-0.026407288829907453,0.9858621137176043,-0.067321288315823,right,-0.20465761423110962,-0.3218687942122389,-0.7872570235140621,-9.269667860123514,-0.1614129927530594,0.26983630657196045,-0.09051703661680222,3.1022353632211686,0.32881948351860046
1776815655977738500,6.200738525390625,-0.10786423590935579,-0.19243282079696655,-0.04663984469725245,-0.07374942302703857,-0.03770792083681629,0.9873748121228372,-0.09211136419199915,right,0.16100454330444336,-0.2900452571159529,-1.01163977939561,-9.342422715210914,-0.14660743405388516,1.426570177078247,-0.10515493899583817,2.804658776313066,-0.02590891718864441
1776815656017738500,6.240738525390625,-0.11280110270585943,0.05680975317955017,-0.05143797163188282,-0.06083257496356964,-0.032111748797628556,0.9911796588094487,-0.07795176300537424,right,0.20702117681503296,-0.2323793726766415,-1.0741862519405783,-9.482409862571954,-0.11783792958197509,1.5076600313186646,-0.3842508792877197,2.258408749614656,0.12301918864250183
1776815656057738500,6.280738525390625,-0.11850772549556993,0.3060523569583893,-0.056189972067709426,-0.04791572317481041,-0.02648679421326006,0.9940959242929741,-0.06367093312555262,right,0.24968302249908447,-0.17478709637467282,-1.1417797056768089,-9.589497779893875,-0.08896277609171305,1.588749885559082,-0.6628321409225464,1.7053616101220248,0.2726403772830963
1776815656097738500,6.320738525390625,-0.11974517026230677,-0.24044129252433777,-0.05832885678757678,0.1002628356218338,-0.021134191672283302,0.996382540021709,-0.04922695842425219,right,0.45111531019210815,-0.11350873120740862,-1.1639558816496283,-9.673769469773768,-0.05807538999370847,1.9026232957839966,-0.7678676247596741,1.1107516763370484,0.4773927330970764
1776815656137738500,6.360738525390625,-0.10832838105508767,-0.6136589646339417,-0.053700610646817394,0.29379087686538696,-0.026351598275369786,0.9980717765188878,-0.05443250712932875,right,0.2893741726875305,-0.03024201959706413,-1.0597772759031503,-9.744707630828023,-0.016565744385251196,1.964835286140442,-0.6266958713531494,0.29652766237705946,0.4794450104236603
1776815656177738500,6.400738525390625,-0.11443064858693555,-1.983466625213623,-0.05815609285301941,0.0575735867023468,-0.04647954539787262,0.9970139539474171,-0.09051688768786317,right,0.574622631072998,0.04631225881581565,-1.1185333431892097,-9.73206792948544,0.02050601580308733,1.9112837314605713,0.007456764578819275,-0.4540058601019904,0.35305678844451904
1776815656217738500,6.440738525390625,-0.08592573832020312,-2.699906826019287,-0.048584348941414994,0.37969446182250977,-0.09053831209580292,0.9927080788396676,-0.1761194196691697,right,0.09834033250808716,0.1343434703969034,-0.8340238892555236,-9.682432668700814,0.06303073318467864,1.7690125703811646,0.5105115175247192,-1.3135001811027527,0.0019207000732421875
1776815656257738500,6.480738525390625,-0.059167045959813466,-2.145519971847534,-0.04256181673422665,0.3318484127521515,-0.13534710771106412,0.9852369771125477,-0.26705353785027297,right,0.5208399891853333,0.20165798835352877,-0.568141029054299,-9.591113982918857,0.09580068691912065,1.493016004562378,0.6035860776901245,-1.9642133295774458,-0.4669033885002136
1776815656297738500,6.520738525390625,0.01314160121447645,-0.7580385208129883,-0.014537762336758629,1.2193061113357544,-0.15948817636278032,0.9786249426009398,-0.32482150298835366,right,-0.6130421757698059,0.2600774313136042,0.12453746663164347,-9.476034482321143,0.12901683094688135,0.5771439671516418,0.24769975244998932,-2.521833183813095,-0.4986434280872345
1776815656337738500,6.560738525390625,0.05328659813457312,-0.5619479417800903,0.0016862587535457917,0.6002580523490906,-0.16993487887857225,0.9753124621602915,-0.35246752029586975,right,-0.023488283157348633,0.27806128272958025,0.5022533563226461,-9.416585683530569,0.14101379538492945,0.762765645980835,0.6305581331253052,-2.6918463438645004,-0.1004534661769867
1776815656377738500,6.600738525390625,0.058906429139573696,-0.2084018588066101,-0.0019056227967923513,0.48590272665023804,-0.1743101819349515,0.9699047571748199,-0.36565697335573194,right,0.0931733250617981,0.33674310971315824,0.5449149056371301,-9.239812820085882,0.16999119707418794,1.0816800594329834,0.5174342393875122,-3.240263485468924,-0.17032238841056824
1776815656417738500,6.640738525390625,0.06549167573838041,0.14514422416687012,-0.005495806546901712,0.3715474009513855,-0.17852841983728557,0.9636232607457472,-0.37950326710802224,right,0.2065466046333313,0.3953472601745325,0.5922887608284131,-9.030791299465298,0.19881544263173295,1.4005944728851318,0.40382978320121765,-3.7768227237582206,-0.24140042066574097
1776815656457738500,6.680738525390625,0.07133208480629268,0.2753368020057678,-0.006422049327864647,0.24889430403709412,-0.17419482754558815,0.9596815190385994,-0.3750552006169123,right,0.1065143346786499,0.43949555599493845,0.6325134018521755,-8.85211990892291,0.22051359247461016,0.800855815410614,0.33485642075538635,-4.172563332298398,-0.30915671586990356
1776815656497738500,6.720738525390625,0.07107809811617534,0.2263035774230957,-0.005541251455574247,0.0334739089012146,-0.16512378974336453,0.9600592269843912,-0.3569466662129374,right,-0.02861499786376953,0.4504932226413525,0.6269681157499551,-8.805973074775933,0.22580878607150817,0.4930310547351837,0.1751931756734848,-4.269909900067747,-0.3648170828819275
1776815656537738500,6.760738525390625,0.0706003831186979,0.17727036774158478,-0.004659830507978118,-0.18194645643234253,-0.15603438067445988,0.9603301751043065,-0.33873709993559387,right,-0.16383641958236694,0.4614848919813536,0.6194129511300474,-8.75892432335317,0.23107884256092232,0.1852063238620758,0.015734903514385223,-4.366687435777485,-0.42053553462028503
1776815656577738500,6.800738525390625,0.06322601690439758,0.17348575592041016,-0.007926631590414426,-0.0924033671617508,-0.15190557667646895,0.9599299820952515,-0.3290847420951761,right,-0.03240853548049927,0.4715569226480172,0.5519981784289703,-8.718916138091682,0.23536385367739487,0.2402111291885376,0.010135393589735031,-4.454904940673709,-0.3145744502544403
1776815656617738500,6.840738525390625,0.05570393322611459,0.16970114409923553,-0.011193078126036456,-0.0028602927923202515,-0.14776970749492177,0.9594854070491526,-0.3192985863805445,right,0.09891360998153687,0.48156444154068473,0.4838922816585749,-8.677872180041671,0.23963796762426148,0.2952159345149994,0.004606351256370544,-4.54210976139605,-0.20871666073799133
1776815656827320300,7.0503203125,-0.003339634398945982,0.8849056959152222,-0.03036819649634251,0.3098015785217285,-0.10585559868840093,0.9588992826051925,-0.21898391595006142,right,0.02743436023592949,0.5327934419633643,-0.02821104482342489,-8.447318042048812,0.26150414802946575,0.3954979181289673,-0.05264618247747421,-4.9812055275380605,0.07484915852546692
1776815656867320300,7.0903203125,-0.012068326189205614,0.8669499158859253,-0.029202998237654515,0.2514379322528839,-0.08606383229480748,0.9597981187106216,-0.17551380790417104,right,-0.06042611598968506,0.5407914906710609,-0.10145903545632026,-8.40664291731119,0.2655704596290721,0.20961368083953857,0.020195700228214264,-5.0486079156816,0.15343314409255981
1776815656907320300,7.1303203125,-0.021237424737627776,0.8489941358566284,-0.02802580148169334,0.1930743157863617,-0.06623681679936005,0.9603029698548525,-0.1317570455569294,right,-0.14823931455612183,0.5484549381812215,-0.17770818979972972,-8.366431902953982,0.26952781516651636,0.023729443550109863,0.09334363788366318,-5.1128877878904335,0.2316986322402954
1776815656947320300,7.1703203125,-0.04084157829330354,0.8198478817939758,-0.032065628876980716,0.17808808386325836,-0.049079777449580295,0.9598529713377697,-0.09046826057759066,right,-0.10915958881378174,0.5582926809573914,-0.339610140517354,-8.310679620593787,0.274308335504396,0.235385462641716,0.04147631675004959,-5.194964598074555,0.2386120855808258
1776815656987320000,7.210320068359375,-0.06102803051219993,0.7907016277313232,-0.03609472907589,0.16310185194015503,-0.03190632061597448,0.9590825865742546,-0.048710885632157044,right,-0.07013285160064697,0.5674296178214391,-0.5043765955543146,-8.25440711375177,0.2789973296939434,0.44704148173332214,-0.010098896920681,-5.270743769419193,0.24488335847854614
1776815657027320000,7.250320068359375,-0.08176580726560163,0.7615553736686707,-0.04011182561700544,0.1481156200170517,-0.014722247068455176,0.9579922398345594,-0.006505941443495339,right,-0.03115135431289673,0.5758420141998332,-0.6717886697292328,-8.197691539317368,0.2835931830349036,0.6586974859237671,-0.06140433996915817,-5.3401253486812115,0.25050225853919983
1776815657067320300,7.2903203125,-0.09260164765856786,0.5013951659202576,-0.04131745095498272,0.13622082769870758,-0.0042500683451287755,0.9545474337519813,0.019708304865026276,right,0.03656202554702759,0.5990060687184794,-0.7489350377738475,-8.064575446769595,0.2951506880826891,0.6702463626861572,-0.031304411590099335,-5.529204151469469,0.1691930890083313
1776815657107320300,7.3303203125,-0.10435683603471652,0.2412349283695221,-0.042512492594220914,0.12432604283094406,0.006223302948237421,0.9508577738324727,0.04665599625019938,right,0.10382992029190063,0.6219222981104124,-0.8302624178301542,-7.927091806662082,0.30663247193890647,0.6817952394485474,-0.0007781386375427246,-5.713341406202316,0.08737993240356445
1776815657147320300,7.3703203125,-0.10302890817040584,0.09279675781726837,-0.03996020926460646,0.09898470342159271,0.009758782963486453,0.9465315063563666,0.05534557299477908,right,0.03750056028366089,0.6497143774025207,-0.8030900410052388,-7.7672022734791035,0.319978217038801,0.5762200355529785,-0.00906015932559967,-5.93262187050879,0.08228480815887451
1776815657187320300,7.4103203125,-0.10198191458121243,-0.055641382932662964,-0.03739932626007343,0.07364337146282196,0.013292251501088743,0.9420009348835683,0.06417898490168787,right,-0.02947390079498291,0.6775147746218866,-0.7778617109201849,-7.6009858753621575,0.33325491514092825,0.47064483165740967,-0.017143920063972473,-6.147383980607986,0.0767289400100708
1776815657227320300,7.4503203125,-0.0963044482650835,-0.12107288837432861,-0.03467959051778224,0.19463106989860535,0.012233612142780815,0.9382083724400369,0.061299631037798216,right,0.011202991008758545,0.70082425684357,-0.7207183395277709,-7.460598330506682,0.3441114079876213,0.7404773235321045,0.02787020057439804,-6.323797947612404,-0.0579647421836853
1776815657267320000,7.490320068359375,-0.08732792279464492,-0.10767273604869843,-0.030141737732705155,0.18452298641204834,0.012028086593097898,0.9329029003423511,0.05928062493459809,right,0.03040921688079834,0.7321495019057701,-0.6361248703476041,-7.265796473896503,0.3586626976922765,0.8391425609588623,0.031714893877506256,-6.5554504022359845,-0.017729341983795166
1776815657307320300,7.5303203125,-0.07799926586112141,-0.09427259117364883,-0.0255960339790886,0.17441488802433014,0.01181940862881437,0.9273544135407544,0.0568129907305955,right,0.04882645606994629,0.7634595365183021,-0.5520489222355187,-7.063257301032543,0.37312054808034106,0.9378077983856201,0.03561235964298248,-6.7805626414358615,0.0218392014503479
1776815657347320300,7.5703203125,-0.07397552822251217,-0.1137055829167366,-0.02239448541017589,0.16118471324443817,0.012894706583237972,0.9197317817468659,0.059488091581331816,right,0.0009323954582214355,0.8037053690662037,-0.50303654258959,-6.787630095604062,0.39169585680283797,0.9658447504043579,0.056552860885858536,-7.06012893987894,0.05338090658187866
1776815657387320300,7.6103203125,-0.06993495705668103,-0.13313858211040497,-0.019183659743590525,0.1479545384645462,0.013964637705230088,0.911727813063878,0.06203837770093968,right,-0.04811573028564453,0.8439585382452581,-0.45536786917019634,-6.500685377347469,0.4101088235514677,0.9938817024230957,0.07763040065765381,-7.3283087519109245,0.08376151323318481
1776815657427320300,7.6503203125,-0.06586136708577885,-0.15257157385349274,-0.0159649551614766,0.13472434878349304,0.015028775395532667,0.903345919447687,0.06445537328117545,right,-0.09826922416687012,0.8842183359187215,-0.4091232737371698,-6.202900116124749,0.4283517431602564,1.0219186544418335,0.09885317087173462,-7.584657256373762,0.11293572187423706
1776815657467320300,7.6903203125,-0.07071055200263617,-0.0757749006152153,-0.017439133598298438,-0.03124484419822693,0.011728957423778281,0.8912472202819358,0.062215074231910666,right,-0.02363830804824829,0.9392492444188698,-0.4090580264812335,-5.775318846687674,0.4530304014116191,1.3039435148239136,0.0680898129940033,-7.915095663920044,0.03255349397659302
1776815657507320000,7.730320068359375,-0.07573665771238271,0.0010217800736427307,-0.018899938648169516,-0.1972140520811081,0.008420123772549196,0.8784636480706364,0.06027801330742696,right,0.04921382665634155,0.9942863192803091,-0.40447230612616986,-5.3302931059747936,0.4773609203232264,1.5859683752059937,0.03686550259590149,-8.221603160780667,-0.05026900768280029
1776815657547320000,7.770320068359375,-0.1037721665300553,0.26084592938423157,-0.023706325425255047,-0.29842251539230347,0.009200356178220395,0.8606678061202893,0.0825839799228637,right,-0.024772942066192627,1.0652645265207745,-0.49193968677483496,-4.723544771432876,0.5085314384973434,2.0489916801452637,0.008492190390825272,-8.580006264573335,-0.20302236080169678
1776815657587320300,7.8103203125,-0.15463388442499124,0.15825340151786804,-0.03144950921460901,-0.40372565388679504,0.0095943376954364,0.8381664825246692,0.12302166629925418,right,0.022705525159835815,1.148206547123529,-0.6194527716837823,-3.9739501007065177,0.5444224764344874,2.0950675010681152,-0.020732760429382324,-8.943958234664798,-0.07387036085128784
1776815657627320300,7.8503203125,-0.22708452780238278,0.05566087365150452,-0.039134397572189575,-0.5090287923812866,0.009970510787817913,0.8141106805681729,0.1852310357072521,right,0.06714227795600891,1.229897283295259,-0.7381600343246012,-3.1945272779494522,0.5793038142982636,2.141143560409546,-0.05085562914609909,-9.242322172558307,0.04859328269958496
1776815657792408800,8.015408935546875,-2.6478189889594335,-0.21253575384616852,-0.042946264870934565,-0.30942586064338684,-0.012625724367539407,0.6802399034416104,2.5691379097711655,right,0.13535374402999878,1.4863970952908685,-0.3918053879830986,0.7279319241683929,0.7316213280791859,2.532458782196045,-0.04614196717739105,-9.771744106313585,-0.0614374577999115
1776815657832408600,8.05540869140625,-2.943995677522358,-0.13974741101264954,-0.0446258990021407,-0.1899256706237793,-0.015707157660270823,0.6448721710248828,2.858329251790281,right,0.11212101578712463,1.3988336131563035,-0.3294287555797025,1.6454213745526969,0.762824761561817,2.2310783863067627,-0.06784068048000336,-9.662010642918943,-0.07508498430252075
1776815657872408600,8.09540869140625,-3.040047307330122,-0.06695907562971115,-0.04620572656494593,-0.07042545825242996,-0.01875345470867856,0.6080619632081905,2.9473403433161316,right,0.09041440486907959,1.306569061399772,-0.2596246583229862,2.547943192103505,0.7923218548270501,1.929697871208191,-0.09029678255319595,-9.466306869032978,-0.09749895334243774
1776815657912408600,8.13540869140625,-3.0882457706856843,0.005829252302646637,-0.047682179813090954,0.04907473921775818,-0.02175783609762995,0.5698915703637032,2.9884106402666317,right,0.07105708122253418,1.213227000550707,-0.18301623307997358,3.4274288558512924,0.8200466969058107,1.6283173561096191,-0.11344671249389648,-9.1863834277153,-0.1285010576248169
1776815657952408800,8.175408935546875,-3.1144806197788966,-0.11523513495922089,-0.0444993350397595,-0.034293994307518005,-0.02291887199995989,0.5497057608288464,3.0171017350957006,right,0.07104364037513733,1.1650097016993308,-0.10494037476605735,3.86967256463021,0.8338573869792396,1.3960682153701782,-0.08199261873960495,-9.010273996615409,-0.07885241508483887
1776815657992408800,8.215408935546876,-3.134928461009559,-0.236299529671669,-0.04128940264311462,-0.11766274273395538,-0.02406592694451216,0.5291847411574274,3.040030275267127,right,0.0719546377658844,1.1165573757705025,-0.02867543148176046,4.302850046639144,0.8471596166013785,1.1638190746307373,-0.05035385116934776,-8.812209338817,-0.03144228458404541
1776815658032408800,8.255408935546875,3.131945535980102,-0.3573639392852783,-0.03805436312726168,-0.20103149116039276,-0.025198327737602364,0.5083411821998863,3.0588501981864864,right,0.07389774918556213,1.0679390070527082,0.04559280329367611,4.725907993432879,0.859945374557162,0.9315698742866516,-0.01851150393486023,-8.592676945576072,0.013778626918792725
1776815658072408600,8.29540869140625,3.1125770217315014,-0.2977813482284546,-0.03345229861201769,-0.15725508332252502,-0.027657644213266254,0.49815124863783145,3.0810742500802,right,0.060742199420928955,1.0444561030788606,0.14292802311852573,4.924515672066807,0.8660030522198541,0.6679477095603943,-0.009468764998018742,-8.479334644034504,-0.025440335273742676
1776815658112408600,8.33540869140625,3.094961572340199,-0.23819875717163086,-0.028844631943088356,-0.11347866803407669,-0.03011231796671741,0.48787774556002417,3.101563431176738,right,0.047862470149993896,1.0207751447576734,0.23894379894183948,5.120417598873376,0.8719154548173934,0.40432554483413696,-0.0002914946526288986,-8.360301437374948,-0.06523960828781128
1776815658152408600,8.37540869140625,3.0788959695032645,-0.17861616611480713,-0.02423223863775301,-0.06970225274562836,-0.0325619481847646,0.47752239741714636,3.120521929647116,right,0.03527212142944336,0.9969208596171738,0.3335749154737219,5.3134828409492965,0.8776815898996819,0.14070338010787964,0.009026981890201569,-8.235657989618181,-0.10561108589172363
1776815658192408800,8.415408935546875,3.0636657465366004,-0.08516378700733185,-0.02059448066612453,0.10965171456336975,-0.03533534977564796,0.4764017852792093,3.1369935177697243,right,0.07304489612579346,0.9941206317924814,0.41625188350807873,5.330752540180087,0.8782758827760532,0.04820460081100464,0.023410014808177948,-8.220717610117793,-0.1432180404663086
1776815658232408800,8.455408935546876,3.0485884026820327,0.00828859955072403,-0.016956221785244526,0.28900566697120667,-0.038107990322100785,0.4752704892318205,-3.129871989917151,right,0.11083269119262695,0.9911851992015588,0.4988139929911121,5.347873770850897,0.8788504461219545,-0.044294193387031555,0.037804774940013885,-8.204986372500658,-0.1809057593345642
1776815658272408800,8.495408935546875,3.0470075426380734,-0.22193798422813416,-0.014185186177186062,-0.20853909850120544,-0.037096883321591126,0.475454044356048,-3.1227037463709593,right,-0.06799864768981934,0.9913242752637917,0.5071597965320572,5.345942510527372,0.8788435173219505,0.0878305733203888,-0.020703714340925217,-8.205733391475677,0.011184394359588623
1776815658312408600,8.53540869140625,3.039916544466578,-0.05851823091506958,-0.014735111453588688,-0.11832859367132187,-0.03982759016627695,0.4720949758962194,-3.12054993551116,right,-0.018938839435577393,0.9837057997405972,0.5513845765752717,5.404251491633057,0.8805242500777526,0.14302432537078857,0.00010028854012489319,-8.164584804007411,-0.009205818176269531
1776815658352408600,8.57540869140625,3.0329350463473514,0.10490153729915619,-0.015284796244047816,-0.028118081390857697,-0.04255744678209626,0.468725576209106,-3.118517161389843,right,0.03017634153366089,0.9760791664133003,0.5958363703073933,5.462016867381334,0.882185737204249,0.19821809232234955,0.020881179720163345,-8.122917745622992,-0.029649078845977783
1776815658392408600,8.61540869140625,3.041628861657441,0.14177966117858887,-0.017581863452294066,0.016297992318868637,-0.0412502866172045,0.4648990752791202,-3.128788807512417,right,-0.02152109146118164,0.9677356362864159,0.5550729827644303,5.534233377808332,0.8842274440367494,0.1993895024061203,0.001970358192920685,-8.076792538785934,0.016279160976409912
1776815658432408800,8.655408935546875,3.046897319809613,0.04209917038679123,-0.019405954307328985,-0.027214951813220978,-0.04061551629043664,0.46308240049404736,-3.1358744187557637,right,-0.012066841125488281,0.9638455972817339,0.5288754423210397,5.5683180182397365,0.8851714790227451,0.01471586525440216,-0.00325591117143631,-8.055095086240767,0.026338517665863037
1776815658472408800,8.695408935546874,3.0485154773787326,0.052986908704042435,-0.020071122492651795,0.0028719529509544373,-0.04043690237391423,0.46317692911792707,-3.138210338064336,right,0.0009455084800720215,0.9641300911558061,0.5196513581082225,5.566884770566225,0.8851153685226046,0.036680229008197784,-0.010063759982585907,-8.056686154824495,-0.01919180154800415
1776815658676988700,8.89998876953125,3.0651115574252294,0.03756691887974739,-0.028022579389280978,-0.0470496229827404,-0.039401691639096285,0.4571717507492446,3.117915910160827,right,0.0008489498286508024,0.9513551518035427,0.4350241693215444,5.676902311599254,0.8880631307033545,0.007499443367123604,-0.003650522790849209,-7.984604668954014,0.008244327269494534
1776815658716988700,8.93998876953125,3.06634450279827,0.03320784866809845,-0.028754811949843626,-0.032309047877788544,-0.03937404126870705,0.45724328092760214,3.115639045147526,right,-0.0004900097846984863,0.9515777594401431,0.4278909929733723,5.675663125193119,0.8880041495792713,0.003911747131496668,-0.00195920467376709,-7.985871912410855,0.006639003753662109
1776815658756988400,8.979988525390626,3.067578700161823,0.028848780319094658,-0.029487081403472015,-0.017568476498126984,-0.03934639293920165,0.4573144943095129,3.113360866725592,right,-0.0018293261528015137,0.9517985084100502,0.420755332407169,5.6744274459183215,0.8879446640404145,0.00032405159436166286,-0.00026762112975120544,-7.987128049951791,0.005032598972320557
1776815658796988400,9.019988525390625,3.068814031929195,0.024489711970090866,-0.030219258572050295,-0.0028279032558202744,-0.03931872102166493,0.45738545240961287,3.111081746076956,right,-0.0031691789627075195,0.9520176167110259,0.41361791827529665,5.673196442818641,0.8878847068980819,-0.003263643942773342,0.001424148678779602,-7.988374835142492,0.0034252405166625977
1776815658836988400,9.059988525390626,3.06962898904927,0.012936636805534363,-0.03073140006687366,-0.0022520998027175665,-0.039318842802041114,0.45724251879886985,3.109500554228007,right,0.0004731416702270508,0.9517379031674694,0.4091550571149215,5.675761324870586,0.8879407592478937,0.013123552314937115,0.0045296624302864075,-7.986783182036876,0.003720998764038086
1776815658876988400,9.099988525390625,3.0704430338413955,0.0013835616409778595,-0.031243598968372206,-0.0016762963496148586,-0.03931893484554122,0.4570994139754459,3.1079201447060703,right,0.0041152238845825195,0.951457399226962,0.40469402258545156,5.6783291295319795,0.8879966044993057,0.029510747641324997,0.007634967565536499,-7.985186852756142,0.004016280174255371
1776815658916988400,9.139988525390624,3.0714618586633526,0.011102510616183281,-0.03144469268695197,0.0030712243169546127,-0.03908681374650933,0.45731710316833973,3.1069557810970805,right,0.0065746307373046875,0.9519540211919053,0.39863063089326023,5.674781666183471,0.8878876614719682,0.018082575872540474,0.005063347518444061,-7.9880130160927765,0.004824519157409668
1776815658956988700,9.17998876953125,3.0724821959317086,0.020821459591388702,-0.031645753594233536,0.007818743586540222,-0.03885467931625069,0.4575346857376108,3.1059899423488364,right,0.009034335613250732,0.9524499676269894,0.392566581613943,5.671231864747405,0.8877785892665152,0.0066544050350785255,0.0024917908012866974,-7.990833334210515,0.005632340908050537
1776815658996988400,9.219988525390624,3.0735041362732742,0.030540406703948975,-0.03184682065035937,0.01256626471877098,-0.03862252848034299,0.4577522037178236,3.1050225132188705,right,0.011494100093841553,0.9529454420925149,0.38650139982346443,5.6676808942675585,0.8876694329919333,-0.0047737667337059975,-0.00007962435483932495,-7.993648976153135,0.006439387798309326
1776815659036988400,9.259988525390625,3.074716975837852,0.031572483479976654,-0.032336981242436336,-0.003750830888748169,-0.03847867401039591,0.45788109600911503,3.1033002879736724,right,0.0065310001373291016,0.9532666652286373,0.37945564603041854,5.665585383293032,0.8875915211192819,-0.009548498317599297,-0.0023047029972076416,-7.995473268970847,0.004319548606872559
1776815659076988400,9.299988525390624,3.07593128930755,0.03260456398129463,-0.032827205390033025,-0.02006792649626732,-0.03833485131820852,0.4580098427166408,3.1015764517476896,right,0.0015679001808166504,0.9535865816778399,0.37240773681290446,5.663489287796616,0.8875133180791009,-0.01432323083281517,-0.004529550671577454,-7.997289378482103,0.0021989941596984863
1776815659116988400,9.339988525390625,3.0773941674875624,0.03203404322266579,-0.03350017588697114,-0.01421631220728159,-0.038205403096554465,0.4580610804996864,3.0993083340002134,right,-0.0038179755210876465,0.9537449764513439,0.3640408904839307,5.662760389000177,0.8874672443548306,-0.012592502869665623,-0.0032560601830482483,-7.998188373148441,0.001537919044494629
1776815659156988400,9.379988525390624,3.0788581446238603,0.03146352246403694,-0.03417317097928626,-0.00836469791829586,-0.038075911806797584,0.4581120404464283,3.0970391539627307,right,-0.009204447269439697,0.9539014010915003,0.35567185219787056,5.662038504466414,0.8874208343540446,-0.010861774906516075,-0.001982390880584717,-7.999076261898875,0.0008757710456848145
1776815659196988700,9.41998876953125,3.0806534507496584,0.03288348391652107,-0.03484868052954114,-0.007100791670382023,-0.037840023044098337,0.45826395195652764,3.0945968575664193,right,-0.006431877613067627,0.9542781010744811,0.3453225633474067,5.659657746809721,0.8873261789558335,-0.011642550118267536,-0.00229557603597641,-8.00121268940568,0.003348231315612793
1776815659236988700,9.45998876953125,3.082451254512221,0.0343034453690052,-0.03552418186387504,-0.005836885888129473,-0.03760413324786092,0.45841558870474497,3.092152096917803,right,-0.003659486770629883,0.954652215609084,0.33497002309393137,5.657279327240586,0.8872310581029909,-0.012423325330018997,-0.002608455717563629,-8.003333334821463,0.0058190226554870605
1776815659276988400,9.499988525390625,3.0842515809712374,0.035723406821489334,-0.03619962987330118,-0.004572980105876923,-0.03736821371474777,0.45856705424028066,3.089704996965497,right,-0.0008872747421264648,0.9550241107163627,0.3246141218395904,5.65490441480279,0.8871355107556588,-0.013204099610447884,-0.002920977771282196,-8.005440536233783,0.008288323879241943
1776815659316988400,9.539988525390624,3.086627221630832,0.03634900972247124,-0.03674694857523737,0.005781994201242924,-0.036880039096918546,0.45875012604774107,3.0872487207999377,right,0.0009950995445251465,0.9554416669808324,0.31099552899487315,5.652321997094154,0.8870387903169101,-0.011584082618355751,-0.003034796565771103,-8.007804927277565,0.0066030025482177734
1776815659356988400,9.579988525390625,3.089006062942606,0.03697461262345314,-0.03729430417023935,0.01613697037100792,-0.03639186344555099,0.45893292309331934,3.084789141618913,right,0.0028780698776245117,0.9558558518670733,0.29737437886688856,5.649734318688512,0.8869415654633878,-0.009964066557586193,-0.0031483490020036697,-8.010148860055208,0.0049155354499816895
1776815659396988400,9.619988525390625,3.091396611965381,0.0263238325715065,-0.03799308362705565,-0.024217821657657623,-0.03597812150604028,0.4590103600233164,3.081978293983979,right,-0.0035369396209716797,0.9560435464642835,0.2837921542434953,5.6489270939588545,0.8868887162321265,-0.001715298742055893,-0.006481098011136055,-8.011210351806879,0.005675137042999268
1776815659561600500,9.7846005859375,3.097312808662753,0.054207514971494675,-0.03879436835927506,-0.009771364741027355,-0.03447824744411973,0.4593819091063133,3.0771135123292392,right,-0.001414561178535223,0.9568178450376978,0.25009233014490456,5.644303525811433,0.8867211077426895,0.01457301713526249,-0.005938563030213118,-8.015587836238742,0.004572374280542135
1776815659601600800,9.824600830078126,3.099418165693574,0.036658480763435364,-0.039401562808723284,0.002216196618974209,-0.034110328476741426,0.45940051279443767,3.0746534426063667,right,-0.002978205680847168,0.9568622091957946,0.23819367469428107,5.644466022896767,0.8866990018073779,0.004126611165702343,-0.004789017140865326,-8.015838011607528,0.00447690486907959
1776815659641600500,9.8646005859375,3.101523878283437,0.019109446555376053,-0.04000875519109478,0.014203757978975773,-0.033742382846909426,0.45941890323531537,3.0721929722819077,right,-0.0045413970947265625,0.9569034851140099,0.22629425205867737,5.644623843806982,0.8866763463483057,-0.006319795735180378,-0.0036393702030181885,-8.016071235841512,0.0043798089027404785
1776815659681600500,9.9046005859375,3.1036299974665855,0.0015604160726070404,-0.040615978317687616,0.026191318407654762,-0.033374410554623604,0.459437080428947,3.069732055527342,right,-0.006104588508605957,0.9569418819018373,0.21439386130869387,5.644781080195307,0.8866532705435886,-0.016766201704740524,-0.0024896375834941864,-8.016288093462586,0.004280984401702881
1776815659721600500,9.9446005859375,3.1040433405341794,0.004101630765944719,-0.04047261143219305,0.01607336476445198,-0.033170979962838874,0.4596354636545106,3.069841314034373,right,-0.004206359386444092,0.9573660382104663,0.21193289628894998,5.641469763690233,0.8865646046976009,-0.01298297569155693,-0.0030370932072401047,-8.018683464166521,0.0022957324981689453
1776815659761600500,9.9846005859375,3.104456772045988,0.006642845459282398,-0.04032916047756932,0.005955408327281475,-0.032967532965405305,0.4598337822910162,3.069950583541712,right,-0.0023081302642822266,0.9577903098867472,0.20947426935676483,5.638158447185158,0.8864759327027691,-0.009199749678373337,-0.0035847704857587814,-8.021078250348568,0.0003102421760559082
1776815659801600500,10.0246005859375,3.1050896776459607,0.011483418755233288,-0.040475469177054295,-0.00693231076002121,-0.032838181450462973,0.459828230475003,3.069292217806959,right,0.0005912184715270996,0.957773472623747,0.20591082298783583,5.638427327254414,0.8864769986203737,0.008058242499828339,-0.00021971017122268677,-8.020982973280548,0.0006774067878723145
1776815659841600500,10.0646005859375,3.105738564511912,0.012424268759787083,-0.04059757931268742,-0.0030966554768383503,-0.03268939692150482,0.4597627914021477,3.068680261553086,right,-0.0006976723670959473,0.9576187644419196,0.20229643188295884,5.63979627752006,0.8865107783409976,-0.003089630976319313,-0.0008010119199752808,-8.020110282099246,0.0018998980522155762
1776815659881600500,10.1046005859375,3.106387341304476,0.013365118764340878,-0.04071976736860524,0.0007390000391751528,-0.03254059291247521,0.45969732977479927,3.068068379380613,right,-0.0019868016242980957,0.9574640293303215,0.19868118226155637,5.641169319438934,0.8865446482795949,-0.014237504452466965,-0.0013822093605995178,-8.019237006396056,0.00312197208404541
1776815659921600500,10.1446005859375,3.1074867821307968,0.022730939090251923,-0.041065037995774566,-0.002616421552374959,-0.032367633661336596,0.45984281425957263,3.06671857426824,right,0.0024605989456176758,0.9577906710943199,0.19238955303775146,5.6387640118628735,0.8864595621199992,0.004009261727333069,-0.003881538286805153,-8.021080003914237,0.000948488712310791
1776815660124535300,10.347535400390624,3.1110916769634205,0.01561474148184061,-0.041875638858017844,-0.004403633065521717,-0.03163703037381561,0.4603486812297499,3.0630139144044426,right,0.002366210799664259,0.9588964894091272,0.1717905449874699,5.6305503102689975,0.886185380584658,-0.00004401826299726963,-0.003918619826436043,-8.027314514389634,0.0066969385370612144
1776815660164535600,10.38753564453125,3.111575981813268,0.004965261556208134,-0.04213668629704867,-0.0015327606815844774,-0.03161745582091277,0.4603886637805457,3.062172606925121,right,0.0017451643943786621,0.9589936393221662,0.16904013203447685,5.629850637567043,0.8861528749191987,-0.013188868761062622,0.00015490688383579254,-8.02786162687838,0.006608486175537109
1776815660325580500,10.54858056640625,3.1146982353932797,0.02244432456791401,-0.04309174824469701,0.005106903612613678,-0.03113221072652084,0.4611288234767103,3.058381287951687,right,-0.001361629692837596,0.9606476375731139,0.15110426051253453,5.617070650970936,0.8857391960836509,-0.00205653952434659,-0.0006463771569542587,-8.037166630840302,0.001242118189111352
1776815660365580500,10.58858056640625,3.1160948974005414,0.022739751264452934,-0.04348390095401951,-0.005926624871790409,-0.030884988352545578,0.4611216656117045,3.0567689504719517,right,0.0001564621925354004,0.9606197649194447,0.1432647442596033,5.617502612647414,0.8857324648630227,-0.0003978994209319353,-0.003086766228079796,-8.037009978973865,0.006218969821929932
1776815660566929700,10.7899296875,3.1185204950255834,-0.007480688393115997,-0.044163734007756396,-0.02925095707178116,-0.030458664668484417,0.4611954777052267,3.0539694200138316,right,0.0034712960477918386,0.9607633373852357,0.12961194775118492,5.6166813593924045,0.8856751872066213,0.012662960216403008,0.0034118574112653732,-8.037816619181633,0.004045200999826193
1776815660606929700,10.8299296875,3.1180385720878085,-0.007369648199528456,-0.04351275513834913,-0.019726183265447617,-0.0302673206325203,0.46102436218224796,3.055694848085652,right,-0.003891885280609131,0.9603419349730166,0.13239853712925687,5.620004950857163,0.8858030778021764,0.004315545782446861,-0.0023860158398747444,-8.035448136484623,0.0021213889122009277
1776815660646929400,10.869929443359375,3.11755825044117,-0.007258608005940914,-0.04286181316200761,-0.010201407596468925,-0.03007597556301782,0.46085297189738705,3.057418698730229,right,-0.011255204677581787,0.9599198466692628,0.1351793726199772,5.62332912684381,0.8859304639829574,-0.004031868651509285,-0.00818333774805069,-8.033074977612495,0.00019723176956176758
1776815660686929700,10.9099296875,3.1176933092795345,-0.002221844159066677,-0.04276000743276856,-0.006097880657762289,-0.029985884245813124,0.46101698390214846,3.057574699922182,right,-0.0072596073150634766,0.9602780818926642,0.13435108683598226,5.620469061237573,0.8858530785225948,0.000950254499912262,-0.005819232203066349,-8.035089240044355,0.0002589225769042969
1776815660726929700,10.9499296875,3.1178282727974556,0.00281491968780756,-0.042658156594542855,-0.00199435418471694,-0.029895792928608517,0.4611809959069099,3.0577308650054884,right,-0.0032640695571899414,0.9606365340559501,0.13352416189201174,5.617610749197006,0.8857757320223747,0.005932377185672522,-0.0034552430734038353,-8.037104086998104,0.0003205537796020508
1776815660766929700,10.9899296875,3.117963395790806,0.007851683534681797,-0.04255639597429048,0.0021091727539896965,-0.029805685205754624,0.4613449433226133,3.05788670049386,right,0.0007317066192626953,0.9609948272126793,0.13269707255125976,5.61475068359077,0.8856983076018701,0.010914499871432781,-0.0010912353172898293,-8.039116595864295,0.0003820657730102539
1776815660969059800,11.192059814453126,3.117744107959785,-0.0033565014600753784,-0.042901090122045335,-0.004155242349952459,-0.030078170511104542,0.4618678869696372,3.057210279695229,right,0.0013669884065166116,0.9622086124470925,0.13369546333830803,5.60495935741663,0.8853998114211241,0.004987345077097416,-0.00066472461912781,-8.045928029444813,0.0026881638914346695
1776815661009060000,11.23206005859375,3.1178619407132437,0.0023760641925036907,-0.042978416346063954,-0.005795229226350784,-0.030082377317858667,0.46191119362564537,3.056973126874868,right,0.0005041956901550293,0.9623087666063382,0.13301592010892926,5.604170837387442,0.8853733499210527,0.004435745999217033,-0.0016218405216932297,-8.046489170458912,0.0020079612731933594
1776815661049060000,11.27206005859375,3.1179798232895215,0.008108630776405334,-0.043055748718926826,-0.007435216102749109,-0.030086587199034977,0.46195445824708875,3.056735872022485,right,-0.0003585219383239746,0.9624086644078107,0.13233623074907808,5.603379394748806,0.8853468043518522,0.0038841464556753635,-0.0025789113715291023,-8.047049142429232,0.0013278722763061523
1776815661089060000,11.31206005859375,3.1182392022106855,0.005250861868262291,-0.043057623697135256,-0.00470420066267252,-0.030007240858121505,0.46203511762035293,3.056594456887272,right,-0.0006888508796691895,0.9625829508593307,0.13085005644508638,5.60201044448316,0.8853073021439185,-0.0023450409062206745,-0.00222915131598711,-8.048025878506898,0.00216519832611084
1776815661129060000,11.35206005859375,3.11849861759942,0.0023930927272886038,-0.043059498675343755,-0.0019731854554265738,-0.029927917071701417,0.46211575751354594,3.05645296618284,right,-0.0010190010070800781,0.9627572006212198,0.12936441186405717,5.600642078739404,0.8852677999359847,-0.008574228733778,-0.0018794173374772072,-8.049002614584564,0.0030027031898498535
1776815661169060000,11.39206005859375,3.1187579474912672,-0.00046467618085443974,-0.04306133469340997,0.0007578302174806595,-0.029848635319845995,0.4621964004811609,3.0563115373197536,right,-0.0013491511344909668,0.9629314094515112,0.12787993632680736,5.599271959429979,0.8852282526190641,-0.014803417026996613,-0.0015298016369342804,-8.049978181618451,0.0038399696350097656
1776815661209059800,11.432059814453124,3.1183698483889244,-0.0004393662966322154,-0.04304064311476012,-0.008165845647454262,-0.029969164905025693,0.4623436579440301,3.056557283305417,right,0.006515622138977051,0.9632745541953218,0.1299888730384875,5.596460993662476,0.8851483057297294,-0.00385958980768919,-0.004585195332765579,-8.051899505069851,0.004945039749145508
1776815661371186400,11.5941865234375,3.116247703649676,0.006285160314291716,-0.04268019089845357,0.007720975670963526,-0.030478595488454607,0.4626982227885141,3.0584725848490315,right,0.012488237582147121,0.9641127900546275,0.14169405174362473,5.589425688198208,0.8849631311991499,-0.016107909381389618,0.004076631739735603,-8.056589124190808,0.003526725573465228
1776815661532038700,11.75503857421875,3.115172856011011,-0.004823993891477585,-0.04265559168951381,0.003747387323528528,-0.030815646225627075,0.4627963005498752,3.0590880381435754,right,-0.009174359031021595,0.9643648337027477,0.14764811044298112,5.58724074537456,0.8849013658749556,-0.006243404000997543,0.0006867337506264448,-8.057998406466842,-0.00048634741688147187
1776815661572039000,11.795038818359375,3.1151541401859575,0.00745414849370718,-0.04264190490146492,-0.0025482545606791973,-0.030824445351580174,0.46305328981573324,3.0591238884101277,right,-0.0035948753356933594,0.9649449971149279,0.1476290404163301,5.582562816691398,0.884767247617141,-0.020724430680274963,0.0006100032478570938,-8.061239580345154,-0.0005195736885070801
1776815661612039000,11.835038818359376,3.1159466953157753,0.006865672767162323,-0.0428866490978384,0.008258197456598282,-0.030715233508999334,0.4634897021777351,3.058146953917253,right,0.00234222412109375,0.9659267195346187,0.14300149021353573,5.57476354111731,0.8845306620081085,-0.033795248717069626,0.004904706962406635,-8.066718304017186,0.006684601306915283
1776815661652039000,11.875038818359375,3.1167421289466746,0.006277197040617466,-0.043131372780602244,0.0190646480768919,-0.030605988855120475,0.46392598536162033,3.05716723928246,right,0.008279860019683838,0.9669080271519344,0.13837030501523986,5.566957835802436,0.8842937790827023,-0.04686607047915459,0.009199731983244419,-8.072186506295203,0.01388770341873169
1776815661692038700,11.91503857421875,3.1181916442221715,0.01837681606411934,-0.04326657787844468,0.013284649699926376,-0.030245870066655068,0.4647317765643417,3.05608169930964,right,0.0030015110969543457,0.9686965162072878,0.12996277961600572,5.552711868306994,0.8838763829417334,-0.042948704212903976,0.0031183455139398575,-8.082133315292,0.007959544658660889
1776815661732038700,11.95503857421875,3.1196482852884375,0.030476434156298637,-0.043401760395600994,0.007504651788622141,-0.029885762542340193,0.46553712486692184,3.0549887506546725,right,-0.0022745132446289062,0.9704841638549185,0.12155716304606758,5.538444273501634,0.8834581399606304,-0.039031337946653366,-0.0029632700607180595,-8.092049144628643,0.002028167247772217
1776815661772038700,11.99503857421875,3.1204309926601232,0.015399796888232231,-0.04376318877168616,0.003927933052182198,-0.029855225817579278,0.4661741920388163,3.053739844321894,right,-0.005615115165710449,0.9719295581981551,0.1169745296972338,5.526838006860017,0.8831053388371629,-0.028114981949329376,-0.0035752402618527412,-8.100047742167115,0.00035011768341064453
1776815661812039000,12.035038818359375,3.1212184802250333,0.0003231596201658249,-0.044124576120552324,0.0003512145485728979,-0.02982469113370246,0.4668109424142638,3.0524863449242927,right,-0.00895458459854126,0.9733743582135159,0.11238362171039916,5.515221803346276,0.8827519430809483,-0.017198625952005386,-0.004186391830444336,-8.108026465961336,-0.0013300180435180664
1776815661852039000,12.075038818359374,3.1207158699997155,0.0019155105110257864,-0.044185472805813635,-0.017106950283050537,-0.030028003655528258,0.46704780153950604,3.05260684891824,right,-0.0071065425872802734,0.9739318589395204,0.11506125255497172,5.51064499695003,0.8826167296719712,-0.002069670706987381,-0.004518758971244097,-8.111100466579199,-0.0014609694480895996
1776815661892039000,12.115038818359375,3.120212720187895,0.003507861401885748,-0.04424638178876353,-0.03456511348485947,-0.030231322326198358,0.46728457659561873,3.052727883857959,right,-0.005258023738861084,0.9744891357643863,0.11773721203226595,5.5060640989005565,0.8824813481247363,0.013059284538030624,-0.004850952886044979,-8.114170960065723,-0.0015919208526611328
1776815661932039000,12.155038818359374,3.119709020879229,0.005100212525576353,-0.04430729692055774,-0.052023280411958694,-0.03043464714571274,0.4675212675826021,3.0528495041970967,right,-0.003409266471862793,0.9750463274584699,0.12041160060698165,5.501480862763524,0.8823458825083724,0.02818823978304863,-0.005182993598282337,-8.117238530942798,-0.0017232894897460938
1776815661972038700,12.19503857421875,3.119264017132739,0.009416600689291954,-0.04409424607626167,-0.035606324672698975,-0.030451339282112307,0.46726155760822524,3.0535753960654137,right,0.003296971321105957,0.9744551945034998,0.12296683804774657,5.506221335288882,0.8824935058130348,0.01883923076093197,-0.0008297953754663467,-8.113983913061022,0.0018549561500549316
1776815662012038700,12.23503857421875,3.1188199353298005,0.013732990249991417,-0.04388107220269409,-0.019189368933439255,-0.030468037567356523,0.4670017635647191,3.0543005964300822,right,0.010003268718719482,0.97386391620929,0.12552128090406767,5.51096239233613,0.8826410778598663,0.009490221738815308,0.0035234829410910606,-8.11072578804791,0.005432724952697754
1776815662052038700,12.27503857421875,3.118376995111513,0.01804937794804573,-0.043667865517828364,-0.002772413194179535,-0.030484719446951792,0.4667419049321548,3.055024758926218,right,0.016709744930267334,0.9732724308431457,0.1280736505343113,5.515701695817708,0.8827885207285823,0.00014121271669864655,0.007876970805227757,-8.107464155903457,0.0090101957321167
1776815662092039000,12.315038818359374,3.118900014418592,0.002007601782679558,-0.04354107796807672,0.0003854075912386179,-0.030250086589746535,0.4667241099149128,3.055036271151052,right,0.00910651683807373,0.9732060453437898,0.12520109990583733,5.516309598582983,0.8828123365774976,-0.0007852069684304297,0.004877965897321701,-8.107097660678624,0.0070400238037109375
1776815662132039000,12.355038818359375,3.119423029646861,-0.014034174382686615,-0.043414302716013604,0.0035432279109954834,-0.030015440401314368,0.46670620827404785,3.055047728832259,right,0.0015034675598144531,0.9731392605570072,0.12232790082339197,5.51691224065125,0.882835984288155,-0.001711626653559506,0.0018790019676089287,-8.106729411888121,0.0050699710845947266
1776815662172039000,12.395038818359374,3.1194521387226675,-0.00817627552896738,-0.04332365688590858,0.003734179539605975,-0.029955935509137933,0.46665627927238473,3.055239140805202,right,-0.0009146928787231445,0.9730183799156854,0.12218906774143688,5.517898329079151,0.8828689092472642,-0.001379291177727282,0.0007425835356116295,-8.10606247241199,0.0030227303504943848
1776815662212038700,12.43503857421875,3.119481342674902,-0.0023183771409094334,-0.04323305616479016,0.003925131168216467,-0.029896433691383523,0.4666063082361569,3.0554303742466478,right,-0.0033329129219055176,0.9728973561924956,0.12204963187128305,5.518883248463273,0.8829017952462314,-0.00104695581831038,-0.00039381906390190125,-8.105394363892078,0.000975489616394043
1776815662252038700,12.47503857421875,3.119510731246451,0.003539521247148514,-0.04314250055265845,0.004116083029657602,-0.029836909319135612,0.4665563566800002,3.055621393032465,right,-0.005751073360443115,0.9727763784488913,0.12190909088943153,5.519867583325505,0.8829346422850559,-0.0007146203424781561,-0.001530093140900135,-8.104726255372166,-0.0010718107223510742
1776815662292038700,12.51503857421875,3.1205541032484807,0.01306548435240984,-0.043492497630756334,-0.00012101558968424797,-0.029689790749752594,0.46655740788882366,3.054277284999033,right,-0.003018796443939209,0.9727728731656438,0.1161503446996212,5.520020143538713,0.8829218696273742,0.005265670828521252,-0.001010935753583908,-8.104706966149806,0.000059664249420166016
1776815662332039000,12.555038818359375,3.121597495243893,0.022591445595026016,-0.043842416788569254,-0.004358113743364811,-0.029542616814578367,0.46655834939960245,3.0529333407804744,right,-0.0002866983413696289,0.9727684916025591,0.11039145237933844,5.5201738727957,0.8829090067517195,0.011245961301028728,-0.0004917597398161888,-8.10468300075233,0.0011907219886779785
1776815662372039000,12.595038818359376,3.1222675906589394,0.011975922621786594,-0.04410649883146847,0.001982960384339094,-0.02945903261292886,0.46634854557644756,3.0519877267197666,right,0.0011689066886901855,0.9722917366823433,0.10676706047025508,5.52411004320085,0.8830095021643015,0.008455059491097927,0.0007873047143220901,-8.102049729639292,0.004071354866027832
1776815662412039000,12.635038818359375,3.1229362795769213,0.0013604015111923218,-0.04437050295408288,0.008324034512043,-0.029375451485701757,0.4661386997187279,3.0510435895226617,right,0.002624690532684326,0.9718147201477678,0.10314526237705722,5.528046213605999,0.8831099073589102,0.005664157215505838,0.0020660944283008575,-8.099412951394916,0.006951749324798584
1776815662452038700,12.67503857421875,3.123386808356123,-0.0016123608220368624,-0.04427362836833016,0.010107183828949928,-0.029176707156850903,0.46606356347107125,3.0510280074318152,right,-0.00046008825302124023,0.9716224825139627,0.10068300958252512,5.5296466345399615,0.8831609708935042,0.0009606140665709972,0.00036129169166088104,-8.098350290599464,0.002747058868408203
1776815662492038700,12.71503857421875,3.123510980088524,-0.002067932393401861,-0.04417489476480849,0.006201780401170254,-0.029078601998856195,0.46593529363384173,3.0511905693887558,right,-0.0010620951652526855,0.9713206429718465,0.10004061089260503,5.532105133607983,0.8832368737815007,0.0013825298519805074,0.00010198913514614105,-8.09668031156063,0.003912687301635742
1776815662532038700,12.75503857421875,3.123635311460811,-0.0025235037319362164,-0.044076212419117786,0.0022963769733905792,-0.028980480435212345,0.46580695920755394,3.0513528952746145,right,-0.0016639232635498047,0.971018533837225,0.09939666869956999,5.534560125544667,0.8833126536402259,0.0018044456373900175,-0.00015712156891822815,-8.095008578956127,0.005078315734863281
1776815662572039000,12.795038818359375,3.1237596936147822,-0.002979075303301215,-0.04397753007342707,-0.0016090269200503826,-0.02888235579714631,0.4656786668158307,3.0515152285087357,right,-0.002265751361846924,0.9707166888493511,0.09875183145739137,5.53701511748135,0.8833884334989511,0.0022263615392148495,-0.00041616056114435196,-8.093337430873513,0.0062438249588012695
1776815662612039000,12.835038818359376,3.123937303441928,0.012867512181401253,-0.04407224387568769,-0.02381630428135395,-0.02887870992509551,0.4657415146123638,3.0512050253445744,right,-0.006297051906585693,0.9708602687111545,0.09774791511185467,5.5358723771870135,0.8833507349411958,0.0035459415521472692,-0.007191482000052929,-8.094132380643487,0.002713501453399658
1776815662652039000,12.875038818359375,3.124115039015912,0.028714101761579514,-0.044166918717805835,-0.04602357745170593,-0.02887504149855148,0.4658043818889681,3.050894784044645,right,-0.010328412055969238,0.9710038384832266,0.09674369737221859,5.534728467848897,0.8833129912744537,0.004865521565079689,-0.013966758735477924,-8.09492674589157,-0.0008167028427124023
1776815662692038700,12.91503857421875,3.123140750353641,-0.006255529820919037,-0.044732752129812696,0.005008429288864136,-0.029474270685098357,0.4655707976924073,3.0501341220408698,right,0.008707046508789062,0.9705492141153754,0.10220390814002603,5.538307495379447,0.8833878037288547,0.007817527279257774,0.012142027728259563,-8.09240979463458,0.008963227272033691
1776815662859143200,13.08214306640625,3.1233559751550284,0.018019594252109528,-0.04378103842520161,-0.011517702601850033,-0.028938735656067794,0.46633466327590123,3.0521513754887994,right,0.0000035725533962249756,0.9722007492707941,0.10076807578378356,5.524959938028455,0.8830502280288984,0.004825819283723831,-0.0008740678313188255,-8.101547040814161,0.0026201880536973476
1776815662899143400,13.122143310546875,3.1243701561781694,0.02489016391336918,-0.04417226877994931,-0.0050527374260127544,-0.028826733913167892,0.4664238371546953,3.0507266535867616,right,0.004077136516571045,0.9723988037672229,0.09513712069210596,5.5234565477281805,0.882987351084611,-0.014833783730864525,-0.0015534264966845512,-8.102641265791654,0.0067321062088012695
1776815662939143400,13.162143310546876,3.1244630579266537,0.010827833786606789,-0.04442532575154984,-0.00130410585552454,-0.028938481374169094,0.46657127634888834,3.0500989106176704,right,0.001147925853729248,0.9727484537482813,0.09457542255558073,5.520630968913435,0.8828930693404277,-0.010252523235976696,0.0002570599317550659,-8.104571941593289,0.004463374614715576
1776815662979143400,13.202143310546875,3.124556471449316,-0.003234495408833027,-0.04467838887199468,0.002444525947794318,-0.029050209355099096,0.4667186929885877,3.0494707331038295,right,-0.0017811059951782227,0.9730981727980401,0.09401142286411486,5.51780539009869,0.8827987035271152,-0.005671262741088867,0.0020677847787737846,-8.106502617394924,0.002194702625274658
1776815663019143400,13.242143310546876,3.125020873669504,0.002496272325515747,-0.04480468252267066,0.0019282023422420025,-0.028976703779567414,0.46686798627538617,3.0489336918533083,right,-0.0016936063766479492,0.973430391332604,0.09140429997248574,5.5151551678508515,0.8827157728723893,-0.007230880670249462,0.0013301214203238487,-8.10833567804098,0.0024133920669555664
1776815663059143400,13.282143310546875,3.1254858895709594,0.008227040059864521,-0.044930937213204174,0.0014118787366896868,-0.028903156169471304,0.46701727648776226,3.048396162571386,right,-0.001605987548828125,0.9737625227231528,0.08879628203171305,5.512504361081123,0.8826327971086766,-0.008790498599410057,0.0005925381556153297,-8.110166985121369,0.002631962299346924
1776815663099143200,13.32214306640625,3.1259513158372143,0.013957807794213295,-0.04505719805258212,0.0008955550147220492,-0.028829653668361866,0.4671665277399958,3.047858128999016,right,-0.0015183091163635254,0.9740944078813214,0.08618847415349445,5.509851800745725,0.8825497372758349,-0.010350115597248077,-0.00014506187289953232,-8.111996538636088,0.0028504133224487305
1776815663139143400,13.362143310546875,3.126271307789873,0.005848872475326061,-0.04521270563729279,0.0009780466789379716,-0.02880785171279347,0.4671188069711543,3.047338195439781,right,0.0016707777976989746,0.9739869048946063,0.0844387170098722,5.510750795412063,0.8825677458832061,-0.001592419110238552,0.0003951815888285637,-8.111403833439946,0.00588381290435791
1776815663179143400,13.402143310546874,3.126590937103886,-0.002260063774883747,-0.04536812915287444,0.001060538343153894,-0.028786072311718675,0.4670710667222416,3.0468187104321163,right,0.004859745502471924,0.9738793123091688,0.08269041203781961,5.511649790078401,0.8825857483417333,0.007165277376770973,0.0009352816268801689,-8.110811128243803,0.00891721248626709
1776815663219143400,13.442143310546875,3.126342557186317,-0.0018811514601111412,-0.0452148840525988,-0.0007109722355380654,-0.02879705710447341,0.46732388425706517,3.047287499368234,right,0.003414154052734375,0.9744494369134035,0.0839888360842131,5.507002841055393,0.8824593829994145,-0.00008878577500581741,0.0009717699140310287,-8.113952348878978,0.005093216896057129
1776815663259143400,13.482143310546874,3.126093448499679,-0.0015022391453385353,-0.045061638952323124,-0.0024824829306453466,-0.028808051120494588,0.4675765756881951,3.0477569720823805,right,0.0019683837890625,0.9750194059712135,0.0852889954299666,5.502357645598053,0.8823330176570962,-0.007342848926782608,0.0010080700740218163,-8.117090062382816,0.0012686848640441895
1776815663299143400,13.522143310546875,3.126096847452418,-0.001359395682811737,-0.04489948721041262,0.008453215472400188,-0.02872571976391079,0.46767233577935147,3.0481192107125334,right,-0.004394888877868652,0.97522435249334,0.08524448956795967,5.500692927256226,0.8822931820821468,-0.0034969851840287447,-0.00042884238064289093,-8.118217605108022,-0.0007717013359069824
1776815663339143200,13.56214306640625,3.126279619266194,0.003937387373298407,-0.04517456655463135,-0.00981269683688879,-0.028813490589232285,0.46766485201484664,3.0473988400049414,right,-0.004364132881164551,0.9752216359177159,0.08423949551018886,5.500733259266615,0.8822802968637562,0.003646300872787833,-0.0017749415710568428,-8.11820299206078,0.0001690387725830078
1776815663379143400,13.602143310546875,3.1264625276209546,0.009234169498085976,-0.045449781225810275,-0.028078608214855194,-0.028901287043468882,0.46765730673570566,3.0466780640666156,right,-0.004333436489105225,0.975218721930718,0.0832337251342833,5.500772422233224,0.8822672947649385,0.01078958623111248,-0.0031209373846650124,-8.11818662544787,0.001109778881072998
1776815663419143400,13.642143310546874,3.126645552654942,0.014530953019857407,-0.04572504100597581,-0.04634451866149902,-0.028989067092056318,0.4676496968675066,3.0459571283077285,right,-0.004302978515625,0.9752157148200972,0.08222732457071542,5.500813338765502,0.8822542537059784,0.017932873219251633,-0.004466901533305645,-8.118170258834958,0.0020502805709838867
1776815663623249400,13.84624951171875,3.1265602518676356,-0.005877934396266937,-0.04533725051752865,0.0017587749753147364,-0.028829125626212815,0.46801269192018335,3.0468673373556427,right,-0.0004597483784891665,0.9760128358535056,0.08259920835671945,5.494330991008877,0.882086941576556,-0.007844661362469196,0.0009952860418707132,-8.122553003963828,0.006156190298497677
1776815663663249200,13.886249267578124,3.1261601821840093,-0.008377312682569027,-0.04519840986325194,0.001916722860187292,-0.028895404134497888,0.46826323587129387,3.0473845073769508,right,-0.0018213391304016113,0.9765843455152006,0.08472566245878115,5.4896548158913845,0.8819589251768086,-0.005210996605455875,0.0020911013707518578,-8.125691886511445,0.0021796226501464844
1776815663703249200,13.926249267578125,3.12575927845738,-0.010876691900193691,-0.045059575357819535,0.002074670745059848,-0.02896167956836082,0.4685138218569687,3.047902501998162,right,-0.003182709217071533,0.9771560356831115,0.08685296594421378,5.4849774717301125,0.8818308247079322,-0.002577331615611911,0.003186839632689953,-8.128829600015282,-0.0017972588539123535
1776815663743249400,13.96624951171875,3.12619597461173,-0.005477501079440117,-0.04506265461882917,0.0032107261940836906,-0.028833567693079397,0.4686822793876692,3.0476571626007227,right,-0.00488656759262085,0.977523775255881,0.08441169200562872,5.482027974274755,0.8817453900634029,-0.00202656676992774,0.0021652569994330406,-8.130846200534702,-0.0016701221466064453
1776815663783249400,14.00624951171875,3.126633060207429,-0.00007831072434782982,-0.045065701068540596,0.00434678141027689,-0.028705439412149057,0.4688506723293115,3.0474114325596826,right,-0.0065901875495910645,0.9778911830171058,0.08197082905899733,5.479074385166168,0.8816598262407581,-0.0014758016914129257,0.0011436278000473976,-8.132859878444672,-0.0015429258346557617
1776815663823249400,14.04624951171875,3.1270704984248474,0.0053208800964057446,-0.0450687864783946,0.005482836626470089,-0.028577350091360983,0.46901911037994054,3.047165265854871,right,-0.00829380750656128,0.978258913698198,0.079530678498419,5.476121965101361,0.8815743075270999,-0.0009250366711057723,0.0001219557598233223,-8.13487472539842,-0.0014159679412841797
1776815663863249400,14.08624951171875,3.12734874719653,0.0008849962614476681,-0.045064059036210954,0.005227335263043642,-0.02848394691956178,0.4689678219215965,3.0470302327524763,right,-0.0012118816375732422,0.9781327453310686,0.0780215708434116,5.477170012849569,0.8816048534030168,0.0024505548644810915,0.001040048897266388,-8.134183820524811,0.0024216175079345703
1776815663903249200,14.126249267578125,3.127582151244479,0.0005945846205577254,-0.04503405180062252,0.0035119843669235706,-0.02839019867915702,0.4688969843687367,3.0469772489834006,right,0.00032597780227661133,0.9779618651508937,0.07676263855719007,5.478576957038045,0.8816470733236454,0.0016464048530906439,0.0015315087512135506,-8.133247416457534,0.003814220428466797
1776815663943249200,14.166249267578126,3.1278154158731613,0.0003041729505639523,-0.04500400560489163,0.0017966334708034992,-0.028296450438752382,0.46882614681587687,3.046924458278701,right,0.001864016056060791,0.9777909474036359,0.0755037976025138,5.479982732182741,0.8816892481352875,0.0008422548999078572,0.0020229648798704147,-8.132311012390256,0.0052068233489990234
1776815663983249400,14.20624951171875,3.1280486639688863,0.000013761280570179224,-0.044973959409160734,0.00008128269109874964,-0.028202682718276553,0.46875528670852357,3.046871722629916,right,0.0034020543098449707,0.9776199974842843,0.07424440409198868,5.481388507327437,0.8817314229469295,0.00003810500493273139,0.0025144824758172035,-8.131374023801088,0.006599485874176025
1776815664023249400,14.24624951171875,3.1280751587007254,-0.0006527823861688375,-0.04483010423101825,0.0019184189150109887,-0.02811479937987556,0.46870364130294156,3.047186308416641,right,0.001267850399017334,0.9774915459172957,0.07411331135849468,5.482435970553755,0.8817690348205335,-0.0007191683980636299,0.0018120072782039642,-8.130669674924016,0.004627883434295654
1776815664063249400,14.28624951171875,3.1281017058289295,-0.0013193261111155152,-0.04468624905287578,0.0037555552553385496,-0.0280269191158967,0.46865195386279507,3.0475008521910842,right,-0.0008662939071655273,0.977363063274304,0.07398188526486046,5.483484018301963,0.8818066466941376,-0.001476441859267652,0.0011095418594777584,-8.129965326046943,0.002656280994415283
1776815664103249400,14.32624951171875,3.1282203743678996,0.00936630368232727,-0.04471245839348269,-0.005300802178680897,-0.02800888028607741,0.4687573184246251,3.0473739923560768,right,-0.0034075379371643066,0.977600018498986,0.07330541990855709,5.481567955547571,0.8817499075665863,-0.008403889834880829,0.0014613787643611431,-8.131264133685827,-0.0027940869331359863
1776815664306857200,14.529857177734375,3.1289326823321404,0.013040215708315372,-0.044516469914431145,0.022862346842885017,-0.02767776511270181,0.46874362314763424,3.0474411192475817,right,-0.00031126232352107763,0.9775307063866809,0.069407932979404,5.482178780922293,0.8817774942569377,-0.0012412145733833313,0.0018289478030055761,-8.130884194457531,0.0006105426582507789
1776815664346857200,14.569857177734375,3.129322019797273,0.006407181266695261,-0.044635330946041794,0.017008204013109207,-0.027617781972084008,0.46874530018863686,3.046964582223546,right,0.000630497932434082,0.9775298055545316,0.06727361523129512,5.482213852235675,0.8817724957377165,-0.0014531329507008195,0.0018965518102049828,-8.130879518282413,0.0024418234825134277
1776815664386857200,14.609857177734375,3.1297113753996846,-0.00022585364058613777,-0.0447542370866392,0.011154062114655972,-0.0275578183115373,0.46874699978413265,3.046487929049548,right,0.00157243013381958,0.9775288670333723,0.0651391787521774,5.482247754505276,0.8817674582583528,-0.0016650513280183077,0.0019641676917672157,-8.130874257585406,0.00427323579788208
1776815664426857200,14.649857177734376,3.129454453111326,-0.00032224098686128855,-0.04469558836466075,0.007936997339129448,-0.027605988691625765,0.4687098060222799,3.046759079118216,right,-0.0013829469680786133,0.97744914490911,0.06655557575558778,5.4828813762336965,0.8817887356257005,-0.004740194417536259,0.001586531288921833,-8.130437035211921,0.002360403537750244
1776815664466857200,14.689857177734375,3.1291978375016067,-0.00041862830403260887,-0.04463699090051314,0.004719932563602924,-0.0276541139627274,0.4686726512205692,3.0470298759516745,right,-0.00433802604675293,0.9773693208564798,0.06797057995293289,5.483510321787,0.8818098899637765,-0.007815336808562279,0.0012090373784303665,-8.129999228316546,0.000447690486907959
1776815664709003500,14.93200341796875,3.130814812049884,-0.004084888845682144,-0.04470672303843993,0.003726354567334056,-0.027172408983756162,0.4685647540691856,3.0460181728664653,right,-0.0008346597314812243,0.9770741052813686,0.05912962243934162,5.48600856834352,0.881878590636449,-0.0019391314126551151,0.00015425140736624599,-8.128380102682113,0.0022364244796335697
1776815664910060500,15.133060546875,3.1312152581456343,0.02470758743584156,-0.04472407076568707,-0.02154853381216526,-0.027059163408466626,0.46864637818452337,3.0457625713868426,right,-0.0016921316273510456,0.9772467892874176,0.05691822086703032,5.484630265727639,0.8818378535825544,0.0009696048218756914,-0.011675155721604824,-8.129327612665294,-0.00025268926401622593
1776815664950060500,15.173060546875,3.1304405506591935,0.0007562469691038132,-0.0445291878269873,0.0025798846036195755,-0.027190572805595472,0.4684565250081743,3.04662447667102,right,-0.00458139181137085,0.9768289712427114,0.06120503590733278,5.487978407111764,0.8819445040054644,-0.004937339574098587,-0.006115331314504147,-8.127035117813945,-0.00129014253616333
1776815664990060500,15.213060546875,3.1296669654900167,-0.023195093497633934,-0.04433431103713185,0.02670830301940441,-0.02732198527714645,0.46826662979726047,3.0474852507939096,right,-0.007470428943634033,0.9764108120633925,0.06549094219875987,5.491325379452109,0.8820510703592452,-0.010844284668564796,-0.0005553918890655041,-8.124739115831256,-0.002327859401702881
1776815665030060500,15.253060546875,3.130136328664411,-0.009615766815841198,-0.04435671939207724,0.014548242092132568,-0.02720294957608301,0.4685981541470894,3.0471709875002264,right,-0.004100024700164795,0.9771485696250208,0.06284484813676681,5.485362671655416,0.8818775862398335,-0.008586485870182514,-0.0006666919216513634,-8.128788683483004,-0.0002148151397705078
1776815665070060500,15.293060546875,3.1306065582398115,0.0039635589346289635,-0.0443790949357245,0.0023881811648607254,-0.02708391694944182,0.46892963646235347,3.046855860751763,right,-0.0007293224334716797,0.9778863516258899,0.06019959432499017,5.479396456727385,0.8817039729423058,-0.006328687071800232,-0.0007780659943819046,-8.132833574959635,0.0018976926803588867
1776815665110060800,15.333060791015624,3.1310778340800813,0.01754288375377655,-0.04440148277706026,-0.009771879762411118,-0.026964851511502547,0.46926098959950113,3.0465396392579835,right,0.002641916275024414,0.9786238160912643,0.05755420351589564,5.473425565624237,0.8815301915065203,-0.00407088827341795,-0.0008894079364836216,-8.13687262121737,0.004009664058685303
1776815665150060500,15.373060546875,3.131449960481257,0.01087477058172226,-0.04462478388227291,-0.011251786723732948,-0.026973440669168267,0.46938911450990256,3.0458289127750473,right,0.0003426671028137207,0.9789173755879906,0.05549316106655169,5.471057082927227,0.8814504258827349,-0.0037420031148940325,-0.0009288270957767963,-8.138478887370228,0.002956092357635498
1776815665190060500,15.413060546875,3.1318227655298645,0.004206659272313118,-0.04484805217618722,-0.012731693685054779,-0.02698196831219834,0.46951721379138806,3.0451176436200313,right,-0.0019565224647521973,0.979210692187878,0.05343015955556184,5.468686846664547,0.8813705310808339,-0.0034131179563701153,-0.0009680385701358318,-8.140083399957417,0.0019025802612304688
1776815665352411400,15.575411376953125,3.1315421312549563,-0.0007391050457954407,-0.04483152893347006,0.00002103287260979414,-0.027092642001623066,0.4700598057570256,3.045279001718516,right,-0.003036308102309704,0.980451206643527,0.054863343296991655,5.4585716953635215,0.881078746731138,-0.004304272588342428,0.000973227433860302,-8.146861515790224,0.00178468506783247
1776815665513267500,15.736267333984374,3.1328532891850864,0.0026102515403181314,-0.04499216406881161,-0.00106410076841712,-0.026801569657088964,0.47070302501561634,3.0441839482477144,right,0.0003713387995958328,0.981877907465781,0.04760463173985481,5.4470116059511895,0.8807360235479771,-0.007543481886386871,0.0017151024658232927,-8.154641502141953,0.0012995775323361158
1776815665553267700,15.776267822265625,3.133071053089757,0.0022608095314353704,-0.04501623266857178,-0.001723440713249147,-0.026752207096497324,0.47081343056016617,3.04400759044026,right,-0.0004813671112060547,0.9821229311749721,0.046401471061748446,5.445027154135704,0.8806773529498982,-0.008074391633272171,0.0012731007300317287,-8.155975965616106,0.0011532306671142578
1776815665593267700,15.816267822265624,3.1332889928468255,0.0019113675225526094,-0.04504035252616303,-0.002382780658081174,-0.026702867090398874,0.47092381662464433,3.043830897000096,right,-0.0013338327407836914,0.982367727616163,0.04519818708605598,5.44303861066699,0.880618559322548,-0.008605300448834896,0.0008310987614095211,-8.157308675524591,0.001007080078125
1776815665633267700,15.856267822265625,3.1335069651068723,0.0015619256300851703,-0.04506438831462515,-0.003042120486497879,-0.026653524009878516,0.4710342447236871,3.0436543105278036,right,-0.0021861791610717773,0.9826126729317669,0.04399559723010752,5.441050067198276,0.8805597595463533,-0.009136210195720196,0.0003890334628522396,-8.158641385433077,0.0008606314659118652
1776815665673267700,15.896267822265624,3.1328843035997496,-0.0077019352465868,-0.04527347326428818,-0.013375627808272839,-0.026954816211408994,0.4709114160145083,3.043517830664155,right,0.00014418363571166992,0.9823699305292347,0.04740078886398114,5.4430041238754985,0.8806056056570878,0.005080292001366615,0.004587758332490921,-8.157320365962386,0.0033355355262756348
1776815665713267500,15.936267333984375,3.1322617474945353,-0.016965797170996666,-0.04548257666048422,-0.023709135130047798,-0.027256137116277095,0.4707884837561283,3.0433810466340887,right,0.0024750828742980957,0.9821269400134701,0.05080780712876003,5.444951750811934,0.8806511995604354,0.019296791404485703,0.008786280639469624,-8.155997592926026,0.005810558795928955
1776815665753267500,15.976267333984374,3.131563575650431,-0.006139172241091728,-0.04501173474574944,-0.01756412535905838,-0.027235308493716744,0.4709909254766281,3.044814161982589,right,0.0015951991081237793,0.9825782053894728,0.054572406659554686,5.441235945159197,0.8805678256056949,-0.00019973143935203552,0.004418237134814262,-8.158454338428378,0.003297090530395508
1776815665793267700,16.016267822265625,3.130863795978916,0.004687454551458359,-0.044540917426391914,-0.011419115588068962,-0.02721448602000069,0.4711932831279977,3.0462486814919036,right,0.0007155537605285645,0.98302889019299,0.058340590953500936,5.4375178014189,0.8804841153744384,-0.019696256145834923,0.00004984298720955849,-8.160905823233723,0.0007832646369934082
1776815665833267700,16.056267822265625,3.131375051615732,0.0053529939614236355,-0.04458518791735688,-0.00324350968003273,-0.02708808499011067,0.4713868833723191,3.0458657540959133,right,0.0007949471473693848,0.9834543982239363,0.05552510884108487,5.434070875835419,0.8803820850952366,-0.017085615545511246,0.0020176912657916546,-8.163218776351213,0.001903533935546875
1776815665873267700,16.096267822265624,3.13188670956601,0.006018533371388912,-0.04462932923020596,0.004932096228003502,-0.026961683960221024,0.4715804836166407,3.0454826349778044,right,0.0008743405342102051,0.9838800386137976,0.05271101040157955,5.430626288339496,0.8802800876273331,-0.014474975876510143,0.003985375165939331,-8.165531144946813,0.0030234456062316895
1776815665913267700,16.136267822265626,3.1323991256025554,0.006684072781354189,-0.044673521800886025,0.01310770120471716,-0.026835266524682204,0.471774019271904,3.0450986480427087,right,0.0009540915489196777,0.9843053556595787,0.049896313740452745,5.427177609190345,0.8801779671301581,-0.01186433620750904,0.005953116342425346,-8.167840006411074,0.0041432976722717285
1776815665953267500,16.176267333984374,3.132675760507982,0.006521729752421379,-0.04463501099529507,0.0072135054506361485,-0.026731917335409756,0.4718500494276381,3.045034434420301,right,-0.0009117722511291504,0.9844660102269037,0.0483832696958445,5.42587938607335,0.8801423148605062,-0.005756187252700329,0.003989104647189379,-8.168712113070487,0.002076387405395508
1776815665993267500,16.216267333984376,3.1329524066555288,0.006359386723488569,-0.04459650018970419,0.001319310162216425,-0.026628590700630637,0.471926060103301,3.0449701684955803,right,-0.002777576446533203,0.9846266544888164,0.04687088780493941,5.424581162956357,0.8801066625908545,0.0003519621677696705,0.002025024965405464,-8.16958363520801,0.000009417533874511719
1776815666033267500,16.256267333984376,3.1332292862502777,0.006197043694555759,-0.044558118562229146,-0.004574885126203299,-0.02652528662034452,0.4720020512988926,3.0449054261742434,right,-0.004643380641937256,0.984787244824784,0.045357957924762736,5.423281770795583,0.8800709775099047,0.0064601111225783825,0.00006103049963712692,-8.170454572823644,-0.002057671546936035
1776815666073267700,16.296267822265627,3.1340107269537,0.006840831600129604,-0.04474817968279506,-0.0021115662530064583,-0.0263824322247184,0.4720109576988605,3.044054264579702,right,-0.0016916394233703613,0.9847934608788658,0.04111959426922258,5.423265988704562,0.8800608752884209,0.004490824416279793,0.0003756335936486721,-8.170488475093245,0.00036972761154174805
1776815666113267700,16.336267822265626,3.134792199917108,0.007484619505703449,-0.0449382469522053,0.00035175238735973835,-0.026239577829092302,0.472019864098828,3.043203048812955,right,0.0012600421905517578,0.9847993370348843,0.03688112329911673,5.423248453047871,0.880050688997808,0.002521537709981203,0.0006902255117893219,-8.170520039275289,0.0027970075607299805
1776815666153267700,16.376267822265625,3.1355735978662183,0.008128407411277294,-0.045128314221615604,0.0028150712605565786,-0.026096749062381713,0.47202870898415983,3.042351876375196,right,0.004211723804473877,0.9848048246022453,0.03264313866948942,5.42323267095685,0.8800405027071951,0.0005522510036826134,0.0010048174299299717,-8.170549849891662,0.0052239298820495605
1776815666193267500,16.416267333984376,3.1360338094508644,0.006386213935911655,-0.04515340593900061,0.0011069923639297485,-0.025965063013672282,0.47202040859441824,3.0420488149909986,right,0.0010967850685119629,0.9847713506425921,0.03014882621928118,5.423521424770355,0.8800475780930249,0.0007909308769740164,0.00027020275592803955,-8.170368648105859,0.0038747787475585938
1776815666233267500,16.456267333984375,3.136493904699587,0.004644020460546017,-0.045178497656385624,-0.0006010865326970816,-0.025833399519456204,0.47201208872460537,3.0417458403210667,right,-0.0020180940628051758,0.9847377957411967,0.02765489051169716,5.42381017858386,0.8800546534788546,0.0010296107502654195,-0.0004644442815333605,-8.170186277276278,0.0025255680084228516
1776815666273267500,16.496267333984374,3.136953814339304,0.002901826985180378,-0.04520351145348589,-0.0023091654293239117,-0.02570173909966253,0.4720037268202277,3.041443120994103,right,-0.005132734775543213,0.9847039237382033,0.025161694589629767,5.424095425266027,0.8800616386467112,0.0012682906817644835,-0.001199165009893477,-8.170002737402916,0.0011764168739318848
1776815666313267700,16.536267822265625,3.137013038156513,0.005230674520134926,-0.04520566056726288,-0.0022277780808508396,-0.025683444474108922,0.47199038706741575,3.041407275679273,right,-0.003318607807159424,0.9846716455979279,0.024841668855026363,5.424361382725834,0.8800692334931264,0.00029871577862650156,-0.00041780690662562847,-8.1698279653579,0.000697791576385498
1776815666353267700,16.576267822265624,3.1370723198811605,0.007559521589428186,-0.04520785479002658,-0.002146390965208411,-0.025665152922977344,0.4719770052800391,3.041371275892095,right,-0.0015044212341308594,0.9846391724611409,0.024521293777262324,5.424626171141862,0.8800767893793993,-0.0006708591827191412,0.00036359881050884724,-8.169651439747215,0.0002194046974182129
1776815666393267700,16.616267822265623,3.137131566313147,0.009888368658721447,-0.045210010052647874,-0.002065003616735339,-0.02564685522300157,0.4719637075617914,3.0413353806743157,right,0.00031000375747680664,0.9846068857977289,0.024201071679836605,5.424889205992222,0.8800843001566854,-0.001640434144064784,0.0011449640151113272,-8.169476667702197,-0.00025898218154907227
1776815666433267700,16.656267822265626,3.1369012596487447,-0.004239184781908989,-0.04565029447571748,0.007551170885562897,-0.025940693303549468,0.47171630223228667,3.040471355120087,right,0.0013117790222167969,0.9840820351636445,0.025470580158999653,5.429172582399845,0.8801856391333333,0.0024655007291585207,0.006675174925476313,-8.166628292533755,0.004278242588043213
1776815666473267500,16.696267333984373,3.1366700497852875,-0.018366739153862,-0.046090435355906054,0.0171673484146595,-0.02623454060736432,0.4714687707990873,3.039608212577131,right,0.002314150333404541,0.9835573455616837,0.026746952203789257,5.433451867154241,0.8802866295357766,0.006571435369551182,0.01220470480620861,-8.163778163799643,0.008815288543701172
