time,seconds_elapsed,z,y,x
1776815649862561800,0.085561767578125,-88.24931335449219,24.437744140625,-81.09646606445312
1776815649872662800,0.095662841796875,-87.89695739746094,24.282821655273438,-80.87399291992188
1776815649882761700,0.10576171875,-87.95045471191406,24.517684936523438,-80.94970703125
1776815649892861000,0.11586083984375,-88.39872741699219,24.414901733398438,-81.08711242675781
1776815649902957600,0.12595751953125,-88.61785888671875,24.468017578125,-81.06858825683594
1776815649913062000,0.136061767578125,-88.69157409667969,24.481185913085938,-80.88786315917969
1776815649923155000,0.146155029296875,-88.71318054199219,24.382659912109375,-80.8238525390625
1776815649933251800,0.156251953125,-88.84323120117188,24.133209228515625,-80.98495483398438
1776815649943350800,0.166350830078125,-88.82797241210938,24.385787963867188,-80.96440124511719
1776815649953449700,0.17644970703125,-88.90725708007812,24.453689575195312,-80.98291015625
1776815649963547600,0.186547607421875,-88.91610717773438,24.122955322265625,-80.95901489257812
1776815649973646800,0.196646728515625,-88.48532104492188,24.149002075195312,-80.83830261230469
1776815649983746800,0.206746826171875,-88.20742797851562,24.135940551757812,-80.97041320800781
1776815649993844700,0.2168447265625,-88.81549072265625,24.1029052734375,-80.80575561523438
1776815650003943700,0.226943603515625,-88.9364013671875,24.05523681640625,-80.82537841796875
1776815650014043000,0.23704296875,-88.84454345703125,24.331512451171875,-81.03875732421875
1776815650024141800,0.247141845703125,-88.92361450195312,23.9658203125,-80.75637817382812
1776815650034240800,0.25724072265625,-88.82218933105469,24.347015380859375,-80.87677001953125
1776815650044340000,0.267340087890625,-88.97842407226562,24.075057983398438,-80.87156677246094
1776815650054439000,0.27743896484375,-88.43757629394531,23.976882934570312,-80.81834411621094
1776815650064537900,0.287537841796875,-88.47000122070312,24.219436645507812,-80.71122741699219
1776815650074636800,0.29763671875,-88.52061462402344,24.515960693359375,-80.93492126464844
1776815650084734700,0.307734619140625,-88.69090270996094,24.147674560546875,-80.92526245117188
1776815650094833000,0.3178330078125,-88.63301086425781,24.222412109375,-81.01852416992188
1776815650104929800,0.3279296875,-88.64262390136719,24.17877197265625,-81.06230163574219
1776815650115028700,0.33802880859375,-88.02116394042969,24.164398193359375,-81.01979064941406
1776815650125127700,0.348127685546875,-88.23724365234375,24.048049926757812,-81.10220336914062
1776815650135226600,0.3582265625,-88.31021118164062,23.913803100585938,-81.02629089355469
1776815650145324800,0.36832470703125,-88.49087524414062,24.223419189453125,-81.17539978027344
1776815650155422700,0.378422607421875,-88.37358093261719,24.31829833984375,-81.080322265625
1776815650165522000,0.38852197265625,-88.37794494628906,24.22314453125,-81.34881591796875
1776815650175619800,0.398619873046875,-88.380126953125,24.227035522460938,-81.36459350585938
1776815650185717800,0.4087177734375,-88.38758850097656,24.387313842773438,-81.4046630859375
1776815650195816700,0.418816650390625,-88.33140563964844,24.147537231445312,-81.48811340332031
1776815650205915600,0.42891552734375,-88.14103698730469,24.002853393554688,-81.37503051757812
1776815650216013600,0.439013671875,-88.09333801269531,24.29296875,-81.45419311523438
1776815650226112800,0.44911279296875,-87.97618103027344,24.487701416015625,-81.41207885742188
1776815650236211000,0.4592109375,-88.0792236328125,24.239013671875,-81.43020629882812
1776815650246308900,0.469308837890625,-88.29916381835938,24.135345458984375,-81.244140625
1776815650256407800,0.47940771484375,-88.10791015625,24.423294067382812,-80.87474060058594
1776815650266505700,0.489505615234375,-88.56648254394531,24.169631958007812,-81.21755981445312
1776815650276603600,0.499603759765625,-88.30274963378906,24.36248779296875,-81.030517578125
1776815650286703900,0.509703857421875,-88.49287414550781,24.268753051757812,-80.723876953125
1776815650296801800,0.5198017578125,-88.73851013183594,24.258773803710938,-80.7667236328125
1776815650306899700,0.529899658203125,-88.41006469726562,24.403106689453125,-80.732177734375
1776815650316998700,0.53999853515625,-88.24375915527344,24.522018432617188,-80.71702575683594
1776815650327096600,0.5500966796875,-88.33689880371094,24.292022705078125,-80.71603393554688
1776815650337194800,0.56019482421875,-88.68359375,24.317535400390625,-80.70771789550781
1776815650347294000,0.5702939453125,-88.66188049316406,24.026519775390625,-80.45259094238281
1776815650357393000,0.580392822265625,-88.888671875,23.774093627929688,-80.445556640625
1776815650367491800,0.590491943359375,-88.74041748046875,23.536087036132812,-80.17585754394531
1776815650377589800,0.60058984375,-88.72216796875,23.329544067382812,-80.22569274902344
1776815650387689000,0.61068896484375,-88.67018127441406,23.003402709960938,-79.64306640625
1776815650397787000,0.620786865234375,-88.45553588867188,22.717498779296875,-79.43606567382812
1776815650407884800,0.630884765625,-89.21829223632812,22.5771484375,-78.99763488769531
1776815650417983700,0.640983642578125,-89.21769714355469,22.191787719726562,-78.79473876953125
1776815650428081700,0.65108154296875,-89.4427490234375,22.549942016601562,-78.68942260742188
1776815650438180600,0.6611806640625,-89.34786987304688,22.43988037109375,-78.279296875
1776815650448277800,0.67127783203125,-89.76530456542969,22.909011840820312,-77.96194458007812
1776815650458375700,0.681375732421875,-90.07106018066406,23.377349853515625,-77.98916625976562
1776815650468472800,0.691472900390625,-90.32891845703125,23.493087768554688,-77.64967346191406
1776815650478570800,0.70157080078125,-90.61166381835938,23.975555419921875,-77.68156433105469
1776815650488668700,0.711668701171875,-90.74247741699219,24.0301513671875,-77.50660705566406
1776815650498769000,0.721768798828125,-90.16050720214844,24.163787841796875,-77.11207580566406
1776815650508866800,0.73186669921875,-90.84698486328125,24.171432495117188,-77.34754943847656
1776815650518965800,0.7419658203125,-90.71598815917969,24.593719482421875,-77.37156677246094
1776815650529065000,0.75206494140625,-90.64329528808594,24.21697998046875,-77.43821716308594
1776815650539164000,0.762163818359375,-90.20890808105469,24.366622924804688,-77.62904357910156
1776815650549261800,0.77226171875,-90.14605712890625,24.340087890625,-77.73954772949219
1776815650559359700,0.78235986328125,-89.5147705078125,24.319183349609375,-77.99949645996094
1776815650569458700,0.792458740234375,-89.95196533203125,24.407699584960938,-78.38299560546875
1776815650579558000,0.802557861328125,-89.291748046875,24.63916015625,-78.81120300292969
1776815650589658600,0.81265869140625,-89.13066101074219,24.431655883789062,-78.7452392578125
1776815650599758800,0.8227587890625,-89.22425842285156,24.9072265625,-79.01057434082031
1776815650609858800,0.83285888671875,-89.17572021484375,25.266082763671875,-79.39877319335938
1776815650619958800,0.842958740234375,-89.03445434570312,25.5576171875,-79.44029235839844
1776815650630057700,0.8530576171875,-89.28477478027344,25.976089477539062,-79.39472961425781
1776815650640156700,0.86315673828125,-88.75909423828125,26.2340087890625,-79.12486267089844
1776815650650255600,0.873255615234375,-89.03251647949219,26.49822998046875,-79.29020690917969
1776815650660355800,0.88335595703125,-89.0738525390625,26.785690307617188,-79.28422546386719
1776815650670454800,0.893454833984375,-88.98690795898438,26.955215454101562,-79.261962890625
1776815650680552700,0.903552734375,-88.95158386230469,27.33367919921875,-79.50836181640625
1776815650690652000,0.91365185546875,-88.88090515136719,27.2567138671875,-79.59928894042969
1776815650700749800,0.923749755859375,-88.30577087402344,27.41259765625,-79.70455932617188
1776815650710848800,0.933848876953125,-88.80348205566406,27.217819213867188,-79.75869750976562
1776815650720947700,0.94394775390625,-88.865234375,27.242279052734375,-79.94412231445312
1776815650731045600,0.954045654296875,-88.29039001464844,27.028350830078125,-79.91259765625
1776815650741144800,0.964144775390625,-88.55390930175781,27.016677856445312,-80.09341430664062
1776815650751243800,0.974243896484375,-88.40010070800781,26.8944091796875,-80.26019287109375
1776815650761342700,0.9843427734375,-88.18077087402344,26.929946899414062,-80.25070190429688
1776815650771441700,0.994441650390625,-88.23263549804688,26.855392456054688,-80.12895202636719
1776815650781538800,1.004538818359375,-88.07199096679688,26.60113525390625,-80.01251220703125
1776815650791636700,1.01463671875,-87.81253051757812,26.636749267578125,-80.14573669433594
1776815650801734700,1.024734619140625,-87.97894287109375,26.755569458007812,-79.9556884765625
1776815650811832600,1.03483251953125,-88.10523986816406,26.616561889648438,-79.87966918945312
1776815650821934000,1.04493408203125,-87.90168762207031,26.272003173828125,-79.73066711425781
1776815650832033000,1.055032958984375,-87.82933044433594,26.141921997070312,-79.71685791015625
1776815650842131000,1.065130859375,-88.10054016113281,25.759323120117188,-79.58668518066406
1776815650852228900,1.075228759765625,-87.78608703613281,25.6593017578125,-79.58552551269531
1776815650862327000,1.0853271484375,-87.717041015625,25.318984985351562,-79.47885131835938
1776815650872426000,1.095426025390625,-88.03121948242188,24.928390502929688,-79.42878723144531
1776815650882524000,1.10552392578125,-87.68736267089844,24.998764038085938,-79.44673156738281
1776815650892622000,1.1156220703125,-87.91004943847656,24.662338256835938,-79.23910522460938
1776815650902724000,1.12572412109375,-87.58761596679688,24.615478515625,-79.00216674804688
1776815650912816000,1.135816162109375,-87.97227478027344,24.264846801757812,-78.80438232421875
1776815650922912000,1.145912109375,-87.88023376464844,24.09063720703125,-78.32797241210938
1776815650933009000,1.1560087890625,-88.5443115234375,24.00714111328125,-77.89077758789062
1776815650943108000,1.166108154296875,-88.73628234863281,24.093429565429688,-77.09426879882812
1776815650953207000,1.17620703125,-89.81324768066406,24.052505493164062,-75.95741271972656
1776815650963306000,1.186305908203125,-90.55769348144531,24.131027221679688,-74.58673095703125
1776815650973405000,1.196405029296875,-91.20466613769531,24.278228759765625,-72.62069702148438
1776815650983504100,1.206504150390625,-92.35505676269531,24.033462524414062,-70.83804321289062
1776815650993602000,1.21660205078125,-92.845458984375,24.24139404296875,-69.0025634765625
1776815651003700000,1.226699951171875,-93.42221069335938,23.992431640625,-67.29632568359375
1776815651013799000,1.236798828125,-93.61265563964844,23.206863403320312,-65.76438903808594
1776815651023896800,1.246896728515625,-93.6640625,22.913665771484375,-64.46678161621094
1776815651033996000,1.25699609375,-93.61151123046875,22.341033935546875,-64.07034301757812
1776815651044095000,1.267094970703125,-93.58901977539062,22.069595336914062,-64.242431640625
1776815651054193000,1.27719287109375,-93.13076782226562,22.053451538085938,-65.72763061523438
1776815651064291800,1.287291748046875,-92.63348388671875,21.996734619140625,-67.54319763183594
1776815651074389000,1.297388916015625,-92.05429077148438,22.101837158203125,-69.33552551269531
1776815651084487000,1.30748681640625,-91.54158020019531,22.347808837890625,-71.24339294433594
1776815651094584800,1.317584716796875,-90.81513977050781,22.521835327148438,-72.47042846679688
1776815651104683000,1.32768310546875,-90.48240661621094,22.47271728515625,-73.08828735351562
1776815651114780000,1.33777978515625,-90.047119140625,22.617813110351562,-73.0804443359375
1776815651124877000,1.347876953125,-90.60319519042969,22.519866943359375,-72.85832214355469
1776815651134975000,1.35797509765625,-90.84478759765625,22.168930053710938,-72.05555725097656
1776815651145071000,1.368071044921875,-91.30931091308594,21.492172241210938,-70.22755432128906
1776815651155169000,1.3781689453125,-91.93490600585938,20.864334106445312,-68.00468444824219
1776815651165267000,1.388266845703125,-91.69047546386719,20.6170654296875,-67.36750793457031
1776815651175366000,1.398365966796875,-91.29690551757812,20.361587524414062,-68.29432678222656
1776815651185463800,1.4084638671875,-91.41799926757812,19.896926879882812,-69.30766296386719
1776815651195562000,1.41856201171875,-90.34194946289062,20.045028686523438,-70.35397338867188
1776815651205660200,1.42866015625,-89.97799682617188,19.466949462890625,-71.16433715820312
1776815651215756800,1.4387568359375,-89.33833312988281,19.646453857421875,-71.87010192871094
1776815651225854000,1.44885400390625,-89.05429077148438,19.038223266601562,-72.49261474609375
1776815651235953200,1.458953125,-88.4542236328125,18.950653076171875,-73.50750732421875
1776815651246049800,1.4690498046875,-88.17544555664062,18.94989013671875,-74.51493835449219
1776815651256147000,1.47914697265625,-87.21859741210938,18.933074951171875,-75.62260437011719
1776815651266244900,1.489244873046875,-86.42405700683594,18.792083740234375,-76.80343627929688
1776815651276344000,1.499343994140625,-85.10087585449219,18.61981201171875,-77.8890380859375
1776815651286443000,1.509443115234375,-84.45196533203125,18.300582885742188,-78.9012451171875
1776815651296542000,1.5195419921875,-83.5628662109375,18.325103759765625,-79.99491882324219
1776815651306640000,1.529639892578125,-82.60246276855469,17.646011352539062,-80.37821960449219
1776815651316737800,1.53973779296875,-82.29301452636719,17.549285888671875,-80.83596801757812
1776815651326836200,1.549836181640625,-82.24739074707031,17.879165649414062,-80.76246643066406
1776815651336934100,1.55993408203125,-82.36613464355469,18.135543823242188,-80.65264892578125
1776815651347032000,1.570031982421875,-82.99374389648438,18.882293701171875,-80.22770690917969
1776815651357130000,1.5801298828125,-84.20166015625,19.80133056640625,-79.4039306640625
1776815651367228000,1.590227783203125,-85.827392578125,20.633193969726562,-78.26283264160156
1776815651377326000,1.600326171875,-87.19540405273438,21.341949462890625,-77.05691528320312
1776815651387425000,1.610425048828125,-87.68147277832031,22.53057861328125,-76.26803588867188
1776815651397524000,1.62052392578125,-87.99191284179688,23.115264892578125,-76.2725830078125
1776815651407623200,1.630623046875,-88.157958984375,23.809661865234375,-76.48080444335938
1776815651417722000,1.64072216796875,-88.34552001953125,24.31658935546875,-76.93408203125
1776815651427819000,1.650819091796875,-87.899658203125,24.36962890625,-77.39451599121094
1776815651437917000,1.6609169921875,-87.92864990234375,24.971176147460938,-77.85464477539062
1776815651448014000,1.67101416015625,-88.01699829101562,25.95654296875,-78.08245849609375
1776815651458111000,1.681111083984375,-87.95867919921875,26.618087768554688,-78.02890014648438
1776815651468209200,1.691209228515625,-88.49201965332031,27.526596069335938,-77.74153137207031
1776815651478305000,1.701304931640625,-88.84892272949219,28.483505249023438,-77.8551025390625
1776815651488403200,1.7114033203125,-88.74342346191406,29.097366333007812,-78.09663391113281
1776815651498501000,1.721501220703125,-88.08589172363281,29.720672607421875,-78.31715393066406
1776815651508597000,1.731596923828125,-88.43026733398438,29.820449829101562,-78.35377502441406
1776815651518694000,1.74169384765625,-89.35739135742188,29.31103515625,-77.29971313476562
1776815651528795000,1.751794921875,-90.52017211914062,29.203262329101562,-75.41632080078125
1776815651538886100,1.76188623046875,-90.49647521972656,28.552047729492188,-73.63597106933594
1776815651548982000,1.77198193359375,-90.86502075195312,28.628982543945312,-73.14289855957031
1776815651559082000,1.78208203125,-91.12202453613281,28.586944580078125,-73.24839782714844
1776815651569176800,1.7921767578125,-91.11773681640625,28.70281982421875,-72.97698974609375
1776815651579267000,1.80226708984375,-91.73164367675781,29.129928588867188,-72.67735290527344
1776815651589363200,1.81236328125,-91.62802124023438,29.706878662109375,-72.37002563476562
1776815651599458000,1.8224580078125,-91.79139709472656,29.991302490234375,-72.47203063964844
1776815651609554200,1.83255419921875,-91.56405639648438,30.316116333007812,-73.12330627441406
1776815651619649000,1.84264892578125,-91.27992248535156,30.720352172851562,-73.60444641113281
1776815651629745000,1.852744873046875,-90.70321655273438,31.111114501953125,-74.075439453125
1776815651639841000,1.862841064453125,-90.930908203125,31.108062744140625,-74.35566711425781
1776815651649942000,1.87294189453125,-91.14817810058594,31.222564697265625,-73.88337707519531
1776815651660032000,1.883031982421875,-91.74049377441406,31.624420166015625,-73.01535034179688
1776815651670126800,1.893126953125,-92.19021606445312,32.17005920410156,-71.34530639648438
1776815651680228000,1.90322802734375,-93.56903076171875,33.08827209472656,-69.11968994140625
1776815651690320100,1.913320068359375,-94.08552551269531,33.99836730957031,-66.67079162597656
1776815651700418000,1.92341796875,-94.78189086914062,35.160247802734375,-64.30198669433594
1776815651710516000,1.933515869140625,-94.88787841796875,35.708831787109375,-61.83811950683594
1776815651720613000,1.943613037109375,-95.10562133789062,36.30535888671875,-59.498291015625
1776815651730711000,1.9537109375,-95.03720092773438,36.56797790527344,-57.15031433105469
1776815651740809000,1.96380908203125,-94.46501159667969,36.60700988769531,-54.948944091796875
1776815651750907000,1.973906982421875,-94.81182861328125,36.98262023925781,-53.474884033203125
1776815651761004000,1.984004150390625,-94.69000244140625,37.53662109375,-52.15501403808594
1776815651771102000,1.99410205078125,-94.29580688476562,37.85533142089844,-51.255828857421875
1776815651781200000,2.004199951171875,-93.7730712890625,38.31575012207031,-50.48280334472656
1776815651791297000,2.014297119140625,-93.45429992675781,38.277008056640625,-49.857147216796875
1776815651801395000,2.02439501953125,-93.81820678710938,38.30143737792969,-49.8614501953125
1776815651811496000,2.034495849609375,-93.97624206542969,38.13551330566406,-50.162628173828125
1776815651821589000,2.044589111328125,-94.01133728027344,38.062255859375,-50.43280029296875
1776815651831680000,2.054679931640625,-94.04373168945312,38.1456298828125,-50.64573669433594
1776815651841778000,2.06477783203125,-94.05851745605469,38.06402587890625,-50.837646484375
1776815651851875000,2.074875,-94.05532836914062,37.989593505859375,-50.79884338378906
1776815651861972000,2.084971923828125,-94.02116394042969,37.97514343261719,-51.0037841796875
1776815651872073000,2.095072998046875,-94.05917358398438,38.22245788574219,-50.50730895996094
1776815651882165000,2.1051650390625,-93.66511535644531,38.810791015625,-49.988128662109375
1776815651892266000,2.115265869140625,-93.61968994140625,38.99107360839844,-49.407135009765625
1776815651902357000,2.12535693359375,-93.14344787597656,39.82383728027344,-48.98716735839844
1776815651912454000,2.135453857421875,-92.8245849609375,40.896087646484375,-48.50860595703125
1776815651922552000,2.145552001953125,-92.40626525878906,41.85029602050781,-47.711883544921875
1776815651932653000,2.155653076171875,-91.73931884765625,43.31300354003906,-46.558319091796875
1776815651942745000,2.1657451171875,-90.95198059082031,44.32984924316406,-45.47212219238281
1776815651952843000,2.175843017578125,-89.80882263183594,45.946563720703125,-44.644378662109375
1776815651962942000,2.18594189453125,-88.86598205566406,47.44148254394531,-44.28912353515625
1776815651973041200,2.196041259765625,-87.88531494140625,49.180755615234375,-44.30848693847656
1776815651983138000,2.206137939453125,-87.31396484375,50.297149658203125,-44.12632751464844
1776815651993235000,2.21623486328125,-86.29580688476562,51.657562255859375,-44.29814147949219
1776815652003333000,2.2263330078125,-86.01387023925781,52.80928039550781,-44.527191162109375
1776815652013432000,2.23643212890625,-85.50791931152344,53.77433776855469,-44.892730712890625
1776815652023530000,2.246530029296875,-84.77667236328125,54.61431884765625,-45.00299072265625
1776815652033628000,2.2566279296875,-84.22967529296875,55.579376220703125,-45.23777770996094
1776815652043726800,2.266726806640625,-83.49005126953125,56.42742919921875,-45.67964172363281
1776815652053826000,2.276825927734375,-82.68881225585938,57.226470947265625,-45.6424560546875
1776815652063923000,2.2869228515625,-82.044189453125,58.40675354003906,-45.85603332519531
1776815652074021000,2.297021240234375,-80.47932434082031,59.84996032714844,-46.20263671875
1776815652084119000,2.307119140625,-79.66548156738281,61.075714111328125,-46.98052978515625
1776815652094216200,2.31721630859375,-78.26214599609375,62.052337646484375,-47.19645690917969
1776815652104312800,2.327312744140625,-76.83065795898438,63.06861877441406,-47.46266174316406
1776815652114412000,2.337412109375,-75.90737915039062,63.82194519042969,-47.56575012207031
1776815652124510000,2.347510009765625,-74.06527709960938,64.7742919921875,-47.76615905761719
1776815652134608100,2.357608154296875,-73.24658203125,65.12248229980469,-47.640167236328125
1776815652144706000,2.3677060546875,-72.19766235351562,65.70606994628906,-47.67967224121094
1776815652154804000,2.377803955078125,-71.27944946289062,66.31782531738281,-47.74235534667969
1776815652164902000,2.38790185546875,-70.29405212402344,66.33369445800781,-47.84877014160156
1776815652175000000,2.398,-70.01620483398438,66.66465759277344,-47.8680419921875
1776815652185101000,2.40810107421875,-69.55082702636719,66.79335021972656,-47.847137451171875
1776815652195201000,2.418200927734375,-68.84970092773438,67.08078002929688,-48.01280212402344
1776815652205299000,2.428298828125,-68.23860168457031,67.50262451171875,-48.17242431640625
1776815652215398100,2.438398193359375,-67.14857482910156,67.75276184082031,-48.06642150878906
1776815652225497000,2.4484970703125,-65.95213317871094,68.07218933105469,-48.08619689941406
1776815652235596000,2.458595947265625,-64.40615844726562,68.25907897949219,-47.642242431640625
1776815652245696000,2.468696044921875,-63.47251892089844,68.2515869140625,-47.100494384765625
1776815652255795000,2.478794921875,-62.11988830566406,67.90052795410156,-45.95643615722656
1776815652265892900,2.488892822265625,-60.69334411621094,67.58967590332031,-44.63935852050781
1776815652275991000,2.498990966796875,-60.05938720703125,67.35862731933594,-43.973480224609375
1776815652286089000,2.5090888671875,-59.37910461425781,66.8009033203125,-43.07891845703125
1776815652296188000,2.51918798828125,-58.584014892578125,66.47354125976562,-42.274810791015625
1776815652306287000,2.529287109375,-58.098663330078125,66.05451965332031,-41.49383544921875
1776815652316386800,2.53938671875,-56.747833251953125,65.97882080078125,-40.87077331542969
1776815652326487000,2.549487060546875,-56.16877746582031,65.54408264160156,-40.42279052734375
1776815652336587000,2.5595869140625,-55.564697265625,65.08377075195312,-39.91123962402344
1776815652346686000,2.56968603515625,-54.68086242675781,64.8211669921875,-39.400848388671875
1776815652356786000,2.579785888671875,-53.8099365234375,64.5169677734375,-39.04188537597656
1776815652366884000,2.589884033203125,-52.92964172363281,64.08146667480469,-38.6807861328125
1776815652376982000,2.59998193359375,-52.2337646484375,63.776885986328125,-38.39784240722656
1776815652387081000,2.6100810546875,-51.88507080078125,63.644378662109375,-38.356903076171875
1776815652397179000,2.620178955078125,-51.3070068359375,63.30299377441406,-38.07542419433594
1776815652407277000,2.630277099609375,-51.158966064453125,63.23603820800781,-37.772003173828125
1776815652417374000,2.6403740234375,-50.48748779296875,62.71220397949219,-37.60533142089844
1776815652427472000,2.650471923828125,-50.758819580078125,62.87770080566406,-37.66279602050781
1776815652437570000,2.660570068359375,-50.41697692871094,63.12687683105469,-37.81156921386719
1776815652447667000,2.6706669921875,-51.18803405761719,63.3905029296875,-38.058685302734375
1776815652457765000,2.68076513671875,-50.97904968261719,63.60816955566406,-38.09730529785156
1776815652467862000,2.690862060546875,-51.27809143066406,63.90541076660156,-38.37278747558594
1776815652477959000,2.700958984375,-52.0380859375,63.90763854980469,-38.85333251953125
1776815652488056000,2.71105615234375,-51.7215576171875,64.05705261230469,-38.90156555175781
1776815652498156000,2.721156005859375,-52.50526428222656,64.3216552734375,-39.14445495605469
1776815652508256000,2.731256103515625,-52.7340087890625,64.29400634765625,-38.9656982421875
1776815652518355000,2.74135498046875,-53.22761535644531,64.37754821777344,-38.96208190917969
1776815652528455000,2.751454833984375,-53.74720764160156,64.31968688964844,-38.747283935546875
1776815652538553000,2.761552978515625,-53.73980712890625,64.29461669921875,-39.09312438964844
1776815652548652000,2.771652099609375,-53.90852355957031,64.57684326171875,-39.165191650390625
1776815652558752000,2.781751953125,-54.49189758300781,64.67697143554688,-39.410430908203125
1776815652568853000,2.79185302734375,-54.886688232421875,64.81483459472656,-39.46955871582031
1776815652578953000,2.801952880859375,-54.76519775390625,64.99308776855469,-39.77372741699219
1776815652589052000,2.812052001953125,-55.12043762207031,65.33598327636719,-40.032012939453125
1776815652599150800,2.82215087890625,-55.99751281738281,65.56863403320312,-39.97053527832031
1776815652609250000,2.83225,-56.810760498046875,65.62144470214844,-40.39923095703125
1776815652619348000,2.842347900390625,-57.575286865234375,65.72636413574219,-40.58131408691406
1776815652629446100,2.852446044921875,-57.8052978515625,65.794189453125,-40.79811096191406
1776815652639544000,2.8625439453125,-58.12736511230469,65.94642639160156,-41.12884521484375
1776815652649643000,2.87264306640625,-58.2611083984375,66.05938720703125,-41.23883056640625
1776815652659743000,2.882742919921875,-58.775238037109375,66.22422790527344,-41.683197021484375
1776815652669842000,2.892842041015625,-58.57823181152344,66.28424072265625,-41.95854187011719
1776815652679940900,2.90294091796875,-58.95402526855469,66.69868469238281,-42.28814697265625
1776815652690039800,2.913039794921875,-59.11219787597656,66.76048278808594,-42.36785888671875
1776815652700140000,2.92314013671875,-59.073822021484375,66.87835693359375,-42.409515380859375
1776815652710238000,2.933238037109375,-59.389434814453125,67.08816528320312,-42.73284912109375
1776815652720336000,2.9433359375,-59.711517333984375,67.17918395996094,-43.08673095703125
1776815652730437000,2.95343701171875,-60.09498596191406,67.28590393066406,-43.461456298828125
1776815652740528000,2.963528076171875,-60.38777160644531,67.61181640625,-44.0284423828125
1776815652750630000,2.9736298828125,-61.07539367675781,67.88101196289062,-44.63948059082031
1776815652760720100,2.98372021484375,-61.51921081542969,68.31204223632812,-45.314178466796875
1776815652770822100,2.993822265625,-61.62290954589844,68.43899536132812,-45.99751281738281
1776815652780914200,3.0039140625,-62.195892333984375,69.00187683105469,-46.47845458984375
1776815652791017000,3.014016845703125,-62.539825439453125,69.10293579101562,-46.90040588378906
1776815652801110000,3.024110107421875,-62.88092041015625,69.296630859375,-47.7830810546875
1776815652811207200,3.034207275390625,-63.13044738769531,69.51750183105469,-48.48992919921875
1776815652821305900,3.044305908203125,-63.54298400878906,69.85685729980469,-49.84010314941406
1776815652831404800,3.05440478515625,-63.685882568359375,70.35667419433594,-51.008514404296875
1776815652841502700,3.064502685546875,-63.431549072265625,70.65652465820312,-52.35284423828125
1776815652851600600,3.0746005859375,-63.88053894042969,70.871826171875,-53.73170471191406
1776815652861697800,3.08469775390625,-64.11080932617188,71.16001892089844,-54.71299743652344
1776815652871796700,3.094796630859375,-64.06326293945312,71.01817321777344,-55.41642761230469
1776815652881895000,3.10489501953125,-64.56784057617188,71.15374755859375,-56.093994140625
1776815652891993900,3.114993896484375,-64.17265319824219,71.30581665039062,-56.99580383300781
1776815652902091800,3.125091796875,-64.31565856933594,71.29891967773438,-57.69793701171875
1776815652912189700,3.135189697265625,-64.33689880371094,71.47592163085938,-58.0870361328125
1776815652922287600,3.14528759765625,-64.2972412109375,71.27777099609375,-58.410308837890625
1776815652932385800,3.1553857421875,-64.59199523925781,71.12162780761719,-58.36219787597656
1776815652942483700,3.165483642578125,-65.21742248535156,71.22410583496094,-58.75938415527344
1776815652952583000,3.1755830078125,-65.24067687988281,71.09626770019531,-58.75218200683594
1776815652962679600,3.185679443359375,-65.58906555175781,71.25022888183594,-59.27925109863281
1776815652972777700,3.19577783203125,-66.00262451171875,71.19552612304688,-59.29429626464844
1776815652982876000,3.2058759765625,-65.64251708984375,70.96127319335938,-59.24574279785156
1776815652992973800,3.215973876953125,-66.177734375,70.92320251464844,-59.76145935058594
1776815653003071700,3.22607177734375,-65.89591979980469,70.91610717773438,-59.60722351074219
1776815653013170700,3.236170654296875,-66.32060241699219,70.74540710449219,-59.91853332519531
1776815653023269600,3.24626953125,-66.48214721679688,71.12254333496094,-60.2762451171875
1776815653033367600,3.256367431640625,-66.26713562011719,70.66748046875,-60.42425537109375
1776815653043465700,3.2664658203125,-65.65431213378906,71.00349426269531,-60.99278259277344
1776815653053564000,3.27656396484375,-66.35952758789062,70.50540161132812,-60.97010803222656
1776815653063662800,3.286662841796875,-66.398681640625,70.6707763671875,-61.172698974609375
1776815653073762600,3.296762451171875,-65.82696533203125,70.49827575683594,-61.47344970703125
1776815653083861800,3.30686181640625,-65.61137390136719,70.57138061523438,-61.649566650390625
1776815653093960700,3.316960693359375,-65.86482238769531,70.84829711914062,-62.19273376464844
1776815653104062000,3.32706201171875,-65.901611328125,70.64381408691406,-62.39735412597656
1776815653114161000,3.337160888671875,-65.70028686523438,70.44371032714844,-62.55413818359375
1776815653124260600,3.347260498046875,-65.172119140625,70.48707580566406,-62.52056884765625
1776815653134360800,3.35736083984375,-65.0184326171875,70.73980712890625,-62.93611145019531
1776815653144460800,3.367460693359375,-65.27938842773438,70.54399108886719,-63.00482177734375
1776815653154560800,3.377560791015625,-65.13209533691406,70.78216552734375,-63.20851135253906
1776815653164658700,3.38765869140625,-64.83222961425781,70.82760620117188,-63.27748107910156
1776815653174758700,3.397758544921875,-64.73332214355469,70.82807922363281,-63.1650390625
1776815653184856600,3.407856689453125,-64.82435607910156,70.56288146972656,-63.2940673828125
1776815653194955800,3.417955810546875,-65.0240478515625,70.35578918457031,-63.447906494140625
1776815653205055700,3.4280556640625,-64.88648986816406,70.66641235351562,-63.29997253417969
1776815653215153700,3.438153564453125,-65.09413146972656,70.581787109375,-63.45927429199219
1776815653225252600,3.448252685546875,-65.28948974609375,70.41542053222656,-63.246551513671875
1776815653235349800,3.458349853515625,-65.80636596679688,70.49705505371094,-63.246612548828125
1776815653245449700,3.46844970703125,-65.80474853515625,70.72642517089844,-63.12059020996094
1776815653255548700,3.478548583984375,-65.92559814453125,70.69291687011719,-63.02195739746094
1776815653265647600,3.488647705078125,-65.87924194335938,70.62008666992188,-62.88201904296875
1776815653275745500,3.49874560546875,-65.84469604492188,70.73677062988281,-62.67961120605469
1776815653285844000,3.508843994140625,-65.86235046386719,70.53181457519531,-62.45201110839844
1776815653295942700,3.518942626953125,-65.80264282226562,70.77742004394531,-62.30967712402344
1776815653306041600,3.52904150390625,-65.48916625976562,70.79544067382812,-61.82463073730469
1776815653316140500,3.539140625,-65.27937316894531,70.66868591308594,-61.357147216796875
1776815653326240800,3.54924072265625,-65.73397827148438,70.59159851074219,-61.23350524902344
1776815653336339700,3.559339599609375,-65.44601440429688,70.80793762207031,-61.08723449707031
1776815653346438700,3.569438720703125,-65.42543029785156,70.73933410644531,-61.17613220214844
1776815653356536600,3.57953662109375,-65.27293395996094,70.87969970703125,-61.41853332519531
1776815653366635800,3.5896357421875,-64.97648620605469,70.71430969238281,-61.16474914550781
1776815653376733700,3.599733642578125,-65.22857666015625,70.80690002441406,-61.39982604980469
1776815653386832600,3.60983251953125,-65.31979370117188,70.68266296386719,-61.36669921875
1776815653396930800,3.619930908203125,-65.44731140136719,70.818359375,-61.298919677734375
1776815653407030800,3.63003076171875,-65.20574951171875,70.75657653808594,-61.35484313964844
1776815653417130800,3.640130859375,-65.29710388183594,70.69442749023438,-61.34608459472656
1776815653427230700,3.650230712890625,-65.40748596191406,70.95114135742188,-61.36834716796875
1776815653437331700,3.660331787109375,-65.02235412597656,70.76252746582031,-61.17918395996094
1776815653447431000,3.670430908203125,-65.81478881835938,70.9268798828125,-61.23216247558594
1776815653457529900,3.68052978515625,-65.29237365722656,70.87086486816406,-61.18760681152344
1776815653467628800,3.69062890625,-65.23738098144531,70.81698608398438,-61.528045654296875
1776815653477727700,3.700727783203125,-64.88998413085938,70.73320007324219,-61.466705322265625
1776815653487827000,3.710826904296875,-64.99049377441406,70.73179626464844,-61.4781494140625
1776815653497925600,3.720925537109375,-65.30104064941406,70.65350341796875,-61.32551574707031
1776815653508024600,3.731024658203125,-64.93458557128906,70.6549072265625,-61.189361572265625
1776815653518123500,3.74112353515625,-65.55082702636719,70.78840637207031,-61.43621826171875
1776815653528222700,3.75122265625,-65.38850402832031,70.70550537109375,-61.49043273925781
1776815653538321000,3.76132080078125,-65.55409240722656,70.57803344726562,-61.46818542480469
1776815653548418800,3.771418701171875,-65.46833801269531,70.71023559570312,-61.54766845703125
1776815653558515700,3.781515625,-65.47956848144531,70.53958129882812,-61.34910583496094
1776815653568612900,3.79161279296875,-65.52534484863281,70.79180908203125,-61.778350830078125
1776815653578709800,3.801709716796875,-65.8492431640625,70.25630187988281,-61.575408935546875
1776815653588808000,3.811807861328125,-65.88876342773438,70.3348388671875,-61.685943603515625
1776815653598907000,3.821906982421875,-65.98924255371094,70.51492309570312,-61.993560791015625
1776815653609004800,3.8320048828125,-65.89308166503906,70.52041625976562,-62.24853515625
1776815653619102700,3.842102783203125,-65.69961547851562,70.3790283203125,-62.60395812988281
1776815653629199600,3.85219970703125,-65.59768676757812,70.34776306152344,-62.78968811035156
1776815653639298600,3.862298583984375,-65.84733581542969,70.05516052246094,-62.92909240722656
1776815653649396700,3.872396728515625,-65.85859680175781,70.38020324707031,-63.167022705078125
1776815653659493600,3.88249365234375,-65.5921630859375,70.12416076660156,-63.5240478515625
1776815653669591600,3.892591552734375,-65.80992126464844,70.22099304199219,-63.97314453125
1776815653679690800,3.902690673828125,-65.52017211914062,70.0069580078125,-63.93792724609375
1776815653689789700,3.912789794921875,-65.94097900390625,69.96525573730469,-63.84672546386719
1776815653699888600,3.922888671875,-65.51664733886719,70.02264404296875,-63.54008483886719
1776815653709987600,3.932987548828125,-65.934326171875,69.86320495605469,-63.769439697265625
1776815653720087800,3.943087890625,-66.01812744140625,69.83168029785156,-64.34239196777344
1776815653730186800,3.953186767578125,-65.43925476074219,69.65425109863281,-64.64018249511719
1776815653740284700,3.96328466796875,-65.67210388183594,69.68867492675781,-65.05220031738281
1776815653750383900,3.9733837890625,-65.50006103515625,69.48625183105469,-65.3067626953125
1776815653760482800,3.98348291015625,-65.41616821289062,69.44816589355469,-65.74147033691406
1776815653770581800,3.993581787109375,-65.26673889160156,69.49929809570312,-66.03401184082031
1776815653780680700,4.0036806640625,-65.80436706542969,69.41635131835938,-66.08671569824219
1776815653790780000,4.01377978515625,-65.48193359375,69.4493408203125,-65.98153686523438
1776815653800878800,4.02387890625,-65.15374755859375,69.40029907226562,-66.07086181640625
1776815653810977800,4.033977783203125,-65.18217468261719,69.55413818359375,-66.11845397949219
1776815653821080600,4.04408056640625,-65.41673278808594,69.40901184082031,-66.28842163085938
1776815653831180800,4.054180908203125,-65.21896362304688,69.40087890625,-66.41107177734375
1776815653841280800,4.06428076171875,-65.41671752929688,69.30572509765625,-66.28514099121094
1776815653851380700,4.074380615234375,-65.06773376464844,69.46080017089844,-66.58370971679688
1776815653861480700,4.084480712890625,-65.24140930175781,69.77146911621094,-66.50743103027344
1776815653871581000,4.094580810546875,-65.1732177734375,69.2449951171875,-66.55421447753906
1776815653881680000,4.104679931640625,-65.08648681640625,69.24684143066406,-66.52845764160156
1776815653891779600,4.114779541015625,-64.626953125,69.39756774902344,-66.20829772949219
1776815653901879800,4.1248798828125,-65.2415771484375,69.56687927246094,-66.59661865234375
1776815653911978800,4.134978759765625,-65.2249755859375,69.42112731933594,-66.63790893554688
1776815653922077700,4.14507763671875,-64.8050537109375,69.04141235351562,-66.62709045410156
1776815653932177000,4.155177001953125,-65.01753234863281,69.24504089355469,-66.39436340332031
1776815653942275800,4.16527587890625,-65.09442138671875,69.29153442382812,-66.45330810546875
1776815653952374800,4.175374755859375,-64.97193908691406,69.37129211425781,-66.4078369140625
1776815653962474800,4.185474853515625,-65.09028625488281,69.41920471191406,-66.55567932128906
1776815653972573700,4.19557373046875,-64.99465942382812,69.27874755859375,-66.57376098632812
1776815653982673700,4.205673583984375,-64.84588623046875,69.2681884765625,-66.45146179199219
1776815653992774000,4.21577392578125,-64.74114990234375,69.16444396972656,-66.42283630371094
1776815654002871800,4.225871826171875,-64.75094604492188,69.29721069335938,-66.41000366210938
1776815654012970800,4.235970703125,-64.82046508789062,69.30339050292969,-66.54130554199219
1776815654023068700,4.246068603515625,-64.99079895019531,69.3924560546875,-66.41099548339844
1776815654033168000,4.25616796875,-64.74871826171875,69.28401184082031,-66.44734191894531
1776815654043265800,4.266265869140625,-64.86994934082031,69.26762390136719,-66.62008666992188
1776815654053364700,4.27636474609375,-64.57891845703125,69.012451171875,-66.47235107421875
1776815654063462700,4.286462646484375,-64.98849487304688,69.29190063476562,-66.46537780761719
1776815654073561600,4.2965615234375,-64.63764953613281,69.10202026367188,-66.50273132324219
1776815654083660800,4.306660888671875,-64.3984375,69.25230407714844,-66.3795166015625
1776815654093758700,4.3167587890625,-64.43104553222656,69.48611450195312,-66.58645629882812
1776815654103857700,4.326857666015625,-64.32814025878906,69.17256164550781,-66.63890075683594
1776815654113954800,4.336954833984375,-64.44229125976562,69.29025268554688,-66.97918701171875
1776815654124052700,4.347052734375,-64.07675170898438,69.4759521484375,-67.19783020019531
1776815654134150700,4.357150634765625,-63.93182373046875,69.31401062011719,-67.38371276855469
1776815654144247800,4.367247802734375,-63.969879150390625,69.28732299804688,-67.53639221191406
1776815654154346800,4.3773466796875,-64.1055908203125,69.25260925292969,-67.38264465332031
1776815654164444700,4.387444580078125,-64.15567016601562,69.21780395507812,-67.17439270019531
1776815654174544000,4.3975439453125,-64.11569213867188,69.32633972167969,-67.19285583496094
1776815654184642800,4.407642822265625,-64.6466064453125,69.21240234375,-67.23245239257812
1776815654194743600,4.41774365234375,-64.27223205566406,69.17094421386719,-67.37351989746094
1776815654204844800,4.4278447265625,-64.40373229980469,69.36669921875,-67.36662292480469
1776815654214943700,4.43794384765625,-64.53143310546875,69.16531372070312,-67.34892272949219
1776815654225044700,4.448044677734375,-64.12103271484375,69.31025695800781,-67.12115478515625
1776815654235143700,4.458143798828125,-64.09109497070312,69.29774475097656,-67.23960876464844
1776815654245243000,4.468242919921875,-64.63966369628906,69.41069030761719,-67.21080017089844
1776815654255342800,4.4783427734375,-64.22171020507812,69.39466857910156,-67.33056640625
1776815654265441500,4.488441650390625,-64.63046264648438,69.3133544921875,-67.22654724121094
1776815654275541800,4.498541748046875,-64.52305603027344,69.15000915527344,-67.10211181640625
1776815654285640700,4.508640625,-64.5323486328125,69.12664794921875,-67.49079895019531
1776815654295741000,4.518740966796875,-64.94941711425781,69.23167419433594,-67.83639526367188
1776815654305838800,4.5288388671875,-64.80950927734375,68.97613525390625,-68.22674560546875
1776815654315937800,4.538937744140625,-64.9136962890625,68.78416442871094,-68.738525390625
1776815654326038800,4.549038818359375,-64.95040893554688,68.55467224121094,-69.42231750488281
1776815654336137700,4.5591376953125,-64.34286499023438,68.55772399902344,-70.0205078125
1776815654346237700,4.56923779296875,-64.35896301269531,68.1455078125,-70.77787780761719
1776815654356337000,4.5793369140625,-64.36390686035156,67.94560241699219,-71.50630187988281
1776815654366435800,4.589435791015625,-63.98101806640625,67.59550476074219,-71.70927429199219
1776815654376535600,4.59953564453125,-64.16218566894531,67.393798828125,-72.53614807128906
1776815654386636800,4.60963671875,-64.224609375,67.14398193359375,-73.08950805664062
1776815654396736500,4.619736572265625,-64.30262756347656,66.98020935058594,-73.64093017578125
1776815654406836700,4.629836669921875,-64.05311584472656,66.769287109375,-74.0313720703125
1776815654416936700,4.639936767578125,-63.88714599609375,66.60372924804688,-73.99176025390625
1776815654427036700,4.65003662109375,-64.04177856445312,66.18327331542969,-74.33613586425781
1776815654437136600,4.66013671875,-63.816650390625,66.16893005371094,-74.62052917480469
1776815654447234600,4.670234619140625,-63.46919250488281,66.24769592285156,-74.48826599121094
1776815654457333800,4.680333740234375,-62.90379333496094,66.23390197753906,-74.37521362304688
1776815654467432700,4.6904326171875,-62.673828125,65.98080444335938,-73.99337768554688
1776815654477530600,4.700530517578125,-62.60877990722656,65.92164611816406,-74.00187683105469
1776815654487627800,4.710627685546875,-62.64202880859375,65.94686889648438,-73.97592163085938
1776815654497725700,4.7207255859375,-62.44975280761719,65.93202209472656,-74.02565002441406
1776815654507826000,4.730825927734375,-62.18048095703125,65.81297302246094,-74.14772033691406
1776815654517924900,4.7409248046875,-61.436737060546875,65.49082946777344,-74.17819213867188
1776815654528023800,4.75102392578125,-61.68046569824219,65.5303955078125,-74.92527770996094
1776815654538121700,4.761121826171875,-61.75862121582031,65.2138671875,-75.13702392578125
1776815654548220700,4.771220703125,-61.89662170410156,65.10939025878906,-75.39553833007812
1776815654558320600,4.781320556640625,-61.46315002441406,65.07327270507812,-75.30142211914062
1776815654568419600,4.791419677734375,-61.64988708496094,65.20977783203125,-75.57965087890625
1776815654578518500,4.8015185546875,-61.575225830078125,65.39784240722656,-75.49125671386719
1776815654588619800,4.811619873046875,-61.37174987792969,65.19314575195312,-75.48246765136719
1776815654598719700,4.8217197265625,-61.33294677734375,65.16801452636719,-75.36811828613281
1776815654608821500,4.831821533203125,-60.795501708984375,65.39311218261719,-75.19319152832031
1776815654618922800,4.8419228515625,-61.14891052246094,65.38723754882812,-75.14859008789062
1776815654629023700,4.852023681640625,-60.785614013671875,65.16816711425781,-75.12886047363281
1776815654639124700,4.862124755859375,-60.80755615234375,65.41000366210938,-74.99278259277344
1776815654649225700,4.872225830078125,-60.793701171875,65.60516357421875,-75.13873291015625
1776815654659327700,4.88232763671875,-60.7647705078125,65.37614440917969,-75.01651000976562
1776815654669429800,4.8924296875,-61.04463195800781,65.5167236328125,-75.09117126464844
1776815654679531800,4.90253173828125,-60.56712341308594,65.26506042480469,-74.88447570800781
1776815654689631700,4.9126318359375,-60.7645263671875,65.3187255859375,-74.87197875976562
1776815654699733800,4.922733642578125,-60.89540100097656,65.30052185058594,-74.97294616699219
1776815654709834800,4.932834716796875,-60.90135192871094,65.47334289550781,-75.13983154296875
1776815654719935700,4.942935791015625,-60.881439208984375,65.11080932617188,-74.94056701660156
1776815654730035700,4.95303564453125,-61.45343017578125,65.40664672851562,-74.78973388671875
1776815654740134700,4.963134765625,-61.54960632324219,64.97369384765625,-74.69132995605469
1776815654750235000,4.97323486328125,-61.516998291015625,65.5234375,-74.7060546875
1776815654760334800,4.9833349609375,-61.8519287109375,65.29049682617188,-74.7340087890625
1776815654770434800,4.993434814453125,-61.842803955078125,65.27993774414062,-74.66130065917969
1776815654780535800,5.003535888671875,-61.83345031738281,65.24923706054688,-74.56390380859375
1776815654790635800,5.0136357421875,-62.07151794433594,65.21444702148438,-74.57426452636719
1776815654800735700,5.02373583984375,-61.625579833984375,65.35258483886719,-74.28257751464844
1776815654810834700,5.033834716796875,-61.876556396484375,65.21527099609375,-74.22270202636719
1776815654820932600,5.0439326171875,-62.31556701660156,65.3345947265625,-74.35006713867188
1776815654831032600,5.054032470703125,-62.035797119140625,65.34022521972656,-74.23210144042969
1776815654841134600,5.064134521484375,-62.47966003417969,65.133544921875,-74.11415100097656
1776815654851234600,5.074234619140625,-62.47279357910156,65.16506958007812,-73.98007202148438
1776815654861335600,5.08433544921875,-62.654052734375,65.11515808105469,-73.90876770019531
1776815654871435500,5.094435546875,-62.91302490234375,65.17332458496094,-73.93351745605469
1776815654881534500,5.104534423828125,-62.77131652832031,65.27059936523438,-73.69853210449219
1776815654891633400,5.11463330078125,-62.706573486328125,65.20353698730469,-73.65252685546875
1776815654901730600,5.12473046875,-62.79460144042969,65.24993896484375,-73.62399291992188
1776815654911828500,5.134828369140625,-63.00624084472656,65.41276550292969,-73.63777160644531
1776815654921925600,5.144925537109375,-63.172821044921875,65.40750122070312,-73.46830749511719
1776815654932022500,5.1550224609375,-63.75776672363281,65.32508850097656,-73.46234130859375
1776815654942122500,5.16512255859375,-63.746978759765625,65.2835693359375,-72.78437805175781
1776815654952221700,5.1752216796875,-64.4949951171875,65.372802734375,-73.00338745117188
1776815654962321400,5.1853212890625,-64.884033203125,65.14512634277344,-72.66151428222656
1776815654972420400,5.19542041015625,-65.50289916992188,65.21839904785156,-72.41194152832031
1776815654982521600,5.205521484375,-65.879150390625,65.10322570800781,-72.05902099609375
1776815654992620500,5.21562060546875,-66.73294067382812,65.00419616699219,-71.50192260742188
1776815655002720500,5.225720458984375,-67.86344909667969,64.73361206054688,-71.12527465820312
1776815655012819500,5.2358193359375,-68.77569580078125,64.91226196289062,-70.78727722167969
1776815655022917600,5.245917724609375,-69.87644958496094,64.27232360839844,-70.48698425292969
1776815655033017600,5.256017578125,-70.99830627441406,63.99493408203125,-70.12986755371094
1776815655043117600,5.26611767578125,-72.32559204101562,63.381744384765625,-69.82521057128906
1776815655053217500,5.276217529296875,-73.06629943847656,63.10047912597656,-69.5712890625
1776815655063318500,5.286318603515625,-74.49322509765625,62.563262939453125,-69.14537048339844
1776815655073418500,5.29641845703125,-75.74186706542969,61.77882385253906,-68.96403503417969
1776815655083518500,5.3065185546875,-76.68000793457031,61.42710876464844,-68.57192993164062
1776815655093618700,5.31661865234375,-77.66691589355469,60.94218444824219,-68.35572814941406
1776815655103717600,5.326717529296875,-78.97402954101562,60.0086669921875,-68.15692138671875
1776815655113816600,5.336816650390625,-79.88514709472656,59.31672668457031,-68.25100708007812
1776815655123916500,5.34691650390625,-80.56875610351562,58.69035339355469,-68.25228881835938
1776815655134015500,5.357015380859375,-81.30033874511719,57.872467041015625,-67.94618225097656
1776815655144115500,5.367115478515625,-81.70634460449219,57.097137451171875,-67.78665161132812
1776815655154216400,5.377216552734375,-82.48439025878906,56.55030822753906,-67.47695922851562
1776815655164317700,5.387317626953125,-83.4449462890625,55.91204833984375,-67.42599487304688
1776815655174417400,5.39741748046875,-84.09423828125,55.28871154785156,-67.312255859375
1776815655184518700,5.4075185546875,-83.85556030273438,54.79267883300781,-67.13584899902344
1776815655194617600,5.41761767578125,-84.49766540527344,54.19960021972656,-67.40316772460938
1776815655204717600,5.427717529296875,-84.9957275390625,53.95611572265625,-67.60873413085938
1776815655214816500,5.43781640625,-85.47021484375,53.34344482421875,-67.5538330078125
1776815655224915500,5.44791552734375,-85.26753234863281,53.20857238769531,-67.58831787109375
1776815655235015700,5.458015625,-85.16145324707031,53.21354675292969,-67.68696594238281
1776815655245115400,5.468115478515625,-84.93336486816406,52.93415832519531,-67.49119567871094
1776815655255215600,5.478215576171875,-84.97911071777344,52.99334716796875,-67.43048095703125
1776815655265315600,5.488315673828125,-85.23884582519531,53.01893615722656,-67.06581115722656
1776815655275415300,5.498415283203125,-84.79423522949219,52.74871826171875,-66.72689819335938
1776815655285515500,5.508515625,-85.10420227050781,52.50227355957031,-66.39773559570312
1776815655295615500,5.518615478515625,-85.46148681640625,52.263885498046875,-66.11782836914062
1776815655305715500,5.528715576171875,-85.5390625,51.872283935546875,-65.81216430664062
1776815655315814400,5.538814453125,-85.50759887695312,51.68580627441406,-65.463623046875
1776815655325914600,5.54891455078125,-85.6466064453125,51.41966247558594,-65.00343322753906
1776815655336014600,5.5590146484375,-85.78840637207031,51.12385559082031,-64.98851013183594
1776815655346114600,5.569114501953125,-85.88816833496094,50.83070373535156,-64.88720703125
1776815655356212700,5.579212646484375,-85.69770812988281,50.57078552246094,-64.62008666992188
1776815655366311400,5.5893115234375,-85.93521118164062,50.29541015625,-64.35032653808594
1776815655376410400,5.599410400390625,-86.04095458984375,49.697113037109375,-64.27334594726562
1776815655386509300,5.60950927734375,-86.26927185058594,49.34913635253906,-64.159423828125
1776815655396608500,5.6196083984375,-86.32992553710938,48.8131103515625,-64.26626586914062
1776815655406708500,5.62970849609375,-86.02761840820312,48.00614929199219,-64.2320556640625
1776815655416807700,5.6398076171875,-86.39753723144531,47.71160888671875,-64.20037841796875
1776815655426906600,5.64990673828125,-86.54884338378906,47.02796936035156,-64.427490234375
1776815655437006600,5.660006591796875,-86.81733703613281,46.233642578125,-64.4854736328125
1776815655447107600,5.670107666015625,-86.97550964355469,45.635833740234375,-64.82752990722656
1776815655457207600,5.68020751953125,-86.79835510253906,44.94169616699219,-64.77264404296875
1776815655467306500,5.690306396484375,-86.8546142578125,44.449188232421875,-64.77284240722656
1776815655477406500,5.700406494140625,-87.19902038574219,43.409027099609375,-65.09013366699219
1776815655487505400,5.71050537109375,-87.33564758300781,42.78570556640625,-65.45542907714844
1776815655497605600,5.720605712890625,-87.18556213378906,42.09303283691406,-65.49101257324219
1776815655507707600,5.730707763671875,-87.256103515625,41.34007263183594,-65.61390686035156
1776815655517801500,5.740801513671875,-87.28120422363281,40.75224304199219,-65.71420288085938
1776815655527902700,5.75090283203125,-86.95166015625,40.23719787597656,-65.71174621582031
1776815655538001700,5.761001708984375,-87.16549682617188,39.62388610839844,-65.94783020019531
1776815655548100400,5.771100341796875,-87.19447326660156,39.13026428222656,-66.06855773925781
1776815655558200600,5.78120068359375,-86.95828247070312,38.552398681640625,-65.89909362792969
1776815655568300500,5.791300537109375,-87.20848083496094,37.595977783203125,-65.99739074707031
1776815655578400500,5.801400390625,-87.00022888183594,36.936126708984375,-66.048828125
1776815655588498700,5.811498779296875,-86.83381652832031,36.1751708984375,-66.1851806640625
1776815655598598400,5.821598388671875,-86.92939758300781,35.6915283203125,-66.0528564453125
1776815655608698600,5.83169873046875,-86.54074096679688,35.042877197265625,-66.04200744628906
1776815655618797600,5.841797607421875,-86.24784851074219,34.051422119140625,-66.06375122070312
1776815655628897500,5.8518974609375,-86.04034423828125,33.34764099121094,-66.09909057617188
1776815655638996500,5.86199658203125,-86.018798828125,32.733917236328125,-66.13015747070312
1776815655649096400,5.872096435546875,-86.04908752441406,32.123138427734375,-66.19964599609375
1776815655659195400,5.8821953125,-85.57328796386719,31.552566528320312,-66.04666137695312
1776815655669295600,5.892295654296875,-85.43431091308594,30.989761352539062,-65.94145202636719
1776815655679395300,5.902395263671875,-85.03135681152344,30.313644409179688,-66.22904968261719
1776815655689496600,5.91249658203125,-85.34587097167969,30.012191772460938,-66.25160217285156
1776815655699597600,5.92259765625,-84.78422546386719,29.698638916015625,-66.16574096679688
1776815655709698600,5.932698486328125,-84.69340515136719,29.234970092773438,-65.96954345703125
1776815655719797500,5.942797607421875,-84.74922180175781,28.581161499023438,-66.01370239257812
1776815655729897500,5.9528974609375,-84.61578369140625,28.2193603515625,-66.01174926757812
1776815655739997700,5.962997802734375,-84.13973999023438,27.872711181640625,-65.89851379394531
1776815655750097400,5.973097412109375,-84.05192565917969,27.54071044921875,-66.10748291015625
1776815655760195600,5.983195556640625,-83.63375854492188,27.065689086914062,-65.89398193359375
1776815655770294500,5.99329443359375,-83.38702392578125,26.897171020507812,-65.9732666015625
1776815655780391400,6.003391357421875,-83.47856140136719,26.493698120117188,-65.997802734375
1776815655790489300,6.0134892578125,-83.4307861328125,26.323196411132812,-65.99258422851562
1776815655800587500,6.02358740234375,-83.42359924316406,26.012985229492188,-65.79228210449219
1776815655810686500,6.0336865234375,-83.19558715820312,25.595794677734375,-65.99455261230469
1776815655820791600,6.04379150390625,-83.43571472167969,25.341354370117188,-65.97105407714844
1776815655830884000,6.053884033203125,-82.99710083007812,24.892791748046875,-65.96174621582031
1776815655840984000,6.063984130859375,-82.74490356445312,24.552871704101562,-65.86921691894531
1776815655851083000,6.0740830078125,-82.41293334960938,24.332504272460938,-65.65412902832031
1776815655861183000,6.084182861328125,-82.27740478515625,23.5855712890625,-65.97634887695312
1776815655871282200,6.0942822265625,-81.81199645996094,23.328338623046875,-65.79977416992188
1776815655881382000,6.1043818359375,-81.86788940429688,22.707733154296875,-66.19076538085938
1776815655891481900,6.11448193359375,-81.70552062988281,22.183013916015625,-66.07002258300781
1776815655901582800,6.124582763671875,-81.40463256835938,21.790939331054688,-66.13981628417969
1776815655911681800,6.134681884765625,-81.37689208984375,21.442489624023438,-66.36642456054688
1776815655921783000,6.144782958984375,-80.88632202148438,21.179962158203125,-66.62120056152344
1776815655931882000,6.154882080078125,-80.77235412597656,20.740371704101562,-66.58535766601562
1776815655941982000,6.16498193359375,-80.91879272460938,20.6607666015625,-66.71981811523438
1776815655952081000,6.175080810546875,-80.08006286621094,19.875167846679688,-66.70903015136719
1776815655962181000,6.18518115234375,-79.87168884277344,19.880813598632812,-66.76324462890625
1776815655972281000,6.195281005859375,-80.00015258789062,19.223373413085938,-66.84713745117188
1776815655982381000,6.205381103515625,-79.78984069824219,18.90826416015625,-66.84208679199219
1776815655992480000,6.21547998046875,-79.44720458984375,18.143386840820312,-66.6414794921875
1776815656002580000,6.225580078125,-78.80807495117188,17.555419921875,-66.95960998535156
1776815656012680000,6.235679931640625,-78.06744384765625,16.89447021484375,-67.04389953613281
1776815656022780000,6.24577978515625,-77.70124816894531,16.42681884765625,-67.34869384765625
1776815656032878800,6.25587890625,-77.68966674804688,15.853363037109375,-67.62010192871094
1776815656042979800,6.265979736328125,-76.57960510253906,15.20196533203125,-67.58393859863281
1776815656053080000,6.276080078125,-76.67193603515625,14.557403564453125,-67.86528015136719
1776815656063180000,6.286179931640625,-76.01119995117188,13.855453491210938,-68.00180053710938
1776815656073280000,6.296280029296875,-75.7218017578125,13.320907592773438,-68.20240783691406
1776815656083380000,6.3063798828125,-75.21577453613281,13.084503173828125,-68.22257995605469
1776815656093480000,6.31647998046875,-75.03715515136719,13.035125732421875,-68.16900634765625
1776815656103580000,6.326579833984375,-75.36448669433594,12.7530517578125,-68.12715148925781
1776815656113680000,6.336679931640625,-75.46792602539062,12.319107055664062,-67.98681640625
1776815656123780900,6.34678076171875,-75.4522705078125,12.249359130859375,-67.98097229003906
1776815656133881000,6.356881103515625,-75.85391235351562,11.839065551757812,-67.54359436035156
1776815656143982800,6.36698291015625,-75.77717590332031,11.521530151367188,-67.45382690429688
1776815656154083000,6.3770830078125,-76.17669677734375,11.795669555664062,-67.24684143066406
1776815656164182800,6.387182861328125,-76.59123229980469,11.647140502929688,-66.993408203125
1776815656174283000,6.397282958984375,-77.12576293945312,11.410980224609375,-66.68466186523438
1776815656184381000,6.407380859375,-77.47933959960938,11.264678955078125,-66.03868103027344
1776815656194479900,6.41747998046875,-78.20545959472656,11.259658813476562,-65.92999267578125
1776815656204581000,6.4275810546875,-78.14178466796875,10.863784790039062,-65.56993103027344
1776815656214680800,6.437680908203125,-79.04844665527344,10.678787231445312,-65.02500915527344
1776815656224781000,6.447781005859375,-78.93104553222656,10.39947509765625,-64.54661560058594
1776815656234881000,6.457881103515625,-79.18559265136719,10.242706298828125,-64.15011596679688
1776815656244982000,6.46798193359375,-79.73231506347656,9.972854614257812,-63.474365234375
1776815656255082000,6.47808203125,-80.246337890625,9.352386474609375,-62.57965087890625
1776815656265182000,6.488181884765625,-80.68214416503906,9.6361083984375,-61.800201416015625
1776815656275283200,6.498283203125,-81.05084228515625,9.926589965820312,-61.00566101074219
1776815656285384000,6.508384033203125,-81.35725402832031,10.235702514648438,-60.4571533203125
1776815656295483000,6.51848291015625,-81.9276123046875,10.847854614257812,-60.67015075683594
1776815656305582000,6.52858203125,-82.06700134277344,11.068161010742188,-61.09605407714844
1776815656315681000,6.538680908203125,-82.20245361328125,11.31634521484375,-61.679229736328125
1776815656325780000,6.548780029296875,-81.93113708496094,11.767044067382812,-62.21653747558594
1776815656335878000,6.5588779296875,-82.13194274902344,11.905807495117188,-62.704010009765625
1776815656345977000,6.56897705078125,-82.24392700195312,12.328155517578125,-62.92521667480469
1776815656356075000,6.579074951171875,-82.76528930664062,12.614151000976562,-62.97328186035156
1776815656366173000,6.5891728515625,-82.72743225097656,12.934906005859375,-63.177032470703125
1776815656376271000,6.59927099609375,-83.0205078125,13.20989990234375,-63.101593017578125
1776815656386375000,6.609375,-83.38101196289062,13.5283203125,-63.32080078125
1776815656396467000,6.619467041015625,-83.43568420410156,13.42779541015625,-63.76322937011719
1776815656406566000,6.62956591796875,-83.18638610839844,13.370635986328125,-64.05122375488281
1776815656416666000,6.639666015625,-83.05158996582031,13.351638793945312,-64.3427734375
1776815656426765000,6.64976513671875,-82.59567260742188,13.117874145507812,-64.185302734375
1776815656436865000,6.659864990234375,-82.84130859375,12.981369018554688,-64.15592956542969
1776815656446965000,6.669965087890625,-82.69317626953125,13.162033081054688,-64.30766296386719
1776815656457065200,6.680065185546875,-82.49958801269531,12.980072021484375,-64.20297241210938
1776815656467165000,6.6901650390625,-82.49362182617188,12.548675537109375,-63.99592590332031
1776815656477264000,6.700263916015625,-82.81739807128906,12.571334838867188,-63.87274169921875
1776815656487364000,6.710364013671875,-82.51240539550781,12.317626953125,-63.75370788574219
1776815656497464000,6.720464111328125,-82.50700378417969,12.003326416015625,-63.664947509765625
1776815656507562800,6.730562744140625,-82.47637939453125,11.935745239257812,-63.64093017578125
1776815656517661200,6.7406611328125,-81.9776611328125,11.964874267578125,-63.5704345703125
1776815656527760100,6.750760009765625,-82.20497131347656,11.7655029296875,-63.85935974121094
1776815656537859000,6.760859130859375,-81.83966064453125,11.467529296875,-63.82679748535156
1776815656547957000,6.77095703125,-81.84695434570312,11.67974853515625,-63.97373962402344
1776815656558056000,6.781055908203125,-81.76243591308594,11.521270751953125,-63.96858215332031
1776815656568154000,6.791154052734375,-81.55517578125,11.553741455078125,-63.762115478515625
1776815656578254000,6.801254150390625,-81.72525024414062,11.19622802734375,-64.08937072753906
1776815656588353800,6.811353759765625,-81.56900024414062,11.449996948242188,-64.2861328125
1776815656598453000,6.821452880859375,-81.6629638671875,11.350128173828125,-64.44770812988281
1776815656608553000,6.831552978515625,-81.47482299804688,11.354507446289062,-64.7855224609375
1776815656618652200,6.841652099609375,-81.34944152832031,11.660980224609375,-64.87174987792969
1776815656628751000,6.851751220703125,-81.43244934082031,11.737518310546875,-65.25933837890625
1776815656638851800,6.861851806640625,-81.87249755859375,11.932693481445312,-65.44192504882812
1776815656648952000,6.8719521484375,-81.76409912109375,11.868453979492188,-65.70724487304688
1776815656659051800,6.8820517578125,-81.5419921875,12.114044189453125,-65.82098388671875
1776815656669151000,6.89215087890625,-81.64775085449219,12.394546508789062,-66.13482666015625
1776815656679250000,6.90225,-81.55873107910156,12.21673583984375,-66.30589294433594
1776815656689348900,6.912348876953125,-81.62626647949219,12.4320068359375,-66.38276672363281
1776815656699447000,6.922447021484375,-81.78517150878906,12.560150146484375,-66.35284423828125
1776815656709546000,6.9325458984375,-82.05355834960938,12.741302490234375,-66.15103149414062
1776815656719644200,6.94264404296875,-82.37115478515625,12.643096923828125,-66.11875915527344
1776815656729743000,6.9527431640625,-82.18165588378906,12.639404296875,-66.15229797363281
1776815656739842000,6.962842041015625,-82.25,12.579681396484375,-66.08189392089844
1776815656749942000,6.97294189453125,-82.33157348632812,12.814666748046875,-65.94206237792969
1776815656760041000,6.983041015625,-82.25526428222656,12.867538452148438,-65.64547729492188
1776815656770140000,6.993139892578125,-82.83238220214844,13.011398315429688,-65.58685302734375
1776815656780239000,7.003239013671875,-82.89106750488281,13.099075317382812,-65.29118347167969
1776815656790339000,7.013339111328125,-83.09236145019531,13.030487060546875,-65.48881530761719
1776815656800438800,7.023438720703125,-82.80380249023438,13.087936401367188,-65.27499389648438
1776815656810537200,7.033537109375,-82.80876159667969,13.209564208984375,-65.15402221679688
1776815656820636200,7.04363623046875,-82.56121826171875,13.344772338867188,-65.18281555175781
1776815656830733300,7.0537333984375,-82.84678649902344,13.08087158203125,-65.248046875
1776815656840831200,7.063831298828125,-82.60758972167969,13.33642578125,-65.24211120605469
1776815656850929200,7.07392919921875,-83.17323303222656,13.311996459960938,-65.10389709472656
1776815656861027600,7.084027587890625,-82.81535339355469,13.333526611328125,-65.15457153320312
1776815656871126500,7.09412646484375,-83.00086975097656,13.699600219726562,-65.23452758789062
1776815656881224400,7.104224365234375,-82.9276123046875,13.534759521484375,-65.37142944335938
1776815656891323400,7.114323486328125,-82.8338623046875,13.499801635742188,-65.19169616699219
1776815656901422300,7.12442236328125,-82.86909484863281,13.900314331054688,-65.16000366210938
1776815656911522300,7.134522216796875,-83.39266967773438,13.817031860351562,-65.02488708496094
1776815656921621200,7.144621337890625,-83.30935668945312,13.908370971679688,-64.84622192382812
1776815656931720200,7.15472021484375,-83.01766967773438,13.94287109375,-64.79032897949219
1776815656941819400,7.1648193359375,-83.26754760742188,13.966873168945312,-64.65629577636719
1776815656951917300,7.174917236328125,-83.06623840332031,13.96331787109375,-64.47308349609375
1776815656962016300,7.185016357421875,-83.48486328125,13.74267578125,-64.56918334960938
1776815656972114400,7.195114501953125,-83.1446533203125,14.020675659179688,-64.80757141113281
1776815656982213400,7.20521337890625,-82.804931640625,13.851470947265625,-64.59815979003906
1776815656992312300,7.215312255859375,-82.92483520507812,13.889602661132812,-64.76399230957031
1776815657002412300,7.225412353515625,-83.22221374511719,13.6146240234375,-64.63150024414062
1776815657012511200,7.23551123046875,-83.06175231933594,13.472213745117188,-64.61956787109375
1776815657022609400,7.245609375,-83.25444030761719,13.365142822265625,-64.32875061035156
1776815657032706300,7.255706298828125,-82.97616577148438,13.26483154296875,-64.28878784179688
1776815657042804500,7.265804443359375,-82.75053405761719,13.4027099609375,-64.23347473144531
1776815657052903400,7.2759033203125,-82.93905639648438,13.32708740234375,-64.43534851074219
1776815657063001300,7.28600146484375,-82.90615844726562,13.265151977539062,-64.29183959960938
1776815657073098500,7.296098388671875,-82.99612426757812,13.494781494140625,-64.1297607421875
1776815657083196400,7.306196533203125,-83.08639526367188,13.154739379882812,-64.0201416015625
1776815657093298400,7.31629833984375,-82.75357055664062,13.411758422851562,-63.87713623046875
1776815657103390500,7.326390380859375,-83.27525329589844,13.1729736328125,-64.20208740234375
1776815657113488400,7.33648828125,-82.97227478027344,13.160415649414062,-63.90678405761719
1776815657123586300,7.34658642578125,-83.05307006835938,13.146560668945312,-63.99339294433594
1776815657133683500,7.356683349609375,-83.06427001953125,13.047134399414062,-63.967620849609375
1776815657143780400,7.3667802734375,-82.8612060546875,13.136489868164062,-63.67082214355469
1776815657153877200,7.376877197265625,-83.21115112304688,13.25006103515625,-64.04383850097656
1776815657163973400,7.386973388671875,-82.88041687011719,13.5111083984375,-63.83122253417969
1776815657174075400,7.397075439453125,-83.24052429199219,13.129989624023438,-63.47184753417969
1776815657184167400,7.40716748046875,-83.48690795898438,13.351333618164062,-63.520782470703125
1776815657194264300,7.417264404296875,-83.45027160644531,13.324478149414062,-63.50657653808594
1776815657204362500,7.427362548828125,-83.28172302246094,13.380081176757812,-63.35417175292969
1776815657214459400,7.43745947265625,-83.4246826171875,13.5655517578125,-63.600372314453125
1776815657224557300,7.447557373046875,-83.39553833007812,13.105499267578125,-63.412841796875
1776815657234655500,7.457655517578125,-83.301025390625,13.47406005859375,-63.21998596191406
1776815657244753400,7.46775341796875,-83.71542358398438,13.389404296875,-63.34111022949219
1776815657254851300,7.477851318359375,-83.32872009277344,13.461257934570312,-63.19166564941406
1776815657264948500,7.487948486328125,-83.6004638671875,13.447250366210938,-63.151519775390625
1776815657275047400,7.49804736328125,-83.48487854003906,13.406585693359375,-62.95780944824219
1776815657285145300,7.508145263671875,-83.227783203125,13.625762939453125,-62.85713195800781
1776815657295243300,7.5182431640625,-83.15052795410156,13.608596801757812,-63.1199951171875
1776815657305342500,7.528342529296875,-83.84683227539062,13.570892333984375,-63.12562561035156
1776815657315441400,7.53844140625,-83.851806640625,13.738723754882812,-63.14955139160156
1776815657325538300,7.548538330078125,-83.70210266113281,13.581878662109375,-63.20429992675781
1776815657335635500,7.558635498046875,-83.69314575195312,13.5435791015625,-62.91154479980469
1776815657345733400,7.5687333984375,-83.62675476074219,13.304946899414062,-63.096771240234375
1776815657355835400,7.57883544921875,-83.49674987792969,13.369354248046875,-63.31425476074219
1776815657365929500,7.588929443359375,-83.30445861816406,13.226028442382812,-63.5322265625
1776815657376033300,7.599033203125,-83.57756042480469,13.455398559570312,-63.84495544433594
1776815657386126300,7.609126220703125,-83.04283142089844,13.269363403320312,-63.90126037597656
1776815657396226300,7.619226318359375,-83.3994140625,13.253936767578125,-64.26582336425781
1776815657406323500,7.629323486328125,-83.34669494628906,13.276718139648438,-64.33213806152344
1776815657416426500,7.639426513671875,-83.47265625,13.193679809570312,-64.38946533203125
1776815657426519300,7.649519287109375,-82.96699523925781,13.035140991210938,-64.22026062011719
1776815657436617500,7.659617431640625,-83.17982482910156,13.125518798828125,-64.54052734375
1776815657446715400,7.66971533203125,-83.19886779785156,13.144683837890625,-64.87655639648438
1776815657456814300,7.679814453125,-82.88922119140625,13.024429321289062,-65.09619140625
1776815657466913500,7.68991357421875,-82.81208801269531,12.889678955078125,-65.2305908203125
1776815657477012500,7.700012451171875,-82.82380676269531,12.874374389648438,-65.39361572265625
1776815657487110400,7.7101103515625,-83.25273132324219,12.9696044921875,-65.73635864257812
1776815657497208300,7.720208251953125,-82.88587951660156,12.682815551757812,-65.83207702636719
1776815657507306200,7.73030615234375,-82.91079711914062,12.955825805664062,-66.25064086914062
1776815657517404400,7.740404296875,-82.34416198730469,12.73150634765625,-66.12161254882812
1776815657527503400,7.75050341796875,-82.30790710449219,12.511444091796875,-66.32040405273438
1776815657537601500,7.7606015625,-82.1519775390625,12.579254150390625,-66.50216674804688
1776815657547704600,7.77070458984375,-82.14724731445312,12.388626098632812,-66.80882263183594
1776815657557798400,7.78079833984375,-81.83760070800781,12.232177734375,-66.89804077148438
1776815657567897300,7.7908974609375,-81.84251403808594,12.385284423828125,-66.86894226074219
1776815657577996300,7.800996337890625,-81.90596008300781,11.772354125976562,-66.91465759277344
1776815657588094500,7.811094482421875,-81.65380859375,11.902999877929688,-67.07157897949219
1776815657598193400,7.821193359375,-81.584228515625,11.618789672851562,-67.01385498046875
1776815657608292400,7.831292236328125,-81.55659484863281,11.689651489257812,-67.07315063476562
1776815657618392600,7.841392578125,-81.21783447265625,11.693817138671875,-66.99473571777344
1776815657628491500,7.851491455078125,-81.29777526855469,11.12396240234375,-67.04428100585938
1776815657638590200,7.861590087890625,-81.34675598144531,11.432662963867188,-67.2210693359375
1776815657648690400,7.8716904296875,-81.09033203125,11.189559936523438,-67.09698486328125
1776815657658789400,7.881789306640625,-80.78358459472656,11.289169311523438,-67.2078857421875
1776815657668889300,7.891889404296875,-80.86790466308594,11.155303955078125,-66.98614501953125
1776815657678988500,7.901988525390625,-81.45924377441406,11.078536987304688,-67.28359985351562
1776815657689086500,7.91208642578125,-81.4508056640625,11.254608154296875,-67.21017456054688
1776815657699185400,7.922185302734375,-81.62026977539062,11.528427124023438,-67.39006042480469
1776815657709284400,7.932284423828125,-81.7789306640625,11.760086059570312,-67.33782958984375
1776815657719383600,7.942383544921875,-81.92320251464844,11.689620971679688,-67.27963256835938
1776815657729482500,7.952482421875,-81.91368103027344,11.857681274414062,-67.40974426269531
1776815657739582200,7.962582275390625,-82.2880859375,12.036758422851562,-67.47036743164062
1776815657749682400,7.972682373046875,-82.34309387207031,12.329025268554688,-67.48031616210938
1776815657759782400,7.982782470703125,-82.43141174316406,12.384857177734375,-67.51962280273438
1776815657769882400,7.99288232421875,-82.38117980957031,12.232421875,-67.54098510742188
1776815657779981300,8.002981201171876,-82.208251953125,12.200180053710938,-67.53857421875
1776815657790080300,8.013080322265624,-82.16319274902344,12.47955322265625,-67.62286376953125
1776815657800178200,8.02317822265625,-82.37860107421875,12.471710205078125,-67.58677673339844
1776815657810276400,8.0332763671875,-82.41964721679688,12.552413940429688,-67.60929870605469
1776815657820379100,8.043379150390624,-82.55131530761719,12.922439575195312,-68.08477783203125
1776815657830472700,8.05347265625,-82.79180908203125,13.174896240234375,-68.0567626953125
1776815657840570600,8.063570556640625,-82.69126892089844,13.16253662109375,-68.04730224609375
1776815657850668500,8.07366845703125,-82.87298583984375,13.214813232421875,-68.1943359375
1776815657860766700,8.0837666015625,-82.63011169433594,13.20703125,-68.16447448730469
1776815657870865700,8.09386572265625,-82.31399536132812,13.477081298828125,-68.0579833984375
1776815657880968400,8.103968505859376,-83.04368591308594,13.247665405273438,-68.40008544921875
1776815657891061500,8.1140615234375,-82.669921875,13.367523193359375,-68.43820190429688
1776815657901160700,8.12416064453125,-82.61538696289062,13.436721801757812,-68.41224670410156
1776815657911258600,8.134258544921876,-83.05784606933594,13.2005615234375,-68.42568969726562
1776815657921355800,8.144355712890626,-83.08415222167969,13.220870971679688,-68.52540588378906
1776815657931459600,8.15445947265625,-83.00196838378906,13.429183959960938,-68.54327392578125
1776815657941553700,8.1645537109375,-82.58096313476562,13.36151123046875,-68.4659423828125
1776815657951652600,8.174652587890625,-82.54359436035156,13.198989868164062,-68.37358093261719
1776815657961752600,8.184752685546876,-82.9102783203125,13.475936889648438,-68.43153381347656
1776815657971851500,8.1948515625,-82.66253662109375,13.363479614257812,-68.55955505371094
1776815657981950500,8.204950439453125,-82.67967224121094,13.212997436523438,-68.55628967285156
1776815657992048400,8.21504833984375,-82.72792053222656,13.357955932617188,-68.57237243652344
1776815658002145500,8.2251455078125,-82.54330444335938,13.312911987304688,-68.43141174316406
1776815658012243500,8.235243408203125,-82.76097106933594,13.172286987304688,-68.39729309082031
1776815658022342700,8.2453427734375,-82.71580505371094,13.25640869140625,-68.60733032226562
1776815658032440600,8.255440673828126,-82.58216857910156,13.278030395507812,-68.607421875
1776815658042545700,8.265545654296876,-82.916748046875,13.138717651367188,-68.55123901367188
1776815658052639700,8.2756396484375,-82.65414428710938,13.421112060546875,-68.40153503417969
1776815658062741500,8.285741455078124,-82.80677795410156,13.23583984375,-68.57777404785156
1776815658072835600,8.295835693359376,-82.80860900878906,13.201385498046875,-68.57249450683594
1776815658082938600,8.305938720703125,-82.6700439453125,13.155014038085938,-68.61857604980469
1776815658093032700,8.31603271484375,-83.06645202636719,13.080123901367188,-68.58186340332031
1776815658103130600,8.326130615234375,-82.82279968261719,12.989700317382812,-68.53182983398438
1776815658113228500,8.336228515625,-82.96298217773438,13.18890380859375,-68.62348937988281
1776815658123327700,8.34632763671875,-82.85890197753906,13.178665161132812,-68.6944580078125
1776815658133426700,8.3564267578125,-82.86936950683594,13.114730834960938,-68.43893432617188
1776815658143525600,8.366525634765624,-82.490478515625,13.065414428710938,-68.22785949707031
1776815658153629400,8.37662939453125,-82.85328674316406,13.096572875976562,-68.52528381347656
1776815658163723800,8.386723876953125,-82.5242919921875,13.224685668945312,-68.6370849609375
1776815658173820700,8.396820556640625,-82.61122131347656,13.086929321289062,-68.57850646972656
1776815658183919600,8.406919677734376,-82.48129272460938,13.1077880859375,-68.51620483398438
1776815658194018600,8.4170185546875,-82.30662536621094,12.924896240234375,-68.38056945800781
1776815658204116500,8.427116455078124,-82.61749267578125,12.94085693359375,-68.50914001464844
1776815658214215400,8.43721533203125,-82.71855163574219,13.026611328125,-68.50743103027344
1776815658224312600,8.4473125,-82.34913635253906,13.007156372070312,-68.57060241699219
1776815658234410500,8.457410400390625,-82.37106323242188,12.913787841796875,-68.49057006835938
1776815658244507600,8.467507568359375,-82.39424133300781,12.884506225585938,-68.48956298828125
1776815658254605600,8.47760546875,-82.3543701171875,12.782501220703125,-68.59822082519531
1776815658264703500,8.487703369140625,-82.42300415039062,13.018814086914062,-68.49079895019531
1776815658274801700,8.4978017578125,-82.63063049316406,13.192459106445312,-68.5555419921875
1776815658284905700,8.50790576171875,-82.46385192871094,13.021591186523438,-68.36759948730469
1776815658294998500,8.51799853515625,-82.62716674804688,12.955307006835938,-68.38485717773438
1776815658305101600,8.5281015625,-82.28663635253906,12.892379760742188,-68.50149536132812
1776815658315194600,8.538194580078125,-82.45407104492188,13.136795043945312,-68.40116882324219
1776815658325292500,8.54829248046875,-82.56326293945312,13.133407592773438,-68.39083862304688
1776815658335389700,8.5583896484375,-82.29249572753906,13.153976440429688,-68.23257446289062
1776815658345488600,8.568488525390626,-82.70057678222656,13.036880493164062,-68.40165710449219
1776815658355587800,8.578587890625,-82.6669921875,13.176528930664062,-68.39128112792969
1776815658365687600,8.5886875,-82.56631469726562,12.856170654296875,-68.27406311035156
1776815658375787500,8.59878759765625,-82.36158752441406,13.085906982421875,-68.34402465820312
1776815658385886700,8.60888671875,-82.34666442871094,12.928970336914062,-68.10067749023438
1776815658395986400,8.618986328125,-82.43614196777344,12.86669921875,-68.08303833007812
1776815658406086700,8.629086669921875,-82.42326354980469,12.958175659179688,-68.15097045898438
1776815658416185600,8.639185546875,-82.68168640136719,12.860244750976562,-68.01986694335938
1776815658426284500,8.649284423828124,-82.28248596191406,13.065216064453125,-68.11833190917969
1776815658436383700,8.6593837890625,-82.67047119140625,13.152435302734375,-68.01078796386719
1776815658446481700,8.669481689453125,-82.92140197753906,13.026870727539062,-67.98541259765625
1776815658456580600,8.67958056640625,-82.56736755371094,13.215591430664062,-67.96383666992188
1776815658466678500,8.689678466796876,-82.84461975097656,13.041091918945312,-67.98150634765625
1776815658476778500,8.699778564453124,-82.3096923828125,12.974288940429688,-67.76762390136719
1776815658486877700,8.709877685546875,-82.41488647460938,12.892242431640625,-67.87809753417969
1776815658496976600,8.7199765625,-82.59709167480469,12.820724487304688,-67.93118286132812
1776815658507075600,8.73007568359375,-82.48622131347656,12.81561279296875,-67.87506103515625
1776815658517174800,8.7401748046875,-82.40536499023438,12.64794921875,-67.83576965332031
1776815658527273700,8.750273681640625,-82.10783386230469,12.748870849609375,-67.53538513183594
1776815658537372700,8.76037255859375,-82.46092224121094,12.498046875,-67.80891418457031
1776815658547471600,8.7704716796875,-82.28775024414062,12.7628173828125,-67.61424255371094
1776815658557570800,8.78057080078125,-82.13052368164062,12.662338256835938,-67.64694213867188
1776815658567672800,8.7906728515625,-82.23623657226562,12.550308227539062,-67.67497253417969
1776815658577765600,8.800765625,-82.23048400878906,12.452926635742188,-67.51162719726562
1776815658587864600,8.810864501953125,-82.10020446777344,12.58221435546875,-67.73135375976562
1776815658597963500,8.820963623046875,-82.11105346679688,12.423995971679688,-67.56851196289062
1776815658608061400,8.8310615234375,-82.24005126953125,12.4781494140625,-67.61920166015625
1776815658618159600,8.84115966796875,-82.156982421875,12.172393798828125,-67.51287841796875
1776815658628262400,8.851262451171875,-82.19529724121094,12.30157470703125,-67.45726013183594
1776815658638354400,8.8613544921875,-82.10598754882812,12.11260986328125,-67.46299743652344
1776815658648453600,8.87145361328125,-82.22990417480469,12.307418823242188,-67.52455139160156
1776815658658553600,8.8815537109375,-82.17436218261719,12.303543090820312,-67.47833251953125
1776815658668657700,8.89165771484375,-81.94757080078125,12.5322265625,-67.56048583984375
1776815658678750500,8.90175048828125,-82.14393615722656,12.366790771484375,-67.52726745605469
1776815658688848600,8.9118486328125,-82.18325805664062,12.424423217773438,-67.43316650390625
1776815658698948600,8.921948486328125,-82.23023986816406,12.69732666015625,-67.52755737304688
1776815658709051600,8.9320517578125,-81.70033264160156,12.662551879882812,-67.40446472167969
1776815658719144700,8.942144775390625,-81.83506774902344,12.355911254882812,-67.24348449707031
1776815658729243400,8.952243408203126,-82.17330932617188,12.522232055664062,-67.40798950195312
1776815658739342600,8.962342529296874,-82.18098449707031,12.287979125976562,-67.41294860839844
1776815658749440800,8.972440673828125,-82.19917297363281,12.1802978515625,-67.42552185058594
1776815658759539700,8.982539794921875,-82.27201843261719,12.564346313476562,-67.39909362792969
1776815658769638700,8.992638671875,-82.09555053710938,12.524887084960938,-67.22462463378906
1776815658779737600,9.002737548828126,-82.01068115234375,12.083602905273438,-67.33462524414062
1776815658789836500,9.01283642578125,-82.06965637207031,12.375579833984375,-67.3603515625
1776815658799935500,9.022935546875,-82.16584777832031,12.61572265625,-67.23944091796875
1776815658810034400,9.033034423828125,-82.28132629394531,12.377166748046875,-67.32505798339844
1776815658820132600,9.043132568359376,-82.16011047363281,12.648056030273438,-67.44577026367188
1776815658830232300,9.053232421875,-81.99044799804688,12.290008544921875,-67.36781311035156
1776815658840330500,9.06333056640625,-81.91815185546875,12.505950927734375,-67.51185607910156
1776815658850430500,9.073430419921875,-82.30720520019531,12.5836181640625,-67.56880187988281
1776815658860528400,9.0835283203125,-82.15689086914062,12.618621826171875,-67.34523010253906
1776815658870626600,9.09362646484375,-82.32450866699219,12.382919311523438,-67.42869567871094
1776815658880725500,9.1037255859375,-82.32498168945312,12.373504638671875,-67.46780395507812
1776815658890824400,9.113824462890625,-82.41639709472656,12.596405029296875,-67.55448913574219
1776815658900922600,9.123922607421875,-82.1536865234375,12.425262451171875,-67.44816589355469
1776815658911021600,9.134021484375,-82.07534790039062,12.30120849609375,-67.22354125976562
1776815658921124400,9.144124267578125,-82.09889221191406,12.236160278320312,-67.37187194824219
1776815658931218400,9.154218505859374,-82.4969482421875,12.440383911132812,-67.51078796386719
1776815658941318400,9.164318359375,-82.34555053710938,12.7763671875,-67.44435119628906
1776815658951417300,9.174417236328125,-82.17913818359375,12.464324951171875,-67.2896728515625
1776815658961517600,9.184517578125,-82.07148742675781,12.6619873046875,-67.35678100585938
1776815658971615500,9.194615478515624,-82.20387268066406,12.749862670898438,-67.46525573730469
1776815658981715500,9.204715576171875,-82.28115844726562,12.3984375,-67.39614868164062
1776815658991814400,9.214814453125,-82.26560974121094,12.646743774414062,-67.44732666015625
1776815659001912600,9.22491259765625,-82.34321594238281,12.493331909179688,-67.36189270019531
1776815659012011500,9.235011474609376,-82.45283508300781,12.529251098632812,-67.39997863769531
1776815659022111500,9.245111572265625,-82.36753845214844,12.560638427734375,-67.42636108398438
1776815659032209400,9.25520947265625,-82.44741821289062,12.448318481445312,-67.47988891601562
1776815659042309600,9.2653095703125,-82.65834045410156,12.464431762695312,-67.61163330078125
1776815659052408600,9.27540869140625,-81.97334289550781,12.525115966796875,-67.16925048828125
1776815659062508500,9.285508544921875,-82.39683532714844,12.555267333984375,-67.47154235839844
1776815659072607500,9.295607421875,-82.31272888183594,12.4063720703125,-67.40904235839844
1776815659082705400,9.305705322265625,-82.18397521972656,12.562545776367188,-67.48049926757812
1776815659092805400,9.315805419921874,-82.25946044921875,12.615478515625,-67.30635070800781
1776815659102905600,9.325905517578125,-82.17536926269531,12.789871215820312,-67.33401489257812
1776815659113006600,9.336006591796876,-82.30223083496094,12.530593872070312,-67.49702453613281
1776815659123105500,9.34610546875,-82.326416015625,12.506546020507812,-67.30299377441406
1776815659133204500,9.35620458984375,-82.38644409179688,12.505691528320312,-67.34175109863281
1776815659143303400,9.366303466796875,-82.59953308105469,12.516143798828125,-67.46688842773438
1776815659153402600,9.376402587890626,-82.33720397949219,12.682373046875,-67.56126403808594
1776815659163504600,9.386504638671875,-82.35867309570312,12.636917114257812,-67.47465515136719
1776815659173601300,9.396601318359375,-82.10539245605469,12.520858764648438,-67.48464965820312
1776815659183694600,9.406694580078126,-82.396484375,12.593536376953125,-67.40176391601562
1776815659193791500,9.41679150390625,-82.35760498046875,12.825668334960938,-67.40176391601562
1776815659203890700,9.426890625,-82.14608764648438,12.621444702148438,-67.68537902832031
1776815659213992700,9.43699267578125,-82.55043029785156,12.879974365234375,-67.62387084960938
1776815659224090600,9.447090576171876,-82.28433227539062,12.641921997070312,-67.51261901855469
1776815659234184400,9.457184326171875,-82.39041137695312,12.51873779296875,-67.49540710449219
1776815659244283400,9.467283447265626,-81.96499633789062,12.680511474609375,-67.36714172363281
1776815659254381300,9.47738134765625,-82.60235595703125,12.6280517578125,-67.44349670410156
1776815659264479500,9.4874794921875,-82.7320556640625,12.747055053710938,-67.56295776367188
1776815659274578700,9.49757861328125,-82.70034790039062,12.466934204101562,-67.67817687988281
1776815659284676600,9.507676513671875,-82.660400390625,12.865158081054688,-67.59684753417969
1776815659294777300,9.51777734375,-82.44442749023438,12.734771728515625,-67.37615966796875
1776815659304876500,9.52787646484375,-82.63848876953125,12.620925903320312,-67.45890808105469
1776815659314975500,9.5379755859375,-82.45620727539062,12.496337890625,-67.55401611328125
1776815659325074400,9.548074462890625,-82.23422241210938,12.557235717773438,-67.46478271484375
1776815659335173600,9.558173583984376,-82.16795349121094,12.583786010742188,-67.48399353027344
1776815659345270300,9.568270263671875,-82.46910095214844,12.64007568359375,-67.53977966308594
1776815659355367400,9.578367431640626,-82.43122863769531,12.617294311523438,-67.6341552734375
1776815659365465300,9.58846533203125,-82.76948547363281,12.672027587890625,-67.71965026855469
1776815659375564500,9.598564453125,-82.56242370605469,12.69512939453125,-67.46357727050781
1776815659385663500,9.60866357421875,-82.15461730957031,12.54669189453125,-67.45489501953125
1776815659395762400,9.618762451171875,-82.56755065917969,12.580413818359375,-67.60523986816406
1776815659405862700,9.628862548828126,-82.61581420898438,12.4552001953125,-67.60797119140625
1776815659415960600,9.638960693359374,-82.68034362792969,12.495376586914062,-67.62789916992188
1776815659426059500,9.6490595703125,-82.66862487792969,12.606292724609375,-67.53317260742188
1776815659436159500,9.659159423828125,-82.32566833496094,12.8519287109375,-67.50120544433594
1776815659446258400,9.669258544921876,-82.708251953125,12.608230590820312,-67.63444519042969
1776815659456357400,9.679357421875,-82.54469299316406,12.647842407226562,-67.65159606933594
1776815659466458600,9.689458740234375,-82.69732666015625,12.566665649414062,-67.65672302246094
1776815659476558300,9.699558349609376,-82.35194396972656,12.6141357421875,-67.90022277832031
1776815659486657300,9.7096572265625,-82.32229614257812,12.72119140625,-67.69052124023438
1776815659496756500,9.719756591796875,-82.43966674804688,12.8651123046875,-67.81185913085938
1776815659506855400,9.72985546875,-82.06668090820312,12.730377197265625,-67.62968444824219
1776815659516954400,9.739954345703126,-82.60302734375,12.861663818359375,-67.70648193359375
1776815659527053600,9.750053466796874,-82.29692077636719,12.736099243164062,-67.69125366210938
1776815659537152500,9.760152587890625,-82.39120483398438,12.718505859375,-67.65174865722656
1776815659547251500,9.77025146484375,-82.62660217285156,12.82501220703125,-67.76689147949219
1776815659557350400,9.780350341796876,-82.72373962402344,12.609939575195312,-67.57827758789062
1776815659567449600,9.79044970703125,-82.48394775390625,12.516448974609375,-67.54360961914062
1776815659577548500,9.800548583984375,-82.34547424316406,12.605667114257812,-67.56562805175781
1776815659587647500,9.8106474609375,-82.4505615234375,12.697418212890625,-67.74545288085938
1776815659597747500,9.82074755859375,-82.53402709960938,12.6260986328125,-67.69686889648438
1776815659607847400,9.830847412109375,-82.50941467285156,12.912200927734375,-67.89447021484375
1776815659617946400,9.8409462890625,-82.24459838867188,12.6806640625,-67.61077880859375
1776815659628046600,9.851046630859376,-81.89683532714844,12.712417602539062,-67.46255493164062
1776815659638146300,9.861146240234374,-82.34165954589844,12.551345825195312,-67.78591918945312
1776815659648245500,9.87124560546875,-82.48788452148438,12.64459228515625,-67.52409362792969
1776815659658346500,9.881346435546876,-82.56024169921875,12.892562866210938,-67.65443420410156
1776815659668446500,9.891446533203125,-82.46841430664062,12.81256103515625,-67.61676025390625
1776815659678546400,9.90154638671875,-82.16046142578125,12.793045043945312,-67.66932678222656
1776815659688645600,9.911645751953126,-82.32249450683594,12.558563232421875,-67.6708984375
1776815659698745600,9.92174560546875,-82.45201110839844,12.610260009765625,-67.59796142578125
1776815659708844500,9.931844482421875,-82.37968444824219,12.698394775390625,-67.8544921875
1776815659718943500,9.941943603515625,-82.0626220703125,12.543136596679688,-67.53323364257812
1776815659729042400,9.95204248046875,-82.33279418945312,12.67413330078125,-67.71394348144531
1776815659739142400,9.962142333984374,-82.4080810546875,12.5831298828125,-67.78997802734375
1776815659749241600,9.97224169921875,-82.45745849609375,13.01605224609375,-67.75093078613281
1776815659759342300,9.98234228515625,-82.29893493652344,12.810134887695312,-67.8536376953125
1776815659769443600,9.992443603515625,-82.15997314453125,12.855865478515625,-67.47210693359375
1776815659779542500,10.00254248046875,-82.45695495605469,12.904006958007812,-67.7598876953125
1776815659789642500,10.012642578125,-82.42364501953125,12.823150634765625,-67.74211120605469
1776815659799741400,10.022741455078124,-82.41885375976562,12.665786743164062,-67.74118041992188
1776815659809839400,10.03283935546875,-82.50155639648438,12.532913208007812,-67.69627380371094
1776815659819938300,10.042938232421875,-82.17756652832031,12.639068603515625,-67.64576721191406
1776815659830039000,10.0530390625,-82.46768188476562,12.78692626953125,-67.63909912109375
1776815659840137000,10.063136962890624,-82.31117248535156,12.530746459960938,-67.66876220703125
1776815659850235000,10.07323486328125,-82.43724060058594,12.586196899414062,-67.58059692382812
1776815659860333800,10.083333740234375,-82.60275268554688,12.587646484375,-67.64801025390625
1776815659870434000,10.09343408203125,-82.50102233886719,12.473037719726562,-67.82994079589844
1776815659880533000,10.103532958984376,-82.62327575683594,12.772109985351562,-67.68710327148438
1776815659890632000,10.1136318359375,-82.56608581542969,12.623443603515625,-67.6771240234375
1776815659900729900,10.123729736328125,-82.73373413085938,12.451995849609375,-67.66297912597656
1776815659910830000,10.133830078125,-82.79356384277344,12.423187255859375,-67.53291320800781
1776815659920929800,10.1439296875,-82.67288208007812,12.62109375,-67.70146179199219
1776815659931029000,10.154029052734375,-82.63789367675781,12.619766235351562,-67.66914367675781
1776815659941128000,10.1641279296875,-82.61528015136719,12.639556884765625,-67.75859069824219
1776815659951228000,10.174227783203126,-82.42269897460938,12.710845947265625,-67.56129455566406
1776815659961327000,10.1843271484375,-82.3363037109375,12.842681884765625,-67.36898803710938
1776815659971426000,10.194426025390625,-82.85629272460938,13.017120361328125,-67.74868774414062
1776815659981525000,10.20452490234375,-82.75164794921875,12.7164306640625,-67.78260803222656
1776815659991624000,10.2146240234375,-82.5689697265625,12.894561767578125,-67.85429382324219
1776815660001722000,10.22472216796875,-82.65071105957031,12.781326293945312,-67.70420837402344
1776815660011821000,10.234821044921874,-82.8638916015625,12.903121948242188,-67.55012512207031
1776815660021920000,10.244919921875,-82.77848815917969,13.023025512695312,-67.81248474121094
1776815660032020000,10.25502001953125,-82.41375732421875,12.925201416015625,-67.72023010253906
1776815660042120000,10.265119873046874,-82.90640258789062,12.811843872070312,-67.57975769042969
1776815660052220200,10.27522021484375,-82.59111022949219,12.776382446289062,-67.77740478515625
1776815660062325000,10.285324951171875,-82.31573486328125,12.766098022460938,-67.77108764648438
1776815660072419800,10.295419921875,-82.64065551757812,12.5247802734375,-67.61111450195312
1776815660082520000,10.30552001953125,-82.31793212890625,12.808120727539062,-67.65434265136719
1776815660092621000,10.31562109375,-82.1046142578125,12.67071533203125,-67.91033935546875
1776815660102722000,10.32572216796875,-82.37429809570312,12.744461059570312,-67.53968811035156
1776815660112827100,10.3358271484375,-82.37757873535156,12.735549926757812,-67.61376953125
1776815660122922000,10.345921875,-82.07467651367188,12.82318115234375,-67.9434814453125
1776815660133022000,10.35602197265625,-82.12319946289062,12.648056030273438,-67.65423583984375
1776815660143123000,10.366123046875,-82.16389465332031,12.699691772460938,-67.6724853515625
1776815660153224000,10.376223876953125,-82.04010009765625,12.844970703125,-67.59979248046875
1776815660163324000,10.386323974609375,-82.49406433105469,12.885086059570312,-67.96026611328125
1776815660173426000,10.396426025390625,-82.515625,12.847869873046875,-67.81820678710938
1776815660183526100,10.406526123046875,-82.3267822265625,12.749832153320312,-67.75148010253906
1776815660193625000,10.416625,-82.20458984375,12.964584350585938,-67.70242309570312
1776815660203725000,10.42672509765625,-82.15406799316406,13.05963134765625,-67.74565124511719
1776815660213825000,10.436824951171875,-82.39659118652344,12.6668701171875,-67.72274780273438
1776815660223923000,10.4469228515625,-82.40592956542969,12.679931640625,-67.80137634277344
1776815660234022000,10.45702197265625,-82.45220947265625,12.779251098632812,-67.68241882324219
1776815660244119800,10.467119873046874,-82.37318420410156,12.603515625,-67.49934387207031
1776815660254220000,10.477219970703125,-82.48231506347656,12.804641723632812,-67.72329711914062
1776815660264319000,10.487319091796875,-82.49691772460938,12.734329223632812,-67.60096740722656
1776815660274418000,10.49741796875,-82.57757568359375,12.804580688476562,-67.73312377929688
1776815660284516000,10.50751611328125,-82.45191955566406,12.683090209960938,-67.66778564453125
1776815660294613000,10.517613037109374,-81.83151245117188,12.820266723632812,-67.47970581054688
1776815660304715800,10.5277158203125,-82.06376647949219,12.630081176757812,-67.54090881347656
1776815660314807800,10.537807861328124,-82.50302124023438,12.7054443359375,-67.70372009277344
1776815660324906000,10.547906005859375,-82.43545532226562,12.817596435546875,-67.6990966796875
1776815660335005000,10.5580048828125,-82.43324279785156,12.675094604492188,-67.6939697265625
1776815660345103000,10.56810302734375,-82.52957153320312,12.72869873046875,-67.67355346679688
1776815660355207000,10.57820703125,-82.22123718261719,12.613983154296875,-67.76095581054688
1776815660365302000,10.588302001953124,-82.62680053710938,12.425567626953125,-67.65402221679688
1776815660375400200,10.598400146484375,-82.45356750488281,12.668365478515625,-67.91627502441406
1776815660385499000,10.608498779296875,-82.25296020507812,12.4139404296875,-67.80845642089844
1776815660395597000,10.61859716796875,-82.08474731445312,12.905227661132812,-67.77340698242188
1776815660405695000,10.628695068359375,-82.6884765625,12.90283203125,-67.84030151367188
1776815660415794000,10.6387939453125,-82.25218200683594,12.89483642578125,-67.92677307128906
1776815660425893000,10.64889306640625,-82.42764282226562,12.623245239257812,-67.65634155273438
1776815660435990000,10.658989990234375,-82.63896179199219,12.918487548828125,-67.57748413085938
1776815660446093000,10.669093017578126,-82.50784301757812,12.817901611328125,-67.67234802246094
1776815660456185000,10.67918505859375,-82.65727233886719,12.612701416015625,-67.6905517578125
1776815660466283000,10.689282958984375,-82.62142944335938,12.675155639648438,-67.77201843261719
1776815660476381200,10.699381103515625,-82.7034912109375,12.809982299804688,-67.68174743652344
1776815660486479000,10.70947900390625,-82.210205078125,12.648117065429688,-67.64698791503906
1776815660496577000,10.719576904296876,-82.74360656738281,12.896469116210938,-67.77737426757812
1776815660506674200,10.729674072265626,-82.55845642089844,12.7713623046875,-67.78070068359375
1776815660516772000,10.739772216796876,-82.67987060546875,12.83502197265625,-67.84513854980469
1776815660526869000,10.749868896484376,-82.69126892089844,12.537322998046875,-67.65864562988281
1776815660536966100,10.759966064453126,-82.33489990234375,12.767501831054688,-67.62150573730469
1776815660547062800,10.770062744140626,-82.32542419433594,12.634201049804688,-67.56529235839844
1776815660557161200,10.7801611328125,-82.27738952636719,12.81097412109375,-67.4866943359375
1776815660567259100,10.790259033203125,-82.64796447753906,12.891616821289062,-67.8739013671875
1776815660577357000,10.800357177734375,-82.63069152832031,12.7386474609375,-67.88134765625
1776815660587455000,10.810455078125,-82.4410400390625,12.802902221679688,-67.90251159667969
1776815660597553000,10.820552978515625,-82.48432922363281,12.89984130859375,-67.81787109375
1776815660607651000,10.830651123046875,-82.050048828125,12.806442260742188,-67.74020385742188
1776815660617750000,10.84075,-82.20118713378906,12.671234130859375,-67.67503356933594
1776815660627848000,10.850847900390624,-82.339599609375,12.711471557617188,-67.688720703125
1776815660637945900,10.86094580078125,-82.29254150390625,12.638763427734375,-67.83099365234375
1776815660648044000,10.8710439453125,-82.50225830078125,12.681045532226562,-67.74563598632812
1776815660658141000,10.881140869140625,-82.55326843261719,12.7744140625,-67.90602111816406
1776815660668237800,10.89123779296875,-82.26663208007812,12.882919311523438,-67.83847045898438
1776815660678337000,10.9013369140625,-82.2086181640625,12.903976440429688,-67.68450927734375
1776815660688436000,10.91143603515625,-82.32992553710938,12.799468994140625,-67.83027648925781
1776815660698536000,10.921535888671874,-82.50529479980469,12.815048217773438,-67.92294311523438
1776815660708635100,10.93163525390625,-82.62646484375,12.699630737304688,-67.66673278808594
1776815660718733000,10.941733154296875,-82.75698852539062,12.639083862304688,-67.77259826660156
1776815660728833000,10.9518330078125,-82.36813354492188,12.8192138671875,-67.60237121582031
1776815660738934000,10.96193408203125,-82.27561950683594,12.801956176757812,-67.68040466308594
1776815660749034000,10.972033935546875,-82.68620300292969,12.585281372070312,-67.76716613769531
1776815660759132000,10.9821318359375,-82.64628601074219,12.82830810546875,-67.74847412109375
1776815660769232100,10.992232177734374,-82.57316589355469,12.883010864257812,-67.88861083984375
1776815660779331800,11.002331787109375,-82.453369140625,12.548263549804688,-67.66371154785156
1776815660789431000,11.01243115234375,-82.62869262695312,12.926162719726562,-67.886962890625
1776815660799530000,11.022530029296876,-82.59153747558594,12.781707763671875,-67.76899719238281
1776815660809629000,11.03262890625,-82.41302490234375,12.86322021484375,-67.92684936523438
1776815660819726000,11.04272607421875,-82.58154296875,12.760101318359375,-67.70625305175781
1776815660829824300,11.05282421875,-82.45484924316406,12.80810546875,-67.8560791015625
1776815660839922200,11.062922119140625,-82.39659118652344,12.858795166015625,-67.88215637207031
1776815660850020000,11.07302001953125,-82.43305969238281,12.899322509765625,-68.05302429199219
1776815660860119300,11.083119384765626,-82.52311706542969,12.952133178710938,-67.98574829101562
1776815660870217200,11.09321728515625,-82.062255859375,13.004486083984375,-67.70896911621094
1776815660880315400,11.1033154296875,-82.93641662597656,12.863906860351562,-67.888916015625
1776815660890413300,11.113413330078124,-82.38241577148438,12.791519165039062,-67.99029541015625
1776815660900511200,11.12351123046875,-82.58302307128906,12.772720336914062,-67.93801879882812
1776815660910609200,11.133609130859375,-82.6236572265625,12.84600830078125,-67.91975402832031
1776815660920707300,11.143707275390625,-82.52635192871094,12.804702758789062,-67.87686157226562
1776815660930804200,11.15380419921875,-82.60148620605469,12.862823486328125,-67.98637390136719
1776815660940901400,11.1639013671875,-82.5667724609375,12.815811157226562,-67.91049194335938
1776815660950999300,11.173999267578125,-82.51065063476562,12.83087158203125,-67.86305236816406
1776815660961097200,11.18409716796875,-82.4439697265625,12.863067626953125,-67.71875
1776815660971195100,11.194195068359376,-82.41331481933594,12.841110229492188,-67.77987670898438
1776815660981292300,11.204292236328126,-82.32879638671875,12.670562744140625,-67.83663940429688
1776815660991391200,11.21439111328125,-82.28913879394531,12.930328369140625,-67.83847045898438
1776815661001489200,11.2244892578125,-82.2725830078125,12.951904296875,-67.82096862792969
1776815661011586300,11.23458642578125,-82.17796325683594,12.864044189453125,-67.78744506835938
1776815661021682200,11.24468212890625,-82.17951965332031,12.823379516601562,-67.97908020019531
1776815661031784200,11.2547841796875,-82.50579833984375,12.903244018554688,-67.88691711425781
1776815661041876200,11.264876220703124,-82.36471557617188,12.98095703125,-67.89921569824219
1776815661051974400,11.274974365234375,-82.21002197265625,12.83892822265625,-67.92219543457031
1776815661062071300,11.2850712890625,-81.81523132324219,12.948211669921875,-67.54547119140625
1776815661072169200,11.295169189453125,-81.86317443847656,12.678619384765625,-67.77993774414062
1776815661082267400,11.305267333984375,-82.18577575683594,12.978225708007812,-67.76298522949219
1776815661092366300,11.315366455078125,-82.53520202636719,12.731185913085938,-67.86604309082031
1776815661102464300,11.32546435546875,-82.43336486816406,13.002456665039062,-67.86578369140625
1776815661112563200,11.335563232421874,-82.21171569824219,12.889617919921875,-67.69374084472656
1776815661122661400,11.345661376953124,-82.2337646484375,12.778121948242188,-67.91900634765625
1776815661132761300,11.35576123046875,-82.51167297363281,12.901229858398438,-67.70295715332031
1776815661142860300,11.3658603515625,-82.28480529785156,12.591873168945312,-67.83950805664062
1776815661152959200,11.375959228515624,-82.16105651855469,12.662612915039062,-67.63787841796875
1776815661163057400,11.386057373046874,-82.56039428710938,12.538421630859375,-67.69998168945312
1776815661173154300,11.396154296875,-82.521240234375,12.811676025390625,-67.69873046875
1776815661183252200,11.406252197265625,-82.12992858886719,12.639373779296875,-67.64515686035156
1776815661193350400,11.416350341796875,-82.12741088867188,12.955169677734375,-67.76632690429688
1776815661203449300,11.426449462890625,-82.02032470703125,12.926010131835938,-67.56166076660156
1776815661213548300,11.43654833984375,-82.09664916992188,12.657302856445312,-67.75843811035156
1776815661223646200,11.446646240234376,-82.36148071289062,12.885360717773438,-67.97674560546875
1776815661233744100,11.456744140625,-82.36482238769531,12.88189697265625,-67.62040710449219
1776815661243842000,11.466842041015624,-82.14407348632812,12.874679565429688,-67.63531494140625
1776815661253940200,11.476940185546875,-81.89884948730469,12.821151733398438,-67.59103393554688
1776815661264039200,11.4870390625,-82.44784545898438,12.720809936523438,-67.79142761230469
1776815661274137300,11.497137451171875,-82.33047485351562,12.768783569335938,-67.72201538085938
1776815661284235300,11.5072353515625,-82.38967895507812,12.690032958984375,-67.89108276367188
1776815661294334200,11.517334228515624,-82.40605163574219,12.82354736328125,-67.71820068359375
1776815661304434200,11.52743408203125,-82.36677551269531,12.772735595703125,-67.74156188964844
1776815661314533000,11.537533203125,-82.42453002929688,12.938186645507812,-67.94651794433594
1776815661324632000,11.547632080078126,-82.60453796386719,13.0244140625,-67.7821044921875
1776815661334731300,11.557731201171874,-82.42494201660156,12.737060546875,-67.67181396484375
1776815661344830200,11.567830322265625,-82.579345703125,12.802947998046875,-67.58987426757812
1776815661354930200,11.57793017578125,-82.3665771484375,12.6590576171875,-67.78382873535156
1776815661365029400,11.588029296875,-82.63349914550781,12.782760620117188,-67.64422607421875
1776815661375127300,11.598127197265624,-82.37203979492188,12.80908203125,-67.77058410644531
1776815661385225200,11.60822509765625,-82.04812622070312,12.92449951171875,-67.79440307617188
1776815661395323400,11.618323486328125,-82.28285217285156,12.744979858398438,-67.56838989257812
1776815661405421300,11.62842138671875,-82.50286865234375,12.748046875,-67.84120178222656
1776815661415521000,11.63852099609375,-82.32704162597656,12.571151733398438,-67.68246459960938
1776815661425619200,11.648619140625,-82.41656494140625,12.70037841796875,-67.79905700683594
1776815661435718400,11.658718505859374,-82.4927978515625,12.81109619140625,-67.67626953125
1776815661445817300,11.6688173828125,-82.38194274902344,12.95452880859375,-67.60386657714844
1776815661455916300,11.678916259765625,-82.58811950683594,13.145889282226562,-67.86875915527344
1776815661466012200,11.68901220703125,-82.31065368652344,12.889022827148438,-67.76214599609375
1776815661476109300,11.699109375,-82.36946105957031,12.758407592773438,-67.77223205566406
1776815661486206200,11.709206298828125,-82.37178039550781,12.822296142578125,-67.73446655273438
1776815661496304400,11.719304443359375,-82.19400024414062,12.824264526367188,-67.67842102050781
1776815661506403300,11.7294033203125,-82.34091186523438,13.081375122070312,-67.9130859375
1776815661516501200,11.739501220703126,-82.36775207519531,12.730224609375,-67.64108276367188
1776815661526600200,11.74960009765625,-82.55862426757812,12.727920532226562,-67.69081115722656
1776815661536699400,11.759699462890625,-82.06391906738281,12.677871704101562,-67.55195617675781
1776815661546798300,11.76979833984375,-82.53388977050781,12.780487060546875,-67.59890747070312
1776815661556899300,11.7798994140625,-82.22938537597656,12.93499755859375,-67.65557861328125
1776815661566998300,11.789998291015625,-82.68008422851562,12.676177978515625,-67.69024658203125
1776815661577099300,11.800099365234376,-82.65853881835938,12.784164428710938,-67.641845703125
1776815661587198200,11.8101982421875,-82.01548767089844,12.702865600585938,-67.33049011230469
1776815661597298200,11.820298095703125,-82.34632873535156,12.810195922851562,-67.71221923828125
1776815661607398100,11.830398193359375,-82.6275634765625,12.65460205078125,-67.67051696777344
1776815661617496300,11.840496337890626,-82.59613037109375,12.419631958007812,-67.43313598632812
1776815661627595300,11.85059521484375,-82.53346252441406,12.594161987304688,-67.57568359375
1776815661637694500,11.860694580078125,-82.16191101074219,12.839996337890625,-67.68705749511719
1776815661647793400,11.87079345703125,-82.40748596191406,12.643966674804688,-67.68305969238281
1776815661657891300,11.880891357421875,-82.45463562011719,12.83575439453125,-67.8126220703125
1776815661667992300,11.890992431640624,-82.36505126953125,12.624588012695312,-67.64794921875
1776815661678091300,11.90109130859375,-82.69630432128906,12.77630615234375,-67.60888671875
1776815661688191200,11.911191162109375,-82.56076049804688,12.717926025390625,-67.559326171875
1776815661698290400,11.92129052734375,-82.33155822753906,12.63043212890625,-67.76261901855469
1776815661708389400,11.931389404296874,-82.4801025390625,12.456558227539062,-67.67669677734375
1776815661718487300,11.9414873046875,-82.57351684570312,12.554916381835938,-67.51797485351562
1776815661728586200,11.951586181640625,-82.33905029296875,12.757186889648438,-67.52973937988281
1776815661738685200,11.961685302734375,-82.91578674316406,12.60205078125,-67.69830322265625
1776815661748785200,11.97178515625,-82.67527770996094,12.759902954101562,-67.6199951171875
1776815661758884000,11.981884033203125,-82.38856506347656,12.915435791015625,-67.57798767089844
1776815661768984300,11.991984375,-82.31842041015625,12.7236328125,-67.51136779785156
1776815661779082200,12.002082275390626,-82.067626953125,12.797286987304688,-67.46214294433594
1776815661789182200,12.01218212890625,-82.64591979980469,12.769821166992188,-67.44839477539062
1776815661799281400,12.022281494140625,-82.6766357421875,12.86773681640625,-67.65863037109375
1776815661809380400,12.03238037109375,-82.65145874023438,12.801803588867188,-67.71258544921875
1776815661819478300,12.042478271484375,-82.40835571289062,12.581161499023438,-67.595703125
1776815661829576400,12.052576416015626,-82.32118225097656,12.460739135742188,-67.35731506347656
1776815661839675400,12.06267529296875,-82.79069519042969,12.5426025390625,-67.5286865234375
1776815661849775600,12.072775634765625,-82.64852905273438,12.714065551757812,-67.72187805175781
1776815661859874600,12.08287451171875,-82.56535339355469,12.786819458007812,-67.60029602050781
1776815661869972500,12.092972412109376,-82.57948303222656,12.821762084960938,-67.50775146484375
1776815661880071400,12.103071533203124,-82.40859985351562,12.965805053710938,-67.59963989257812
1776815661890170600,12.113170654296875,-82.72489929199219,13.038543701171875,-67.67636108398438
1776815661900268500,12.1232685546875,-82.82235717773438,12.9539794921875,-67.73973083496094
1776815661910366500,12.133366455078125,-82.57867431640625,12.806640625,-67.66091918945312
1776815661920464600,12.143464599609375,-82.68203735351562,12.83233642578125,-67.39888000488281
1776815661930562600,12.1535625,-82.57807922363281,12.893203735351562,-67.62002563476562
1776815661940660500,12.163660400390626,-82.47036743164062,13.023223876953125,-67.75190734863281
1776815661950759400,12.173759521484374,-82.8648681640625,12.895263671875,-67.578369140625
1776815661960858600,12.183858642578125,-82.11283874511719,12.763534545898438,-67.45106506347656
1776815661970956500,12.19395654296875,-82.50935363769531,12.68939208984375,-67.32872009277344
1776815661981055500,12.204055419921875,-82.68955993652344,12.829681396484375,-67.38217163085938
1776815661991153400,12.2141533203125,-82.46656799316406,12.874725341796875,-67.54423522949219
1776815662001251600,12.22425146484375,-82.55548095703125,12.8048095703125,-67.61857604980469
1776815662011349500,12.234349609375,-82.75654602050781,12.933792114257812,-67.51083374023438
1776815662021447400,12.244447509765624,-82.53778076171875,12.666213989257812,-67.50634765625
1776815662031545300,12.25454541015625,-82.71403503417969,13.062149047851562,-67.43287658691406
1776815662041644500,12.26464453125,-82.75019836425781,12.791427612304688,-67.59323120117188
1776815662051742500,12.274742431640625,-82.68922424316406,12.66021728515625,-67.582763671875
1776815662061840600,12.284840576171876,-82.80947875976562,12.823486328125,-67.45748901367188
1776815662071939600,12.294939697265624,-82.51959228515625,12.627899169921875,-67.55450439453125
1776815662082036500,12.305036376953124,-82.56472778320312,12.71600341796875,-67.5203857421875
1776815662092133600,12.315133544921874,-82.62045288085938,12.56988525390625,-67.54150390625
1776815662102230500,12.32523046875,-82.43003845214844,12.702621459960938,-67.48130798339844
1776815662112328400,12.335328369140624,-82.14202880859375,12.986648559570312,-67.2525634765625
1776815662122426600,12.345426513671875,-82.24095153808594,12.71343994140625,-67.45498657226562
1776815662132525600,12.355525634765625,-82.395263671875,12.7353515625,-67.44540405273438
1776815662142624300,12.365624267578125,-82.29881286621094,12.999298095703125,-67.5068359375
1776815662152724500,12.375724365234374,-82.50611877441406,12.932388305664062,-67.46495056152344
1776815662162823400,12.385823486328125,-82.26960754394531,12.7261962890625,-67.28988647460938
1776815662172922400,12.39592236328125,-82.67570495605469,12.582305908203125,-67.31800842285156
1776815662183021600,12.406021484375,-82.57131958007812,12.787582397460938,-67.59454345703125
1776815662193121500,12.41612158203125,-82.38212585449219,12.813140869140625,-67.51799011230469
1776815662203219500,12.426219482421875,-82.51107788085938,12.640716552734375,-67.47158813476562
1776815662213318700,12.436318603515625,-82.59538269042969,12.605087280273438,-67.3323974609375
1776815662223414500,12.44641455078125,-82.49980163574219,12.445053100585938,-67.433837890625
1776815662233511400,12.456511474609375,-82.35787963867188,12.593109130859375,-67.56887817382812
1776815662243607600,12.466607666015625,-82.61717224121094,12.725128173828125,-67.51884460449219
1776815662253704400,12.476704345703125,-81.95664978027344,12.629409790039062,-67.48356628417969
1776815662263803400,12.486803466796875,-82.59121704101562,12.44317626953125,-67.52616882324219
1776815662273903600,12.496903564453126,-82.57012939453125,12.594619750976562,-67.56129455566406
1776815662284002600,12.50700244140625,-82.56832885742188,12.952728271484375,-67.65316772460938
1776815662294102500,12.5171025390625,-82.41830444335938,12.819320678710938,-67.49026489257812
1776815662304200400,12.527200439453125,-82.56434631347656,12.966384887695312,-67.22477722167969
1776815662314299600,12.537299560546876,-82.53465270996094,12.828033447265625,-67.53138732910156
1776815662324399400,12.5473994140625,-82.40278625488281,12.835235595703125,-67.44219970703125
1776815662334498300,12.557498291015625,-82.67306518554688,12.847610473632812,-67.54953002929688
1776815662344597500,12.567597412109375,-82.53521728515625,12.986404418945312,-67.31861877441406
1776815662354697500,12.577697509765626,-82.3876953125,13.000991821289062,-67.3447265625
1776815662364797700,12.587797607421875,-82.24703979492188,12.798583984375,-67.34745788574219
1776815662374895600,12.5978955078125,-82.54867553710938,12.944732666015625,-67.52764892578125
1776815662384994600,12.60799462890625,-82.68690490722656,12.572067260742188,-67.32723999023438
1776815662395092500,12.618092529296876,-82.67768859863281,12.968276977539062,-67.53665161132812
1776815662405192400,12.6281923828125,-82.42216491699219,12.957778930664062,-67.41169738769531
1776815662415291600,12.638291748046875,-82.46101379394531,12.958694458007812,-67.46632385253906
1776815662425391400,12.648391357421875,-82.58010864257812,13.158309936523438,-67.65953063964844
1776815662435491600,12.65849169921875,-82.62788391113281,13.0928955078125,-67.58096313476562
1776815662445589500,12.668589599609374,-82.37672424316406,12.951339721679688,-67.41941833496094
1776815662455689500,12.678689453125,-82.5755615234375,12.990768432617188,-67.54832458496094
1776815662465788700,12.68878857421875,-82.46726989746094,13.204010009765625,-67.68009948730469
1776815662475886600,12.698886474609376,-82.54725646972656,13.09014892578125,-67.57998657226562
1776815662485983500,12.7089833984375,-82.34872436523438,12.914947509765625,-67.60552978515625
1776815662496079400,12.719079345703125,-82.37141418457031,13.021636962890625,-67.43244934082031
1776815662506176500,12.729176513671876,-82.68405151367188,12.872665405273438,-67.69511413574219
1776815662516273400,12.7392734375,-82.66011047363281,13.109970092773438,-67.67984008789062
1776815662526376400,12.74937646484375,-82.40821838378906,13.105621337890625,-67.74336242675781
1776815662536468500,12.759468505859376,-82.51899719238281,13.092269897460938,-67.73068237304688
1776815662546566400,12.76956640625,-82.313720703125,12.862548828125,-67.72023010253906
1776815662556664600,12.77966455078125,-82.54110717773438,13.158843994140625,-67.67367553710938
1776815662566761500,12.789761474609374,-82.57151794433594,12.846084594726562,-67.81619262695312
1776815662576859400,12.799859375,-82.48439025878906,13.02838134765625,-67.83041381835938
1776815662586956500,12.80995654296875,-82.65658569335938,13.285736083984375,-67.61105346679688
1776815662597055500,12.820055419921875,-82.52920532226562,12.9873046875,-67.58262634277344
1776815662607152400,12.83015234375,-82.80975341796875,13.081100463867188,-67.64842224121094
1776815662617250600,12.84025048828125,-82.29833984375,12.888656616210938,-67.55519104003906
1776815662627348500,12.850348388671875,-82.90812683105469,12.865005493164062,-67.66288757324219
1776815662637446400,12.8604462890625,-82.87921142578125,12.947708129882812,-67.44746398925781
1776815662647545600,12.870545654296874,-82.68382263183594,13.008651733398438,-67.84674072265625
1776815662657644500,12.88064453125,-82.51553344726562,12.921463012695312,-67.57798767089844
1776815662667744500,12.89074462890625,-82.70600891113281,12.800628662109375,-67.69416809082031
1776815662677843500,12.900843505859376,-82.83723449707031,13.047195434570312,-67.72195434570312
1776815662687942400,12.9109423828125,-82.630615234375,13.1697998046875,-67.65354919433594
1776815662698040600,12.92104052734375,-82.55534362792969,13.117691040039062,-67.67735290527344
1776815662708137500,12.931137451171875,-82.69099426269531,13.136260986328125,-67.73210144042969
1776815662718235400,12.9412353515625,-82.843017578125,13.0615234375,-67.75675964355469
1776815662728332500,12.95133251953125,-82.703857421875,13.177841186523438,-67.84358215332031
1776815662738430500,12.961430419921875,-82.561279296875,13.060302734375,-67.75555419921875
1776815662748527600,12.971527587890625,-82.702880859375,13.004043579101562,-67.72488403320312
1776815662758626600,12.98162646484375,-82.65864562988281,13.126190185546875,-67.73141479492188
1776815662768723500,12.991723388671875,-82.70738220214844,12.863723754882812,-67.70037841796875
1776815662778819600,13.001819580078125,-82.38490295410156,12.860641479492188,-67.65899658203125
1776815662788916500,13.01191650390625,-82.84834289550781,13.068008422851562,-67.73907470703125
1776815662799014700,13.0220146484375,-82.79745483398438,13.365570068359375,-67.90170288085938
1776815662809113600,13.032113525390624,-82.85708618164062,13.336639404296875,-67.7764892578125
1776815662819210500,13.04221044921875,-82.43746948242188,13.369430541992188,-67.83723449707031
1776815662829309000,13.052308837890624,-82.71986389160156,13.061843872070312,-67.62576293945312
1776815662839406800,13.06240673828125,-82.9093017578125,13.067489624023438,-67.76445007324219
1776815662849505000,13.072505126953125,-82.91304016113281,13.035049438476562,-67.65731811523438
1776815662859603000,13.08260302734375,-82.81649780273438,13.114395141601562,-67.74398803710938
1776815662869702100,13.0927021484375,-82.81074523925781,13.320526123046875,-67.87678527832031
