time,seconds_elapsed,z,y,x
1776021564912568300,0.066568359375,0.6788282990455627,-0.6784471869468689,0.11325305700302124
1776021564922629400,0.07662939453125,0.5925304293632507,-0.6705360412597656,0.16983351111412048
1776021564932690400,0.0866904296875,0.5200974941253662,-0.5978900194168091,0.18049786984920502
1776021564942751500,0.09675146484375,0.45424312353134155,-0.4750346839427948,0.1577797830104828
1776021564952812500,0.1068125,0.3737211227416992,-0.34158024191856384,0.13676424324512482
1776021564962873300,0.116873291015625,0.3011486530303955,-0.22309033572673798,0.13097745180130005
1776021564972934400,0.126934326171875,0.23611000180244446,-0.1008155569434166,0.125692680478096
1776021564982994400,0.136994384765625,0.160848006606102,-0.003849599277600646,0.11418702453374863
1776021564993055200,0.14705517578125,0.09244364500045776,0.09002416580915451,0.08443178981542587
1776021565003116300,0.1571162109375,0.04580370709300041,0.3787638247013092,-0.04532939940690994
1776021565013177300,0.16717724609375,0.15129418671131134,0.3364637792110443,-0.1306123435497284
1776021565023238400,0.17723828125,0.3438630998134613,0.3538917601108551,-0.12591877579689026
1776021565033299500,0.187299560546875,0.41467761993408203,0.3525628447532654,-0.08949792385101318
1776021565043360500,0.197360595703125,0.438592791557312,0.26442950963974,-0.056894440203905106
1776021565053421300,0.20742138671875,0.48053091764450073,0.055740226060152054,-0.005142297595739365
1776021565063482400,0.217482421875,0.5453299283981323,-0.1990121752023697,0.0513814315199852
1776021565073543400,0.22754345703125,0.5713133215904236,-0.5022343397140503,0.08279261738061905
1776021565083604200,0.237604248046875,0.5218493342399597,-0.7317314743995667,0.05673917755484581
1776021565093665300,0.247665283203125,0.44818949699401855,-0.813371479511261,-0.011435880325734615
1776021565103726300,0.257726318359375,0.39474040269851685,-0.7916792035102844,-0.04303721711039543
1776021565113787400,0.267787353515625,0.32865965366363525,-0.7143106460571289,-0.040889643132686615
1776021565123848400,0.277848388671875,0.24238893389701843,-0.5194175839424133,-0.042394328862428665
1776021565133909500,0.287909423828125,0.11141680181026459,-0.03375023975968361,-0.04587321728467941
1776021565143968800,0.29796875,0.09243486076593399,0.3061828315258026,-0.11650343984365463
1776021565154029800,0.30802978515625,0.19727258384227753,0.5867108702659607,-0.13045121729373932
1776021565164091000,0.3180908203125,0.45491930842399597,0.8168836236000061,-0.26079031825065613
1776021565174152000,0.32815185546875,0.71018385887146,1.0677158832550049,-0.3881690502166748
1776021565184213000,0.338212890625,0.8752683997154236,1.2577329874038696,-0.40148431062698364
1776021565194274000,0.348274169921875,1.0009506940841675,1.5848721265792847,-0.31239810585975647
1776021565204334800,0.3583349609375,1.1473255157470703,1.8307597637176514,-0.2815752327442169
1776021565214395600,0.368395751953125,1.2764453887939453,2.133687973022461,-0.3812786340713501
1776021565224456700,0.378456787109375,1.3899775743484497,2.6024582386016846,-0.6753275990486145
1776021565234517800,0.388517822265625,1.413957953453064,3.3251469135284424,-1.1589925289154053
1776021565244578800,0.398578857421875,1.2752355337142944,4.40672492980957,-1.678846836090088
1776021565254639900,0.408639892578125,0.9947247505187988,5.554269313812256,-2.036416530609131
1776021565264701000,0.418700927734375,0.694499671459198,6.562905788421631,-2.125545024871826
1776021565274762000,0.428761962890625,0.505084753036499,7.646396160125732,-1.8488892316818237
1776021565284823000,0.438822998046875,0.5046679377555847,8.472378730773926,-1.2167510986328125
1776021565294883800,0.4488837890625,0.6825609803199768,8.964534759521484,-0.4556868374347687
1776021565304945000,0.45894482421875,1.1806354522705078,7.806938648223877,-0.8190562725067139
1776021565315005000,0.4690048828125,1.639966368675232,6.363765239715576,-0.8920649290084839
1776021565325065700,0.479065673828125,2.2524378299713135,3.828244924545288,-0.19154706597328186
1776021565335126800,0.489126708984375,2.701981782913208,2.834261655807495,0.48967623710632324
1776021565345187800,0.499187744140625,2.8311498165130615,2.267061948776245,0.7930999994277954
1776021565355249000,0.509248779296875,2.631337881088257,1.4342116117477417,0.81829434633255
1776021565365310000,0.51931005859375,2.1705210208892822,0.37721145153045654,0.5794340968132019
1776021565375371000,0.52937109375,1.6165003776550293,-0.5523422956466675,0.28726160526275635
1776021565385431800,0.539431884765625,1.0829826593399048,-1.1007121801376343,0.08896103501319885
1776021565395492900,0.549492919921875,0.3918948173522949,-1.297096610069275,-0.05799033120274544
1776021565405554000,0.559553955078125,-0.3100753128528595,-0.7905002236366272,-0.36140161752700806
1776021565415614700,0.56961474609375,-0.6781777143478394,-0.16876158118247986,-0.5858413577079773
1776021565425675800,0.57967578125,-0.8625243902206421,0.07991454005241394,-0.676946759223938
1776021565435736800,0.58973681640625,-0.9068132638931274,0.07206380367279053,-0.7743865251541138
1776021565445798000,0.5997978515625,-0.9325183629989624,-0.09204710274934769,-0.9632395505905151
1776021565455859000,0.60985888671875,-1.2423121929168701,-0.12839391827583313,-1.0791608095169067
1776021565465920000,0.619919921875,-1.5197956562042236,-0.3894875645637512,-1.2521450519561768
1776021565475979800,0.629979736328125,-1.7066247463226318,-0.24122300744056702,-1.349466323852539
1776021565486040800,0.640040771484375,-1.9137805700302124,-0.03803366795182228,-1.5518345832824707
1776021565496102000,0.650101806640625,-2.2174558639526367,0.12962110340595245,-1.9627193212509155
1776021565506163000,0.660162841796875,-2.385835647583008,0.3058968186378479,-2.3557772636413574
1776021565516224000,0.67022412109375,-2.459043264389038,0.43350082635879517,-2.808534860610962
1776021565526285000,0.68028515625,-2.4706075191497803,0.6013356447219849,-3.3015544414520264
1776021565536345900,0.690345947265625,-2.5157086849212646,0.7874884605407715,-3.679032564163208
1776021565546407000,0.700406982421875,-2.653656482696533,0.923203706741333,-3.9347591400146484
1776021565556467700,0.7104677734375,-2.8088126182556152,1.0254930257797241,-4.066874980926514
1776021565566528800,0.72052880859375,-2.9920246601104736,1.00405752658844,-4.045863628387451
1776021565576589800,0.73058984375,-3.2377567291259766,1.0595117807388306,-3.982295274734497
1776021565586651000,0.74065087890625,-3.478149652481079,1.2664601802825928,-3.870173215866089
1776021565596712000,0.7507119140625,-3.546412467956543,1.7518577575683594,-3.7734906673431396
1776021565606773000,0.76077294921875,-3.4228453636169434,2.3914430141448975,-3.6621060371398926
1776021565616834000,0.770833984375,-3.15104079246521,2.9468750953674316,-3.3763580322265625
1776021565626894800,0.780894775390625,-2.694448471069336,3.602597951889038,-2.9668281078338623
1776021565636956000,0.790955810546875,-2.370821952819824,3.8852925300598145,-2.4731791019439697
1776021565647016700,0.8010166015625,-2.340947389602661,3.8207614421844482,-1.9943145513534546
1776021565657077800,0.811077880859375,-2.371603488922119,3.492652416229248,-1.674344539642334
1776021565667137800,0.8211376953125,-2.3301796913146973,2.905607223510742,-1.5464997291564941
1776021565677198800,0.83119873046875,-2.1618242263793945,2.381434679031372,-1.579896330833435
1776021565687260000,0.841260009765625,-1.8713923692703247,1.8988248109817505,-1.6909453868865967
1776021565697321000,0.851321044921875,-1.5807445049285889,1.5230388641357422,-1.8084176778793335
1776021565707382000,0.861382080078125,-1.359687328338623,1.3130664825439453,-1.9280884265899658
1776021565717443000,0.871443115234375,-1.2024526596069336,1.2583452463150024,-2.113652229309082
1776021565727504000,0.88150390625,-1.1519579887390137,1.254509687423706,-2.3689656257629395
1776021565737565000,0.89156494140625,-1.0887503623962402,1.179024577140808,-2.645925283432007
1776021565747625700,0.901625732421875,-0.9501330256462097,0.9984800815582275,-2.870388984680176
1776021565757686800,0.911686767578125,-0.7043461799621582,0.9843370914459229,-2.8425467014312744
1776021565767747800,0.921747802734375,-0.43609634041786194,1.0973153114318848,-2.5170443058013916
1776021565777809000,0.931808837890625,-0.21508221328258514,1.355873942375183,-2.0144081115722656
1776021565787870000,0.941869873046875,-0.09685704112052917,1.8665062189102173,-1.4047889709472656
1776021565797931000,0.951930908203125,-0.11009827256202698,2.3789799213409424,-0.7299894690513611
1776021565807992000,0.961991943359375,-0.05052948743104935,2.7316737174987793,-0.2817046642303467
1776021565818052900,0.972052978515625,0.05613304302096367,3.3343167304992676,0.3697870969772339
1776021565828114000,0.982114013671875,0.027165042236447334,3.8837878704071045,0.8920484185218811
1776021565838174700,0.9921748046875,0.02286350354552269,4.137475490570068,0.9733688831329346
1776021565848235800,1.00223583984375,0.153451070189476,4.112100124359131,0.7716138958930969
1776021565858296800,1.012296875,0.3604455292224884,3.7652676105499268,0.46020621061325073
1776021565868358000,1.02235791015625,0.7033155560493469,3.149470090866089,0.22523418068885803
1776021565878418000,1.03241796875,1.12590754032135,2.222255229949951,0.10782500356435776
1776021565888479000,1.04247900390625,1.5280882120132446,1.1489808559417725,0.10145658254623413
1776021565898539800,1.052539794921875,1.7815942764282227,0.06723602861166,0.07882051169872284
1776021565908600800,1.062600830078125,1.771705150604248,-0.8180839419364929,-0.014610900543630123
1776021565918662000,1.072661865234375,1.6743773221969604,-1.2695730924606323,-0.2772422432899475
1776021565928723000,1.082722900390625,1.4487292766571045,-1.432940125465393,-0.48474058508872986
1776021565938784000,1.092783935546875,1.1452414989471436,-1.383851408958435,-0.49611416459083557
1776021565948844800,1.1028447265625,0.9659585952758789,-1.0816607475280762,-0.43318843841552734
1776021565958905900,1.11290576171875,0.9262173175811768,-0.7513853311538696,-0.46854695677757263
1776021565968967000,1.122966796875,1.0749841928482056,-0.47695058584213257,-0.6068720817565918
1776021565979028000,1.133028076171875,1.1102536916732788,-0.33229830861091614,-0.8576489090919495
1776021565989088800,1.1430888671875,0.9538561701774597,-0.18268007040023804,-1.17612624168396
1776021565999149800,1.15314990234375,0.6278389096260071,0.1597696840763092,-1.4142216444015503
1776021566009211000,1.1632109375,0.36751222610473633,0.7875313758850098,-1.4833780527114868
1776021566019272000,1.17327197265625,0.3517572283744812,1.375455617904663,-1.334132432937622
1776021566029333000,1.1833330078125,0.595644474029541,1.519759178161621,-1.1375423669815063
1776021566039393800,1.193393798828125,0.8414419889450073,1.3534456491470337,-0.9830957651138306
1776021566049454800,1.203454833984375,0.930526614189148,1.0201091766357422,-0.8777821660041809
1776021566059516000,1.213515869140625,0.8696251511573792,0.7107723951339722,-0.7658167481422424
1776021566069577000,1.223576904296875,0.7542865872383118,0.42609965801239014,-0.5248805284500122
1776021566079636700,1.23363671875,0.5327147841453552,0.08707471191883087,-0.2655714750289917
1776021566089697800,1.24369775390625,0.19635753333568573,-0.2571159601211548,0.015002651140093803
1776021566099758800,1.2537587890625,-0.10322731733322144,-0.5986447930335999,0.19983695447444916
1776021566109820000,1.26381982421875,-0.2897854745388031,-0.9127787351608276,0.3610953390598297
1776021566119881000,1.273880859375,-0.30801162123680115,-1.1314783096313477,0.36402562260627747
1776021566129942000,1.28394189453125,-0.43879440426826477,-1.3868392705917358,0.4664404094219208
1776021566140003000,1.294003173828125,-0.4364910423755646,-1.4808467626571655,0.6405611038208008
1776021566150064400,1.304064453125,-0.16378919780254364,-1.338858723640442,0.8307110667228699
1776021566160125400,1.31412548828125,0.17103245854377747,-0.9544113874435425,0.9611092805862427
1776021566170186500,1.3241865234375,0.38314178586006165,-0.43769559264183044,0.9899901747703552
1776021566180247300,1.334247314453125,0.42625436186790466,0.12088194489479065,1.1211186647415161
1776021566190308400,1.344308349609375,0.38873496651649475,0.48053890466690063,1.3193755149841309
1776021566200369400,1.354369384765625,0.3594508469104767,0.5974509119987488,1.532006025314331
1776021566210430500,1.364430419921875,0.30127647519111633,0.49472078680992126,1.7533453702926636
1776021566220491500,1.374491455078125,0.20197759568691254,0.34309691190719604,1.8741137981414795
1776021566230552300,1.38455224609375,0.30332791805267334,0.3414531946182251,1.9561741352081299
1776021566240613400,1.39461328125,0.346840500831604,0.31495314836502075,2.2197184562683105
1776021566250674400,1.40467431640625,0.028618860989809036,-0.0635872334241867,2.5301687717437744
1776021566260735500,1.414735595703125,-0.6511745452880859,-0.7973957061767578,2.4113776683807373
1776021566270796500,1.424796630859375,-1.4222848415374756,-1.5296374559402466,1.761248230934143
1776021566280857300,1.434857421875,-2.0504415035247803,-2.090049982070923,0.7036364674568176
1776021566290917400,1.44491748046875,-2.4970762729644775,-2.211601495742798,-0.2725638747215271
1776021566300978400,1.454978515625,-2.7029221057891846,-1.55381441116333,-0.7886706590652466
1776021566311039500,1.46503955078125,-2.5546212196350098,-0.38245177268981934,-0.5679055452346802
1776021566321100500,1.4751005859375,-2.182312488555908,0.4496805965900421,0.12441755831241608
1776021566331161600,1.48516162109375,-1.6817742586135864,1.1668919324874878,0.6347500681877136
1776021566341222400,1.495222412109375,-1.300545334815979,1.2519792318344116,0.8954561948776245
1776021566351283200,1.505283203125,-1.089677333831787,0.9483005404472351,0.8665167093276978
1776021566361344300,1.51534423828125,-0.883374810218811,0.40980055928230286,0.6749904155731201
1776021566371405300,1.5254052734375,-0.5654737949371338,0.1666180044412613,0.3653281629085541
1776021566381466400,1.53546630859375,-0.23093681037425995,-0.07955367863178253,0.11299712210893631
1776021566391527400,1.54552734375,-0.012023107148706913,-0.4655010998249054,-0.2356002777814865
1776021566401588500,1.55558837890625,-0.02634505368769169,-0.8262433409690857,-0.6888279318809509
1776021566411649500,1.5656494140625,-0.16208210587501526,-1.0184931755065918,-1.0899769067764282
1776021566421710600,1.575710693359375,-0.40464869141578674,-1.0453660488128662,-1.2346915006637573
1776021566431771400,1.585771484375,-0.6086912751197815,-0.797454833984375,-1.097673773765564
1776021566441832200,1.595832275390625,-0.6179628372192383,-0.36387887597084045,-0.8681415319442749
1776021566451893200,1.605893310546875,-0.5103069543838501,-0.014827415347099304,-0.686954915523529
1776021566461954300,1.615954345703125,-0.3526778817176819,0.05360836535692215,-0.6881341934204102
1776021566472015400,1.626015380859375,-0.12022361159324646,-0.11945795267820358,-0.8885559439659119
1776021566482076400,1.636076416015625,0.13039635121822357,-0.19212763011455536,-0.9943639039993286
1776021566492137500,1.646137451171875,0.31666556000709534,-0.1734767109155655,-0.8690059781074524
1776021566502198500,1.656198486328125,0.471918523311615,-0.0881359875202179,-0.8550379276275635
1776021566512259600,1.666259521484375,0.6036518216133118,-0.09632973372936249,-1.0980628728866577
1776021566522320400,1.6763203125,0.7739918231964111,-0.39115044474601746,-1.255476713180542
1776021566532380400,1.68638037109375,0.8237205147743225,-0.39478859305381775,-1.380189061164856
1776021566542441500,1.69644140625,0.8628985285758972,-0.5617530941963196,-1.3033965826034546
1776021566552502300,1.706502197265625,1.064578890800476,-1.0200527906417847,-1.009068250656128
1776021566562563300,1.716563232421875,1.3332431316375732,-1.26603102684021,-0.5183597803115845
1776021566572624400,1.726624267578125,1.4801559448242188,-1.2484869956970215,0.0024823325220495462
1776021566582685400,1.736685546875,1.4557515382766724,-0.7114709615707397,0.43615466356277466
1776021566592746500,1.74674658203125,1.3734856843948364,-0.19856129586696625,0.7006531953811646
1776021566602807600,1.7568076171875,1.1435794830322266,0.0022804648615419865,0.6552481651306152
1776021566612868400,1.766868408203125,0.7999776601791382,-0.04340340197086334,0.3114367127418518
1776021566622929400,1.776929443359375,0.3822179436683655,-0.13412904739379883,-0.139420747756958
1776021566632990500,1.786990478515625,-0.08447067439556122,-0.603417694568634,-0.5056957006454468
1776021566643051300,1.79705126953125,-0.594075620174408,-0.3544049561023712,-0.6035021543502808
1776021566653112300,1.8071123046875,-1.265855312347412,-0.22154676914215088,-1.0333003997802734
1776021566663173400,1.81717333984375,-1.4354262351989746,-1.3968585729599,-1.6102931499481201
1776021566673234400,1.827234375,-1.3062626123428345,-2.6470301151275635,-1.7177916765213013
1776021566683295500,1.83729541015625,-1.126288652420044,-3.936692953109741,-1.83917236328125
1776021566693356500,1.8473564453125,-0.8787654042243958,-4.432619094848633,-1.9691423177719116
1776021566703417300,1.857417236328125,-0.671699047088623,-3.8755195140838623,-2.050635576248169
1776021566713478400,1.867478515625,-0.7043459415435791,-2.663529396057129,-2.146782398223877
1776021566723539500,1.87753955078125,-0.8489071130752563,-1.3931066989898682,-2.2346718311309814
1776021566733600300,1.887600341796875,-0.8428244590759277,-0.25376781821250916,-2.4047348499298096
1776021566743661300,1.897661376953125,-0.6446058750152588,0.4382364749908447,-2.664297342300415
1776021566753722400,1.907722412109375,-0.27399665117263794,1.0213994979858398,-2.869396448135376
1776021566763783400,1.917783447265625,0.26401379704475403,2.0159971714019775,-2.829951286315918
1776021566773844500,1.927844482421875,1.2250343561172485,2.9039220809936523,-2.534006118774414
1776021566783905500,1.937905517578125,2.0628626346588135,2.9323041439056396,-1.849764347076416
1776021566793966600,1.947966552734375,2.5408935546875,3.2123687267303467,-1.0265761613845825
1776021566804026400,1.9580263671875,2.5480825901031494,3.5531699657440186,-0.17811115086078644
1776021566814087400,1.96808740234375,2.23502516746521,3.7763493061065674,0.5028128027915955
1776021566824148500,1.9781484375,1.8466414213180542,3.647775411605835,0.9434311985969543
1776021566834209500,1.98820947265625,1.3932886123657227,3.05999493598938,1.3571306467056274
1776021566844270600,1.9982705078125,1.0262157917022705,2.3602166175842285,2.043184280395508
1776021566854331400,2.008331298828125,1.1451663970947266,1.805702805519104,2.8406333923339844
1776021566864392400,2.018392333984375,1.018907904624939,1.1944644451141357,3.170212507247925
1776021566874453200,2.028453369140625,0.5997236371040344,1.198832392692566,3.0842225551605225
1776021566884514300,2.038514404296875,0.19287757575511932,1.5018446445465088,2.7903928756713867
1776021566894575400,2.048575439453125,-0.07675070315599442,1.4607949256896973,2.5614309310913086
1776021566904636400,2.058636474609375,-0.08978182077407837,1.1320741176605225,2.4091129302978516
1776021566914697500,2.068697509765625,-0.09871326386928558,0.48147740960121155,2.144602060317993
1776021566924758500,2.078758544921875,-0.08549785614013672,-0.5370807647705078,1.6115403175354004
1776021566934819600,2.088819580078125,-0.053767889738082886,-1.4721144437789917,1.4613406658172607
1776021566944880400,2.09888037109375,0.08664488047361374,-2.1435937881469727,1.6035414934158325
1776021566954941400,2.10894140625,0.5720648169517517,-2.3610012531280518,1.7083083391189575
1776021566965002500,2.11900244140625,0.6599869728088379,-2.2814340591430664,1.602332353591919
1776021566975063300,2.129063232421875,0.5704858303070068,-1.6947369575500488,1.6684129238128662
1776021566985124400,2.139124267578125,0.38443928956985474,-0.37633368372917175,2.0639548301696777
1776021566995185400,2.149185302734375,0.041306428611278534,0.7830082178115845,1.9852994680404663
1776021567005246500,2.15924658203125,-0.18450912833213806,1.2278107404708862,1.6037342548370361
1776021567015307500,2.1693076171875,-0.16554608941078186,1.1156023740768433,1.2537323236465454
1776021567025368600,2.17936865234375,-0.046305179595947266,0.9939905405044556,1.1341944932937622
1776021567035429400,2.189429443359375,0.07629343867301941,0.8194122910499573,1.0565398931503296
1776021567045490400,2.199490478515625,0.16171540319919586,0.4783167839050293,0.8305153250694275
1776021567055551500,2.209551513671875,0.25139760971069336,-0.10412213951349258,0.582489013671875
1776021567065612300,2.2196123046875,0.45807594060897827,-0.6669929623603821,0.29353174567222595
1776021567075673300,2.22967333984375,0.4811197519302368,-1.1418758630752563,-0.017704961821436882
1776021567085734400,2.239734375,0.33829495310783386,-1.3223994970321655,-0.10273197293281555
1776021567095795500,2.24979541015625,0.044206876307725906,-1.2129566669464111,-0.15551581978797913
1776021567105856500,2.2598564453125,-0.5071896910667419,-1.3041023015975952,-0.03591778874397278
1776021567115916500,2.26991650390625,-1.6114574670791626,-2.7051219940185547,0.44020986557006836
1776021567125977600,2.2799775390625,-2.262378454208374,-2.9537410736083984,0.2932569086551666
1776021567136038400,2.290038330078125,-2.439884901046753,-2.0624005794525146,-0.3142056167125702
1776021567146099500,2.300099365234375,-2.4531474113464355,-1.7266892194747925,-0.5680341720581055
1776021567156160500,2.310160400390625,-2.8670737743377686,-2.1929738521575928,-0.46331146359443665
1776021567166221600,2.3202216796875,-3.5579993724823,-2.539966106414795,-0.37730708718299866
1776021567176282600,2.33028271484375,-4.165809631347656,-2.71012544631958,-0.6242055296897888
1776021567186343700,2.34034375,-4.865623474121094,-1.968941569328308,-0.9470709562301636
1776021567196404700,2.35040478515625,-5.526706695556641,-0.5288752913475037,-1.069498062133789
1776021567206465800,2.3604658203125,-5.824634075164795,1.102470874786377,-0.9852167367935181
1776021567216526600,2.370526611328125,-5.75933313369751,2.3976664543151855,-0.7010891437530518
1776021567226587600,2.380587646484375,-5.539707183837891,3.4724860191345215,-0.32863834500312805
1776021567236648400,2.3906484375,-5.503777503967285,4.076023101806641,0.0410747304558754
1776021567246709500,2.40070947265625,-5.5246734619140625,4.379333972930908,0.28191423416137695
1776021567256770600,2.4107705078125,-5.445625305175781,4.344851016998291,0.4508337676525116
1776021567266831600,2.42083154296875,-5.264458179473877,4.006005764007568,0.4921324551105499
1776021567276892700,2.430892578125,-5.130087852478027,3.5233590602874756,0.4007847011089325
1776021567286953700,2.44095361328125,-5.021121978759766,3.0882081985473633,0.23940512537956238
1776021567297014800,2.451014892578125,-4.937413692474365,2.5435380935668945,0.04939950630068779
1776021567307075800,2.461075927734375,-4.7574028968811035,1.7072279453277588,-0.07940028607845306
1776021567317136600,2.47113671875,-4.415842533111572,0.7700258493423462,-0.10633709281682968
1776021567327197400,2.481197509765625,-3.6681277751922607,-0.09792416542768478,0.00805979035794735
1776021567337258500,2.491258544921875,2.419137477874756,1.1391831636428833,1.6020234823226929
1776021567347319600,2.501319580078125,-1.8246650695800781,-2.682602643966675,1.6411628723144531
1776021567357380600,2.511380615234375,2.203730583190918,-4.517414569854736,0.7773450016975403
1776021567367441700,2.521441650390625,2.495950222015381,-5.557948112487793,0.4479663372039795
1776021567377502700,2.531502685546875,2.8856728076934814,-5.068961143493652,0.2073097825050354
1776021567387563800,2.541563720703125,2.4683163166046143,-3.9379994869232178,0.20821605622768402
1776021567397624800,2.551624755859375,1.6791305541992188,-2.6685588359832764,0.035715386271476746
1776021567407685600,2.561685546875,0.7442746758460999,-1.3539625406265259,-0.1150570809841156
1776021567417746400,2.571746337890625,-0.06209373101592064,-0.12795130908489227,-0.09775479137897491
1776021567427807500,2.581807373046875,-0.6092748045921326,0.9216992855072021,-0.03653617203235626
1776021567437868500,2.59186865234375,-0.827719509601593,1.5316201448440552,-0.03032008931040764
1776021567447929600,2.6019296875,-0.7265082001686096,1.5488321781158447,-0.08646005392074585
1776021567457990700,2.61199072265625,-0.40896567702293396,1.2317135334014893,-0.09465806186199188
1776021567468051700,2.6220517578125,-0.02725985087454319,0.7994218468666077,-0.06407565623521805
1776021567478112800,2.63211279296875,0.20814627408981323,0.4440048635005951,-0.009065932594239712
1776021567488173800,2.642173828125,0.2632097899913788,0.22724273800849915,0.06091341748833656
1776021567498234600,2.652234619140625,0.19939139485359192,0.13383875787258148,0.09056825190782547
1776021567508295400,2.66229541015625,0.07945780456066132,0.12844133377075195,0.09208279103040695
1776021567518356500,2.6723564453125,-0.04820800945162773,0.14646640419960022,0.08454684168100357
1776021567528417500,2.68241748046875,-0.08576763421297073,0.1089848056435585,0.06957881152629852
1776021567538478600,2.692478515625,-0.041374869644641876,0.013675332069396973,0.0580073781311512
1776021567548538600,2.70253857421875,0.021738052368164062,-0.08823239058256149,0.041544780135154724
1776021567558600700,2.7126005859375,0.05961832404136658,-0.143551304936409,0.022974824532866478
1776021567568660700,2.72266064453125,0.06821393966674805,-0.10866975784301758,-0.006565757095813751
1776021567578721500,2.732721435546875,0.05654023960232735,-0.0026463831309229136,-0.03972024843096733
1776021567588782600,2.742782470703125,0.022005699574947357,0.09548870474100113,-0.04837392270565033
1776021567598843600,2.75284375,-0.012596485204994678,0.13302063941955566,-0.054661914706230164
1776021567608904700,2.76290478515625,-0.02624625153839588,0.11544989794492722,-0.05449386686086655
1776021567618965500,2.772965576171875,-0.022250710055232048,0.07134076207876205,-0.05589282512664795
1776021567629026600,2.783026611328125,-0.016276441514492035,0.03298511356115341,-0.05993124470114708
1776021567639087600,2.793087646484375,-0.0068027786910533905,0.009099489077925682,-0.058640409260988235
1776021567649148700,2.803148681640625,-0.0018165421206504107,-0.03148761764168739,-0.04689373821020126
1776021567659209700,2.813209716796875,0.010352239944040775,-0.1028725877404213,-0.020855747163295746
1776021567669270500,2.8232705078125,0.04634752497076988,-0.20891007781028748,-0.006908506155014038
1776021567679331600,2.83333154296875,0.09621654450893402,-0.3119235336780548,-0.02142060361802578
1776021567689392600,2.843392578125,0.12191817909479141,-0.3879533112049103,-0.04950310289859772
1776021567699453700,2.85345361328125,0.13346298038959503,-0.42101114988327026,-0.07691768556833267
1776021567709514500,2.863514404296875,0.13673041760921478,-0.40856486558914185,-0.08533567190170288
1776021567719575600,2.873575439453125,0.14566318690776825,-0.37008991837501526,-0.07233518362045288
1776021567729636600,2.88363671875,0.14174515008926392,-0.29975396394729614,-0.04366492107510567
1776021567739697700,2.89369775390625,0.12322765588760376,-0.231623113155365,-0.018001902848482132
1776021567749758700,2.9037587890625,0.09368041902780533,-0.1632419228553772,0.0018929748330265284
1776021567759819800,2.91381982421875,0.07143476605415344,-0.1174968034029007,0.007297860458493233
1776021567769880600,2.923880615234375,0.06426234543323517,-0.10472241789102554,0.007677094545215368
1776021567779941600,2.933941650390625,0.06940250843763351,-0.12031043320894241,0.001446096459403634
1776021567790002700,2.944002685546875,0.0722757950425148,-0.14769944548606873,-0.010749849490821362
1776021567800063500,2.9540634765625,0.060212474316358566,-0.17266152799129486,-0.02521347813308239
1776021567810124500,2.96412451171875,0.04175037518143654,-0.19891390204429626,-0.03984621539711952
1776021567820185600,2.974185546875,0.02881886437535286,-0.22170868515968323,-0.054913848638534546
1776021567830246700,2.98424658203125,0.023383619263768196,-0.23944588005542755,-0.05890645831823349
1776021567840307700,2.9943076171875,0.022358302026987076,-0.24921567738056183,-0.05740177258849144
1776021567850368800,3.00436865234375,0.020257068797945976,-0.2420661598443985,-0.045891325920820236
1776021567860429600,3.0144296875,0.017169665545225143,-0.23035384714603424,-0.04053517431020737
1776021567870490600,3.02449072265625,0.01104599330574274,-0.2026766836643219,-0.03592151403427124
1776021567880551700,3.0345517578125,0.010191917419433594,-0.17693056166172028,-0.03370203822851181
1776021567890612500,3.044612548828125,0.021321000531315804,-0.1592852622270584,-0.038299452513456345
1776021567900673500,3.054673583984375,0.03774311766028404,-0.14447063207626343,-0.04222175478935242
1776021567910734600,3.064734619140625,0.05290688946843147,-0.13772910833358765,-0.04463377967476845
1776021567920795600,3.074795654296875,0.05598017945885658,-0.13934297859668732,-0.040100280195474625
1776021567930856700,3.084856689453125,0.04642901569604874,-0.13032124936580658,-0.0362408272922039
1776021567940917800,3.094917724609375,0.033373404294252396,-0.12025397270917892,-0.02496953122317791
1776021567950978600,3.104978515625,0.02323048748075962,-0.11345971375703812,-0.009223592467606068
1776021567961039600,3.11503955078125,0.02207707241177559,-0.08957595378160477,0.0015744607662782073
1776021567971100700,3.1251005859375,0.01739789918065071,-0.043541084975004196,0.013865482062101364
1776021567981161500,3.135161376953125,-0.005742574110627174,0.030002107843756676,0.023919714614748955
1776021567991222500,3.145222412109375,-0.020605143159627914,0.10810143500566483,0.04192028567194939
1776021568001283600,3.15528369140625,-0.022845128551125526,0.15416160225868225,0.0675785094499588
1776021568011344600,3.1653447265625,-0.0012937636347487569,0.15912599861621857,0.08677031844854355
1776021568021405700,3.17540576171875,0.02635011449456215,0.13654905557632446,0.08991257846355438
1776021568031466800,3.185466796875,0.04433071240782738,0.13349761068820953,0.0845676138997078
1776021568041527600,3.195527587890625,0.05649816244840622,0.12102442234754562,0.09447803348302841
1776021568051588600,3.205588623046875,0.06944005936384201,0.07641594111919403,0.11691197007894516
1776021568061649700,3.215649658203125,0.08245519548654556,-0.006050435826182365,0.13263021409511566
1776021568071710500,3.22571044921875,0.09648286551237106,-0.10278470069169998,0.12792547047138214
1776021568081771500,3.235771484375,0.11593113094568253,-0.19835303723812103,0.10529499500989914
1776021568091832600,3.24583251953125,0.13452932238578796,-0.25777456164360046,0.07648971676826477
1776021568101893600,3.2558935546875,0.14042529463768005,-0.26881787180900574,0.04430035129189491
1776021568111954700,3.26595458984375,0.13771206140518188,-0.26195570826530457,0.01332565862685442
1776021568122015700,3.276015625,0.12024891376495361,-0.23884479701519012,-0.025438249111175537
1776021568132076800,3.286076904296875,0.08115317672491074,-0.1958288848400116,-0.05820152163505554
1776021568142137600,3.2961376953125,0.04982294887304306,-0.18330031633377075,-0.07462417334318161
1776021568152198700,3.30619873046875,0.037876009941101074,-0.2614915370941162,-0.09817130863666534
1776021568162259500,3.316259521484375,0.020984377712011337,-0.3211125135421753,-0.09259651601314545
1776021568172320500,3.326320556640625,-0.00765951769426465,-0.3044928014278412,-0.06889278441667557
1776021568182381300,3.33638134765625,-0.04160177335143089,-0.2503933310508728,-0.019275693222880363
1776021568192442400,3.3464423828125,-0.06400588154792786,-0.18869242072105408,0.022790001705288887
1776021568202503400,3.35650341796875,-0.07225742191076279,-0.1040654182434082,0.04487293213605881
1776021568212564500,3.366564453125,-0.08271698653697968,0.02075321599841118,0.019513247534632683
1776021568222625500,3.37662548828125,-0.09348094463348389,0.1390915811061859,0.0019523634109646082
1776021568232686600,3.3866865234375,-0.09009979665279388,0.2236035317182541,-0.006030195392668247
1776021568242747600,3.39674755859375,-0.07145047932863235,0.3170647621154785,0.010063286870718002
1776021568252808400,3.406808349609375,-0.03255954012274742,0.4048297703266144,0.030337665230035782
1776021568262869500,3.416869384765625,0.015589878894388676,0.46832433342933655,0.0356605239212513
1776021568272930300,3.426930419921875,0.05742068216204643,0.5344000458717346,0.039677105844020844
1776021568282991400,3.436991455078125,0.085289865732193,0.6025210022926331,0.06381040811538696
1776021568293052400,3.447052490234375,0.09302927553653717,0.6535828709602356,0.09306682646274567
1776021568303113500,3.457113525390625,0.08308476954698563,0.673866331577301,0.1126842051744461
1776021568313174500,3.467174560546875,0.062064435333013535,0.6713663935661316,0.1292024552822113
1776021568323235600,3.477235595703125,0.045825280249118805,0.6583920121192932,0.13618074357509613
1776021568333296600,3.487296630859375,0.025971679016947746,0.6398422718048096,0.14268365502357483
1776021568343357400,3.497357421875,0.0018897791160270572,0.614839494228363,0.15096262097358704
1776021568353418500,3.50741845703125,-0.031131820753216743,0.5684682130813599,0.1509018987417221
1776021568363479600,3.5174794921875,-0.061287324875593185,0.4997171461582184,0.15219458937644958
1776021568373540400,3.527540283203125,-0.09167265892028809,0.4290544092655182,0.14400804042816162
1776021568383601400,3.537601318359375,-0.11198805272579193,0.37166649103164673,0.13238146901130676
1776021568393662500,3.547662353515625,-0.11650663614273071,0.3327859342098236,0.11378355324268341
1776021568403723500,3.5577236328125,-0.12224521487951279,0.3131091892719269,0.09692707657814026
1776021568413784600,3.56778466796875,-0.12621812522411346,0.30809178948402405,0.08270899206399918
1776021568423845600,3.577845703125,-0.11531620472669601,0.3135563135147095,0.06710632890462875
1776021568433906400,3.587906494140625,-0.10029837489128113,0.33312496542930603,0.06739768385887146
1776021568443967500,3.597967529296875,-0.08873972296714783,0.36673086881637573,0.08526163548231125
1776021568454028500,3.608028564453125,-0.08947821706533432,0.40739840269088745,0.11869575828313828
1776021568464089300,3.61808935546875,-0.1002778708934784,0.4380870759487152,0.16552850604057312
1776021568474150400,3.628150390625,-0.11373908072710037,0.4517086148262024,0.2179720103740692
1776021568484211500,3.63821142578125,-0.10082221776247025,0.4397352933883667,0.25717559456825256
1776021568494272500,3.6482724609375,-0.06575983762741089,0.3984192907810211,0.2576027810573578
1776021568504333600,3.65833349609375,-0.04262469336390495,0.3655146062374115,0.2244434952735901
1776021568514394600,3.66839453125,-0.04542021080851555,0.35624387860298157,0.1688215136528015
1776021568524455400,3.678455322265625,-0.04272376000881195,0.3634575605392456,0.13198333978652954
1776021568534516500,3.6885166015625,-0.020176108926534653,0.3947798013687134,0.1423419713973999
1776021568544577500,3.69857763671875,0.008700015023350716,0.4213975667953491,0.19895358383655548
1776021568554638300,3.708638427734375,0.026869697496294975,0.4571092128753662,0.29001158475875854
1776021568564699400,3.718699462890625,0.035657864063978195,0.4793740510940552,0.374973863363266
1776021568574760400,3.728760498046875,0.03254196420311928,0.4907284379005432,0.43218258023262024
1776021568584821500,3.738821533203125,0.021801436319947243,0.4961588978767395,0.4626406133174896
1776021568594882600,3.748882568359375,0.005811550188809633,0.5194221138954163,0.47037336230278015
1776021568604943600,3.758943603515625,-0.010310161858797073,0.5841886401176453,0.46877041459083557
1776021568615004400,3.76900439453125,-0.011885687708854675,0.6884329915046692,0.47028017044067383
1776021568625065500,3.7790654296875,-0.0032775523141026497,0.8112049698829651,0.4725547730922699
1776021568635126500,3.78912646484375,0.02219425141811371,0.9094617962837219,0.4710806906223297
1776021568645187600,3.7991875,0.056117597967386246,0.9587172269821167,0.47311508655548096
1776021568655248400,3.809248291015625,0.0980602502822876,0.9473111629486084,0.46050822734832764
1776021568665309400,3.819309326171875,0.14927443861961365,0.8833543062210083,0.42494916915893555
1776021568675370500,3.82937060546875,0.20658566057682037,0.7824950218200684,0.39182156324386597
1776021568685431600,3.839431640625,0.2752113342285156,0.6648951768875122,0.38363155722618103
1776021568695492600,3.84949267578125,0.3475007116794586,0.5082408785820007,0.42116373777389526
1776021568705553400,3.859553466796875,0.43181586265563965,0.3058169186115265,0.49196919798851013
1776021568715614500,3.869614501953125,0.5154185891151428,0.08681292831897736,0.573306143283844
1776021568725675500,3.879675537109375,0.6093125939369202,-0.11714659631252289,0.6441547274589539
1776021568735736600,3.889736572265625,0.7090283036231995,-0.2790848910808563,0.698392391204834
1776021568745797400,3.89979736328125,0.8067508339881897,-0.4060356616973877,0.7455519437789917
1776021568755858400,3.9098583984375,0.8908705115318298,-0.5114228129386902,0.7845081090927124
1776021568765919500,3.91991943359375,0.960406482219696,-0.5914723873138428,0.838787317276001
1776021568775980500,3.92998046875,1.0100486278533936,-0.6157510876655579,0.9030954837799072
1776021568786041600,3.94004150390625,1.0483243465423584,-0.5513182878494263,0.9829996228218079
1776021568796102400,3.950102294921875,1.0723103284835815,-0.39966297149658203,1.0868885517120361
1776021568806163500,3.96016357421875,1.085636019706726,-0.1560351401567459,1.2055025100708008
1776021568816224500,3.970224609375,1.0815120935440063,0.13533198833465576,1.3512285947799683
1776021568826285600,3.98028564453125,1.0636364221572876,0.368877112865448,1.476792812347412
1776021568836346400,3.990346435546875,1.0388975143432617,0.48731666803359985,1.527442216873169
1776021568846407400,4.000407470703125,1.023110270500183,0.5289139151573181,1.514007329940796
1776021568856468500,4.010468505859375,1.0361111164093018,0.5447562336921692,1.461698293685913
1776021568866529500,4.020529541015625,1.0612859725952148,0.5869668126106262,1.3461652994155884
1776021568876590600,4.030590576171875,1.0911405086517334,0.5719026327133179,1.1533684730529785
1776021568886651400,4.0406513671875,1.117922306060791,0.5402541756629944,0.9204760789871216
1776021568896712400,4.05071240234375,1.1253114938735962,0.5705926418304443,0.7252935171127319
1776021568906773500,4.0607734375,1.05784273147583,0.6514009237289429,0.6197924017906189
1776021568916834600,4.07083447265625,0.8847295641899109,0.7085763216018677,0.6123930811882019
1776021568926895600,4.0808955078125,0.6095549464225769,0.7384519577026367,0.6311547756195068
1776021568936956400,4.090956298828125,0.34629854559898376,0.17672044038772583,0.5022580623626709
1776021568947017500,4.101017578125,0.1427805870771408,0.10768811404705048,0.5307040810585022
1776021568957078500,4.11107861328125,0.04638427495956421,0.03603203594684601,0.5803533792495728
1776021568967139600,4.1211396484375,-0.007306648883968592,-0.08939991891384125,0.5000463128089905
1776021568977200400,4.131200439453125,-0.026824956759810448,-0.09811564534902573,0.3901996910572052
1776021568987261400,4.141261474609375,-0.07226833701133728,-0.03087189607322216,0.19981324672698975
1776021568997322500,4.151322509765625,-0.16450531780719757,-0.08568534255027771,-0.13701032102108002
1776021569007383600,4.161383544921875,-0.2840724587440491,-0.3841415345668793,-0.5399441719055176
1776021569017444600,4.171444580078125,-0.3686842918395996,-1.0558432340621948,-0.9549576044082642
1776021569027505400,4.18150537109375,-0.36572951078414917,-1.261902093887329,-1.020705223083496
1776021569037566500,4.19156640625,-0.32198628783226013,-1.512868046760559,-1.0046719312667847
1776021569047627500,4.20162744140625,-0.2626633048057556,-1.6583034992218018,-0.8868747353553772
1776021569057688600,4.2116884765625,-0.19062906503677368,-1.823608636856079,-0.607598602771759
1776021569067749400,4.221749267578125,-0.061461228877305984,-1.3912802934646606,-0.17165590822696686
1776021569077810400,4.231810546875,0.015988022089004517,-0.6708297729492188,-0.3516070246696472
1776021569087871500,4.24187158203125,-0.10386967658996582,-0.7867201566696167,-1.378067135810852
1776021569097932500,4.2519326171875,-0.22692103683948517,-1.3644753694534302,-1.9342679977416992
1776021569107993600,4.26199365234375,-0.3184610605239868,-1.901102066040039,-2.050769805908203
1776021569118054400,4.272054443359375,-0.3874257504940033,-2.193028450012207,-1.80149507522583
1776021569128116500,4.282116455078125,-0.4671192467212677,-2.1581854820251465,-1.3282188177108765
1776021569138177300,4.29217724609375,-0.45845067501068115,-1.817785620689392,-0.8301951885223389
1776021569148237800,4.30223779296875,-0.3102012872695923,-1.2250940799713135,-0.5899130702018738
1776021569158299000,4.312298828125,-0.16387096047401428,-0.7043192982673645,-0.7544964551925659
1776021569168360000,4.32235986328125,-0.10903327912092209,-0.38752296566963196,-1.1609320640563965
1776021569178421000,4.3324208984375,-0.1319018453359604,-0.2018364518880844,-1.5456297397613525
1776021569188481800,4.342481689453125,-0.15064463019371033,-0.2064381241798401,-1.6384669542312622
1776021569198542800,4.35254296875,-0.10211145132780075,-0.7530439496040344,-1.4534728527069092
1776021569208604000,4.36260400390625,-0.038358841091394424,-1.4861160516738892,-1.1559346914291382
1776021569218665000,4.3726650390625,-0.018019480630755424,-2.203138828277588,-0.8596689105033875
1776021569228726000,4.38272607421875,-0.05692320317029953,-2.7531893253326416,-0.7754930853843689
1776021569238786800,4.392786865234375,-0.14437103271484375,-2.9908621311187744,-0.7357075810432434
1776021569248848000,4.402847900390625,-0.29074928164482117,-2.8621184825897217,-0.6809207797050476
1776021569258909000,4.412908935546875,-0.47234225273132324,-2.377490758895874,-0.632480800151825
1776021569268970000,4.422969970703125,-0.6427368521690369,-1.679360032081604,-0.566514253616333
1776021569279030800,4.43303076171875,-0.7538490295410156,-0.9373672008514404,-0.48460689187049866
1776021569289091800,4.443091796875,-0.7652116417884827,-0.3021273612976074,-0.4293138086795807
1776021569299153000,4.45315283203125,-0.6589787006378174,0.09960435330867767,-0.41974854469299316
1776021569309214000,4.4632138671875,-0.45171207189559937,0.25160348415374756,-0.41804996132850647
1776021569319275000,4.47327490234375,-0.21564173698425293,0.24156175553798676,-0.389982134103775
1776021569329335800,4.483335693359375,-0.1139979436993599,0.22648081183433533,-0.3467997610569
1776021569339396900,4.49339697265625,-0.16493622958660126,0.264760822057724,-0.2715662717819214
1776021569349458000,4.5034580078125,-0.2581207752227783,0.2904062569141388,-0.20711083710193634
1776021569359519000,4.51351904296875,-0.3003057539463043,0.2651544213294983,-0.15183506906032562
1776021569369580000,4.523580078125,-0.2858424186706543,0.25591060519218445,-0.07674617320299149
1776021569379640800,4.533640869140625,-0.2491224706172943,0.35106587409973145,0.01799684390425682
1776021569389702000,4.543701904296875,-0.22539770603179932,0.5441056489944458,0.09439601004123688
1776021569399763000,4.553762939453125,-0.20459574460983276,0.7510787844657898,0.13296258449554443
1776021569409824000,4.563823974609375,-0.18164809048175812,0.8949443697929382,0.1472778618335724
1776021569419884800,4.573884765625,-0.15599599480628967,0.9794600605964661,0.15161456167697906
1776021569429945900,4.58394580078125,-0.1097579225897789,1.0484710931777954,0.14276300370693207
1776021569440007000,4.5940068359375,-0.04995690658688545,1.1393165588378906,0.12974122166633606
1776021569450068000,4.60406787109375,0.010359430685639381,1.2244069576263428,0.08748137950897217
1776021569460129000,4.61412890625,0.052070390433073044,1.2607612609863281,0.013176255859434605
1776021569470189800,4.62418994140625,0.056047290563583374,1.260044813156128,-0.08117873966693878
1776021569480251000,4.6342509765625,0.02712882310152054,1.2413915395736694,-0.15198367834091187
1776021569490312000,4.64431201171875,-0.010783937759697437,1.1973276138305664,-0.15801866352558136
1776021569500373000,4.654373046875,-0.008143413811922073,1.0885792970657349,-0.1070295125246048
1776021569510433800,4.664433837890625,0.03177444264292717,0.9118391871452332,-0.06378563493490219
1776021569520494800,4.674494873046875,0.06781526654958725,0.7065142393112183,-0.06284793466329575
1776021569530556000,4.684555908203125,0.07103981822729111,0.5200208425521851,-0.07845725864171982
1776021569540617000,4.694616943359375,0.0664871484041214,0.3845631182193756,-0.0757666677236557
1776021569550678000,4.704677978515625,0.04946981370449066,0.31440481543540955,-0.03906777501106262
1776021569560738800,4.71473876953125,0.03604082390666008,0.3593350052833557,-0.008489358238875866
1776021569570799900,4.7247998046875,0.01804451458156109,0.5104137063026428,-0.008957009762525558
1776021569580861700,4.73486181640625,-0.01725941337645054,0.7448318004608154,-0.010190851986408234
1776021569590922800,4.7449228515625,-0.10887402296066284,1.0416901111602783,0.0060176788829267025
1776021569600983800,4.75498388671875,-0.21564893424510956,1.3702094554901123,0.027945082634687424
1776021569611044900,4.765044921875,-0.26391738653182983,1.6388405561447144,0.06276538223028183
1776021569621106000,4.77510595703125,-0.24199825525283813,1.8192319869995117,0.07011490315198898
1776021569631167000,4.7851669921875,-0.19513779878616333,1.908961534500122,0.06381093710660934
1776021569641228000,4.79522802734375,-0.1637127697467804,1.9500967264175415,0.029453495517373085
1776021569651289000,4.8052890625,-0.15611982345581055,1.9778157472610474,-0.019846143200993538
1776021569661350000,4.815349853515625,-0.16252979636192322,1.987107753753662,-0.06047799065709114
1776021569671411000,4.825410888671875,-0.16054654121398926,2.0052387714385986,-0.07377196103334427
1776021569681471700,4.8354716796875,-0.14273744821548462,2.029289960861206,-0.05150420218706131
1776021569691532800,4.84553271484375,-0.11530821770429611,1.9815247058868408,-0.00015686018741689622
1776021569701593900,4.85559375,-0.10138440877199173,1.7681198120117188,0.054846204817295074
1776021569711655000,4.865655029296875,-0.10886123776435852,1.3662586212158203,0.08626005053520203
1776021569721716000,4.875716064453125,-0.13025440275669098,0.8749591708183289,0.08366027474403381
1776021569731777000,4.885777099609375,-0.12417920678853989,0.4428293704986572,0.058093927800655365
1776021569741838000,4.895838134765625,-0.08052333444356918,0.20989809930324554,0.041554633527994156
1776021569751899000,4.90589892578125,-0.04165982827544212,0.21019744873046875,0.05333060026168823
1776021569761960000,4.9159599609375,-0.02605130709707737,0.378629595041275,0.07701382786035538
1776021569772020700,4.926020751953125,-0.010843326337635517,0.59721839427948,0.08471515029668808
1776021569782081800,4.936081787109375,0.013093165121972561,0.7654058337211609,0.061407700181007385
1776021569792142800,4.946142822265625,0.059904877096414566,0.7793458700180054,0.026924025267362595
1776021569802204000,4.956203857421875,0.11347276717424393,0.6762207746505737,0.00415399856865406
1776021569812265000,4.966264892578125,0.1373450756072998,0.5715985298156738,0.005396096967160702
1776021569822326000,4.976325927734375,0.14914686977863312,0.5075675845146179,0.024403875693678856
1776021569832387000,4.986386962890625,0.16486378014087677,0.5028809905052185,0.07424653321504593
1776021569842448000,4.99644775390625,0.18355225026607513,0.47380831837654114,0.12698031961917877
1776021569852509000,5.006509033203125,0.21877574920654297,0.3625155985355377,0.17366740107536316
1776021569862569700,5.01656982421875,0.27171701192855835,0.17134273052215576,0.2169746607542038
1776021569872630800,5.026630859375,0.3138652443885803,-0.021328192204236984,0.24207867681980133
1776021569882691800,5.03669189453125,0.3339361548423767,-0.13226349651813507,0.22546668350696564
1776021569892753000,5.0467529296875,0.3450244963169098,-0.1722458004951477,0.1791580319404602
1776021569902814000,5.05681396484375,0.3465869724750519,-0.16826944053173065,0.1408844143152237
1776021569912875000,5.066875,0.32004618644714355,-0.13777969777584076,0.1435299962759018
1776021569922936800,5.076936767578125,0.24478071928024292,-0.12816116213798523,0.17557208240032196
1776021569932998000,5.086997802734375,0.15782025456428528,-0.14839425683021545,0.1999538540840149
1776021569943059000,5.097058837890625,0.09167559444904327,-0.1718180924654007,0.1937292516231537
1776021569953120000,5.1071201171875,0.048948898911476135,-0.16856957972049713,0.15426333248615265
1776021569963181000,5.11718115234375,0.03489220514893532,-0.13275644183158875,0.09721975773572922
1776021569973241900,5.127241943359375,0.024412399157881737,-0.06494677811861038,0.07060439139604568
1776021569983303000,5.137302978515625,-0.004644020460546017,0.05433141440153122,0.05786889046430588
1776021569993364000,5.147364013671875,-0.04306624457240105,0.214307501912117,0.07136259973049164
1776021570003424800,5.1574248046875,-0.08580438792705536,0.3780258595943451,0.08271937817335129
1776021570013485800,5.16748583984375,-0.11624404788017273,0.5431423783302307,0.07489501684904099
1776021570023547000,5.177546875,-0.13566888868808746,0.7079201340675354,0.06783150881528854
1776021570033608000,5.18760791015625,-0.16598977148532867,0.8766534924507141,0.06588926911354065
1776021570043669000,5.1976689453125,-0.19760335981845856,1.0359160900115967,0.05366243049502373
1776021570053730000,5.20772998046875,-0.23499253392219543,1.1888271570205688,0.027839619666337967
1776021570063791000,5.217791015625,-0.264797568321228,1.3369249105453491,0.011472897604107857
1776021570073852000,5.227851806640625,-0.2900105118751526,1.4814541339874268,0.037399038672447205
1776021570083913000,5.237912841796875,-0.31147587299346924,1.5854458808898926,0.08726193755865097
1776021570093973800,5.247973876953125,-0.32996219396591187,1.642290472984314,0.13392770290374756
1776021570104034800,5.258034912109375,-0.3423786461353302,1.6397671699523926,0.16116145253181458
1776021570114095900,5.268095947265625,-0.36083462834358215,1.5817139148712158,0.14219549298286438
1776021570124157000,5.278156982421875,-0.37090882658958435,1.4852348566055298,0.09887837618589401
1776021570134218000,5.288218017578125,-0.3422292470932007,1.3663867712020874,0.056170593947172165
1776021570144279000,5.298279052734375,-0.26784634590148926,1.2202060222625732,0.05270635336637497
1776021570154340400,5.30834033203125,-0.15617388486862183,1.0632566213607788,0.09293553233146667
1776021570164401400,5.3184013671875,-0.06411506980657578,0.9336094856262207,0.15323589742183685
1776021570174462200,5.328462158203125,-0.01167210191488266,0.8076523542404175,0.2142728865146637
1776021570184523300,5.338523193359375,-0.04507453367114067,0.6253435015678406,0.23020151257514954
1776021570194584300,5.348584228515625,-0.12429451942443848,0.3929411470890045,0.1730191856622696
1776021570204646400,5.358646484375,-0.15777604281902313,0.15992362797260284,0.08303176611661911
1776021570214707200,5.368707275390625,-0.1305241882801056,-0.014902250841259956,0.012412461452186108
1776021570224768300,5.378768310546875,-0.0903480052947998,-0.12262605130672455,-0.044803690165281296
1776021570234829300,5.388829345703125,-0.058223892003297806,-0.16743479669094086,-0.0907520055770874
1776021570244890000,5.39889013671875,-0.03724750503897667,-0.16708113253116608,-0.12025104463100433
1776021570254951200,5.408951171875,-0.021558821201324463,-0.12899526953697205,-0.12167876213788986
1776021570265012200,5.41901220703125,-0.030764836817979813,-0.09308014065027237,-0.1043703481554985
1776021570275073300,5.4290732421875,-0.05772028863430023,-0.08075849711894989,-0.09041085839271545
1776021570285134300,5.43913427734375,-0.09249025583267212,-0.09936493635177612,-0.07378287613391876
1776021570295195400,5.4491953125,-0.1282099038362503,-0.14942730963230133,-0.07643964886665344
1776021570305256400,5.45925634765625,-0.14775803685188293,-0.20683014392852783,-0.08593328297138214
1776021570315317200,5.469317138671875,-0.1503964215517044,-0.22992241382598877,-0.09779100865125656
1776021570325378300,5.47937841796875,-0.14739850163459778,-0.1792171597480774,-0.09589537233114243
1776021570335439000,5.489439208984375,-0.1376260370016098,-0.10004324465990067,-0.07640156149864197
1776021570345500200,5.499500244140625,-0.11786991357803345,-0.07075406610965729,-0.042039062827825546
1776021570355561200,5.509561279296875,-0.09108889847993851,-0.09071072936058044,-0.012317652814090252
1776021570365622300,5.519622314453125,-0.06202182546257973,-0.12125638872385025,0.004716458264738321
1776021570375683300,5.529683349609375,-0.0562070794403553,-0.16668619215488434,-0.018140122294425964
1776021570385744400,5.539744384765625,-0.0636380985379219,-0.23712973296642303,-0.06281144917011261
1776021570395805400,5.549805419921875,-0.07613445073366165,-0.35656583309173584,-0.09218958020210266
1776021570405866200,5.5598662109375,-0.10853633284568787,-0.48372912406921387,-0.12562264502048492
1776021570415927300,5.56992724609375,-0.13054415583610535,-0.5266286730766296,-0.13910089433193207
1776021570425988000,5.579988037109375,-0.14676307141780853,-0.46562016010284424,-0.11840174347162247
1776021570436049200,5.590049072265625,-0.17219680547714233,-0.36763712763786316,-0.10293091088533401
1776021570446110200,5.600110107421875,-0.20274671912193298,-0.30830296874046326,-0.12302952259778976
1776021570456171300,5.610171142578125,-0.21313384175300598,-0.28817906975746155,-0.1748303920030594
1776021570466233300,5.6202333984375,-0.2109958529472351,-0.29260924458503723,-0.2291189432144165
1776021570476294400,5.63029443359375,-0.21001794934272766,-0.29076606035232544,-0.2408914417028427
1776021570486355200,5.640355224609375,-0.21991398930549622,-0.2951861023902893,-0.1940336525440216
1776021570496416300,5.650416259765625,-0.23138608038425446,-0.324754923582077,-0.1323990523815155
1776021570506477300,5.660477294921875,-0.23608523607254028,-0.4161841571331024,-0.102866992354393
1776021570516538000,5.6705380859375,-0.2110738903284073,-0.5380527973175049,-0.11890721321105957
1776021570526599200,5.68059912109375,-0.16846863925457,-0.6249837279319763,-0.16557857394218445
1776021570536660200,5.69066015625,-0.13023124635219574,-0.6321604251861572,-0.20549510419368744
1776021570546721300,5.70072119140625,-0.10596132278442383,-0.5954892039299011,-0.2305874079465866
1776021570556782300,5.7107822265625,-0.08681132644414902,-0.5284209847450256,-0.25666508078575134
1776021570566843400,5.720843505859375,-0.0662623792886734,-0.4278642535209656,-0.2589396834373474
1776021570576904200,5.730904296875,-0.04866154491901398,-0.34813159704208374,-0.2569330036640167
1776021570586965200,5.74096533203125,-0.025973543524742126,-0.3360312581062317,-0.27968651056289673
1776021570597026300,5.7510263671875,0.008608401753008366,-0.3857567608356476,-0.29366782307624817
1776021570607087000,5.761087158203125,0.047515321522951126,-0.45682239532470703,-0.28384849429130554
1776021570617148200,5.771148193359375,0.07856698334217072,-0.5258550047874451,-0.23467455804347992
1776021570627209200,5.781209228515625,0.08030575513839722,-0.5819872617721558,-0.17800462245941162
1776021570637270300,5.791270263671875,0.06672763079404831,-0.6460937857627869,-0.16568218171596527
1776021570647331300,5.801331298828125,0.04956089332699776,-0.7013892531394958,-0.18892598152160645
1776021570657392400,5.811392333984375,0.04229898750782013,-0.7341757416725159,-0.22555775940418243
1776021570667453200,5.821453125,0.029323799535632133,-0.7132299542427063,-0.27313700318336487
1776021570677514200,5.83151416015625,-0.005101817660033703,-0.5920079350471497,-0.330250084400177
1776021570687576300,5.841576416015625,-0.05229569599032402,-0.40912890434265137,-0.37812599539756775
1776021570697637400,5.851637451171875,-0.08828938007354736,-0.23546205461025238,-0.356510192155838
1776021570707698400,5.861698486328125,-0.09607993066310883,-0.1076124832034111,-0.24239613115787506
1776021570717759500,5.871759521484375,-0.10466089844703674,-0.05756982043385506,-0.12303590774536133
1776021570727820000,5.881820068359375,-0.13512906432151794,-0.09462131559848785,-0.07419779896736145
1776021570737881000,5.891881103515625,-0.18071705102920532,-0.2194037288427353,-0.06694094836711884
1776021570747942100,5.901942138671875,-0.22456945478916168,-0.3796122968196869,-0.08461981266736984
1776021570758003200,5.912003173828125,-0.26151707768440247,-0.530791163444519,-0.10708677023649216
1776021570768064300,5.922064208984375,-0.2849116325378418,-0.6462913751602173,-0.12464073300361633
1776021570778125300,5.932125244140625,-0.2873593270778656,-0.6907715201377869,-0.13851900398731232
1776021570788186400,5.942186279296875,-0.26646658778190613,-0.6318696141242981,-0.14980892837047577
1776021570798247400,5.952247314453125,-0.22388476133346558,-0.49718421697616577,-0.13753096759319305
1776021570808308500,5.96230859375,-0.16358999907970428,-0.321251779794693,-0.13153564929962158
1776021570818369000,5.972369140625,-0.1015940010547638,-0.13862232863903046,-0.10151277482509613
1776021570828430000,5.98243017578125,-0.027393540367484093,-0.004447745159268379,-0.02033456601202488
1776021570838491100,5.9924912109375,0.025367939844727516,0.07459940016269684,0.05188210681080818
1776021570848552200,6.00255224609375,0.04867379739880562,0.08276252448558807,0.1048118993639946
1776021570858613200,6.01261328125,0.045644715428352356,-0.007425425574183464,0.10865137726068497
1776021570868674300,6.02267431640625,0.03590766713023186,-0.15826287865638733,0.07600554823875427
1776021570878735400,6.0327353515625,0.019536416977643967,-0.3163454532623291,0.028551749885082245
1776021570888796400,6.04279638671875,-0.0068272799253463745,-0.42916786670684814,-0.021156683564186096
1776021570898858200,6.052858154296875,-0.042633745819330215,-0.46712350845336914,-0.08917728066444397
1776021570908919300,6.062919189453125,-0.08381127566099167,-0.43864473700523376,-0.1591971069574356
1776021570918980400,6.07298046875,-0.12358985096216202,-0.38299480080604553,-0.20419734716415405
1776021570929041200,6.083041259765625,-0.1368638426065445,-0.30771520733833313,-0.1942613571882248
1776021570939102200,6.093102294921875,-0.13123126327991486,-0.20567752420902252,-0.13613386452198029
1776021570949163300,6.103163330078125,-0.1239914521574974,-0.0673217847943306,-0.04836487025022507
1776021570959224300,6.113224365234375,-0.1279774010181427,0.08009909838438034,0.027221767231822014
1776021570969285400,6.123285400390625,-0.13757383823394775,0.16239450871944427,0.0719468966126442
1776021570979346200,6.13334619140625,-0.1495375633239746,0.1317300647497177,0.08696819096803665
1776021570989407200,6.1434072265625,-0.14746882021427155,0.024516528472304344,0.0753466859459877
1776021570999468300,6.15346826171875,-0.13208240270614624,-0.09217706322669983,0.04502979293465614
1776021571009529300,6.163529296875,-0.10394131392240524,-0.16053801774978638,-0.003999002743512392
1776021571019590100,6.173590087890625,-0.07269763946533203,-0.17589646577835083,-0.05420225113630295
1776021571029651200,6.183651123046875,-0.04409874975681305,-0.15421940386295319,-0.09670177847146988
1776021571039712300,6.193712158203125,-0.019027486443519592,-0.11690584570169449,-0.11390259861946106
1776021571049773300,6.203773193359375,0.0006087986403144896,-0.07376690208911896,-0.10341640561819077
1776021571059834400,6.21383447265625,0.016692694276571274,-0.03987657651305199,-0.06375367939472198
1776021571069895200,6.223895263671875,0.03705096244812012,-0.03636333346366882,-0.00449754623696208
1776021571079957200,6.233957275390625,0.05080325901508331,-0.06216909736394882,0.03335050120949745
1776021571090018300,6.244018310546875,0.044926729053258896,-0.1069224551320076,0.039683230221271515
1776021571100079400,6.254079345703125,0.022601183503866196,-0.13404648005962372,0.04109444096684456
1776021571110140400,6.264140380859375,-0.006049104034900665,-0.13652348518371582,0.0226800125092268
1776021571120201500,6.274201416015625,-0.03543468937277794,-0.11637214571237564,-0.016574982553720474
1776021571130262000,6.284261962890625,-0.05889500677585602,-0.10043153166770935,-0.059413257986307144
1776021571140323000,6.294322998046875,-0.0653742104768753,-0.09931087493896484,-0.09324952214956284
1776021571150383900,6.3043837890625,-0.05889767035841942,-0.0908428207039833,-0.1003580316901207
1776021571160445000,6.31444482421875,-0.047446344047784805,-0.07424546778202057,-0.08945238590240479
1776021571170505700,6.324505615234375,-0.030101442709565163,-0.062192533165216446,-0.07343479990959167
1776021571180566800,6.33456689453125,-0.005420065484941006,-0.05122137442231178,-0.04827272519469261
1776021571190627800,6.3446279296875,0.011741078458726406,-0.050034139305353165,-0.014964834786951542
1776021571200689000,6.35468896484375,0.015743808820843697,-0.05806969478726387,0.010528274811804295
1776021571210750000,6.36475,0.013968279585242271,-0.06517740339040756,0.022065088152885437
1776021571220811000,6.37481103515625,0.009053150191903114,-0.06866455078125,0.018502578139305115
1776021571230871800,6.384871826171875,0.005899967160075903,-0.06565997004508972,0.0105328019708395
1776021571240932900,6.394932861328125,0.00771890627220273,-0.08353164792060852,0.001216798322275281
1776021571250994000,6.404993896484375,0.018820559605956078,-0.1232801228761673,-0.011167965829372406
1776021571261056000,6.415055908203125,0.036909546703100204,-0.17591696977615356,-0.03702699393033981
1776021571271117000,6.425116943359375,0.04929511249065399,-0.21093833446502686,-0.06070223078131676
1776021571281177900,6.435177734375,0.0550166480243206,-0.2057478278875351,-0.07004832476377487
1776021571291239000,6.445239013671875,0.055640093982219696,-0.15975584089756012,-0.0531870536506176
1776021571301299700,6.4552998046875,0.048599228262901306,-0.07593338191509247,-0.01125052385032177
1776021571311360800,6.46536083984375,0.0408097468316555,0.030052972957491875,0.02690858021378517
1776021571321421800,6.475421875,0.034392595291137695,0.1256500631570816,0.04577361419796944
1776021571331483000,6.48548291015625,0.025103755295276642,0.17391720414161682,0.04555576667189598
1776021571341544000,6.4955439453125,0.01287665031850338,0.17931756377220154,0.038186799734830856
1776021571351605000,6.50560498046875,0.004875182639807463,0.14135925471782684,0.03079945780336857
1776021571361666000,6.515666015625,0.0010064085945487022,0.1077970340847969,0.020788636058568954
1776021571371727000,6.52572705078125,-0.0020596887916326523,0.07995794713497162,0.018930813297629356
1776021571381788000,6.535787841796875,-0.0014421016676351428,0.05551891773939133,0.027190076187253
1776021571391848700,6.5458486328125,0.001549959764815867,0.03290069103240967,0.04276903346180916
1776021571401909800,6.55590966796875,0.004869856406003237,0.014582671225070953,0.05024053528904915
1776021571411970800,6.565970703125,0.004441619850695133,0.008831041865050793,0.04484736546874046
1776021571422032000,6.576031982421875,0.001945705502294004,-0.010747719556093216,0.030728617683053017
1776021571432093000,6.586093017578125,-0.007046990562230349,-0.020675716921687126,0.023849673569202423
1776021571442155000,6.596155029296875,-0.016029832884669304,-0.037459757179021835,0.021750302985310555
1776021571452215800,6.6062158203125,-0.02064322680234909,-0.05855785310268402,0.022397717460989952
1776021571462276900,6.61627685546875,-0.024471521377563477,-0.07371017336845398,0.018220815807580948
1776021571472338000,6.626337890625,-0.026566896587610245,-0.07796430587768555,0.011595935560762882
1776021571482399000,6.63639892578125,-0.027222299948334694,-0.08638682216405869,0.0049196574836969376
1776021571492459800,6.646459716796875,-0.0314338244497776,-0.1057775616645813,-0.0005491438205353916
1776021571502520800,6.656520751953125,-0.02118438109755516,-0.15696564316749573,-0.00643712654709816
1776021571512582000,6.666581787109375,-0.004584631882607937,-0.2166830450296402,-0.011841746047139168
1776021571522643000,6.676642822265625,0.014422615058720112,-0.2715683877468109,-0.011433749459683895
1776021571532704000,6.6867041015625,0.03285941109061241,-0.2988783121109009,-0.00692049041390419
1776021571542764800,6.696764892578125,0.04038763791322708,-0.29812756180763245,-0.0006535397260449827
1776021571552825900,6.706825927734375,0.04050348326563835,-0.27293965220451355,0.015361378900706768
1776021571562887000,6.716886962890625,0.035053059458732605,-0.23845891654491425,0.017646105960011482
1776021571572948000,6.726947998046875,0.03302958980202675,-0.19786781072616577,0.014138721860945225
1776021571583008800,6.7370087890625,0.030243922024965286,-0.1629289984703064,0.007290403358638287
1776021571593071000,6.747071044921875,0.024988973513245583,-0.14998124539852142,0.005826197564601898
1776021571603131600,6.757131591796875,0.021673070266842842,-0.16433168947696686,0.005534847732633352
1776021571613192700,6.767192626953125,0.02412078157067299,-0.20914070308208466,0.0008293083519674838
1776021571623253800,6.777253662109375,0.022888271138072014,-0.2471272349357605,-0.009407616220414639
1776021571633314800,6.787314697265625,0.018210429698228836,-0.26020681858062744,-0.013758689165115356
1776021571643375900,6.7973759765625,0.013398096896708012,-0.2582368850708008,-0.008949286304414272
1776021571653437000,6.80743701171875,0.013546435162425041,-0.24218040704727173,0.004780107643455267
1776021571663498000,6.817498046875,0.012664129957556725,-0.2316657155752182,0.02363954856991768
1776021571673559000,6.82755908203125,0.010861702263355255,-0.21144327521324158,0.032649554312229156
1776021571683620000,6.8376201171875,0.00854342058300972,-0.20120207965373993,0.032282039523124695
1776021571693680600,6.8476806640625,0.00851465854793787,-0.18968205153942108,0.021217936649918556
1776021571703741700,6.85774169921875,0.012419384904205799,-0.18106938898563385,0.0033539850264787674
1776021571713802800,6.867802734375,0.016094014048576355,-0.16293086111545563,-0.001088433898985386
1776021571723863800,6.87786376953125,0.02672215737402439,-0.13381879031658173,0.004547880031168461
1776021571733924900,6.8879248046875,0.03521950542926788,-0.11287355422973633,0.014423946850001812
1776021571743986000,6.89798583984375,0.043713126331567764,-0.11938125640153885,0.018280204385519028
1776021571754047700,6.9080478515625,0.046475622802972794,-0.15650252997875214,0.015807991847395897
1776021571764108800,6.91810888671875,0.049728672951459885,-0.20237573981285095,0.012368785217404366
1776021571774169900,6.928169921875,0.04959844425320625,-0.22314999997615814,0.004712196998298168
1776021571784231000,6.93823095703125,0.05426936224102974,-0.21043527126312256,0.005053082015365362
1776021571794292000,6.9482919921875,0.05462675914168358,-0.17334595322608948,0.015176289714872837
1776021571804352800,6.958352783203125,0.04760134220123291,-0.13376206159591675,0.022592127323150635
1776021571814413800,6.968413818359375,0.03604881465435028,-0.10711819678544998,0.032637037336826324
1776021571824475000,6.978474853515625,0.028931783512234688,-0.09727009385824203,0.031804002821445465
1776021571834536000,6.988535888671875,0.020731909200549126,-0.10387473553419113,0.019216837361454964
1776021571844596700,6.9985966796875,0.0201066005975008,-0.11802490800619125,0.008480570279061794
1776021571854657800,7.00865771484375,0.02057158760726452,-0.1160736083984375,0.01318291388452053
1776021571864718800,7.01871875,0.024759940803050995,-0.10327472537755966,0.02111993171274662
1776021571874780000,7.02877978515625,0.036018189042806625,-0.0858059823513031,0.021795576438307762
1776021571884841000,7.038841064453125,0.04514963552355766,-0.07805272191762924,0.018870893865823746
1776021571894903000,7.048903076171875,0.05360996350646019,-0.08194040507078171,0.01810283772647381
1776021571904964000,7.058964111328125,0.05849207192659378,-0.08509571850299835,0.023966319859027863
1776021571915025000,7.06902490234375,0.06100449711084366,-0.07880053669214249,0.030524618923664093
1776021571925085700,7.079085693359375,0.06046094745397568,-0.0698949322104454,0.03446902707219124
1776021571935146800,7.089146728515625,0.05768460035324097,-0.053890127688646317,0.03846802935004234
1776021571945207800,7.099207763671875,0.04959924519062042,-0.03911145031452179,0.04120709002017975
1776021571955268900,7.109268798828125,0.03888215124607086,-0.03903475031256676,0.03891224414110184
1776021571965330000,7.119329833984375,0.036190226674079895,-0.05220887437462807,0.0340554378926754
1776021571975391000,7.129390869140625,0.038171619176864624,-0.06274407356977463,0.0348392054438591
1776021571985452000,7.1394521484375,0.04561994969844818,-0.0535774752497673,0.03837854787707329
1776021571995513000,7.14951318359375,0.04845701530575752,-0.016993630677461624,0.047637827694416046
1776021572005574000,7.159573974609375,0.04824662581086159,0.019172362983226776,0.050923902541399
1776021572015634700,7.169634765625,0.042395658791065216,0.047503601759672165,0.05319797247648239
1776021572025695700,7.17969580078125,0.03942969813942909,0.05841217562556267,0.04833344370126724
1776021572035757800,7.1897578125,0.03356381878256798,0.06179172918200493,0.03501550853252411
1776021572045819000,7.19981884765625,0.023918382823467255,0.07081504911184311,0.018689531832933426
1776021572055880000,7.2098798828125,0.008314921520650387,0.07805192470550537,0.006527940277010202
1776021572065940700,7.219940673828125,-0.012596751563251019,0.06757238507270813,0.0025300029665231705
1776021572076001800,7.230001708984375,-0.023005982860922813,0.049314018338918686,0.004006459377706051
1776021572086062800,7.240062744140625,-0.0301419235765934,0.04204172641038895,0.01095517911016941
1776021572096124000,7.2501240234375,-0.03315582126379013,0.053707435727119446,0.016079900786280632
1776021572106185000,7.26018505859375,-0.03827202320098877,0.06996496766805649,0.026939472183585167
1776021572116246000,7.27024609375,-0.03479180112481117,0.07296662032604218,0.02285951003432274
1776021572126306800,7.280306884765625,-0.029685191810131073,0.0612654872238636,0.007831291295588017
1776021572136367900,7.290367919921875,-0.024106135591864586,0.03662805259227753,-0.010457701049745083
1776021572146429000,7.300428955078125,-0.013538445346057415,0.017793377861380577,-0.020737769082188606
1776021572156490200,7.310490234375,-0.009892578236758709,-0.005169461946934462,-0.024297349154949188
1776021572166551300,7.32055126953125,-0.0027302727103233337,-0.021082382649183273,-0.014024206437170506
1776021572176613400,7.33061328125,0.004874916281551123,-0.03341254964470863,-0.008469118736684322
1776021572186674400,7.34067431640625,0.014702247455716133,-0.03129027783870697,0.0015238607302308083
1776021572196735500,7.350735595703125,0.025859560817480087,-0.025678731501102448,0.01350355800241232
1776021572206796300,7.36079638671875,0.031244738027453423,-0.026139192283153534,0.012777580879628658
1776021572216857300,7.370857421875,0.03267592191696167,-0.032577648758888245,0.004195011220872402
1776021572226918400,7.38091845703125,0.031379226595163345,-0.030010895803570747,-0.011492871679365635
1776021572236979500,7.3909794921875,0.029764287173748016,-0.02346990630030632,-0.014100106433033943
1776021572247040500,7.40104052734375,0.027099527418613434,-0.015930762514472008,-0.0046416232362389565
1776021572257101600,7.4111015625,0.026428943499922752,-0.02033350057899952,0.005453088786453009
1776021572267162400,7.421162353515625,0.032638903707265854,-0.033608026802539825,0.004017910920083523
1776021572277223400,7.431223388671875,0.03642032667994499,-0.053294114768505096,0.0032975259236991405
1776021572287284500,7.441284423828125,0.03891624137759209,-0.052559081465005875,0.0010687265312299132
1776021572297345300,7.45134521484375,0.033070601522922516,-0.037948980927467346,0.008507734164595604
1776021572307407400,7.461407470703125,0.03080185502767563,-0.01661199890077114,0.01338957529515028
1776021572317468400,7.471468505859375,0.03093794174492359,0.00774820102378726,0.015088405460119247
1776021572327529500,7.481529541015625,0.024401213973760605,0.027647873386740685,0.021518342196941376
1776021572337590500,7.491590576171875,0.01817074790596962,0.048223454505205154,0.037093039602041245
1776021572347651600,7.501651611328125,0.00430286955088377,0.0759887769818306,0.04960031062364578
1776021572357712400,7.51171240234375,-0.007676295470446348,0.09858249872922897,0.04405028373003006
1776021572367773400,7.5217734375,-0.014297712594270706,0.10289735347032547,0.03760330006480217
1776021572377834200,7.531834228515625,-0.022341791540384293,0.09387030452489853,0.03580673411488533
1776021572387895300,7.541895263671875,-0.02959357760846615,0.087970070540905,0.0386429987847805
1776021572397956400,7.551956298828125,-0.0358584001660347,0.08708669990301132,0.04068005084991455
1776021572408017400,7.562017333984375,-0.04268035292625427,0.08729176223278046,0.03949041664600372
1776021572418078500,7.572078369140625,-0.04337543621659279,0.07558104395866394,0.03819825127720833
1776021572428139500,7.582139404296875,-0.04236370325088501,0.06614173203706741,0.04200870171189308
1776021572438201300,7.592201416015625,-0.04802798107266426,0.06676784157752991,0.042884618043899536
1776021572448262400,7.602262451171875,-0.0498405285179615,0.05908835306763649,0.04698029160499573
1776021572458323500,7.612323486328125,-0.05197717994451523,0.012439092621207237,0.045333925634622574
1776021572468384500,7.622384521484375,-0.051299408078193665,-0.06030435115098953,0.04228007793426514
1776021572478445600,7.632445556640625,-0.03833380714058876,-0.13519243896007538,0.031920649111270905
1776021572488506400,7.64250634765625,-0.018748654052615166,-0.2042037397623062,0.021875737234950066
1776021572498567400,7.6525673828125,0.005902896635234356,-0.26918646693229675,0.00833809096366167
1776021572508628500,7.66262841796875,0.024955151602625847,-0.3174176514148712,-0.012208729051053524
1776021572518689300,7.672689208984375,0.04524284601211548,-0.3513686954975128,-0.026619359850883484
1776021572528750300,7.682750244140625,0.04807272180914879,-0.33295318484306335,-0.04723142832517624
1776021572538811400,7.692811279296875,0.0435677170753479,-0.2669225037097931,-0.061523281037807465
1776021572548872400,7.70287255859375,0.03599501773715019,-0.2023688107728958,-0.06774415820837021
1776021572558933500,7.71293359375,0.030764570459723473,-0.15363243222236633,-0.06604426354169846
1776021572568995600,7.72299560546875,0.03725922107696533,-0.13812272250652313,-0.06895217299461365
1776021572579056400,7.733056396484375,0.03254516050219536,-0.1355370581150055,-0.07174502313137054
1776021572589117400,7.743117431640625,0.022219551727175713,-0.1443001925945282,-0.08008711040019989
1776021572599178200,7.75317822265625,0.007683752104640007,-0.14084899425506592,-0.08354070037603378
1776021572609239300,7.7632392578125,-0.008956477046012878,-0.13822604715824127,-0.07476824522018433
1776021572619300400,7.77330029296875,-0.016049806028604507,-0.1519804745912552,-0.0567607507109642
1776021572629361400,7.783361328125,-0.018125208094716072,-0.16751602292060852,-0.03645814210176468
1776021572639422500,7.79342236328125,-0.015719307586550713,-0.16943669319152832,-0.023439545184373856
1776021572649483500,7.8034833984375,-0.013590111397206783,-0.1432594209909439,-0.008859803900122643
1776021572659544600,7.813544677734375,-0.009355951100587845,-0.1090090423822403,-0.006998254451900721
1776021572669605400,7.82360546875,-0.01967463456094265,-0.08817300200462341,-0.014606373384594917
1776021572679666400,7.83366650390625,-0.023820910602808,-0.08669121563434601,-0.02021072991192341
1776021572689728500,7.843728515625,-0.03363226354122162,-0.08263282477855682,-0.029650570824742317
1776021572699789600,7.85378955078125,-0.030284669250249863,-0.08113932609558105,-0.02924523688852787
1776021572709850400,7.863850341796875,-0.02311384119093418,-0.07083316147327423,-0.018876485526561737
1776021572719911400,7.873911376953125,-0.010123474523425102,-0.05602891370654106,0.001788312685675919
1776021572729972500,7.883972412109375,0.002148372121155262,-0.049242645502090454,0.013264406472444534
1776021572740033300,7.894033203125,0.008223840966820717,-0.08412259817123413,0.00660650385543704
1776021572750094300,7.90409423828125,0.012996491976082325,-0.14538516104221344,-0.01305348426103592
1776021572760155400,7.9141552734375,0.018876219168305397,-0.19171777367591858,-0.03578675910830498
1776021572770216400,7.924216552734375,0.02238013967871666,-0.20745785534381866,-0.045338187366724014
1776021572780277500,7.934277587890625,0.026100575923919678,-0.17811700701713562,-0.03866963088512421
1776021572790338600,7.944338623046875,0.033678602427244186,-0.1349511593580246,-0.028051340952515602
1776021572800399400,7.9543994140625,0.04186728969216347,-0.09644611179828644,-0.011564244516193867
1776021572810461400,7.96446142578125,0.043958134949207306,-0.08161363750696182,0.00028043086058460176
1776021572820522200,7.974522216796875,0.039017971605062485,-0.08505657315254211,-0.004865328781306744
1776021572830583300,7.984583251953125,0.03130066394805908,-0.09658779203891754,-0.019664781168103218
1776021572840644400,7.994644287109375,0.03181971609592438,-0.09671429544687271,-0.031269241124391556
1776021572850705400,8.004705322265625,0.028079571202397346,-0.09404394030570984,-0.03756069019436836
1776021572860766500,8.014766357421875,0.029814621433615685,-0.09879262000322342,-0.028239626437425613
1776021572870827500,8.02482763671875,0.02881806530058384,-0.11826858669519424,-0.018676748499274254
1776021572880888600,8.034888671875,0.029813822358846664,-0.14654630422592163,0.0025800704024732113
1776021572890949400,8.044949462890624,0.03190653398633003,-0.1825738102197647,0.0010016148444265127
1776021572901010400,8.055010498046874,0.03742913156747818,-0.21958161890506744,-0.020677048712968826
1776021572911071200,8.0650712890625,0.05121258646249771,-0.25737881660461426,-0.04466387256979942
1776021572921132300,8.07513232421875,0.06310466676950455,-0.26660293340682983,-0.0537460520863533
1776021572931194400,8.0851943359375,0.08163414150476456,-0.2466188371181488,-0.0452020987868309
1776021572941255400,8.09525537109375,0.09993218630552292,-0.19579027593135834,-0.02918451651930809
1776021572951316500,8.10531640625,0.10477355122566223,-0.13962793350219727,-0.01643063873052597
1776021572961377300,8.115377197265625,0.11003275960683823,-0.09901819378137589,-0.011936288326978683
1776021572971438300,8.125438232421875,0.097626693546772,-0.06996789574623108,-0.00036964676110073924
1776021572981499400,8.13549951171875,0.0804935097694397,-0.06467299908399582,0.00606401776894927
1776021572991560400,8.145560546875,0.06362371891736984,-0.0624772273004055,0.008872853592038155
1776021573001621500,8.15562158203125,0.05258757621049881,-0.05705556273460388,0.01360209472477436
1776021573011682600,8.1656826171875,0.04580743610858917,-0.023443540558218956,0.0224432572722435
1776021573021743600,8.17574365234375,0.03231532871723175,0.026969298720359802,0.03735083341598511
1776021573031804400,8.185804443359375,0.006734068971127272,0.08291245996952057,0.0461677610874176
1776021573041865500,8.195865478515625,-0.018319617956876755,0.12649056315422058,0.046715039759874344
1776021573051927300,8.20592724609375,-0.03370310366153717,0.16159501671791077,0.04175996407866478
1776021573061988400,8.21598828125,-0.048955824226140976,0.20261143147945404,0.046245791018009186
1776021573072049400,8.22604931640625,-0.05982578173279762,0.25374677777290344,0.03883128613233566
1776021573082110500,8.2361103515625,-0.06173739954829216,0.29747775197029114,0.027486484497785568
1776021573092171500,8.246171630859376,-0.05895519629120827,0.32159215211868286,0.018375279381871223
1776021573102232600,8.256232666015626,-0.04824582487344742,0.3065628707408905,0.014415424317121506
1776021573112293400,8.26629345703125,-0.03988376632332802,0.2782318890094757,0.0076086511835455894
1776021573122354400,8.2763544921875,-0.024058198556303978,0.26283374428749084,0.002793922321870923
1776021573132415500,8.28641552734375,-0.013547500595450401,0.2582608461380005,0.003150519449263811
1776021573142476300,8.296476318359375,-0.005643504671752453,0.2731231451034546,0.01667751371860504
1776021573152537000,8.306537109375,-0.010273410007357597,0.29879656434059143,0.04330459609627724
1776021573162599200,8.31659912109375,-0.018850918859243393,0.32295462489128113,0.06977908313274384
1776021573172660200,8.32666015625,-0.02888038381934166,0.3244774043560028,0.09485433995723724
1776021573182721000,8.336720947265626,-0.0334160141646862,0.3167175054550171,0.11838816106319427
1776021573192781800,8.34678173828125,-0.02748781628906727,0.313547283411026,0.13217534124851227
1776021573202843000,8.3568427734375,-0.004043211229145527,0.3227604627609253,0.1434202790260315
1776021573212904000,8.366904052734375,0.04188539832830429,0.31878089904785156,0.1617441624403
1776021573222965000,8.376965087890625,0.10485956817865372,0.2940009832382202,0.16022908687591553
1776021573233026000,8.387026123046875,0.14548103511333466,0.25437554717063904,0.13070182502269745
1776021573243087000,8.397087158203124,0.13434475660324097,0.22301709651947021,0.10284887999296188
1776021573253148200,8.407148193359374,0.07964742183685303,0.22695033252239227,0.09085667133331299
1776021573263209200,8.417209228515626,0.012315521948039532,0.25350576639175415,0.09868635982275009
1776021573273271000,8.42727099609375,-0.029576534405350685,0.2956311106681824,0.14188842475414276
1776021573283332000,8.43733203125,-0.04532886669039726,0.3765486180782318,0.20194776356220245
1776021573293393200,8.44739306640625,-0.053225938230752945,0.5264821648597717,0.2591783106327057
1776021573303454200,8.4574541015625,-0.04380660131573677,0.6852097511291504,0.32065898180007935
1776021573313515000,8.467514892578125,-0.002977147698402405,0.8167014718055725,0.3628770112991333
1776021573323576000,8.477576171875,0.09096000343561172,0.8669667840003967,0.33871814608573914
1776021573333637000,8.48763720703125,0.22807177901268005,0.8166793584823608,0.25591540336608887
1776021573343698000,8.497697998046876,0.3917991816997528,0.6878708004951477,0.18980854749679565
1776021573353759000,8.507759033203126,0.5408222079277039,0.5107138752937317,0.19486190378665924
1776021573363820000,8.517820068359375,0.6205947995185852,0.30979248881340027,0.3080443739891052
1776021573373881000,8.527881103515625,0.6283528804779053,0.10387260466814041,0.5289692878723145
1776021573383943200,8.537943115234375,0.6057184338569641,-0.07026111334562302,0.7768571376800537
1776021573394004200,8.548004150390625,0.5994322896003723,-0.22556361556053162,0.9304911494255066
1776021573404065000,8.55806494140625,0.6053088307380676,-0.3419134020805359,0.9749513268470764
1776021573414126000,8.5681259765625,0.5981246829032898,-0.40869560837745667,1.001129150390625
1776021573424187000,8.578186767578124,0.5765640139579773,-0.37079671025276184,1.0122147798538208
1776021573434248000,8.588248046875,0.5736390352249146,-0.20957931876182556,0.9932680130004883
1776021573444309000,8.59830908203125,0.6169420480728149,0.017003484070301056,0.9331594109535217
1776021573454370000,8.6083701171875,0.7264019250869751,0.17702297866344452,0.8514608144760132
1776021573464431000,8.61843115234375,0.8640729784965515,0.2191707044839859,0.778709888458252
1776021573474492200,8.6284921875,0.9799705743789673,0.16234976053237915,0.7358423471450806
1776021573484554000,8.638553955078125,1.0285588502883911,0.07090666145086288,0.6873126029968262
1776021573494615000,8.648614990234375,0.9588301181793213,0.023672573268413544,0.5771592259407043
1776021573504676000,8.658676025390625,0.8189012408256531,0.014964834786951542,0.43950679898262024
1776021573514737200,8.668737060546874,0.6964030265808105,0.023862721398472786,0.38087570667266846
1776021573524798200,8.678798095703126,0.622761070728302,0.047684166580438614,0.3692656457424164
1776021573534859000,8.68885888671875,0.6115696430206299,0.06160131096839905,0.3588809370994568
1776021573544920000,8.698920166015625,0.6152615547180176,0.11208206415176392,0.34125345945358276
1776021573554981000,8.708981201171875,0.6343700289726257,0.18390965461730957,0.332497775554657
1776021573565042000,8.7190419921875,0.6781843304634094,0.28168201446533203,0.32937443256378174
1776021573575103000,8.72910302734375,0.7238754034042358,0.41695141792297363,0.3316652774810791
1776021573585164000,8.7391640625,0.7680678963661194,0.5292462706565857,0.32945486903190613
1776021573595226000,8.74922607421875,0.8080406188964844,0.5553612112998962,0.3119509816169739
1776021573605287200,8.759287109375,0.8448838591575623,0.5008450150489807,0.300889790058136
1776021573615348200,8.76934814453125,0.8616311550140381,0.4183972477912903,0.3261312246322632
1776021573625409000,8.779408935546876,0.8482985496520996,0.3474477231502533,0.38968172669410706
1776021573635470000,8.789469970703125,0.8116098046302795,0.2992812395095825,0.48094797134399414
1776021573645531000,8.79953076171875,0.7642800807952881,0.2553367018699646,0.5822862982749939
1776021573655592000,8.809592041015625,0.7410277724266052,0.1850803792476654,0.6550118923187256
1776021573665653000,8.819653076171875,0.7552053928375244,0.1319793313741684,0.6568937301635742
1776021573675714000,8.829714111328125,0.794326663017273,0.21537889540195465,0.6023010611534119
1776021573685775000,8.839775146484374,0.8402637839317322,0.446442186832428,0.5290271043777466
1776021573695837000,8.8498369140625,0.8717442154884338,0.6934554576873779,0.4706745743751526
1776021573705898000,8.85989794921875,0.8766068816184998,0.8696235418319702,0.4984787702560425
1776021573715959000,8.869958984375,0.8803004622459412,0.9232500195503235,0.585343599319458
1776021573726020000,8.88002001953125,0.8871117234230042,0.8881114721298218,0.6812890768051147
1776021573736081200,8.8900810546875,0.9127302765846252,0.820029079914093,0.7232269048690796
1776021573746142200,8.90014208984375,0.9513921737670898,0.7654987573623657,0.6777084469795227
1776021573756203000,8.910203125,0.9996928572654724,0.769370973110199,0.5653555393218994
1776021573766264000,8.92026416015625,1.0563924312591553,0.8224866986274719,0.45946505665779114
1776021573776324900,8.930324951171874,1.1086376905441284,0.8768263459205627,0.44968754053115845
1776021573786386000,8.940385986328126,1.1519508361816406,0.8752667903900146,0.56037437915802
1776021573796448000,8.950447998046876,1.1570484638214111,0.8192144632339478,0.7220268845558167
1776021573806509000,8.960509033203126,1.094011902809143,0.7480358481407166,0.8447245955467224
1776021573816570000,8.970570068359375,0.979773223400116,0.7263883948326111,0.8965198993682861
1776021573826631200,8.980631103515625,0.8669958114624023,0.8143922686576843,0.8527135252952576
1776021573836692000,8.99069189453125,0.7876107096672058,1.0472159385681152,0.75822913646698
1776021573846753000,9.0007529296875,0.7669597864151001,1.3205832242965698,0.6981167793273926
1776021573856814000,9.01081396484375,0.7784824371337891,1.557692527770996,0.729922890663147
1776021573866875000,9.020875,0.8149209022521973,1.7113031148910522,0.8133243322372437
1776021573876936000,9.03093603515625,0.8841215372085571,1.7643096446990967,0.8739634156227112
1776021573886997000,9.0409970703125,0.9720271825790405,1.75602126121521,0.8614245057106018
1776021573897058000,9.05105810546875,1.0650361776351929,1.7491176128387451,0.7959698438644409
1776021573907119900,9.061119873046875,1.1575560569763184,1.770342469215393,0.6966573596000671
1776021573917181000,9.071180908203125,1.2701525688171387,0.9675320386886597,0.3638218939304352
1776021573927242000,9.081241943359375,1.4499428272247314,0.6237559914588928,0.1488720327615738
1776021573937303000,9.091302978515625,1.670145034790039,0.3687830865383148,0.12646366655826569
1776021573947364000,9.101364013671875,1.8644524812698364,0.015139271505177021,0.1208696961402893
1776021573957425200,9.111425048828124,2.0101466178894043,-0.4712088108062744,0.10694535821676254
1776021573967486200,9.121486328125,2.0696017742156982,-1.0711414813995361,0.06103432551026344
1776021573977547000,9.131547119140626,2.005390167236328,-1.5370361804962158,-0.07309285551309586
1776021573987608000,9.141608154296875,1.8951562643051147,-1.610962152481079,-0.2309703677892685
1776021573997670000,9.151669921875,1.8199118375778198,-1.4631494283676147,-0.3015659749507904
1776021574007731000,9.16173095703125,1.847752571105957,-1.2546138763427734,-0.20926746726036072
1776021574017792000,9.1717919921875,1.8941477537155151,-1.0358959436416626,-0.02725079655647278
1776021574027853000,9.18185302734375,1.856123685836792,-0.7639269828796387,0.13729873299598694
1776021574037914000,9.1919140625,1.7117973566055298,-0.4624858796596527,0.24790434539318085
1776021574047975200,9.20197509765625,1.4235320091247559,-0.15358023345470428,0.2934523820877075
1776021574058036000,9.212035888671876,1.0180617570877075,0.19914186000823975,0.2767903208732605
1776021574068097000,9.222096923828126,0.5838168263435364,0.5814189314842224,0.2000846266746521
1776021574078158000,9.232157958984375,0.21571896970272064,0.9817277193069458,0.07428115606307983
1776021574088219000,9.242218994140625,1.2282826900482178,1.556593894958496,0.3998723030090332
1776021574098281200,9.25228125,1.3698099851608276,1.6169531345367432,0.7644100785255432
1776021574108342000,9.262342041015625,1.2100656032562256,1.727260708808899,0.9203181862831116
1776021574118403000,9.272403076171875,1.007347822189331,1.7578763961791992,0.8761006593704224
1776021574128464000,9.2824638671875,0.8551234602928162,1.785146713256836,0.7185218930244446
1776021574138525000,9.29252490234375,0.7988892197608948,1.808013677597046,0.4850676357746124
1776021574148586000,9.3025859375,0.7664210200309753,1.768399715423584,0.2374463826417923
1776021574158647300,9.312647216796876,0.7753492593765259,1.6992112398147583,0.0725753977894783
1776021574168708400,9.322708251953125,0.7818588018417358,1.4820222854614258,0.030459638684988022
1776021574178769400,9.332769287109375,0.756437361240387,1.1965806484222412,0.06665599346160889
1776021574188830200,9.342830322265625,0.6970994472503662,0.9064803719520569,0.16527444124221802
1776021574198892300,9.352892333984375,0.5844078063964844,0.6252817511558533,0.2384575754404068
1776021574208953000,9.362953125,0.4207608103752136,0.3438796103000641,0.20491160452365875
1776021574219014100,9.37301416015625,0.23761415481567383,0.1459931582212448,0.04060974344611168
1776021574229075200,9.3830751953125,0.1251821517944336,0.1109696626663208,-0.20261941850185394
1776021574239136300,9.39313623046875,0.26929938793182373,0.37041348218917847,-0.3591424524784088
1776021574249197300,9.403197265625,0.37860962748527527,0.7483258843421936,-0.3596028983592987
1776021574259258400,9.41325830078125,0.4149836003780365,0.960196852684021,-0.21933235228061676
1776021574269319200,9.423319091796875,0.38509896397590637,0.8305086493492126,-0.00953997578471899
1776021574279380200,9.433380126953125,0.3211066424846649,0.39548608660697937,0.17455849051475525
1776021574289442300,9.4434423828125,0.28405648469924927,-0.1349807232618332,0.2335032969713211
1776021574299503400,9.45350341796875,0.2679685950279236,-0.424953430891037,0.21059638261795044
1776021574309564400,9.463564453125,0.25693273544311523,-0.42562559247016907,0.14719237387180328
1776021574319625200,9.473625244140624,0.22049589455127716,-0.24485741555690765,0.06595158576965332
1776021574329686300,9.483686279296874,0.16243524849414825,-0.021750036627054214,-0.017613347619771957
1776021574339747000,9.4937470703125,0.06065748631954193,0.18885380029678345,-0.10509978979825974
1776021574349808000,9.50380810546875,-0.06365939974784851,0.3118063509464264,-0.17138800024986267
1776021574359869200,9.513869140625,-0.18564549088478088,0.2814180850982666,-0.18807242810726166
1776021574369930200,9.52393017578125,-0.2745588421821594,0.061645522713661194,-0.13386085629463196
1776021574379991300,9.5339912109375,-0.31086012721061707,-0.2374008297920227,-0.01894386298954487
1776021574390053400,9.544053466796875,-0.2784108519554138,-0.5288486480712891,0.12061270326375961
1776021574400114200,9.5541142578125,-0.18878643214702606,-0.7676007747650146,0.2776893973350525
1776021574410175200,9.56417529296875,-0.09993138909339905,-0.8676027655601501,0.40364280343055725
1776021574420236300,9.574236328125,-0.049905773252248764,-0.7568533420562744,0.4578527808189392
1776021574430297000,9.584297119140626,-0.06759075820446014,-0.39922648668289185,0.4018382430076599
1776021574440358100,9.594358154296875,-0.16484087705612183,0.16799965500831604,0.20471319556236267
1776021574450419200,9.604419189453125,-0.284155011177063,0.7409193515777588,-0.028079571202397346
1776021574460480300,9.614480224609375,-0.39743390679359436,1.1122119426727295,-0.18410645425319672
1776021574470541300,9.624541259765625,-0.48503512144088745,1.1147829294204712,-0.2201067954301834
1776021574480603100,9.63460302734375,-0.48346012830734253,0.8970628976821899,-0.18957579135894775
1776021574490664200,9.644664306640625,-0.3833655118942261,0.6285611391067505,-0.18711289763450623
1776021574500725200,9.654725341796874,-0.24199825525283813,0.43459033966064453,-0.22892612218856812
1776021574510786300,9.664786376953124,-0.10744044184684753,0.3681868016719818,-0.3231911063194275
1776021574520847400,9.674847412109376,0.011711250990629196,0.46448272466659546,-0.419124037027359
1776021574530908400,9.684908447265625,0.09525913745164871,0.7173703908920288,-0.49139103293418884
1776021574540969200,9.69496923828125,0.06782431900501251,0.8290809392929077,-0.5351736545562744
1776021574551030300,9.7050302734375,-0.05221660062670708,0.515404999256134,-0.5455543994903564
1776021574561091000,9.715091064453125,-0.1790139526128769,-0.06902220845222473,-0.48562636971473694
1776021574571153200,9.725153076171875,-0.2437378317117691,-0.5276725888252258,-0.37278956174850464
1776021574581214200,9.735214111328125,-0.29623937606811523,-0.8242195844650269,-0.3219279646873474
1776021574591275300,9.745275146484374,-0.31435447931289673,-0.8410153388977051,-0.38047224283218384
1776021574601336300,9.75533642578125,-0.34201619029045105,-0.5385753512382507,-0.4964526295661926
1776021574611397400,9.7653974609375,-0.43552032113075256,-0.12680508196353912,-0.5461671948432922
1776021574621458200,9.775458251953125,-0.5580435395240784,0.07600288838148117,-0.5749357342720032
1776021574631519200,9.785519287109375,-0.6360294222831726,0.058935489505529404,-0.6104527115821838
1776021574641580300,9.795580322265625,-0.6643787622451782,-0.02750938944518566,-0.6029993295669556
1776021574651641300,9.805641357421875,-0.6542785167694092,-0.11799001693725586,-0.5557862520217896
1776021574661703400,9.815703369140625,-0.6289390325546265,-0.3600119650363922,-0.49195829033851624
1776021574671764200,9.82576416015625,-0.5953978896141052,-0.5771075487136841,-0.3555722236633301
1776021574681825300,9.8358251953125,-0.6045511364936829,-0.6567531228065491,-0.24071034789085388
1776021574691886000,9.845885986328126,-0.6209232211112976,-0.6216931343078613,-0.2509683072566986
1776021574701947100,9.855947021484376,-0.6402159333229065,-0.5287450551986694,-0.3249930143356323
1776021574712008200,9.86600830078125,-0.6780288219451904,-0.4263446629047394,-0.3664320409297943
1776021574722069200,9.8760693359375,-0.7180055379867554,-0.3665337860584259,-0.3727293610572815
1776021574732130300,9.88613037109375,-0.7452382445335388,-0.3399530351161957,-0.3470136225223541
1776021574742191400,9.89619140625,-0.7618228197097778,-0.3097999393939972,-0.3054696321487427
1776021574752253200,9.906253173828125,-0.7708082795143127,-0.29409608244895935,-0.27273619174957275
1776021574762314200,9.916314208984375,-0.7820169925689697,-0.36826109886169434,-0.2605450451374054
1776021574772375300,9.926375244140624,-0.8024338483810425,-0.5085865259170532,-0.2777272164821625
1776021574782436400,9.936436279296874,-0.802909791469574,-0.594444990158081,-0.3206121027469635
1776021574792497200,9.9464970703125,-0.7761428952217102,-0.5621938109397888,-0.3403692841529846
1776021574802558200,9.95655810546875,-0.7376461029052734,-0.4521578848361969,-0.3299350440502167
1776021574812619300,9.966619384765625,-0.7150284051895142,-0.37541863322257996,-0.27085280418395996
1776021574822680300,9.976680419921875,-0.7156047224998474,-0.3595871925354004,-0.23108407855033875
1776021574832741400,9.986741455078125,-0.720056414604187,-0.3485875427722931,-0.30645686388015747
1776021574842803200,9.99680322265625,-0.7153724431991577,-0.29188910126686096,-0.44980737566947937
1776021574852864300,10.0068642578125,-0.7323679327964783,-0.197404682636261,-0.5698909163475037
1776021574862925300,10.01692529296875,-0.7490031123161316,-0.12666793167591095,-0.6096614599227905
1776021574872986400,10.026986328125,-0.7608741521835327,-0.09277255088090897,-0.5310958623886108
1776021574883047400,10.03704736328125,-0.7664052844047546,-0.11964357644319534,-0.38067731261253357
1776021574893108500,10.0471083984375,-0.7626691460609436,-0.21621271967887878,-0.29779306054115295
1776021574903169300,10.057169189453125,-0.7452067732810974,-0.3062387704849243,-0.3418199121952057
1776021574913230000,10.06722998046875,-0.7362769246101379,-0.28974711894989014,-0.4776459336280823
1776021574923292200,10.077292236328125,-0.7469756603240967,-0.18923650681972504,-0.5843028426170349
1776021574933353200,10.087353271484375,-0.7401651740074158,-0.11121067404747009,-0.5880605578422546
1776021574943414300,10.097414306640625,-0.7031576037406921,-0.08839564025402069,-0.5133938193321228
1776021574953475300,10.107475341796874,-0.6725000739097595,-0.053172674030065536,-0.3791779577732086
1776021574963536400,10.117536376953124,-0.693966269493103,-0.049845851957798004,-0.26441994309425354
1776021574973597200,10.12759716796875,-0.7757167816162109,-0.016558470204472542,-0.28035417199134827
1776021574983658200,10.137658203125,-0.8676770329475403,0.016084959730505943,-0.38307201862335205
1776021574993719300,10.14771923828125,-0.9394396543502808,0.0032780850306153297,-0.46485424041748047
1776021575003780400,10.1577802734375,-0.9777356386184692,-0.004427238833159208,-0.503821611404419
1776021575013842400,10.167842529296875,-0.9915212392807007,-0.022054435685276985,-0.4923388659954071
1776021575023903500,10.177903564453125,-0.9123843312263489,-0.03581126034259796,-0.4961540997028351
1776021575033964000,10.187964111328125,-0.7489578723907471,0.0247799139469862,-0.5147472023963928
1776021575044025000,10.198025146484374,-0.6119792461395264,0.08112494647502899,-0.4499535858631134
1776021575054086100,10.208086181640626,-0.552463710308075,0.051723647862672806,-0.3356344699859619
1776021575064147200,10.218147216796876,-0.5426139831542969,-0.041674476116895676,-0.28231877088546753
1776021575074208300,10.228208251953125,-0.5513010025024414,-0.1674065738916397,-0.3282463252544403
1776021575084269300,10.238269287109375,-0.5478090643882751,-0.27581319212913513,-0.38615143299102783
1776021575094331400,10.248331298828125,-0.5295112729072571,-0.3175497353076935,-0.40715843439102173
1776021575104392200,10.25839208984375,-0.5087404847145081,-0.28940731287002563,-0.4179335832595825
1776021575114453200,10.268453369140625,-0.46433785557746887,-0.1913667619228363,-0.4129880964756012
1776021575124514300,10.278514404296875,-0.38015133142471313,-0.14993010461330414,-0.3093445301055908
1776021575134575400,10.288575439453124,-0.28928107023239136,-0.17961370944976807,-0.15320633351802826
1776021575144636200,10.29863623046875,-0.2275838851928711,-0.23933668434619904,-0.07408355176448822
1776021575154696400,10.308696533203126,-0.21351706981658936,-0.26921361684799194,-0.12357786297798157
1776021575164757500,10.318757568359375,-0.26784396171569824,-0.22652821242809296,-0.25108736753463745
1776021575174818600,10.328818603515625,-0.323081910610199,-0.08297504484653473,-0.34495311975479126
1776021575184880400,10.33888037109375,-0.31980037689208984,0.09459308534860611,-0.3214821517467499
1776021575194941400,10.34894140625,-0.260012149810791,0.2809664309024811,-0.17858731746673584
1776021575205002200,10.359002197265625,-0.18808148801326752,0.3509220778942108,-0.02231835573911667
1776021575215063300,10.369063232421874,-0.1427462249994278,0.25776177644729614,0.024413198232650757
1776021575225124400,10.379124267578124,-0.1639082431793213,0.07691927999258041,-0.056956760585308075
1776021575235185400,10.389185302734376,-0.25836098194122314,-0.06127241253852844,-0.1880282312631607
1776021575245246500,10.39924658203125,-0.3303006887435913,-0.04689826816320419,-0.3108047544956207
1776021575255307500,10.4093076171875,-0.3336986005306244,0.12928715348243713,-0.36332041025161743
1776021575265369300,10.419369384765625,-0.2619285583496094,0.32138362526893616,-0.2567700147628784
1776021575275430400,10.429430419921875,-0.14891491830348969,0.3874491751194,-0.05793653801083565
1776021575285491500,10.439491455078125,-0.0704837515950203,0.3212603032588959,0.10446302592754364
1776021575295552500,10.449552490234375,-0.06710153818130493,0.16547657549381256,0.24174071848392487
1776021575305613600,10.459613525390624,-0.13320332765579224,0.05765131115913391,0.2694178819656372
1776021575315674400,10.46967431640625,-0.2355872243642807,0.08837220817804337,0.1747869849205017
1776021575325735400,10.4797353515625,-0.34464794397354126,0.23974654078483582,0.01302418950945139
1776021575335796500,10.48979638671875,-0.41876929998397827,0.4429726302623749,-0.1704564243555069
1776021575345858300,10.4998583984375,-0.43517783284187317,0.6574463248252869,-0.31052538752555847
1776021575355919400,10.50991943359375,-0.36125433444976807,0.8361279368400574,-0.4063776135444641
1776021575365980400,10.51998046875,-0.24774588644504547,0.9278240203857422,-0.4576088488101959
1776021575376041500,10.53004150390625,-0.15796566009521484,0.9094322323799133,-0.437956839799881
1776021575386102500,10.5401025390625,-0.12465085089206696,0.7920443415641785,-0.31806105375289917
1776021575396163600,10.55016357421875,-0.11736950278282166,0.6793047189712524,-0.17050009965896606
1776021575406224400,10.560224365234374,-0.1376316249370575,0.5917429327964783,-0.08363071084022522
1776021575416285400,10.570285400390626,-0.21065391600131989,0.5185041427612305,-0.059421781450510025
1776021575426346200,10.58034619140625,-0.29685458540916443,0.3210323452949524,-0.017558220773935318
1776021575436408600,10.59040869140625,-0.3472042977809906,-0.06570657342672348,0.009851565584540367
1776021575446469400,10.600469482421875,-0.3431379199028015,-0.45898357033729553,0.0009645969257690012
1776021575456530400,10.610530517578125,-0.298835426568985,-0.6528952121734619,-0.03278431296348572
1776021575466591200,10.62059130859375,-0.22750931978225708,-0.6411435008049011,-0.0401759147644043
1776021575476652300,10.63065234375,-0.19422486424446106,-0.4230223596096039,-0.03148442134261131
1776021575486713300,10.64071337890625,-0.2056674063205719,-0.10026002675294876,-0.04370007663965225
1776021575496774400,10.6507744140625,-0.23532676696777344,0.19230179488658905,-0.09562745690345764
1776021575506835500,10.66083544921875,-0.29263025522232056,0.29576054215431213,-0.16601747274398804
1776021575516897500,10.6708974609375,-0.34792548418045044,0.2030487209558487,-0.25620487332344055
1776021575526958600,10.68095849609375,-0.35705479979515076,0.021198496222496033,-0.35475727915763855
1776021575537019400,10.691019287109375,-0.31642216444015503,-0.10077881067991257,-0.45586472749710083
1776021575547080400,10.70108056640625,-0.24194152653217316,-0.05799592658877373,-0.4936898648738861
1776021575557141200,10.711141357421875,-0.15854570269584656,0.11789388209581375,-0.3717602491378784
1776021575567202300,10.721202392578125,-0.09080713242292404,0.3371295630931854,-0.1426868438720703
1776021575577263400,10.731263427734374,-0.09204177558422089,0.5555585622787476,0.06340160965919495
1776021575587324400,10.741324462890624,-0.1440916657447815,0.7060931921005249,0.06730899959802628
1776021575597386200,10.75138623046875,-0.2134595513343811,0.5918132662773132,-0.07065712660551071
1776021575607447300,10.761447265625,-0.289824903011322,0.20438669621944427,-0.21143154799938202
1776021575617508400,10.77150830078125,-0.3391367793083191,-0.24597488343715668,-0.29975980520248413
1776021575627569400,10.7815693359375,-0.3007766008377075,-0.561717689037323,-0.4048660099506378
1776021575637630500,10.79163037109375,-0.21991531550884247,-0.6629785299301147,-0.4878429174423218
1776021575647691500,10.80169140625,-0.16140539944171906,-0.5837329626083374,-0.4625527262687683
1776021575657752600,10.811752685546875,-0.1266988217830658,-0.3454870879650116,-0.3241085708141327
1776021575667813400,10.8218134765625,-0.10378951579332352,-0.07146485894918442,-0.15224812924861908
1776021575677875500,10.83187548828125,-0.1302347034215927,0.14169162511825562,-0.10890171676874161
1776021575687936300,10.841936279296876,-0.16784945130348206,0.20845919847488403,-0.1888096034526825
1776021575697997300,10.851997314453126,-0.17409536242485046,0.16037635505199432,-0.2927684783935547
1776021575708058400,10.862058349609375,-0.12717074155807495,-0.009836118668317795,-0.31413981318473816
1776021575718119400,10.872119384765625,-0.08142375200986862,-0.199549600481987,-0.23397600650787354
1776021575728180500,10.882180419921875,-0.05469467118382454,-0.29833662509918213,-0.1196260005235672
1776021575738241500,10.892241455078125,-0.07935793697834015,-0.273387610912323,-0.04045581445097923
1776021575748302300,10.90230224609375,-0.12944400310516357,-0.17743337154388428,-0.030188262462615967
1776021575758364400,10.912364501953125,-0.1911851316690445,-0.07480552792549133,-0.06400561332702637
1776021575768425500,10.922425537109374,-0.2531105577945709,-0.02997387759387493,-0.12350063025951385
1776021575778486500,10.932486572265624,-0.29608890414237976,-0.051965996623039246,-0.1648762971162796
1776021575788547600,10.942547607421876,-0.2826599180698395,-0.01865304633975029,-0.21901144087314606
1776021575798608400,10.9526083984375,-0.1856849044561386,0.07994356751441956,-0.33582940697669983
1776021575808669400,10.96266943359375,-0.13039182126522064,0.20912711322307587,-0.34209954738616943
1776021575818730200,10.972730224609375,-0.1036776602268219,0.35811448097229004,-0.25016242265701294
1776021575828791300,10.982791259765625,-0.11208419501781464,0.48392540216445923,-0.13092339038848877
1776021575838853400,10.992853271484375,-0.15167687833309174,0.5592007040977478,-0.10741540789604187
1776021575848914400,11.00291455078125,-0.21165286004543304,0.5097694993019104,-0.20480000972747803
1776021575858975500,11.0129755859375,-0.27511706948280334,0.2897700369358063,-0.35847026109695435
1776021575869036500,11.02303662109375,-0.2658556401729584,-0.14189375936985016,-0.4759524166584015
1776021575879097300,11.033097412109376,-0.15004542469978333,-0.6244606971740723,-0.5103812217712402
1776021575889158400,11.043158447265625,0.0343683585524559,-0.9241568446159363,-0.46031805872917175
1776021575899219500,11.053219482421875,0.18068669736385345,-0.9121699333190918,-0.3526405990123749
1776021575909280300,11.0632802734375,0.23208729922771454,-0.6721290946006775,-0.24875256419181824
1776021575919342600,11.073342529296875,0.21702392399311066,-0.3959076404571533,-0.18057137727737427
1776021575929403400,11.0834033203125,0.17016108334064484,-0.2775171101093292,-0.13990864157676697
1776021575939464400,11.09346435546875,0.10800503194332123,-0.32082781195640564,-0.13084615767002106
1776021575949525200,11.103525146484374,0.05048021674156189,-0.4336246848106384,-0.14486956596374512
1776021575959586300,11.11358642578125,-0.0023763386998325586,-0.5281080603599548,-0.18412137031555176
1776021575969647400,11.1236474609375,-0.04382231459021568,-0.5645515322685242,-0.2331397831439972
1776021575979708400,11.13370849609375,-0.07098682224750519,-0.5895969867706299,-0.24134604632854462
1776021575989769500,11.14376953125,-0.0381963886320591,-0.572643518447876,-0.2757551372051239
1776021575999831600,11.15383154296875,-0.012190619483590126,-0.49471333622932434,-0.32724523544311523
1776021576009892400,11.163892333984375,-0.018380338326096535,-0.3500208556652069,-0.34818166494369507
1776021576019953400,11.173953369140625,-0.02599458210170269,-0.1315614879131317,-0.2977192997932434
1776021576030014500,11.184014404296875,-0.031138211488723755,0.1176118478178978,-0.12971378862857819
1776021576040075300,11.1940751953125,0.009719738736748695,0.289150595664978,0.05679377540946007
1776021576050136300,11.20413623046875,0.03098108619451523,0.32643988728523254,0.14643044769763947
1776021576060197400,11.214197265625,0.014063887298107147,0.19544033706188202,0.13046160340309143
1776021576070259500,11.224259521484376,-0.02544410713016987,-0.013984259217977524,0.030886277556419373
1776021576080320300,11.2343203125,-0.05551998317241669,-0.19104266166687012,-0.10190905630588531
1776021576090381300,11.24438134765625,-0.06616650521755219,-0.2407604157924652,-0.2073316127061844
1776021576100442400,11.2544423828125,-0.07471685111522675,-0.14620940387248993,-0.2610124349594116
1776021576110503400,11.26450341796875,-0.08849844336509705,-0.03379498049616814,-0.24058091640472412
1776021576120564500,11.274564453125,-0.12799525260925293,0.00944889523088932,-0.16942578554153442
1776021576130625500,11.28462548828125,-0.16925160586833954,-0.011951734311878681,-0.09396511316299438
1776021576140686600,11.2946865234375,-0.18955129384994507,-0.04163585975766182,-0.040947698056697845
1776021576150748400,11.30474853515625,-0.16865399479866028,-0.0527510941028595,-0.010500578209757805
1776021576160809700,11.314809814453126,-0.14693698287010193,-0.03436143696308136,-0.02516074664890766
1776021576170870800,11.324870849609376,-0.12970073521137238,0.003984355367720127,-0.06891355663537979
1776021576180931800,11.334931884765625,-0.09644345194101334,0.08770561963319778,-0.1447254866361618
1776021576190993000,11.344992919921875,-0.05560094490647316,0.17228254675865173,-0.1795058399438858
1776021576201054000,11.355053955078125,-0.022175077348947525,0.258038729429245,-0.12008299678564072
1776021576211114800,11.36511474609375,-0.010028932243585587,0.3498496115207672,-0.00947872269898653
1776021576221175600,11.375175537109374,-0.03617904335260391,0.36500194668769836,0.067292220890522
1776021576231237600,11.385237548828124,-0.09635529667139053,0.2867095172405243,0.08874638378620148
1776021576241298700,11.395298583984374,-0.17452466487884521,0.12406788766384125,0.08274361491203308
1776021576251359700,11.40535986328125,-0.2705785036087036,-0.04433098062872887,0.042035602033138275
1776021576261420800,11.4154208984375,-0.3582702577114105,-0.13442225754261017,-0.04218021035194397
1776021576271481900,11.42548193359375,-0.4337562322616577,-0.1530047357082367,-0.1355796605348587
1776021576281542700,11.435542724609375,-0.492318332195282,-0.210795596241951,-0.19613595306873322
1776021576291603700,11.445603759765625,-0.542219877243042,-0.32843780517578125,-0.2157176434993744
1776021576301665800,11.455665771484375,-0.47912850975990295,-0.32409605383872986,-0.21651898324489594
1776021576311726800,11.465726806640625,-0.411471962928772,-0.29087790846824646,-0.23073308169841766
1776021576321788000,11.475787841796874,-0.33487066626548767,-0.18377302587032318,-0.1462078094482422
1776021576331849000,11.485848876953124,-0.2512149214744568,-0.19082534313201904,-0.024515729397535324
1776021576341909800,11.49590966796875,-0.1534247100353241,-0.3263578712940216,0.04140043631196022
1776021576351970600,11.505970458984375,-0.08090976625680923,-0.3536826968193054,0.06846321374177933
1776021576362031600,11.516031494140625,-0.08229140937328339,-0.3338805139064789,0.10594800114631653
1776021576372092700,11.5260927734375,-0.12027634680271149,-0.4343828856945038,0.09937132894992828
1776021576382154800,11.53615478515625,-0.14935380220413208,-0.5767432451248169,0.08478466421365738
1776021576392215800,11.5462158203125,-0.12456509470939636,-0.6863014101982117,0.053343649953603745
1776021576402276900,11.55627685546875,-0.0577506460249424,-0.7266818284988403,0.03256220370531082
1776021576412337700,11.566337646484374,-0.01769457384943962,-0.5486838817596436,0.09802164137363434
1776021576422398700,11.576398681640624,-0.015506521798670292,-0.2470976710319519,0.18271735310554504
1776021576432459800,11.586459716796876,-0.032710541039705276,0.06616836786270142,0.22518810629844666
1776021576442520800,11.596520751953125,-0.05963989347219467,0.32139772176742554,0.2563886344432831
1776021576452583000,11.6065830078125,-0.11414840817451477,0.4291721284389496,0.2591303586959839
1776021576462644000,11.61664404296875,-0.1842406839132309,0.28578221797943115,0.20973645150661469
1776021576472704800,11.626704833984375,-0.23610681295394897,0.04055381938815117,0.15225504338741302
1776021576482765600,11.636765625,-0.2560533583164215,-0.16652852296829224,0.14456704258918762
1776021576492826600,11.64682666015625,-0.2471594512462616,-0.24768942594528198,0.11841852217912674
1776021576502887700,11.6568876953125,-0.20237228274345398,-0.07845406234264374,0.02305152267217636
1776021576512948700,11.66694873046875,-0.1543605476617813,0.39557209610939026,0.03050890751183033
1776021576523009800,11.677009765625,-0.1304520219564438,0.8098430633544922,0.14585253596305847
1776021576533072000,11.68707177734375,-0.13797518610954285,0.8018341064453125,0.26084649562835693
1776021576543132700,11.697132568359375,-0.14989842474460602,0.4967290759086609,0.2296568900346756
1776021576553193700,11.70719384765625,-0.1568623185157776,0.21142250299453735,0.11113717406988144
1776021576563254800,11.7172548828125,-0.1509234756231308,0.019175825640559196,0.037522342056035995
1776021576573315800,11.72731591796875,-0.15021507441997528,-0.054130345582962036,0.026688335463404655
1776021576583376600,11.737376708984375,-0.15377597510814667,0.04295572265982628,0.06081487983465195
1776021576593437700,11.747437744140624,-0.1501050740480423,0.2768574357032776,0.11681076884269714
1776021576603499800,11.757499755859374,-0.15156289935112,0.5503731369972229,0.16069886088371277
1776021576613560600,11.767560546875,-0.1829937845468521,0.7377116084098816,0.16416363418102264
1776021576623621600,11.77762158203125,-0.23259222507476807,0.7323546409606934,0.1343247890472412
1776021576633682700,11.7876826171875,-0.27424299716949463,0.5764625072479248,0.04885675385594368
1776021576643743700,11.79774365234375,-0.28443679213523865,0.44644299149513245,-0.06460988521575928
1776021576653804800,11.8078046875,-0.2521699368953705,0.405304878950119,-0.11102798581123352
1776021576663865900,11.817865966796875,-0.21951158344745636,0.4624136984348297,-0.04055941104888916
1776021576673927000,11.827927001953125,-0.23673610389232635,0.44114571809768677,0.09008408337831497
1776021576683988700,11.83798876953125,-0.3197620213031769,0.3259991407394409,0.13176149129867554
1776021576694049800,11.8480498046875,-0.4392862915992737,0.2053864449262619,0.0781312882900238
1776021576704110800,11.85811083984375,-0.5537809133529663,0.13016945123672485,0.031077491119503975
1776021576714171600,11.868171630859376,-0.6138200163841248,0.0023515713401138783,0.03651273623108864
1776021576724232700,11.878232666015625,-0.6046409010887146,-0.1822153478860855,0.0859556570649147
1776021576734293800,11.888293701171875,-0.5400539040565491,-0.4205791652202606,0.12720242142677307
1776021576744354800,11.898354736328125,-0.4507274925708771,-0.5883729457855225,0.13471759855747223
1776021576754416600,11.908416748046875,-0.389644980430603,-0.6734783053398132,0.12504073977470398
1776021576764477700,11.918477783203125,-0.3863266706466675,-0.6753872632980347,0.09106892347335815
1776021576774538800,11.928538818359375,-0.42477792501449585,-0.6149148344993591,0.06175071746110916
1776021576784599800,11.938599853515624,-0.4843568205833435,-0.5501278638839722,0.005616873037070036
1776021576794660900,11.948660888671874,-0.5480353832244873,-0.47696974873542786,-0.07202332466840744
1776021576804722000,11.958721923828126,-0.5560398101806641,-0.3231724798679352,-0.14995834231376648
1776021576814783000,11.968782958984375,-0.4693666994571686,-0.0854179635643959,-0.20097465813159943
1776021576824844800,11.9788447265625,-0.34441810846328735,0.1336909532546997,-0.20304712653160095
1776021576834905900,11.98890576171875,-0.23096664249897003,0.22916394472122192,-0.1440189629793167
1776021576844966700,11.998966552734375,-0.16249729692935944,0.1481119692325592,-0.06816600263118744
1776021576855027700,12.00902783203125,-0.1565006673336029,0.0010921623324975371,0.02971475198864937
1776021576865088800,12.0190888671875,-0.18505960702896118,-0.13165682554244995,0.11584697663784027
1776021576875149800,12.02914990234375,-0.16691255569458008,-0.16180434823036194,0.10165871679782867
1776021576885211000,12.0392109375,-0.1380489468574524,-0.13542599976062775,0.01618562825024128
1776021576895272700,12.049272705078126,-0.1682145744562149,-0.15437039732933044,-0.046788010746240616
1776021576905333800,12.059333740234376,-0.2715444266796112,-0.2011328488588333,-0.06687064468860626
1776021576915394800,12.069394775390625,-0.40060946345329285,-0.15954811871051788,-0.09609803557395935
1776021576925456000,12.079455810546875,-0.4753497540950775,-0.046358175575733185,-0.13734853267669678
1776021576935517000,12.089516845703125,-0.47003382444381714,0.1200646236538887,-0.10937469452619553
1776021576945578000,12.099577880859375,-0.4002443552017212,0.25571832060813904,-0.024506408721208572
1776021576955638500,12.109638427734374,-0.3254774212837219,0.28850317001342773,0.07363533973693848
1776021576965699600,12.119699462890624,-0.2827131748199463,0.16606327891349792,0.11250630766153336
1776021576975761700,12.12976171875,-0.2810407280921936,0.04143931716680527,0.07795631885528564
1776021576985822700,12.13982275390625,-0.27729231119155884,0.007391070947051048,0.011455587111413479
1776021576995883800,12.1498837890625,-0.2738294303417206,-0.0018186726374551654,-0.026879018172621727
1776021577005944800,12.15994482421875,-0.28132036328315735,0.05373353511095047,-0.013845774345099926
1776021577016005600,12.170005615234375,-0.3041321933269501,0.21236978471279144,0.03129959851503372
1776021577026066700,12.180066650390625,-0.3149965703487396,0.4090125262737274,0.08328237384557724
1776021577036127700,12.190127685546875,-0.3086180090904236,0.46714508533477783,0.10590672492980957
1776021577046189800,12.20018994140625,-0.27936694025993347,0.45084521174430847,0.11915035545825958
1776021577056251000,12.2102509765625,-0.24810300767421722,0.42804640531539917,0.13687822222709656
1776021577066312000,12.22031201171875,-0.23017728328704834,0.3469419777393341,0.12681813538074493
1776021577076372700,12.230372802734376,-0.22286184132099152,0.20435872673988342,0.06919798254966736
1776021577086433500,12.24043359375,-0.22061732411384583,0.06694840639829636,-0.015300126746296883
1776021577096494600,12.25049462890625,-0.19897036254405975,0.00977273564785719,-0.06701099127531052
1776021577106555600,12.2605556640625,-0.15193653106689453,-0.005708485841751099,-0.016347547993063927
1776021577116617700,12.27061767578125,-0.10693630576133728,-0.051295679062604904,0.0822373479604721
1776021577126678800,12.2806787109375,-0.08499664813280106,-0.07722155004739761,0.18070507049560547
1776021577136739800,12.29073974609375,-0.08339262753725052,-0.11487625539302826,0.2886267304420471
1776021577146800600,12.300800537109374,-0.08835382759571075,-0.11591435223817825,0.32485052943229675
1776021577156862500,12.310862548828124,-0.08608029037714005,0.03802328184247017,0.28069639205932617
1776021577166923500,12.320923583984374,-0.07085633277893066,0.26283907890319824,0.20614783465862274
1776021577176984600,12.330984619140626,-0.06119118630886078,0.3468674123287201,0.16659323871135712
1776021577187046400,12.34104638671875,-0.05639323592185974,0.3698717951774597,0.15584711730480194
1776021577197107500,12.351107421875,-0.042755454778671265,0.42300930619239807,0.16546033322811127
1776021577207168500,12.36116845703125,-0.02990809828042984,0.4353488087654114,0.20637688040733337
1776021577217229600,12.3712294921875,-0.01570332981646061,0.3754705488681793,0.2640018165111542
1776021577227290400,12.381290283203125,0.010837201029062271,0.2777450680732727,0.3595712184906006
1776021577237351400,12.391351318359375,0.03942996263504028,0.20202180743217468,0.44460567831993103
1776021577247412500,12.40141259765625,0.05895093455910683,0.18384785950183868,0.5208224058151245
1776021577257474300,12.411474365234374,0.08706246316432953,0.20176666975021362,0.5077364444732666
1776021577267535400,12.421535400390624,0.12985652685165405,0.30337825417518616,0.42503172159194946
