time,seconds_elapsed,z,y,x
1776021564909839400,0.06383935546875,-236.02981567382812,-20.326828002929688,101.48580932617188
1776021564919834400,0.07383447265625,-235.82908630371094,-19.253036499023438,101.71299743652344
1776021564929828400,0.083828369140625,-235.90719604492188,-20.007675170898438,101.37699890136719
1776021564939823400,0.0938232421875,-235.62257385253906,-20.24896240234375,100.98141479492188
1776021564949816600,0.103816650390625,-235.87547302246094,-20.2908935546875,101.13496398925781
1776021564959811300,0.113811279296875,-236.31753540039062,-20.334075927734375,101.33695983886719
1776021564969806300,0.123806396484375,-236.07199096679688,-20.4588623046875,101.11064147949219
1776021564979800600,0.133800537109375,-235.3505096435547,-20.538360595703125,101.203125
1776021564989795300,0.14379541015625,-235.70645141601562,-20.6429443359375,101.43843078613281
1776021564999789600,0.15378955078125,-235.71270751953125,-20.064727783203125,101.14657592773438
1776021565009783300,0.163783203125,-236.17015075683594,-20.112014770507812,101.28523254394531
1776021565019777300,0.17377734375,-236.26966857910156,-20.443923950195312,101.65093994140625
1776021565029773600,0.183773681640625,-236.4291229248047,-20.0540771484375,101.70137023925781
1776021565039768600,0.1937685546875,-235.86952209472656,-20.109939575195312,101.96804809570312
1776021565049763300,0.203763427734375,-236.0342559814453,-20.142684936523438,102.07929992675781
1776021565059758300,0.21375830078125,-236.24473571777344,-19.749008178710938,101.74519348144531
1776021565069754400,0.22375439453125,-235.68572998046875,-20.201812744140625,101.86186218261719
1776021565079750400,0.23375048828125,-236.0880584716797,-19.8463134765625,101.62777709960938
1776021565089746400,0.243746337890625,-235.51162719726562,-19.91595458984375,101.25062561035156
1776021565099741400,0.253741455078125,-235.1014862060547,-19.706817626953125,101.33274841308594
1776021565109734400,0.263734375,-235.49256896972656,-19.915756225585938,101.03512573242188
1776021565119729400,0.2737294921875,-235.50942993164062,-19.80572509765625,101.10432434082031
1776021565129724200,0.28372412109375,-235.30006408691406,-19.660415649414062,100.64595031738281
1776021565139719400,0.293719482421875,-234.892578125,-19.461578369140625,100.70497131347656
1776021565149715000,0.30371484375,-235.46749877929688,-19.7479248046875,101.10057067871094
1776021565159711000,0.3137109375,-235.17910766601562,-19.4273681640625,101.10035705566406
1776021565169706000,0.3237060546875,-235.36993408203125,-19.327621459960938,101.44662475585938
1776021565179700700,0.33370068359375,-235.27841186523438,-18.760726928710938,101.55412292480469
1776021565189695000,0.343695068359375,-235.78199768066406,-18.732009887695312,102.15632629394531
1776021565199689000,0.35368896484375,-235.50192260742188,-19.25921630859375,102.39862060546875
1776021565209682000,0.363681884765625,-235.55308532714844,-18.384445190429688,103.31120300292969
1776021565219677000,0.373677001953125,-235.5560302734375,-18.522750854492188,103.67796325683594
1776021565229670700,0.383670654296875,-235.52601623535156,-17.983779907226562,104.66276550292969
1776021565239666000,0.393666015625,-236.3001251220703,-17.66131591796875,105.19453430175781
1776021565249660000,0.403659912109375,-236.59007263183594,-16.995712280273438,106.7410888671875
1776021565259654000,0.41365380859375,-236.5748291015625,-16.660720825195312,108.11761474609375
1776021565269646800,0.423646728515625,-236.7303924560547,-15.882080078125,110.28709411621094
1776021565279638800,0.433638671875,-236.3260040283203,-15.560806274414062,112.36500549316406
1776021565289631000,0.443630859375,-235.7638397216797,-15.402145385742188,115.16571044921875
1776021565299624000,0.4536240234375,-235.04959106445312,-15.1693115234375,117.44424438476562
1776021565309617000,0.463616943359375,-234.51910400390625,-15.187820434570312,119.30685424804688
1776021565319611000,0.47361083984375,-234.6013641357422,-14.975372314453125,121.04685974121094
1776021565329603800,0.483603759765625,-234.34498596191406,-15.306350708007812,121.96469116210938
1776021565339597800,0.493597900390625,-233.57176208496094,-15.578842163085938,122.62574768066406
1776021565349592000,0.503592041015625,-233.09283447265625,-16.137985229492188,123.53334045410156
1776021565359584800,0.513584716796875,-233.245361328125,-17.0394287109375,123.84300231933594
1776021565369578000,0.523577880859375,-233.5016632080078,-17.397979736328125,124.112060546875
1776021565379571000,0.533571044921875,-233.5199737548828,-17.6802978515625,123.98638916015625
1776021565389565000,0.54356494140625,-233.8961944580078,-17.736282348632812,123.885009765625
1776021565399560000,0.553559814453125,-233.73135375976562,-17.607391357421875,123.42390441894531
1776021565409555000,0.563554931640625,-234.07200622558594,-17.3013916015625,123.22105407714844
1776021565419550000,0.573550048828125,-234.4034881591797,-16.943008422851562,123.42062377929688
1776021565429542700,0.583542724609375,-233.77964782714844,-16.835311889648438,123.14581298828125
1776021565439535900,0.593535888671875,-233.66781616210938,-16.261337280273438,123.05389404296875
1776021565449526800,0.60352685546875,-233.6555633544922,-16.326889038085938,123.04008483886719
1776021565459519700,0.613519775390625,-234.35491943359375,-15.695556640625,122.922119140625
1776021565469514000,0.623513916015625,-234.26129150390625,-14.749847412109375,122.95916748046875
1776021565479507000,0.6335068359375,-233.89968872070312,-15.023208618164062,122.50480651855469
1776021565489502000,0.643501953125,-233.6628875732422,-14.253128051757812,122.49313354492188
1776021565499497000,0.6534970703125,-233.88888549804688,-13.592117309570312,122.56192016601562
1776021565509489700,0.66348974609375,-233.34786987304688,-12.553482055664062,122.13566589355469
1776021565519483000,0.67348291015625,-233.61476135253906,-11.801681518554688,121.95393371582031
1776021565529475800,0.683475830078125,-233.17527770996094,-10.75177001953125,121.7764892578125
1776021565539470000,0.693469970703125,-232.78390502929688,-9.640945434570312,121.53901672363281
1776021565549464000,0.703464111328125,-233.23240661621094,-8.592010498046875,121.68217468261719
1776021565559457800,0.713457763671875,-232.59666442871094,-6.959503173828125,121.52012634277344
1776021565569452800,0.723452880859375,-232.25735473632812,-6.19293212890625,120.96754455566406
1776021565579448800,0.73344873046875,-231.50772094726562,-4.81341552734375,120.89320373535156
1776021565589443800,0.74344384765625,-231.0417022705078,-3.367156982421875,120.49012756347656
1776021565599438800,0.75343896484375,-230.43792724609375,-2.19158935546875,119.7294921875
1776021565609432000,0.76343212890625,-230.2074737548828,-1.5142974853515625,119.68009948730469
1776021565619427000,0.773427001953125,-229.447021484375,-0.2419281005859375,119.45414733886719
1776021565629421000,0.783421142578125,-229.11170959472656,0.592498779296875,119.1126708984375
1776021565639416800,0.793416748046875,-228.746337890625,0.997467041015625,119.08950805664062
1776021565649411800,0.803411865234375,-228.9607391357422,1.612396240234375,118.86857604980469
1776021565659405800,0.81340576171875,-229.76953125,2.0398406982421875,118.80160522460938
1776021565669400000,0.823400146484375,-230.0026397705078,2.5103759765625,118.31266784667969
1776021565679393800,0.833393798828125,-230.1683807373047,2.9525146484375,117.88130187988281
1776021565689387800,0.8433876953125,-230.8795166015625,3.1330108642578125,117.60018920898438
1776021565699381000,0.853381103515625,-231.9818878173828,3.8882904052734375,117.30357360839844
1776021565709375000,0.863375,-232.62277221679688,4.7784271240234375,117.21275329589844
1776021565719370000,0.873369873046875,-232.2875213623047,5.82708740234375,117.55044555664062
1776021565729365000,0.883364990234375,-232.87728881835938,6.9797515869140625,117.9444580078125
1776021565739359000,0.89335888671875,-232.74700927734375,8.236373901367188,118.53810119628906
1776021565749353000,0.90335302734375,-232.31687927246094,9.982284545898438,119.06158447265625
1776021565759347000,0.913346923828125,-231.11439514160156,11.846694946289062,119.65968322753906
1776021565769342000,0.923342041015625,-230.17327880859375,13.26904296875,120.65106201171875
1776021565779337000,0.9333369140625,-227.91989135742188,14.040115356445312,120.89996337890625
1776021565789331000,0.9433310546875,-227.21861267089844,14.45928955078125,121.54434204101562
1776021565799326000,0.953325927734375,-225.93775939941406,14.974868774414062,121.81526184082031
1776021565809321000,0.963321044921875,-225.00051879882812,15.166458129882812,122.43586730957031
1776021565819315000,0.97331494140625,-224.4354705810547,15.165069580078125,123.25291442871094
1776021565829309000,0.983308837890625,-224.2699737548828,14.908279418945312,123.29646301269531
1776021565839300900,0.99330078125,-222.67372131347656,14.6199951171875,124.01513671875
1776021565849294800,1.003294921875,-222.8791961669922,14.399459838867188,125.11204528808594
1776021565859288800,1.013288818359375,-222.78306579589844,13.9925537109375,125.759033203125
1776021565869281800,1.02328173828125,-221.33880615234375,13.59307861328125,126.2447509765625
1776021565879275800,1.03327587890625,-220.7440185546875,13.946578979492188,127.28919982910156
1776021565889269000,1.04326904296875,-220.46975708007812,13.176681518554688,127.9654541015625
1776021565899263700,1.053263671875,-220.81216430664062,12.758590698242188,128.3074188232422
1776021565909258800,1.0632587890625,-219.82211303710938,11.896896362304688,128.64344787597656
1776021565919253800,1.073253662109375,-220.20436096191406,11.758071899414062,128.95242309570312
1776021565929247700,1.083247802734375,-219.77572631835938,11.218170166015625,129.425048828125
1776021565939242800,1.09324267578125,-219.78738403320312,11.25775146484375,129.29832458496094
1776021565949237000,1.103237060546875,-219.77252197265625,10.87994384765625,129.3126678466797
1776021565959231000,1.11323095703125,-219.84718322753906,10.549240112304688,129.61790466308594
1776021565969226000,1.12322607421875,-219.11923217773438,10.306259155273438,129.34194946289062
1776021565979221800,1.1332216796875,-218.6903839111328,9.822555541992188,129.7645263671875
1776021565989218000,1.143218017578125,-218.42189025878906,9.728652954101562,129.9836883544922
1776021565999213800,1.1532138671875,-217.9393310546875,9.812789916992188,130.0998992919922
1776021566009209900,1.1632099609375,-216.45504760742188,9.637191772460938,130.21128845214844
1776021566019204900,1.173204833984375,-216.02610778808594,9.207763671875,130.11268615722656
1776021566029200000,1.183199951171875,-215.5959930419922,9.090560913085938,130.1453857421875
1776021566039195000,1.19319482421875,-214.38450622558594,9.023696899414062,130.3892059326172
1776021566049188900,1.20318896484375,-213.79092407226562,8.802093505859375,130.59295654296875
1776021566059182800,1.213182861328125,-212.78102111816406,8.600738525390625,130.7091827392578
1776021566069176800,1.2231767578125,-212.86419677734375,8.334381103515625,130.85025024414062
1776021566079171800,1.233171875,-212.05747985839844,8.312332153320312,131.19493103027344
1776021566089165800,1.243165771484375,-212.13485717773438,8.053512573242188,130.8367462158203
1776021566099158800,1.25315869140625,-212.32728576660156,8.23590087890625,130.84156799316406
1776021566109151700,1.26315185546875,-211.8938751220703,7.9794464111328125,130.60508728027344
1776021566119146000,1.27314599609375,-212.5409393310547,8.035232543945312,130.59652709960938
1776021566129139000,1.283138916015625,-212.42501831054688,7.7978057861328125,130.12115478515625
1776021566139133000,1.2931328125,-213.25241088867188,7.6337127685546875,130.2765350341797
1776021566149129500,1.30312939453125,-213.8204345703125,7.7052001953125,130.22557067871094
1776021566159124500,1.31312451171875,-213.7801055908203,7.7963104248046875,129.69276428222656
1776021566169119200,1.323119140625,-214.26760864257812,7.4018096923828125,130.00852966308594
1776021566179113500,1.333113525390625,-215.32691955566406,7.1108856201171875,129.9726104736328
1776021566189106400,1.3431064453125,-215.44329833984375,6.9629974365234375,130.27931213378906
1776021566199099400,1.353099365234375,-215.23928833007812,6.88018798828125,130.06187438964844
1776021566209094400,1.363094482421875,-216.20518493652344,6.82080078125,130.2672119140625
1776021566219088400,1.37308837890625,-215.9630584716797,6.2820281982421875,130.09884643554688
1776021566229082400,1.383082275390625,-216.16221618652344,6.1046295166015625,130.03712463378906
1776021566239075300,1.393075439453125,-217.31866455078125,5.361236572265625,130.40907287597656
1776021566249069600,1.403069580078125,-218.31825256347656,5.2461090087890625,130.36854553222656
1776021566259062500,1.4130625,-218.8116912841797,4.688140869140625,130.04891967773438
1776021566269056300,1.42305615234375,-220.28623962402344,4.7409515380859375,130.04800415039062
1776021566279051300,1.43305126953125,-221.53428649902344,5.2436370849609375,129.2355194091797
1776021566289044500,1.44304443359375,-222.36851501464844,5.200653076171875,128.89523315429688
1776021566299037400,1.453037353515625,-222.55445861816406,5.578094482421875,128.16038513183594
1776021566309031400,1.463031494140625,-223.5925750732422,6.4245758056640625,127.29316711425781
1776021566319026400,1.4730263671875,-223.4590606689453,6.690399169921875,127.14640808105469
1776021566329020400,1.4830205078125,-223.36309814453125,6.519866943359375,126.71501159667969
1776021566339015400,1.493015380859375,-224.3633270263672,6.5238189697265625,126.89776611328125
1776021566349010400,1.503010498046875,-224.6964111328125,6.416168212890625,126.17070007324219
1776021566359005400,1.51300537109375,-225.78363037109375,6.479156494140625,126.0035400390625
1776021566368998400,1.522998291015625,-226.01657104492188,6.4807891845703125,125.90357971191406
1776021566378993400,1.532993408203125,-226.56680297851562,6.65570068359375,125.75364685058594
1776021566388987400,1.5429873046875,-226.3906707763672,6.7034454345703125,125.93466186523438
1776021566398982400,1.552982421875,-226.6605987548828,6.7060089111328125,125.38912963867188
1776021566408976400,1.562976318359375,-226.9654998779297,7.0080413818359375,125.40818786621094
1776021566418968300,1.57296826171875,-227.44781494140625,7.12750244140625,125.53678894042969
1776021566428962600,1.582962646484375,-227.43258666992188,7.4589691162109375,125.31752014160156
1776021566438956500,1.59295654296875,-227.4513397216797,8.155563354492188,125.03887939453125
1776021566448950500,1.602950439453125,-227.17250061035156,8.806137084960938,124.82766723632812
1776021566458944300,1.6129443359375,-226.88851928710938,9.33953857421875,124.62646484375
1776021566468939300,1.622939208984375,-226.6340789794922,9.279312133789062,124.24365234375
1776021566478934500,1.6329345703125,-226.61891174316406,9.73211669921875,123.69346618652344
1776021566488927500,1.642927490234375,-226.57054138183594,9.850234985351562,123.17788696289062
1776021566498920400,1.65292041015625,-226.11175537109375,10.001998901367188,122.78787231445312
1776021566508913400,1.662913330078125,-225.41714477539062,9.619644165039062,122.46890258789062
1776021566518906400,1.67290625,-224.45310974121094,9.999679565429688,122.40484619140625
1776021566528899300,1.6828994140625,-223.96238708496094,10.289596557617188,121.9595947265625
1776021566538894300,1.692894287109375,-223.15994262695312,10.574005126953125,122.43571472167969
1776021566548888300,1.702888427734375,-223.00515747070312,10.77642822265625,122.76644897460938
1776021566558883300,1.71288330078125,-222.44615173339844,10.585800170898438,123.39382934570312
1776021566568878300,1.72287841796875,-221.58453369140625,10.264236450195312,123.56098937988281
1776021566578873300,1.732873291015625,-222.16131591796875,10.073974609375,123.77873229980469
1776021566588868400,1.742868408203125,-221.91567993164062,9.810806274414062,124.16868591308594
1776021566598862300,1.7528623046875,-221.68544006347656,9.461090087890625,124.67726135253906
1776021566608857300,1.762857421875,-221.0760955810547,8.97088623046875,124.4482421875
1776021566618852400,1.772852294921875,-221.33062744140625,8.974899291992188,125.03042602539062
1776021566628847400,1.782847412109375,-220.73788452148438,8.453689575195312,125.09550476074219
1776021566638842400,1.79284228515625,-220.43678283691406,8.270278930664062,124.92337036132812
1776021566648836400,1.80283642578125,-220.31942749023438,8.941650390625,124.94363403320312
1776021566658831400,1.812831298828125,-219.5807342529297,9.628067016601562,124.71311950683594
1776021566668825300,1.822825439453125,-219.46641540527344,9.770217895507812,124.7012939453125
1776021566678818600,1.832818603515625,-219.02674865722656,10.353134155273438,124.62847900390625
1776021566688811300,1.842811279296875,-218.9002685546875,11.379257202148438,124.06292724609375
1776021566698805200,1.85280517578125,-218.60704040527344,11.720062255859375,123.65609741210938
1776021566708799500,1.862799560546875,-218.88526916503906,12.1107177734375,123.24964904785156
1776021566718792400,1.87279248046875,-217.8249053955078,12.544952392578125,123.45561218261719
1776021566728786400,1.882786376953125,-217.02613830566406,13.239151000976562,123.22764587402344
1776021566738777300,1.89277734375,-215.85690307617188,13.86602783203125,123.103271484375
1776021566748770600,1.9027705078125,-215.02139282226562,13.884368896484375,122.79600524902344
1776021566758762200,1.91276220703125,-214.09085083007812,14.178482055664062,122.84957885742188
1776021566768755500,1.92275537109375,-212.2039031982422,14.1142578125,122.78738403320312
1776021566778747400,1.932747314453125,-211.22579956054688,14.214859008789062,123.36024475097656
1776021566788740400,1.942740234375,-210.07057189941406,13.67547607421875,123.78507995605469
1776021566798733600,1.952733642578125,-209.405029296875,13.107345581054688,124.85969543457031
1776021566808725200,1.962725341796875,-208.34898376464844,12.686019897460938,125.60507202148438
1776021566818717400,1.972717529296875,-207.83255004882812,12.104202270507812,126.24024963378906
1776021566828710400,1.98271044921875,-207.95468139648438,11.922958374023438,126.60462951660156
1776021566838702300,1.992702392578125,-207.6933135986328,11.510238647460938,126.84976196289062
1776021566848695600,2.002695556640625,-207.95751953125,11.471450805664062,127.59117126464844
1776021566858688300,2.012688232421875,-208.9869842529297,11.226470947265625,128.18568420410156
1776021566868680400,2.022680419921875,-209.548095703125,11.073562622070312,128.5817413330078
1776021566878671400,2.03267138671875,-211.32310485839844,10.584396362304688,128.51620483398438
1776021566888662300,2.042662353515625,-211.19827270507812,10.760635375976562,128.6023406982422
1776021566898655500,2.052655517578125,-211.84715270996094,9.995269775390625,128.70191955566406
1776021566908647400,2.0626474609375,-212.9727783203125,10.089019775390625,128.7919158935547
1776021566918641400,2.072641357421875,-212.76026916503906,10.0084228515625,128.7653045654297
1776021566928632600,2.082632568359375,-214.14454650878906,10.485580444335938,128.81854248046875
1776021566938624300,2.092624267578125,-214.38658142089844,9.9052734375,128.61944580078125
1776021566948615400,2.102615478515625,-216.5586700439453,9.96795654296875,128.85147094726562
1776021566958606600,2.112606689453125,-217.4395294189453,9.494140625,128.51258850097656
1776021566968597500,2.122597412109375,-218.97308349609375,9.240036010742188,128.5431365966797
1776021566978590500,2.132590576171875,-219.12416076660156,8.6107177734375,128.38429260253906
1776021566988580400,2.142580322265625,-219.90133666992188,8.418838500976562,128.76284790039062
1776021566998572300,2.152572265625,-220.7136688232422,8.117294311523438,128.69415283203125
1776021567008564500,2.162564453125,-220.83775329589844,7.5960540771484375,128.66754150390625
1776021567018555400,2.172555419921875,-221.08360290527344,7.439239501953125,129.1505889892578
1776021567028547600,2.182547607421875,-222.07766723632812,7.11212158203125,129.19361877441406
1776021567038539500,2.19253955078125,-221.70584106445312,6.719757080078125,128.97744750976562
1776021567048531500,2.202531494140625,-221.53237915039062,6.3300323486328125,129.20697021484375
1776021567058521600,2.212521484375,-222.18687438964844,6.3899078369140625,129.25621032714844
1776021567068512500,2.222512451171875,-222.42758178710938,5.6425933837890625,128.9125518798828
1776021567078504400,2.23250439453125,-222.98599243164062,5.6990814208984375,128.67526245117188
1776021567088495600,2.24249560546875,-223.76751708984375,5.3373870849609375,128.54052734375
1776021567098486500,2.252486572265625,-223.344482421875,5.0255279541015625,128.46316528320312
1776021567108478200,2.262478271484375,-223.64706420898438,4.915679931640625,127.92744445800781
1776021567118471400,2.272471435546875,-225.10549926757812,5.034912109375,127.47776794433594
1776021567128464400,2.28246435546875,-226.2123260498047,5.3264312744140625,126.433349609375
1776021567138456300,2.292456298828125,-227.21728515625,5.7667999267578125,125.55397033691406
1776021567148449500,2.302449462890625,-228.54800415039062,6.1925048828125,124.720947265625
1776021567158442800,2.31244287109375,-229.6486053466797,6.7617950439453125,123.43902587890625
1776021567168435500,2.322435546875,-231.66583251953125,7.4503936767578125,122.39286804199219
1776021567178428700,2.3324287109375,-232.7422637939453,8.682266235351562,120.989501953125
1776021567188419600,2.342419677734375,-234.0569610595703,10.031906127929688,119.37623596191406
1776021567198413600,2.35241357421875,-235.86605834960938,11.294570922851562,118.06416320800781
1776021567208406800,2.36240673828125,-237.92979431152344,12.328933715820312,116.3472900390625
1776021567218399500,2.3723994140625,-240.0884246826172,12.722320556640625,115.31723022460938
1776021567228393500,2.3823935546875,-242.0216064453125,13.257583618164062,114.0792236328125
1776021567238386700,2.39238671875,-245.8762664794922,13.443740844726562,113.09640502929688
1776021567248376600,2.40237646484375,-249.86460876464844,13.694122314453125,112.73388671875
1776021567258369800,2.412369873046875,-256.05377197265625,13.495651245117188,112.27284240722656
1776021567268360700,2.422360595703125,-264.6744079589844,12.543472290039062,111.74447631835938
1776021567278353700,2.432353759765625,-276.56207275390625,10.933303833007812,111.72274780273438
1776021567288345600,2.442345703125,-295.52239990234375,9.493606567382812,112.19767761230469
1776021567298336800,2.452336669921875,-323.34149169921875,7.8589324951171875,112.84611511230469
1776021567308328700,2.46232861328125,-373.413330078125,5.8912811279296875,113.54005432128906
1776021567318320600,2.472320556640625,-466.3709716796875,6.89788818359375,113.08392333984375
1776021567328311800,2.482311767578125,-614.7606811523438,19.178268432617188,110.06198120117188
1776021567338303500,2.492303466796875,-549.6192016601562,-3.8430023193359375,120.78507995605469
1776021567348295700,2.502295654296875,-594.2547607421875,-64.61570739746094,135.49514770507812
1776021567358287600,2.51228759765625,-588.9652099609375,-65.04289245605469,146.40347290039062
1776021567368280600,2.522280517578125,-590.0994873046875,-62.77986145019531,147.6922607421875
1776021567378272500,2.5322724609375,-589.6378173828125,-61.75090026855469,149.07937622070312
1776021567388264700,2.5422646484375,-589.7388916015625,-60.751007080078125,151.69918823242188
1776021567398255600,2.552255615234375,-588.8193969726562,-60.725433349609375,151.93751525878906
1776021567408248600,2.56224853515625,-588.3896484375,-60.46809387207031,149.7910919189453
1776021567418241800,2.57224169921875,-587.8126220703125,-61.000152587890625,147.55076599121094
1776021567428233700,2.582233642578125,-587.4855346679688,-61.07957458496094,146.22288513183594
1776021567438225700,2.5922255859375,-587.4067993164062,-61.41163635253906,146.18519592285156
1776021567448218600,2.602218505859375,-587.713623046875,-61.11090087890625,146.3930206298828
1776021567458210800,2.6122109375,-587.603759765625,-61.11787414550781,146.3850860595703
1776021567468202500,2.622202392578125,-588.0316772460938,-61.05079650878906,146.7061767578125
1776021567478195700,2.63219580078125,-587.697021484375,-60.86982727050781,146.5589599609375
1776021567488188700,2.642188720703125,-587.9094848632812,-61.09892272949219,146.96572875976562
1776021567498181600,2.652181640625,-587.6029052734375,-61.09588623046875,146.926513671875
1776021567508172500,2.662172607421875,-587.819091796875,-60.855560302734375,147.19378662109375
1776021567518165500,2.67216552734375,-588.5248413085938,-60.841156005859375,147.1809844970703
1776021567528158700,2.68215869140625,-587.6187744140625,-60.890106201171875,147.21734619140625
1776021567538150700,2.692150634765625,-588.53564453125,-60.57078552246094,147.05174255371094
1776021567548142600,2.702142578125,-588.6049194335938,-60.58250427246094,147.0803985595703
1776021567558133500,2.712133544921875,-588.3577880859375,-60.88798522949219,147.18626403808594
1776021567568123600,2.72212353515625,-587.6747436523438,-60.56556701660156,146.96044921875
1776021567578114600,2.732114501953125,-587.990478515625,-60.79154968261719,146.83718872070312
1776021567588105700,2.742105712890625,-588.1741943359375,-61.24012756347656,146.84413146972656
1776021567598097700,2.75209765625,-588.1107177734375,-60.82237243652344,147.30282592773438
1776021567608091600,2.762091552734375,-587.9096069335938,-60.95481872558594,146.8079833984375
1776021567618084600,2.772084716796875,-587.8199462890625,-61.07000732421875,146.95367431640625
1776021567628076500,2.78207666015625,-588.7009887695312,-61.110748291015625,147.09017944335938
1776021567638069500,2.792069580078125,-588.68994140625,-61.0604248046875,147.02667236328125
1776021567648061400,2.8020615234375,-588.4046630859375,-61.41288757324219,146.63815307617188
1776021567658054700,2.8120546875,-588.16796875,-60.91139221191406,146.94667053222656
1776021567668046600,2.822046630859375,-588.013671875,-61.25762939453125,147.0869598388672
1776021567678039600,2.83203955078125,-587.9617919921875,-61.00639343261719,147.13111877441406
1776021567688031700,2.84203173828125,-587.9096069335938,-60.99482727050781,147.01803588867188
1776021567698024400,2.8520244140625,-587.6057739257812,-61.11878967285156,146.93524169921875
1776021567708016600,2.8620166015625,-587.8179931640625,-61.06404113769531,147.02359008789062
1776021567718009600,2.872009521484375,-587.5263671875,-61.26142883300781,147.06617736816406
1776021567728002600,2.88200244140625,-588.17431640625,-61.173858642578125,146.84124755859375
1776021567737995500,2.89199560546875,-588.2464599609375,-61.2738037109375,147.06332397460938
1776021567747985700,2.901985595703125,-588.6983642578125,-61.38447570800781,147.20448303222656
1776021567757976600,2.9119765625,-587.7996826171875,-61.26287841796875,146.9701385498047
1776021567767967700,2.9219677734375,-587.26318359375,-61.266937255859375,147.25050354003906
1776021567777959700,2.931959716796875,-588.1690673828125,-61.35832214355469,147.09872436523438
1776021567787951600,2.94195166015625,-588.3900146484375,-60.863555908203125,147.3184814453125
1776021567797943600,2.951943603515625,-587.8135986328125,-61.152618408203125,147.4324493408203
1776021567807935700,2.961935791015625,-588.25048828125,-60.93695068359375,147.19325256347656
1776021567817928400,2.971928466796875,-588.012939453125,-60.82421875,147.3123016357422
1776021567827921700,2.981921630859375,-587.8057250976562,-60.88087463378906,147.24093627929688
1776021567837914600,2.99191455078125,-587.7307739257812,-60.649261474609375,147.15853881835938
1776021567847908600,3.00190869140625,-588.361328125,-60.78984069824219,147.16148376464844
1776021567857901600,3.011901611328125,-587.7293090820312,-60.9388427734375,146.97010803222656
1776021567867893800,3.021893798828125,-587.9295043945312,-60.80220031738281,147.42332458496094
1776021567877886500,3.031886474609375,-588.0885009765625,-60.97074890136719,147.42459106445312
1776021567887877600,3.041877685546875,-587.8757934570312,-60.96372985839844,147.67706298828125
1776021567897869600,3.05186962890625,-588.0010375976562,-60.99334716796875,147.43634033203125
1776021567907860500,3.061860595703125,-588.215576171875,-60.743133544921875,147.5512237548828
1776021567917853700,3.071853759765625,-587.8814086914062,-61.037353515625,147.5076141357422
1776021567927845600,3.081845703125,-588.3260498046875,-61.1922607421875,147.18995666503906
1776021567937838600,3.091838623046875,-587.5538940429688,-61.2509765625,147.5195770263672
1776021567947831600,3.10183154296875,-587.7630615234375,-61.26374816894531,147.50479125976562
1776021567957823500,3.111823486328125,-587.6875,-60.91058349609375,147.6568603515625
1776021567967815700,3.121815673828125,-588.0477294921875,-60.71728515625,147.4123992919922
1776021567977806600,3.131806640625,-588.338134765625,-60.93218994140625,147.11312866210938
1776021567987798800,3.141798828125,-588.0137939453125,-60.826263427734375,147.31105041503906
1776021567997791500,3.15179150390625,-587.7393798828125,-60.93060302734375,147.24185180664062
1776021568007783700,3.16178369140625,-588.3138427734375,-60.8572998046875,147.20462036132812
1776021568017776600,3.171776611328125,-588.3704833984375,-60.87255859375,147.19622802734375
1776021568027768600,3.1817685546875,-587.8963623046875,-60.9725341796875,147.30728149414062
1776021568037759500,3.191759521484375,-588.3843994140625,-60.625823974609375,146.82687377929688
1776021568047751700,3.201751708984375,-587.8298950195312,-60.66871643066406,147.07797241210938
1776021568057743600,3.21174365234375,-588.0938720703125,-60.97080993652344,146.83584594726562
1776021568067736600,3.221736572265625,-587.986328125,-60.795196533203125,147.16775512695312
1776021568077729800,3.231729736328125,-588.0320434570312,-61.00642395019531,147.16366577148438
1776021568087723800,3.241723876953125,-588.2122192382812,-61.08259582519531,147.33016967773438
1776021568097718800,3.25171875,-588.4695434570312,-60.87519836425781,147.3465118408203
1776021568107712800,3.261712646484375,-588.1251831054688,-60.523651123046875,147.53271484375
1776021568117706500,3.27170654296875,-588.1859741210938,-60.35516357421875,147.80516052246094
1776021568127700500,3.281700439453125,-587.5596923828125,-60.644622802734375,147.6645965576172
1776021568137693700,3.291693603515625,-587.8216552734375,-60.587188720703125,147.74163818359375
1776021568147685600,3.301685546875,-587.80419921875,-60.5732421875,147.4571075439453
1776021568157677300,3.31167724609375,-588.6094970703125,-60.93949890136719,147.73204040527344
1776021568167670500,3.32167041015625,-587.9928588867188,-60.61775207519531,147.3408966064453
1776021568177662700,3.331662841796875,-587.7406616210938,-60.32246398925781,147.7581024169922
1776021568187655400,3.341655517578125,-588.1533813476562,-60.914276123046875,147.74078369140625
1776021568197648600,3.351648681640625,-588.4314575195312,-60.4979248046875,147.95364379882812
1776021568207640300,3.361640380859375,-588.5941162109375,-60.302093505859375,147.8074951171875
1776021568217631500,3.371631591796875,-588.7413330078125,-60.74836730957031,148.20506286621094
1776021568227622400,3.381622314453125,-588.6597290039062,-60.23222351074219,147.6946563720703
1776021568237612500,3.391612548828125,-588.2025756835938,-60.649078369140625,147.73431396484375
1776021568247603500,3.401603515625,-588.2769775390625,-60.389923095703125,148.01441955566406
1776021568257594600,3.4115947265625,-588.295654296875,-60.09831237792969,147.69586181640625
1776021568267584500,3.42158447265625,-588.7176513671875,-60.30097961425781,147.92478942871094
1776021568277574700,3.43157470703125,-588.5072021484375,-60.263580322265625,147.86981201171875
1776021568287565600,3.441565673828125,-588.3720092773438,-60.374053955078125,147.86781311035156
1776021568297556500,3.451556396484375,-588.0533447265625,-60.32476806640625,148.00941467285156
1776021568307548400,3.46154833984375,-588.6651000976562,-60.21388244628906,148.0596160888672
1776021568317539300,3.471539306640625,-588.9601440429688,-60.47062683105469,148.0899658203125
1776021568327530500,3.481530517578125,-589.2573852539062,-60.444427490234375,148.3512420654297
1776021568337521700,3.491521728515625,-588.8976440429688,-60.5467529296875,148.46139526367188
1776021568347513300,3.501513427734375,-588.9708862304688,-60.599090576171875,148.0098419189453
1776021568357505500,3.511505615234375,-589.3670654296875,-60.42071533203125,148.25657653808594
1776021568367496400,3.521496337890625,-589.1053466796875,-60.367828369140625,148.53106689453125
1776021568377488600,3.531488525390625,-589.5150146484375,-60.11131286621094,148.4153289794922
1776021568387478500,3.541478515625,-589.1668701171875,-60.230224609375,148.4992218017578
1776021568397470500,3.551470458984375,-589.3409423828125,-60.34465026855469,148.4899444580078
1776021568407462700,3.561462646484375,-589.037841796875,-60.76055908203125,148.33445739746094
1776021568417454600,3.57145458984375,-589.43994140625,-60.2052001953125,148.27142333984375
1776021568427446500,3.581446533203125,-589.47509765625,-60.21958923339844,148.35325622558594
1776021568437439500,3.591439453125,-589.5528564453125,-60.41343688964844,148.16287231445312
1776021568447433500,3.60143359375,-589.5842895507812,-60.3087158203125,148.53759765625
1776021568457426400,3.611426513671875,-589.5899047851562,-60.6087646484375,148.59344482421875
1776021568467418400,3.62141845703125,-589.4464721679688,-60.504669189453125,148.01736450195312
1776021568477410600,3.63141064453125,-589.6304931640625,-60.58354187011719,148.48385620117188
1776021568487403500,3.641403564453125,-589.3116455078125,-60.736724853515625,148.6698760986328
1776021568497394700,3.651394775390625,-589.0225219726562,-60.88897705078125,148.31515502929688
1776021568507385600,3.661385498046875,-589.9703369140625,-60.6024169921875,148.5367889404297
1776021568517378600,3.671378662109375,-589.8064575195312,-60.85272216796875,148.3399658203125
1776021568527371500,3.68137158203125,-589.468994140625,-60.782928466796875,148.27947998046875
1776021568537363500,3.691363525390625,-589.8477783203125,-61.05915832519531,148.8689422607422
1776021568547355400,3.70135546875,-589.8309326171875,-61.33378601074219,148.68746948242188
1776021568557347600,3.71134765625,-590.1439819335938,-61.222076416015625,148.77903747558594
1776021568567338500,3.72133837890625,-590.1431884765625,-61.29814147949219,148.91348266601562
1776021568577330700,3.73133056640625,-589.4573364257812,-61.34150695800781,148.80787658691406
1776021568587323400,3.741323486328125,-590.0805053710938,-61.36607360839844,149.16217041015625
1776021568597315600,3.751315673828125,-590.1969604492188,-61.57444763183594,149.13096618652344
1776021568607308300,3.761308349609375,-590.251220703125,-61.454193115234375,149.2913818359375
1776021568617301500,3.771301513671875,-591.1211547851562,-61.67262268066406,149.67227172851562
1776021568627291400,3.78129150390625,-590.5934448242188,-61.670379638671875,149.7548065185547
1776021568637284600,3.79128466796875,-590.1666870117188,-61.881195068359375,149.69410705566406
1776021568647278600,3.801278564453125,-590.602783203125,-61.605438232421875,150.0720672607422
1776021568657270500,3.8112705078125,-591.1517333984375,-61.46775817871094,150.36090087890625
1776021568667264500,3.821264404296875,-590.645263671875,-62.009368896484375,150.31593322753906
1776021568677255400,3.83125537109375,-590.5726318359375,-61.79096984863281,150.66043090820312
1776021568687248400,3.841248291015625,-591.2763671875,-62.03466796875,150.81871032714844
1776021568697241600,3.85124169921875,-591.5906982421875,-62.05165100097656,150.93719482421875
1776021568707234600,3.861234619140625,-591.53173828125,-61.9471435546875,150.80874633789062
1776021568717227500,3.8712275390625,-590.8602294921875,-61.84953308105469,150.9214630126953
1776021568727220500,3.881220458984375,-591.391357421875,-62.256317138671875,150.7817840576172
1776021568737212400,3.89121240234375,-591.248291015625,-62.377532958984375,151.03631591796875
1776021568747204600,3.90120458984375,-591.5372924804688,-62.619659423828125,150.84356689453125
1776021568757196500,3.911196533203125,-591.63037109375,-62.66648864746094,151.2312469482422
1776021568767189500,3.921189453125,-591.6619262695312,-62.78045654296875,151.3784637451172
1776021568777181400,3.931181396484375,-591.4107055664062,-62.84454345703125,151.4870147705078
1776021568787173600,3.941173583984375,-591.97119140625,-63.09613037109375,151.7157440185547
1776021568797166600,3.95116650390625,-591.8794555664062,-63.08448791503906,152.1317138671875
1776021568807158500,3.961158447265625,-592.8696899414062,-63.34967041015625,152.60971069335938
1776021568817150700,3.971150634765625,-592.8674926757812,-63.38725280761719,152.77862548828125
1776021568827142400,3.981142333984375,-593.1115112304688,-63.31474304199219,153.528076171875
1776021568837135600,3.991135498046875,-592.9432983398438,-63.58006286621094,153.72511291503906
1776021568847128300,4.00112841796875,-592.98974609375,-63.62506103515625,153.98948669433594
1776021568857121500,4.01112158203125,-593.948486328125,-64.19677734375,154.32879638671875
1776021568867113500,4.021113525390625,-593.58203125,-64.26873779296875,154.44155883789062
1776021568877105400,4.03110546875,-593.6544799804688,-64.5445556640625,154.47366333007812
1776021568887098600,4.0410986328125,-593.9220581054688,-64.1583251953125,154.422119140625
1776021568897089500,4.051089599609375,-593.948486328125,-64.39225769042969,154.3675537109375
1776021568907082500,4.06108251953125,-593.9385375976562,-63.94523620605469,154.33798217773438
1776021568917074400,4.071074462890625,-593.7048950195312,-63.96171569824219,154.21469116210938
1776021568927067400,4.0810673828125,-594.0933837890625,-63.491851806640625,153.79531860351562
1776021568937059300,4.091059326171875,-594.6932373046875,-53.40461730957031,153.61260986328125
1776021568947050500,4.101050537109375,-595.4716796875,-44.03240966796875,153.0854034423828
1776021568957042400,4.11104248046875,-595.2042236328125,-43.553436279296875,152.82997131347656
1776021568967032300,4.1210322265625,-595.8796997070312,-43.576263427734375,152.9662628173828
1776021568977024500,4.1310244140625,-595.5994873046875,-43.340087890625,153.37631225585938
1776021568987017500,4.141017578125,-595.488525390625,-43.3062744140625,153.7294158935547
1776021568997010400,4.151010498046875,-596.55859375,-43.00001525878906,153.32229614257812
1776021569007003600,4.161003662109375,-595.894287109375,-42.59571838378906,152.5078582763672
1776021569016995300,4.170995361328125,-596.00341796875,-35.82566833496094,151.76156616210938
1776021569026987500,4.180987548828125,-595.861328125,-33.752227783203125,150.50955200195312
1776021569036979500,4.1909794921875,-595.2931518554688,-33.79814147949219,149.65023803710938
1776021569046972400,4.200972412109375,-594.1685791015625,-33.581268310546875,148.59022521972656
1776021569056964400,4.21096435546875,-594.9566040039062,-30.4384765625,147.28939819335938
1776021569066957600,4.22095751953125,-595.1394653320312,-22.835372924804688,146.164794921875
1776021569076949500,4.230949462890625,-595.3505859375,-21.073745727539062,146.99832153320312
1776021569086941400,4.24094140625,-595.2491455078125,-20.7325439453125,148.7344207763672
1776021569096932400,4.250932373046875,-595.2446899414062,-20.428741455078125,149.88259887695312
1776021569106924500,4.260924560546875,-595.052001953125,-20.637222290039062,149.6073760986328
1776021569116917500,4.27091748046875,-593.7778930664062,-20.411376953125,147.90365600585938
1776021569126909400,4.280909423828125,-593.0725708007812,-20.378021240234375,145.68174743652344
1776021569136902700,4.290902587890625,-591.75,-20.245590209960938,144.73838806152344
1776021569146894300,4.300894287109375,-592.5701904296875,-20.1336669921875,144.67251586914062
1776021569156886800,4.31088671875,-591.7147827148438,-19.803359985351562,145.55560302734375
1776021569166879000,4.32087890625,-592.06787109375,-19.62994384765625,145.54995727539062
1776021569176871000,4.330870849609375,-590.9585571289062,-19.631744384765625,144.7940673828125
1776021569186861000,4.340861083984375,-590.6618041992188,-19.365493774414062,143.51513671875
1776021569196849000,4.350848876953125,-590.700927734375,-18.446060180664062,142.49325561523438
1776021569206839800,4.36083984375,-590.0955810546875,-12.6676025390625,141.33384704589844
1776021569216832000,4.37083203125,-589.5806274414062,-12.218368530273438,140.59507751464844
1776021569226823700,4.38082373046875,-589.176025390625,-12.262374877929688,140.3725128173828
1776021569236817000,4.39081689453125,-588.3469848632812,-12.420150756835938,139.39842224121094
1776021569246807800,4.400807861328125,-588.423095703125,-12.3809814453125,139.0921630859375
1776021569256800000,4.410800048828125,-588.0810546875,-12.653182983398438,138.35009765625
1776021569266792000,4.4207919921875,-587.6422119140625,-12.782196044921875,137.7532958984375
1776021569276783000,4.430783203125,-587.8458251953125,-12.678756713867188,136.75941467285156
1776021569286774000,4.44077392578125,-587.7998657226562,-12.881454467773438,136.5175018310547
1776021569296765700,4.450765625,-587.0408325195312,-12.865341186523438,136.37916564941406
1776021569306756000,4.460756103515625,-586.9523315429688,-12.896011352539062,136.0416717529297
1776021569316747800,4.470747802734375,-586.8789672851562,-13.3642578125,136.0283203125
1776021569326738000,4.480738037109375,-586.8800048828125,-13.2054443359375,135.64138793945312
1776021569336728800,4.490728759765625,-587.1861572265625,-12.937545776367188,135.37652587890625
1776021569346719000,4.500718994140625,-586.8327026367188,-13.218856811523438,135.77352905273438
1776021569356710000,4.5107099609375,-586.6177368164062,-13.192413330078125,135.79351806640625
1776021569366701800,4.520701904296875,-587.2432861328125,-13.01666259765625,136.1640167236328
1776021569376694000,4.530694091796875,-587.0286254882812,-13.12017822265625,136.43475341796875
1776021569386685000,4.540684814453125,-587.587646484375,-12.99658203125,136.85958862304688
1776021569396675800,4.55067578125,-587.0120239257812,-12.674468994140625,137.4942626953125
1776021569406667000,4.5606669921875,-587.564208984375,-13.066802978515625,138.2218017578125
1776021569416659000,4.570658935546875,-587.955810546875,-12.659835815429688,138.6707305908203
1776021569426649900,4.58064990234375,-588.22607421875,-12.713241577148438,139.40826416015625
1776021569436641000,4.59064111328125,-588.0640869140625,-12.243408203125,140.2606658935547
1776021569446633700,4.6006337890625,-588.624755859375,-12.086105346679688,140.3538055419922
1776021569456627000,4.610626953125,-588.6624755859375,-12.166549682617188,140.63470458984375
1776021569466620000,4.620619873046875,-589.574951171875,-12.118484497070312,140.97654724121094
1776021569476611800,4.63061181640625,-588.9549560546875,-11.672988891601562,140.77220153808594
1776021569486604000,4.64060400390625,-588.9053344726562,-11.724273681640625,140.9935302734375
1776021569496596700,4.6505966796875,-589.76025390625,-11.8233642578125,140.8942108154297
1776021569506589000,4.6605888671875,-589.2134399414062,-11.7861328125,141.19789123535156
1776021569516580900,4.670580810546875,-589.4083862304688,-11.720428466796875,140.89028930664062
1776021569526573000,4.680572998046875,-589.3953857421875,-11.917572021484375,141.4931182861328
1776021569536564700,4.690564697265625,-588.7212524414062,-11.880966186523438,141.37005615234375
1776021569546558000,4.700557861328125,-589.336181640625,-11.906326293945312,141.6009979248047
1776021569556551000,4.710551025390625,-588.4513549804688,-11.958358764648438,141.46017456054688
1776021569566544000,4.7205439453125,-589.3212890625,-12.042678833007812,141.79336547851562
1776021569576536000,4.7305361328125,-589.3316650390625,-11.563339233398438,141.8578338623047
1776021569586527000,4.74052685546875,-589.5631103515625,-11.409011840820312,141.8365020751953
1776021569596520000,4.75052001953125,-589.2135009765625,-11.485931396484375,142.12913513183594
1776021569606510800,4.7605107421875,-590.0254516601562,-11.033843994140625,142.1172637939453
1776021569616503000,4.7705029296875,-589.420654296875,-11.027816772460938,142.0946807861328
1776021569626495700,4.780495849609375,-590.027587890625,-10.957595825195312,142.0210723876953
1776021569636489000,4.790489013671875,-590.2681884765625,-11.309555053710938,142.00123596191406
1776021569646482000,4.80048193359375,-590.4012451171875,-10.92529296875,142.00450134277344
1776021569656475000,4.810474853515625,-590.2902221679688,-10.63482666015625,142.3269805908203
1776021569666467800,4.8204677734375,-590.733154296875,-11.094985961914062,142.4605712890625
1776021569676461000,4.8304609375,-590.5744018554688,-11.183517456054688,142.1780242919922
1776021569686453800,4.840453857421875,-590.339111328125,-10.830856323242188,142.2565155029297
1776021569696447000,4.850447021484375,-591.343994140625,-11.149765014648438,141.9910125732422
1776021569706439000,4.86043896484375,-590.5300903320312,-10.847198486328125,142.26651000976562
1776021569716430800,4.870430908203125,-591.0433349609375,-10.782867431640625,142.24795532226562
1776021569726421000,4.8804208984375,-591.1097412109375,-10.8798828125,142.41159057617188
1776021569736413000,4.890412841796875,-590.7702026367188,-10.878005981445312,142.53326416015625
1776021569746403800,4.90040380859375,-591.05322265625,-10.734176635742188,142.47171020507812
1776021569756397000,4.91039697265625,-590.87353515625,-11.120651245117188,142.74252319335938
1776021569766389800,4.9203896484375,-591.439208984375,-10.872039794921875,142.65304565429688
1776021569776384000,4.930384033203125,-591.6097412109375,-10.6356201171875,142.4093780517578
1776021569786377000,4.940376953125,-591.6708374023438,-10.765625,142.654296875
1776021569796370000,4.950369873046875,-591.112548828125,-10.985549926757812,142.61082458496094
1776021569806363000,4.96036279296875,-591.7467651367188,-10.711212158203125,142.65866088867188
1776021569816355000,4.97035498046875,-592.2081909179688,-10.825042724609375,142.7991180419922
1776021569826346800,4.9803466796875,-592.33447265625,-10.485824584960938,143.3436737060547
1776021569836340000,4.990340087890625,-592.691650390625,-10.790924072265625,143.40159606933594
1776021569846334000,5.000333984375,-592.457763671875,-10.527130126953125,143.5064239501953
1776021569856327000,5.010326904296875,-592.1494140625,-10.5743408203125,143.51736450195312
1776021569866320000,5.02031982421875,-591.7822875976562,-10.428131103515625,143.6201171875
1776021569876313000,5.03031298828125,-592.5947265625,-10.936508178710938,143.3055419921875
1776021569886305800,5.040305908203125,-592.1685791015625,-11.0052490234375,143.53775024414062
1776021569896299000,5.050299072265625,-592.6609497070312,-10.799407958984375,143.52703857421875
1776021569906291000,5.060291015625,-592.894287109375,-10.558334350585938,143.04263305664062
1776021569916281900,5.07028173828125,-592.224609375,-10.690414428710938,143.1914520263672
1776021569926275000,5.080275146484375,-592.0026245117188,-10.773391723632812,143.31826782226562
1776021569936267000,5.09026708984375,-592.0126342773438,-10.775527954101562,143.30247497558594
1776021569946259000,5.100259033203125,-591.6091918945312,-10.767227172851562,143.30543518066406
1776021569956252000,5.110251953125,-591.9134521484375,-10.902587890625,143.28402709960938
1776021569966244900,5.120244873046875,-591.9261474609375,-10.63671875,142.9542694091797
1776021569976238800,5.13023876953125,-591.9826049804688,-10.956207275390625,142.96131896972656
1776021569986233000,5.140233154296875,-592.2874145507812,-11.060455322265625,142.91871643066406
1776021569996227000,5.15022705078125,-592.8164672851562,-11.011810302734375,142.65280151367188
1776021570006219800,5.1602197265625,-592.4090576171875,-11.09503173828125,142.85836791992188
1776021570016213000,5.170212890625,-592.5789794921875,-10.845748901367188,142.87403869628906
1776021570026206000,5.1802060546875,-592.6957397460938,-11.26995849609375,143.08349609375
1776021570036200000,5.190199951171875,-592.9876708984375,-11.135055541992188,142.92312622070312
1776021570046194000,5.20019384765625,-592.621826171875,-11.16082763671875,143.27447509765625
1776021570056188000,5.21018798828125,-592.2994995117188,-11.008514404296875,143.24966430664062
1776021570066182000,5.220181884765625,-592.9849853515625,-10.977554321289062,143.4641876220703
1776021570076176000,5.23017578125,-592.8642578125,-10.786788940429688,143.7214813232422
1776021570086169900,5.240169921875,-593.1674194335938,-10.546463012695312,143.76402282714844
1776021570096164000,5.2501640625,-593.3543090820312,-10.7484130859375,143.9913330078125
1776021570106156800,5.26015673828125,-593.0633544921875,-10.430953979492188,144.07691955566406
1776021570116151800,5.27015185546875,-592.9015502929688,-10.537185668945312,143.8909454345703
1776021570126147000,5.28014697265625,-593.4814453125,-10.528762817382812,143.8371124267578
1776021570136142000,5.29014208984375,-593.261474609375,-10.631591796875,143.90000915527344
1776021570146137000,5.30013720703125,-593.2330322265625,-10.605010986328125,144.10507202148438
1776021570156132000,5.310132080078125,-593.9478759765625,-10.2979736328125,143.99014282226562
1776021570166126300,5.320126220703125,-594.050048828125,-9.931747436523438,143.9952850341797
1776021570176120300,5.330120361328125,-593.8097534179688,-9.8885498046875,143.9150390625
1776021570186115300,5.340115234375,-593.6995849609375,-10.280899047851562,144.11172485351562
1776021570196109300,5.350109375,-593.4857177734375,-10.13970947265625,144.2645263671875
1776021570206102300,5.360102294921875,-593.4984741210938,-10.325469970703125,144.34170532226562
1776021570216096300,5.37009619140625,-593.3311157226562,-10.361358642578125,144.47572326660156
1776021570226090200,5.38009033203125,-593.5806884765625,-10.117889404296875,143.97357177734375
1776021570236084200,5.390084228515625,-593.2824096679688,-10.415054321289062,144.24484252929688
1776021570246076400,5.400076416015625,-593.8233032226562,-9.893814086914062,144.15805053710938
1776021570256069000,5.410069091796875,-594.006591796875,-10.735061645507812,143.96151733398438
1776021570266063000,5.42006298828125,-593.9052734375,-10.506668090820312,143.9327850341797
1776021570276057300,5.430057373046875,-593.5072631835938,-10.624374389648438,143.64659118652344
1776021570286050300,5.44005029296875,-593.7891845703125,-10.438369750976562,143.3308563232422
1776021570296044300,5.450044189453125,-593.6060791015625,-10.129806518554688,143.63523864746094
1776021570306037200,5.460037353515625,-593.4447021484375,-11.076812744140625,143.01080322265625
1776021570316031200,5.47003125,-593.7879638671875,-10.702377319335938,143.39064025878906
1776021570326025200,5.480025146484375,-593.3885498046875,-10.363800048828125,143.06521606445312
1776021570336020200,5.490020263671875,-593.4241333007812,-10.276870727539062,143.1480712890625
1776021570346014200,5.50001416015625,-593.602294921875,-10.527755737304688,142.79885864257812
1776021570356006100,5.510006103515625,-593.4768676757812,-10.581588745117188,143.14749145507812
1776021570365998300,5.519998291015625,-593.7828369140625,-10.66497802734375,142.88768005371094
1776021570375990300,5.529990234375,-593.5949096679688,-10.648605346679688,142.76669311523438
1776021570385981400,5.5399814453125,-592.9124145507812,-10.97503662109375,142.82940673828125
1776021570395972400,5.549972412109375,-593.470947265625,-10.6558837890625,142.67970275878906
1776021570405965300,5.55996533203125,-593.2713623046875,-10.597183227539062,142.63600158691406
1776021570415957200,5.569957275390625,-593.1815185546875,-10.611602783203125,142.5424346923828
1776021570425949400,5.579949462890625,-593.3583374023438,-10.786300659179688,142.52865600585938
1776021570435940400,5.5899404296875,-593.0106811523438,-11.014312744140625,142.700439453125
1776021570445932000,5.59993212890625,-593.5245971679688,-10.423477172851562,142.56207275390625
1776021570455924200,5.60992431640625,-593.418212890625,-10.536819458007812,142.7952423095703
1776021570465918200,5.619918212890625,-593.3450317382812,-10.685073852539062,142.83314514160156
1776021570475911200,5.6299111328125,-593.5155639648438,-10.883331298828125,142.90972900390625
1776021570485902300,5.63990234375,-592.7391357421875,-10.609878540039062,142.5482940673828
1776021570495895000,5.64989501953125,-593.4271240234375,-10.932861328125,142.4665985107422
1776021570505887200,5.65988720703125,-593.864501953125,-10.938064575195312,142.58287048339844
1776021570515879200,5.669879150390625,-593.5756225585938,-10.61907958984375,142.10643005371094
1776021570525871400,5.679871337890625,-593.0645751953125,-11.204559326171875,142.12359619140625
1776021570535864300,5.6898642578125,-592.6478881835938,-11.751510620117188,141.76065063476562
1776021570545856300,5.699856201171875,-592.25146484375,-11.166290283203125,141.75428771972656
1776021570555849200,5.70984912109375,-592.3541870117188,-11.002899169921875,141.92626953125
1776021570565843500,5.719843505859375,-592.4537353515625,-10.778594970703125,141.70367431640625
1776021570575838200,5.729838134765625,-592.4122314453125,-10.946395874023438,141.94625854492188
1776021570585831200,5.7398310546875,-592.26123046875,-11.16455078125,141.71481323242188
1776021570595826200,5.749826171875,-592.1751708984375,-10.740509033203125,141.8855743408203
1776021570605820200,5.759820068359375,-592.0879516601562,-11.124496459960938,141.7080841064453
1776021570615814100,5.769814208984375,-591.0904541015625,-11.2972412109375,141.35433959960938
1776021570625807400,5.779807373046875,-591.4395751953125,-11.356033325195312,141.2437286376953
1776021570635799300,5.78979931640625,-591.83935546875,-11.230606079101562,141.73231506347656
1776021570645790500,5.79979052734375,-591.0142211914062,-11.4940185546875,141.73675537109375
1776021570655783200,5.809783203125,-591.4691162109375,-11.454238891601562,141.66053771972656
1776021570665775400,5.819775390625,-591.05419921875,-11.468826293945312,141.73191833496094
1776021570675768000,5.82976806640625,-591.6753540039062,-11.765518188476562,141.92430114746094
1776021570685761300,5.83976123046875,-591.2852783203125,-11.402389526367188,141.953369140625
1776021570695754200,5.849754150390625,-591.3355712890625,-11.514694213867188,141.777099609375
1776021570705747500,5.85974755859375,-591.4130859375,-11.657363891601562,141.62896728515625
1776021570715740200,5.869740234375,-591.075927734375,-11.766387939453125,141.76223754882812
1776021570725732400,5.879732421875,-591.0079345703125,-11.546783447265625,141.81944274902344
1776021570735725000,5.88972509765625,-591.0239868164062,-11.623397827148438,141.58786010742188
1776021570745719300,5.89971923828125,-590.77734375,-11.527938842773438,141.60060119628906
1776021570755711200,5.909711181640625,-590.5682373046875,-11.753143310546875,141.4186553955078
1776021570765702100,5.9197021484375,-591.092041015625,-11.716705322265625,141.36964416503906
1776021570775696400,5.9296962890625,-590.942138671875,-11.631439208984375,141.73233032226562
1776021570785689300,5.939689453125,-591.0905151367188,-11.742965698242188,142.5321502685547
1776021570795682300,5.949682373046875,-590.4955444335938,-11.629989624023438,142.2909393310547
1776021570805675300,5.95967529296875,-591.66455078125,-11.499267578125,142.43154907226562
1776021570815669200,5.969669189453125,-590.8731689453125,-11.270431518554688,141.84710693359375
1776021570825660200,5.97966015625,-591.589599609375,-11.347427368164062,142.1292724609375
1776021570835652400,5.98965234375,-591.315673828125,-11.539016723632812,141.68890380859375
1776021570845644300,5.999644287109375,-590.9110107421875,-11.61016845703125,141.94908142089844
1776021570855637200,6.00963720703125,-590.8564453125,-11.892196655273438,141.50808715820312
1776021570865630200,6.019630126953125,-591.09375,-11.716598510742188,141.524658203125
1776021570875621400,6.029621337890625,-591.0175170898438,-11.66455078125,141.22532653808594
1776021570885613300,6.03961328125,-590.7550048828125,-12.082931518554688,141.46487426757812
1776021570895605200,6.049605224609375,-590.560302734375,-11.720245361328125,141.51702880859375
1776021570905597200,6.05959716796875,-591.1653442382812,-11.736923217773438,142.0738525390625
1776021570915590400,6.06959033203125,-589.9998779296875,-11.788406372070312,141.79029846191406
1776021570925583400,6.079583251953125,-590.8034057617188,-11.727294921875,141.5143280029297
1776021570935576300,6.089576416015625,-590.196533203125,-11.950881958007812,141.84011840820312
1776021570945569300,6.0995693359375,-590.1312255859375,-11.772491455078125,141.6606903076172
1776021570955563300,6.109563232421875,-590.2239990234375,-11.816375732421875,141.47979736328125
1776021570965556200,6.11955615234375,-589.963134765625,-11.911468505859375,141.30178833007812
1776021570975548200,6.129548095703125,-590.2860717773438,-11.797073364257812,141.13226318359375
1776021570985542400,6.13954248046875,-589.85498046875,-12.169021606445312,141.4905548095703
1776021570995536400,6.149536376953125,-589.9366455078125,-11.737136840820312,141.23194885253906
1776021571005530400,6.1595302734375,-590.15869140625,-11.783111572265625,141.20953369140625
1776021571015522300,6.169522216796875,-590.3750610351562,-11.715423583984375,141.61863708496094
1776021571025514200,6.17951416015625,-590.947021484375,-11.85333251953125,141.68641662597656
1776021571035508200,6.18950830078125,-591.1226806640625,-12.235702514648438,141.79666137695312
1776021571045500200,6.199500244140625,-590.7975463867188,-11.9288330078125,141.98353576660156
1776021571055492000,6.2094921875,-590.010986328125,-12.124603271484375,141.6304473876953
1776021571065485300,6.2194853515625,-589.991455078125,-12.060638427734375,141.61302185058594
1776021571075478300,6.229478271484375,-590.1271362304688,-11.832351684570312,141.34498596191406
1776021571085471200,6.23947119140625,-590.5258178710938,-11.82293701171875,141.4553680419922
1776021571095463200,6.249463134765625,-589.66748046875,-12.395645141601562,141.06484985351562
1776021571105456400,6.259456298828125,-589.9443969726562,-12.369430541992188,141.44577026367188
1776021571115449000,6.269448974609375,-590.49462890625,-12.104446411132812,141.3607940673828
1776021571125442300,6.2794423828125,-590.1957397460938,-12.158843994140625,141.12693786621094
1776021571135436300,6.289436279296875,-590.058349609375,-12.134262084960938,141.52468872070312
1776021571145429200,6.29942919921875,-589.8782958984375,-12.015213012695312,141.02774047851562
1776021571155422000,6.309421875,-590.848388671875,-11.875595092773438,141.3884735107422
1776021571165415000,6.319414794921875,-590.04833984375,-11.709014892578125,141.2443084716797
1776021571175407900,6.329407958984375,-590.3911743164062,-12.117706298828125,141.01272583007812
1776021571185401000,6.339401123046875,-589.416748046875,-11.886932373046875,141.2308349609375
1776021571195395000,6.34939501953125,-590.3524169921875,-12.085800170898438,141.2276611328125
1776021571205387800,6.3593876953125,-590.1072387695312,-11.789535522460938,141.31361389160156
1776021571215381000,6.369381103515625,-589.7817993164062,-11.928085327148438,141.25537109375
1776021571225374000,6.3793740234375,-589.7210693359375,-11.715011596679688,141.04171752929688
1776021571235367700,6.38936767578125,-590.0113525390625,-12.037490844726562,141.26678466796875
1776021571245361000,6.39936083984375,-589.9459228515625,-12.0631103515625,141.26193237304688
1776021571255355000,6.40935498046875,-590.0321044921875,-11.879730224609375,141.38717651367188
1776021571265348900,6.419348876953125,-589.8228759765625,-11.528839111328125,141.47998046875
1776021571275342800,6.4293427734375,-589.8864135742188,-11.903732299804688,141.45010375976562
1776021571285337000,6.439337158203125,-590.2532348632812,-12.002304077148438,141.1973114013672
1776021571295330800,6.449330810546875,-589.5839233398438,-12.11614990234375,141.2207794189453
1776021571305324800,6.45932470703125,-590.028564453125,-11.9979248046875,141.3607940673828
1776021571315317800,6.46931787109375,-589.60693359375,-12.091049194335938,141.2681884765625
1776021571325312800,6.479312744140625,-589.710693359375,-12.014556884765625,141.24729919433594
1776021571335307000,6.48930712890625,-589.73193359375,-12.260894775390625,141.18899536132812
1776021571345300000,6.499300048828125,-589.4898681640625,-12.206130981445312,141.55398559570312
1776021571355292000,6.5092919921875,-590.4652099609375,-12.034286499023438,141.4604949951172
1776021571365286000,6.519285888671875,-590.2724609375,-11.713729858398438,141.43043518066406
1776021571375278000,6.529278076171875,-589.8430786132812,-11.763580322265625,141.74063110351562
1776021571385269800,6.539269775390625,-589.8603515625,-11.895477294921875,141.61338806152344
1776021571395261700,6.54926171875,-589.9580078125,-11.884140014648438,141.41395568847656
1776021571405255700,6.559255615234375,-590.1126708984375,-12.051712036132812,141.563720703125
1776021571415250000,6.56925,-590.5570678710938,-12.199111938476562,141.70806884765625
1776021571425244000,6.579243896484375,-590.41259765625,-12.165298461914062,141.63955688476562
1776021571435238000,6.58923779296875,-590.0733032226562,-12.0911865234375,141.50961303710938
1776021571445231900,6.59923193359375,-589.9998779296875,-12.328750610351562,141.65316772460938
1776021571455225000,6.60922509765625,-590.05517578125,-12.173202514648438,141.8947296142578
1776021571465217800,6.6192177734375,-590.465576171875,-12.210098266601562,142.0650177001953
1776021571475211000,6.6292109375,-590.3037109375,-12.118637084960938,142.1658172607422
1776021571485204000,6.639203857421875,-590.0975952148438,-12.422012329101562,141.5834503173828
1776021571495197000,6.649197021484375,-590.0059814453125,-12.017578125,141.97900390625
1776021571505190000,6.65918994140625,-590.0494384765625,-12.324935913085938,141.90432739257812
1776021571515183900,6.669183837890625,-590.2633056640625,-12.3231201171875,141.89224243164062
1776021571525175800,6.67917578125,-590.4381103515625,-12.048721313476562,141.49818420410156
1776021571535168000,6.68916796875,-589.8731079101562,-12.153396606445312,141.78746032714844
1776021571545160700,6.69916064453125,-589.6783447265625,-12.54608154296875,141.5908203125
1776021571555154700,6.70915478515625,-589.8245849609375,-12.021011352539062,141.85113525390625
1776021571565149000,6.71914892578125,-589.9668579101562,-12.163681030273438,141.74441528320312
1776021571575143000,6.729142822265625,-590.1712646484375,-12.248779296875,141.81324768066406
1776021571585137000,6.739136962890625,-589.63232421875,-12.134185791015625,141.86769104003906
1776021571595129900,6.7491298828125,-589.6096801757812,-12.1558837890625,141.81967163085938
1776021571605122800,6.759122802734375,-589.5584716796875,-11.948013305664062,141.85704040527344
1776021571615115800,6.76911572265625,-590.1963500976562,-12.230209350585938,141.52818298339844
1776021571625110000,6.779110107421875,-589.3711547851562,-12.106918334960938,141.8161163330078
1776021571635104800,6.789104736328125,-589.8928833007812,-12.356719970703125,141.73081970214844
1776021571645099000,6.79909912109375,-589.287109375,-12.262741088867188,141.701416015625
1776021571655093000,6.809093017578125,-589.5909423828125,-12.546112060546875,141.64776611328125
1776021571665088000,6.819087890625,-589.3980712890625,-12.156570434570312,141.525634765625
1776021571675083000,6.8290830078125,-589.4442138671875,-12.05633544921875,141.698974609375
1776021571685075700,6.83907568359375,-589.0765991210938,-12.1331787109375,141.95541381835938
1776021571695069700,6.849069580078125,-589.206298828125,-12.253997802734375,141.82188415527344
1776021571705063000,6.85906298828125,-589.2579345703125,-12.187606811523438,141.7369384765625
1776021571715055900,6.869055908203125,-589.9362182617188,-12.131729125976562,142.092529296875
1776021571725048800,6.879048828125,-589.5389404296875,-12.466384887695312,141.8088836669922
1776021571735042800,6.889042724609375,-588.9769287109375,-12.466064453125,142.11009216308594
1776021571745035800,6.899035888671875,-588.7093505859375,-12.273757934570312,141.86099243164062
1776021571755029000,6.909029052734375,-588.9325561523438,-12.352249145507812,141.8264617919922
1776021571765023000,6.91902294921875,-589.673095703125,-12.180099487304688,141.9071807861328
1776021571775016700,6.9290166015625,-589.5189208984375,-12.83880615234375,142.02651977539062
1776021571785011700,6.93901171875,-589.3677368164062,-12.712387084960938,141.76553344726562
1776021571795005700,6.949005615234375,-589.5899658203125,-12.21112060546875,141.74542236328125
1776021571805000700,6.959000732421875,-589.815673828125,-12.198486328125,141.87857055664062
1776021571814997000,6.9689970703125,-589.850830078125,-12.347854614257812,141.92770385742188
1776021571824993800,6.978993896484375,-589.2530517578125,-12.4630126953125,141.8782196044922
1776021571834991000,6.9889912109375,-589.2373046875,-11.851577758789062,142.1367950439453
1776021571844985900,6.99898583984375,-589.5245971679688,-12.216323852539062,142.24365234375
1776021571854983000,7.00898291015625,-589.6209716796875,-12.328094482421875,142.16065979003906
1776021571864978700,7.018978759765625,-590.0302124023438,-12.176589965820312,141.8798828125
1776021571874976000,7.02897607421875,-589.9434814453125,-12.128692626953125,141.93609619140625
1776021571884973800,7.038973876953125,-590.067138671875,-11.857696533203125,141.94009399414062
1776021571894971000,7.048970947265625,-589.6539916992188,-12.378036499023438,141.86204528808594
1776021571904967000,7.058966796875,-589.4698486328125,-12.156204223632812,141.88095092773438
1776021571914962700,7.068962646484375,-589.54931640625,-12.49554443359375,142.2355499267578
1776021571924960000,7.0789599609375,-589.2938842773438,-12.123931884765625,141.69931030273438
1776021571934955000,7.088955078125,-589.8938598632812,-12.361648559570312,141.919677734375
1776021571944949800,7.09894970703125,-589.402587890625,-12.479995727539062,141.93942260742188
1776021571954945800,7.10894580078125,-589.8817138671875,-12.37213134765625,142.0002899169922
1776021571964942000,7.118942138671875,-590.1578369140625,-12.521713256835938,141.77183532714844
1776021571974937000,7.12893701171875,-589.4240112304688,-12.311782836914062,142.1791534423828
1776021571984931000,7.13893115234375,-590.1040649414062,-12.399505615234375,142.18136596679688
1776021571994926000,7.148926025390625,-589.2450561523438,-12.805984497070312,142.2660369873047
1776021572004920800,7.1589208984375,-588.9019165039062,-12.601974487304688,142.0647430419922
1776021572014915800,7.168915771484375,-589.4701538085938,-12.410430908203125,142.1251220703125
1776021572024910000,7.17891015625,-589.1539306640625,-12.860427856445312,142.01797485351562
1776021572034902800,7.18890283203125,-589.5889892578125,-11.97869873046875,141.8873748779297
1776021572044896800,7.198896728515625,-589.8241577148438,-12.227371215820312,141.96414184570312
1776021572054890800,7.208890869140625,-589.9104614257812,-12.115798950195312,141.94886779785156
1776021572064884000,7.218884033203125,-590.0870971679688,-12.131744384765625,142.19146728515625
1776021572074878000,7.2288779296875,-590.1182250976562,-12.175949096679688,142.33767700195312
1776021572084871700,7.23887158203125,-589.7163696289062,-12.193084716796875,141.83399963378906
1776021572094867000,7.248866943359375,-589.8391723632812,-12.176498413085938,142.25320434570312
1776021572104862000,7.258862060546875,-589.5321655273438,-12.404067993164062,141.93788146972656
1776021572114855700,7.268855712890625,-589.4271240234375,-12.759475708007812,141.92779541015625
1776021572124850000,7.278849853515625,-589.56103515625,-12.452346801757812,142.0458526611328
1776021572134844700,7.2888447265625,-589.843505859375,-12.382003784179688,141.9115753173828
1776021572144841000,7.298841064453125,-589.5691528320312,-12.378082275390625,141.87205505371094
1776021572154837200,7.308837158203125,-589.4933471679688,-12.0645751953125,142.18914794921875
1776021572164833300,7.318833251953125,-589.950927734375,-11.974197387695312,142.12379455566406
1776021572174828500,7.32882861328125,-589.6673583984375,-12.264434814453125,141.98703002929688
1776021572184823600,7.338823486328125,-590.026123046875,-12.353439331054688,142.15945434570312
1776021572194820400,7.3488203125,-589.8573608398438,-12.508209228515625,142.0782470703125
1776021572204816400,7.35881640625,-589.8656005859375,-12.4796142578125,142.3178253173828
1776021572214811400,7.368811279296875,-589.2093505859375,-12.387435913085938,142.16311645507812
1776021572224807400,7.378807373046875,-589.2301025390625,-12.596282958984375,142.4599151611328
1776021572234803500,7.388803466796875,-589.6683959960938,-12.309341430664062,141.96307373046875
1776021572244798500,7.398798583984375,-589.7371215820312,-12.117340087890625,142.18780517578125
1776021572254794200,7.408794189453125,-589.9063720703125,-12.270065307617188,142.25843811035156
1776021572264790500,7.41879052734375,-589.6585693359375,-12.331100463867188,141.89944458007812
1776021572274786600,7.42878662109375,-589.7156982421875,-12.546646118164062,142.2197723388672
1776021572284782300,7.4387822265625,-589.6181640625,-12.334991455078125,141.89796447753906
1776021572294777300,7.44877734375,-590.093994140625,-12.687469482421875,142.2491912841797
1776021572304772400,7.4587724609375,-590.2974853515625,-12.575286865234375,142.2781219482422
1776021572314768400,7.468768310546875,-590.4473266601562,-12.434829711914062,141.94039916992188
1776021572324763600,7.478763671875,-589.284912109375,-12.361480712890625,141.87379455566406
1776021572334760400,7.488760498046875,-589.7511596679688,-12.5595703125,142.03675842285156
1776021572344756500,7.498756591796875,-590.0880126953125,-12.12109375,142.06607055664062
1776021572354752300,7.508752197265625,-589.1180419921875,-12.269577026367188,142.05360412597656
1776021572364747500,7.51874755859375,-589.765869140625,-12.346038818359375,141.99545288085938
1776021572374742500,7.528742431640625,-590.050048828125,-12.12518310546875,141.7460479736328
1776021572384736500,7.538736572265625,-589.8287353515625,-12.4595947265625,142.01412963867188
1776021572394731500,7.5487314453125,-590.3966064453125,-12.431976318359375,141.8052978515625
1776021572404726500,7.5587265625,-589.7711181640625,-12.099227905273438,141.85826110839844
1776021572414721500,7.568721435546875,-590.234130859375,-12.48480224609375,142.38693237304688
1776021572424716500,7.578716552734375,-590.4094848632812,-12.141494750976562,142.2203369140625
1776021572434712300,7.58871240234375,-589.986572265625,-12.11737060546875,142.1427459716797
1776021572444706600,7.59870654296875,-589.891845703125,-12.378799438476562,142.14442443847656
1776021572454702300,7.608702392578125,-590.1964111328125,-12.201736450195312,142.27940368652344
1776021572464697300,7.618697265625,-590.4365234375,-12.1676025390625,142.39987182617188
1776021572474692400,7.6286923828125,-590.005126953125,-12.6455078125,141.91395568847656
1776021572484688600,7.638688720703125,-590.5068359375,-12.072647094726562,142.47645568847656
1776021572494685400,7.648685546875,-589.8984375,-12.138320922851562,142.14822387695312
1776021572504682200,7.65868212890625,-590.4403076171875,-12.189498901367188,142.55908203125
1776021572514678500,7.668678466796875,-589.9806518554688,-12.252975463867188,142.71031188964844
1776021572524674300,7.67867431640625,-590.0902099609375,-12.14093017578125,142.5836639404297
1776021572534669300,7.68866943359375,-590.5867309570312,-12.39141845703125,142.62059020996094
1776021572544665300,7.698665283203125,-589.9708251953125,-12.200408935546875,142.15643310546875
1776021572554660400,7.708660400390625,-590.4922485351562,-12.205123901367188,142.25096130371094
1776021572564656400,7.718656494140625,-590.0620727539062,-12.203323364257812,142.11598205566406
1776021572574651400,7.7286513671875,-589.53271484375,-12.460357666015625,142.6227569580078
1776021572584647400,7.7386474609375,-589.836181640625,-12.146820068359375,142.25259399414062
1776021572594643500,7.7486435546875,-589.4083251953125,-12.061477661132812,141.9559326171875
1776021572604639500,7.758639404296875,-589.7827758789062,-12.470962524414062,142.499267578125
1776021572614635500,7.768635498046875,-589.5083618164062,-12.612884521484375,142.45970153808594
1776021572624629500,7.77862939453125,-589.7313232421875,-12.2916259765625,142.2488555908203
1776021572634624500,7.78862451171875,-589.6311645507812,-12.178466796875,142.306884765625
1776021572644619500,7.79861962890625,-589.3445434570312,-12.544586181640625,142.15089416503906
1776021572654614500,7.808614501953125,-589.8262329101562,-12.330169677734375,141.9974365234375
1776021572664608500,7.8186083984375,-589.8346557617188,-12.460983276367188,142.35922241210938
1776021572674603500,7.828603515625,-589.748779296875,-12.1075439453125,142.2888641357422
1776021572684598500,7.8385986328125,-590.0274047851562,-12.42047119140625,142.28604125976562
1776021572694593500,7.848593505859375,-589.6819458007812,-12.469696044921875,142.4725799560547
1776021572704588300,7.85858837890625,-589.5352783203125,-12.062728881835938,142.2480010986328
1776021572714584300,7.868584228515625,-590.3702392578125,-12.173599243164062,142.25437927246094
1776021572724579300,7.878579345703125,-589.9766845703125,-12.388519287109375,142.3562469482422
1776021572734574300,7.88857421875,-590.0677490234375,-12.413497924804688,142.1964111328125
1776021572744570400,7.8985703125,-590.129150390625,-12.300735473632812,142.36656188964844
1776021572754566400,7.90856640625,-589.853759765625,-12.462860107421875,142.0375213623047
1776021572764562400,7.9185625,-590.549560546875,-12.384521484375,142.28652954101562
1776021572774557400,7.928557373046875,-589.783203125,-12.45745849609375,142.2530059814453
1776021572784551400,7.938551513671875,-590.0228271484375,-12.493377685546875,142.1958465576172
1776021572794545400,7.94854541015625,-589.8309326171875,-12.485443115234375,142.57701110839844
1776021572804540400,7.95854052734375,-590.2200927734375,-12.928253173828125,142.32212829589844
1776021572814534400,7.968534423828125,-590.1589965820312,-12.37176513671875,142.27687072753906
1776021572824530400,7.978530517578125,-589.9181518554688,-12.597549438476562,141.9720001220703
1776021572834526200,7.988526123046875,-589.4937744140625,-12.3143310546875,142.00233459472656
1776021572844522500,7.9985224609375,-589.0924682617188,-12.564620971679688,142.1898956298828
1776021572854518500,8.0085185546875,-589.2684936523438,-12.377243041992188,142.60879516601562
1776021572864515300,8.018515380859375,-589.437255859375,-12.243804931640625,141.87498474121094
1776021572874510600,8.028510498046876,-589.1715087890625,-12.137191772460938,142.40771484375
1776021572884505600,8.038505615234374,-589.2364501953125,-12.4989013671875,142.30804443359375
1776021572894500600,8.04850048828125,-588.687744140625,-12.525177001953125,142.15032958984375
1776021572904496400,8.058496337890626,-588.94580078125,-12.172927856445312,142.4061737060547
1776021572914490400,8.068490478515624,-589.068603515625,-12.360458374023438,142.19424438476562
1776021572924486400,8.078486328125,-589.2689208984375,-12.31060791015625,142.22784423828125
1776021572934482400,8.088482421875,-589.2284545898438,-12.550888061523438,142.2754364013672
1776021572944477400,8.0984775390625,-588.9923095703125,-12.321823120117188,142.15135192871094
1776021572954472200,8.10847216796875,-589.5258178710938,-12.249160766601562,142.1381072998047
1776021572964467500,8.118467529296876,-589.524658203125,-12.488388061523438,142.06626892089844
1776021572974461400,8.12846142578125,-588.7353515625,-12.432296752929688,142.23971557617188
1776021572984453400,8.138453369140626,-589.3384399414062,-12.17218017578125,142.0936279296875
1776021572994446600,8.148446533203124,-588.5104370117188,-12.426345825195312,142.07089233398438
1776021573004438500,8.1584384765625,-588.92822265625,-12.102462768554688,142.22718811035156
1776021573014432500,8.1684326171875,-588.988037109375,-12.396209716796875,142.11492919921875
1776021573024424200,8.178424072265624,-588.8945922851562,-12.257217407226562,142.1165313720703
1776021573034416400,8.18841650390625,-589.1323852539062,-12.249588012695312,142.39581298828125
1776021573044408300,8.198408203125,-589.49169921875,-12.326507568359375,142.14007568359375
1776021573054401300,8.2084013671875,-589.3107299804688,-12.156417846679688,142.58987426757812
1776021573064393500,8.2183935546875,-588.7384033203125,-12.694625854492188,141.9521484375
1776021573074385400,8.228385498046874,-588.9595947265625,-12.667083740234375,142.3809051513672
1776021573084377600,8.238377685546874,-589.23828125,-12.162353515625,141.93435668945312
1776021573094369500,8.24836962890625,-589.5348510742188,-12.256317138671875,142.0027313232422
1776021573104361500,8.258361572265626,-589.4996948242188,-12.325271606445312,141.90655517578125
1776021573114353400,8.268353515625,-589.4642333984375,-12.130752563476562,141.6443634033203
1776021573124346400,8.278346435546876,-589.2425537109375,-12.48443603515625,141.9569091796875
1776021573134338300,8.28833837890625,-589.6897583007812,-12.280868530273438,142.1243133544922
1776021573144333300,8.298333251953125,-589.1451416015625,-12.559722900390625,141.71627807617188
1776021573154327000,8.3083271484375,-589.5093994140625,-12.352447509765625,142.1257781982422
1776021573164321000,8.318321044921875,-589.5938110351562,-12.421554565429688,141.81198120117188
1776021573174314000,8.32831396484375,-589.6476440429688,-12.5079345703125,141.76495361328125
1776021573184307200,8.33830712890625,-589.2823486328125,-12.224227905273438,142.10687255859375
1776021573194300000,8.3482998046875,-589.4020385742188,-12.257980346679688,142.42208862304688
1776021573204293000,8.358293212890626,-589.7625732421875,-11.96514892578125,142.077392578125
1776021573214286000,8.3682861328125,-589.6875610351562,-11.961715698242188,142.30874633789062
1776021573224279000,8.378279052734374,-589.2098999023438,-11.990005493164062,142.6173095703125
1776021573234273000,8.38827294921875,-590.3909912109375,-11.764907836914062,142.90077209472656
1776021573244267000,8.39826708984375,-590.5997924804688,-11.660232543945312,142.84304809570312
1776021573254259200,8.40825927734375,-590.035400390625,-12.03765869140625,142.9581756591797
1776021573264251000,8.4182509765625,-590.2490234375,-11.873565673828125,143.1415557861328
1776021573274244000,8.428244140625,-589.9874877929688,-11.636581420898438,143.00990295410156
1776021573284237000,8.438237060546875,-590.2484130859375,-11.649063110351562,143.57676696777344
1776021573294229000,8.44822900390625,-590.0853881835938,-11.767745971679688,143.47183227539062
1776021573304221200,8.45822119140625,-590.9440307617188,-11.538009643554688,143.6518096923828
1776021573314215000,8.46821484375,-591.028564453125,-11.274917602539062,143.28860473632812
1776021573324207000,8.47820703125,-590.7679443359375,-11.267074584960938,142.84530639648438
1776021573334200000,8.488199951171875,-590.525634765625,-11.452407836914062,142.90200805664062
1776021573344194000,8.498194091796876,-590.8065795898438,-11.555252075195312,142.53160095214844
1776021573354187000,8.50818701171875,-590.7125244140625,-11.16033935546875,142.19821166992188
1776021573364180000,8.518179931640624,-590.2896118164062,-11.117523193359375,142.2133026123047
1776021573374174200,8.52817431640625,-590.4334106445312,-11.413177490234375,141.94187927246094
1776021573384168200,8.538168212890625,-590.3433837890625,-11.454498291015625,141.67864990234375
1776021573394162000,8.548161865234375,-590.3844604492188,-11.334884643554688,141.75318908691406
1776021573404156000,8.558156005859376,-590.8756713867188,-11.60198974609375,141.5127716064453
1776021573414150000,8.56814990234375,-590.3514404296875,-11.647918701171875,141.5974884033203
1776021573424142000,8.57814208984375,-591.41552734375,-11.587738037109375,141.88525390625
1776021573434134000,8.588134033203126,-591.1438598632812,-11.306961059570312,142.19993591308594
1776021573444127000,8.598126953125,-591.83447265625,-11.217514038085938,142.4571990966797
1776021573454120200,8.6081201171875,-592.0438232421875,-11.218399047851562,142.84799194335938
1776021573464114000,8.618114013671875,-592.2723388671875,-11.381362915039062,143.5966033935547
1776021573474107100,8.628107177734375,-592.374267578125,-11.051666259765625,144.68789672851562
1776021573484099000,8.63809912109375,-592.406494140625,-11.170181274414062,145.11705017089844
1776021573494092000,8.648092041015625,-592.9232177734375,-10.942047119140625,145.7867889404297
1776021573504084200,8.658084228515625,-592.7132568359375,-11.101272583007812,145.97998046875
1776021573514077000,8.668076904296875,-592.7535400390625,-11.068496704101562,145.9846649169922
1776021573524069000,8.678069091796875,-593.152099609375,-10.940887451171875,146.34063720703125
1776021573534062000,8.68806201171875,-592.6624755859375,-10.765106201171875,146.11203002929688
1776021573544056000,8.69805615234375,-593.1982421875,-10.966720581054688,145.89407348632812
1776021573554048000,8.708048095703125,-593.24853515625,-10.56207275390625,146.1966552734375
1776021573564041200,8.718041259765625,-592.7816162109375,-10.708938598632812,145.73204040527344
1776021573574033000,8.728032958984375,-592.9400024414062,-10.410552978515625,145.97898864746094
1776021573584026000,8.738026123046875,-593.1362915039062,-10.474868774414062,145.66331481933594
1776021573594018000,8.74801806640625,-592.978515625,-10.462310791015625,146.08518981933594
1776021573604010000,8.758010009765625,-592.70654296875,-10.47393798828125,146.15782165527344
1776021573614003000,8.7680029296875,-593.412841796875,-10.229812622070312,146.4297332763672
1776021573623995100,8.7779951171875,-592.9561767578125,-10.01434326171875,146.10655212402344
1776021573633988000,8.787988037109375,-592.7820434570312,-9.631195068359375,146.40963745117188
1776021573643981000,8.79798095703125,-592.7399291992188,-10.22198486328125,146.1864471435547
1776021573653975000,8.80797509765625,-593.3142700195312,-10.258285522460938,146.1774444580078
1776021573663969000,8.817968994140625,-593.3585815429688,-10.172088623046875,146.34165954589844
1776021573673963000,8.827962890625,-593.5643310546875,-10.2457275390625,146.49400329589844
1776021573683959000,8.837958984375,-593.6909790039062,-10.167587280273438,146.68528747558594
1776021573693952000,8.847951904296876,-593.8411254882812,-9.985946655273438,147.26568603515625
1776021573703947000,8.857947021484375,-593.8333740234375,-10.079559326171875,147.70388793945312
1776021573713941000,8.86794091796875,-594.9636840820312,-9.92144775390625,147.5153350830078
1776021573723935200,8.877935302734375,-594.9541625976562,-10.180496215820312,147.93487548828125
1776021573733927000,8.887927001953125,-594.96630859375,-10.058029174804688,148.1402587890625
1776021573743920000,8.897920166015625,-595.6060791015625,-10.136215209960938,147.89874267578125
1776021573753912800,8.907912841796875,-595.0606689453125,-9.902297973632812,148.10733032226562
1776021573763906000,8.917906005859376,-595.358642578125,-9.881362915039062,148.14990234375
1776021573773897000,8.92789697265625,-595.5447998046875,-9.841400146484375,148.62515258789062
1776021573783889200,8.93788916015625,-595.9894409179688,-10.08013916015625,148.73471069335938
1776021573793883100,8.947883056640626,-596.0458984375,-9.974273681640625,148.86611938476562
1776021573803876000,8.9578759765625,-595.568115234375,-10.20013427734375,148.90980529785156
1776021573813868000,8.967867919921876,-595.5341796875,-9.992767333984375,149.38528442382812
1776021573823859000,8.97785888671875,-596.6217041015625,-10.107452392578125,149.50733947753906
1776021573833851100,8.98785107421875,-596.5677490234375,-9.873275756835938,149.9755401611328
1776021573843843000,8.997843017578125,-597.0403442382812,-9.832183837890625,150.1180877685547
1776021573853836000,9.0078359375,-597.2374877929688,-9.651962280273438,150.27059936523438
1776021573863829200,9.017829345703126,-597.4375,-9.68798828125,150.57582092285156
1776021573873821000,9.027821044921875,-598.1914672851562,-9.180618286132812,151.49366760253906
1776021573883813000,9.037813232421875,-598.0571899414062,-9.286514282226562,151.74195861816406
1776021573893806000,9.04780615234375,-598.09033203125,-9.233352661132812,152.0967559814453
1776021573903800000,9.057800048828126,-598.051025390625,-9.107940673828125,151.92919921875
1776021573913793000,9.06779296875,-598.04638671875,-3.843048095703125,152.26177978515625
1776021573923785000,9.077784912109376,-598.9639892578125,16.474624633789062,151.96095275878906
1776021573933778000,9.08777783203125,-599.1564331054688,31.587875366210938,151.3651885986328
1776021573943773000,9.09777294921875,-598.7305908203125,48.56425476074219,151.2421417236328
1776021573953768000,9.107767822265625,-597.5307006835938,69.92240905761719,150.39996337890625
1776021573963763000,9.117762939453126,-595.3363037109375,95.38246154785156,149.55296325683594
1776021573973758000,9.127758056640625,-590.9235229492188,122.83770751953125,148.02671813964844
1776021573983753000,9.1377529296875,-584.4287109375,149.93093872070312,145.9755096435547
1776021573993749200,9.147749267578124,-574.3865966796875,170.43338012695312,142.9423065185547
1776021574003744000,9.157743896484375,-564.315185546875,185.55055236816406,139.30792236328125
1776021574013738200,9.16773828125,-553.5877685546875,196.48532104492188,135.18763732910156
1776021574023731000,9.17773095703125,-545.0217895507812,202.93043518066406,130.7404327392578
1776021574033725000,9.187724853515626,-539.048828125,207.18588256835938,126.12419128417969
1776021574043719200,9.19771923828125,-535.6224365234375,208.79737854003906,120.3646240234375
1776021574053710800,9.2077109375,-536.900390625,212.173583984375,112.98204040527344
1776021574063705000,9.217705078125,-542.5050659179688,217.24046325683594,103.18072509765625
1776021574073699000,9.227698974609375,-554.1957397460938,225.21450805664062,90.0689697265625
1776021574083693000,9.237693115234375,-572.7159423828125,237.486328125,73.67054748535156
1776021574093687000,9.24768701171875,-570.6175537109375,236.506591796875,74.79415893554688
1776021574103682000,9.25768212890625,-570.6555786132812,236.0706024169922,75.30160522460938
1776021574113676000,9.267676025390625,-570.8818359375,235.7010498046875,76.14187622070312
1776021574123671000,9.277671142578125,-571.684814453125,233.7914581298828,76.57839965820312
1776021574133665000,9.2876650390625,-573.7589111328125,229.21868896484375,77.67112731933594
1776021574143659000,9.297658935546876,-575.381591796875,224.57049560546875,78.75779724121094
1776021574153653200,9.3076533203125,-577.356689453125,219.968017578125,79.41058349609375
1776021574163646200,9.317646240234374,-579.4290771484375,215.76986694335938,79.87297058105469
1776021574173639400,9.327639404296875,-581.006591796875,212.07687377929688,80.13916015625
1776021574183632100,9.337632080078125,-582.3831787109375,208.1286163330078,80.41470336914062
1776021574193624300,9.347624267578125,-583.7625122070312,202.35797119140625,80.64476013183594
1776021574203618300,9.357618408203125,-586.080810546875,197.00595092773438,79.70730590820312
1776021574213612300,9.3676123046875,-587.2395629882812,191.62579345703125,77.52496337890625
1776021574223607300,9.377607177734374,-588.223876953125,189.7606658935547,73.26426696777344
1776021574233601300,9.387601318359375,-588.208984375,190.7284393310547,68.01727294921875
1776021574243595300,9.39759521484375,-586.5863647460938,191.79959106445312,65.66455078125
1776021574253589200,9.40758935546875,-585.9188842773438,191.4718017578125,64.04141235351562
1776021574263582200,9.417582275390625,-586.8004150390625,189.66323852539062,64.55157470703125
1776021574273573000,9.427572998046875,-587.607666015625,187.2790069580078,65.56095886230469
1776021574283565300,9.4375654296875,-588.8409423828125,185.59796142578125,66.05181884765625
1776021574293558300,9.447558349609375,-588.9951782226562,185.10128784179688,66.24703979492188
1776021574303550200,9.45755029296875,-589.0726928710938,186.01953125,66.60850524902344
1776021574313543400,9.46754345703125,-588.7534790039062,186.11337280273438,66.17291259765625
1776021574323535000,9.47753515625,-589.4864501953125,186.09193420410156,66.04153442382812
1776021574333528300,9.4875283203125,-590.251708984375,186.32720947265625,66.40219116210938
1776021574343521300,9.497521240234375,-589.7159423828125,186.82159423828125,66.45848083496094
1776021574353514200,9.50751416015625,-589.8597412109375,186.70867919921875,66.82286071777344
1776021574363506400,9.51750634765625,-590.2020263671875,186.71395874023438,67.556640625
1776021574373498000,9.527498046875,-589.4526977539062,186.69171142578125,66.6903076171875
1776021574383491300,9.5374912109375,-590.227783203125,186.0223846435547,66.19676208496094
1776021574393483300,9.547483154296875,-589.9000854492188,186.04176330566406,66.04588317871094
1776021574403475200,9.55747509765625,-589.4808349609375,185.43328857421875,65.5750732421875
1776021574413467100,9.567467041015625,-589.4432983398438,184.65391540527344,65.09696960449219
1776021574423459300,9.577459228515625,-588.9772338867188,184.6510009765625,64.43563842773438
1776021574433453300,9.587453369140626,-589.8565673828125,185.1131591796875,64.99502563476562
1776021574443446300,9.5974462890625,-590.1016845703125,185.25819396972656,64.68853759765625
1776021574453439200,9.607439208984376,-590.06884765625,185.49427795410156,65.4683837890625
1776021574463432200,9.61743212890625,-589.5252685546875,185.8394317626953,64.94346618652344
1776021574473424100,9.627424072265624,-589.6004638671875,186.04908752441406,65.482177734375
1776021574483417300,9.637417236328124,-589.5086669921875,186.4739227294922,65.38003540039062
1776021574493410300,9.647410400390624,-589.915771484375,186.41836547851562,65.75547790527344
1776021574503402200,9.65740234375,-590.2989501953125,186.33547973632812,65.71128845214844
1776021574513394400,9.66739453125,-589.4978637695312,186.62246704101562,65.83222961425781
1776021574523387100,9.67738720703125,-589.9255981445312,186.1704559326172,65.82493591308594
1776021574533379300,9.68737939453125,-589.2215576171875,186.09796142578125,65.70138549804688
1776021574543372000,9.6973720703125,-588.8741455078125,185.508056640625,65.94613647460938
1776021574553366300,9.7073662109375,-587.9927978515625,184.5972442626953,66.01948547363281
1776021574563358200,9.717358154296875,-587.1804809570312,184.15350341796875,65.97677612304688
1776021574573352400,9.7273525390625,-587.4361572265625,182.54544067382812,66.31381225585938
1776021574583345200,9.73734521484375,-587.7825317382812,183.18460083007812,66.33634948730469
1776021574593338400,9.74733837890625,-587.375244140625,184.6107635498047,65.50491333007812
1776021574603330000,9.757330078125,-586.9537963867188,185.3771209716797,64.96607971191406
1776021574613324300,9.76732421875,-586.7330932617188,185.78573608398438,65.05903625488281
1776021574623318300,9.777318359375,-586.7377319335938,186.04110717773438,64.81346130371094
1776021574633311200,9.787311279296874,-586.7103271484375,186.63571166992188,64.6268310546875
1776021574643304400,9.797304443359375,-587.3802490234375,186.9571533203125,64.34585571289062
1776021574653297200,9.807297119140625,-586.3909912109375,186.97328186035156,64.23947143554688
1776021574663291100,9.817291015625,-585.112548828125,188.0685577392578,63.27815246582031
1776021574673286100,9.8272861328125,-584.2413330078125,187.9304962158203,63.317474365234375
1776021574683281200,9.83728125,-583.9078979492188,188.46580505371094,62.934112548828125
1776021574693275100,9.847275146484375,-583.7088623046875,188.86488342285156,62.86433410644531
1776021574703268400,9.857268310546875,-583.227783203125,188.86798095703125,62.8187255859375
1776021574713262300,9.867262451171875,-583.2911987304688,188.57418823242188,62.57868957519531
1776021574723256300,9.87725634765625,-583.9423828125,188.5169219970703,62.601531982421875
1776021574733249300,9.887249267578126,-583.94140625,188.26905822753906,62.475372314453125
1776021574743243300,9.8972431640625,-583.75341796875,188.3141326904297,62.4080810546875
1776021574753237200,9.9072373046875,-585.0904541015625,187.8719940185547,61.89524841308594
1776021574763230200,9.917230224609375,-586.0213012695312,186.72984313964844,62.01026916503906
1776021574773223200,9.92722314453125,-586.776611328125,186.64869689941406,61.641021728515625
1776021574783216000,9.937216064453125,-585.9271240234375,187.13653564453125,61.445220947265625
1776021574793208300,9.947208251953125,-585.609619140625,187.947021484375,61.3018798828125
1776021574803201300,9.957201171875,-585.5460815429688,187.91685485839844,60.72540283203125
1776021574813192400,9.9671923828125,-584.8539428710938,187.37901306152344,61.06095886230469
1776021574823184100,9.97718408203125,-585.10498046875,186.64959716796875,60.98271179199219
1776021574833175300,9.98717529296875,-584.326904296875,186.7222900390625,61.12054443359375
1776021574843167200,9.997167236328124,-583.3897705078125,187.27044677734375,60.612945556640625
1776021574853158100,10.007158203125,-583.1220703125,187.1901397705078,60.436279296875
1776021574863149000,10.017149169921876,-583.1646728515625,188.16494750976562,60.226654052734375
1776021574873141200,10.027141357421876,-582.59423828125,188.00242614746094,59.60791015625
1776021574883134500,10.037134521484376,-582.01416015625,187.3410186767578,59.66465759277344
1776021574893128200,10.047128173828124,-583.2066650390625,186.86746215820312,59.655181884765625
1776021574903122200,10.0571220703125,-583.441650390625,186.6231231689453,59.785003662109375
1776021574913116200,10.0671162109375,-582.6234130859375,186.54269409179688,59.39488220214844
1776021574923109400,10.077109375,-581.736328125,187.23683166503906,58.84831237792969
1776021574933101000,10.08710107421875,-581.4111328125,187.92750549316406,58.62791442871094
1776021574943095300,10.09709521484375,-580.578857421875,187.5841064453125,58.69708251953125
1776021574953088300,10.107088134765625,-580.5237426757812,186.2348175048828,59.072479248046875
1776021574963082200,10.117082275390626,-580.5404052734375,184.5304412841797,59.27513122558594
1776021574973076200,10.127076171875,-581.4714965820312,182.64202880859375,59.9119873046875
1776021574983069200,10.137069091796874,-582.9937744140625,181.6776580810547,60.00077819824219
1776021574993060400,10.147060302734374,-584.1005859375,181.65716552734375,59.85337829589844
1776021575003051300,10.15705126953125,-584.6497192382812,182.5955047607422,59.23735046386719
1776021575013043200,10.167043212890626,-585.5292358398438,182.76611328125,58.71333312988281
1776021575023035400,10.177035400390626,-585.863525390625,184.10317993164062,58.00053405761719
1776021575033027000,10.187027099609375,-585.00390625,184.565673828125,57.11717224121094
1776021575043018200,10.197018310546875,-584.365234375,184.04612731933594,57.69819641113281
1776021575053011200,10.20701123046875,-582.8969116210938,181.84963989257812,57.726348876953125
1776021575063003400,10.21700341796875,-584.2977905273438,179.9766082763672,58.374847412109375
1776021575072996000,10.22699609375,-585.1129760742188,178.58737182617188,58.541717529296875
1776021575082990000,10.236989990234376,-585.0541381835938,178.73452758789062,58.30317687988281
1776021575092985000,10.246985107421875,-584.107421875,179.4964599609375,58.12239074707031
1776021575102979000,10.25697900390625,-582.9486083984375,180.61856079101562,57.830078125
1776021575112974000,10.26697412109375,-582.6409912109375,181.16213989257812,57.646453857421875
1776021575122969000,10.276968994140624,-580.995849609375,180.24087524414062,57.878692626953125
1776021575132964000,10.286964111328125,-581.273193359375,178.480712890625,58.34965515136719
1776021575142957300,10.296957275390625,-581.7071533203125,176.04635620117188,59.22261047363281
1776021575152950500,10.306950439453125,-583.93115234375,172.92124938964844,60.00663757324219
1776021575162943500,10.316943603515625,-584.3799438476562,171.14976501464844,60.687896728515625
1776021575172937500,10.3269375,-586.1307373046875,169.7740936279297,60.71257019042969
1776021575182930400,10.336930419921876,-585.9820556640625,169.3672332763672,60.783660888671875
1776021575192924400,10.34692431640625,-585.9171142578125,168.06463623046875,61.351226806640625
1776021575202919400,10.35691943359375,-585.9776611328125,164.4789581298828,62.120574951171875
1776021575212913400,10.366913330078125,-586.681640625,160.58128356933594,63.957916259765625
1776021575222906400,10.37690625,-587.51953125,157.08639526367188,64.89561462402344
1776021575232899300,10.3868994140625,-587.2775268554688,155.9188232421875,65.19221496582031
1776021575242892500,10.396892578125,-587.4388427734375,156.2335205078125,64.99650573730469
1776021575252885200,10.40688525390625,-587.8359375,157.08030700683594,64.2564697265625
1776021575262878500,10.41687841796875,-588.1644287109375,157.04959106445312,63.95231628417969
1776021575272871400,10.426871337890624,-588.0706176757812,156.1339111328125,64.67507934570312
1776021575282864400,10.436864501953124,-587.4176635742188,154.44573974609375,65.17234802246094
1776021575292857300,10.446857421875,-586.970947265625,152.28399658203125,65.98117065429688
1776021575302851300,10.456851318359375,-587.191162109375,149.91932678222656,66.75238037109375
1776021575312845600,10.466845458984375,-588.0609130859375,147.13963317871094,67.83052062988281
1776021575322837200,10.476837158203125,-589.499755859375,144.75201416015625,68.64054870605469
1776021575332831500,10.48683154296875,-590.5327758789062,143.14024353027344,68.68411254882812
1776021575342824400,10.496824462890626,-591.24169921875,143.87161254882812,68.70529174804688
1776021575352817400,10.5068173828125,-590.2057495117188,146.10260009765625,68.09730529785156
1776021575362810400,10.516810302734376,-589.0140991210938,148.26271057128906,67.62080383300781
1776021575372804400,10.526804443359374,-588.1867065429688,149.06471252441406,67.65249633789062
1776021575382797600,10.536797607421875,-587.0494384765625,148.4156036376953,67.98297119140625
1776021575392790300,10.546790283203125,-587.0863037109375,145.63198852539062,68.65373229980469
1776021575402784300,10.5567841796875,-588.3138427734375,141.6776580810547,69.9033203125
1776021575412779300,10.566779296875,-589.6708984375,137.91033935546875,70.83021545410156
1776021575422772500,10.5767724609375,-590.9412841796875,134.78013610839844,71.74246215820312
1776021575432765400,10.586765380859376,-592.41845703125,132.05618286132812,72.47581481933594
1776021575442758400,10.59675830078125,-593.4190063476562,130.88290405273438,72.83847045898438
1776021575452752400,10.60675244140625,-593.8262329101562,131.13430786132812,73.10922241210938
1776021575462746400,10.616746337890625,-592.401611328125,130.66943359375,73.12974548339844
1776021575472740400,10.626740234375,-591.5756225585938,129.74266052246094,73.9373779296875
1776021575482733600,10.636733642578125,-592.1044921875,126.5081787109375,74.39703369140625
1776021575492726300,10.646726318359375,-594.3443603515625,121.95069885253906,75.66142272949219
1776021575502720300,10.65672021484375,-597.0158081054688,116.94683837890625,77.27046203613281
1776021575512713500,10.66671337890625,-599.0565185546875,113.34451293945312,78.44212341308594
1776021575522705400,10.676705322265626,-600.6879272460938,113.14289855957031,78.45535278320312
1776021575532697300,10.686697265625,-601.46044921875,115.33253479003906,77.72953796386719
1776021575542690600,10.696690673828124,-600.2852783203125,117.99577331542969,76.62351989746094
1776021575552683300,10.706683349609374,-597.3796997070312,120.75010681152344,75.27607727050781
1776021575562676500,10.716676513671874,-595.7373657226562,120.75582885742188,75.46003723144531
1776021575572668400,10.72666845703125,-595.8479614257812,117.975830078125,76.08407592773438
1776021575582659600,10.73665966796875,-597.2388916015625,111.61750793457031,78.02397155761719
1776021575592652300,10.74665234375,-599.963134765625,104.82157897949219,80.72938537597656
1776021575602645500,10.7566455078125,-603.002685546875,98.40626525878906,83.039306640625
1776021575612639500,10.766639404296875,-603.9578247070312,94.39823913574219,83.84780883789062
1776021575622633500,10.776633544921875,-605.0723876953125,93.84916687011719,84.09748840332031
1776021575632627500,10.78662744140625,-604.485107421875,94.97618103027344,83.89572143554688
1776021575642620400,10.796620361328126,-603.0240478515625,97.1484375,82.91310119628906
1776021575652614400,10.806614501953124,-601.7163696289062,98.49600219726562,82.48210144042969
1776021575662607400,10.816607421875,-601.7471923828125,99.37850952148438,81.96075439453125
1776021575672601300,10.826601318359375,-601.7570190429688,97.18792724609375,82.80438232421875
1776021575682594600,10.836594482421875,-602.8927001953125,94.87535095214844,83.43748474121094
1776021575692588300,10.84658837890625,-603.6776733398438,93.16691589355469,84.1185302734375
1776021575702581500,10.85658154296875,-603.4820556640625,91.82894897460938,84.12666320800781
1776021575712575500,10.866575439453126,-603.3270874023438,91.12559509277344,84.63961791992188
1776021575722567400,10.8765673828125,-603.467529296875,90.65180969238281,84.68955993652344
1776021575732560400,10.886560302734376,-603.65869140625,88.44853210449219,85.20658874511719
1776021575742554400,10.896554443359374,-604.1734619140625,85.86711120605469,86.17738342285156
1776021575752547600,10.906547607421874,-604.6641845703125,83.34422302246094,87.14598083496094
1776021575762539300,10.916539306640624,-605.27587890625,80.84284973144531,87.97517395019531
1776021575772533500,10.926533447265625,-606.90673828125,79.55484008789062,88.37168884277344
1776021575782527500,10.936527587890625,-607.76220703125,79.40982055664062,88.63813781738281
1776021575792522500,10.9465224609375,-609.3431396484375,79.68585205078125,88.25775146484375
1776021575802516500,10.9565166015625,-607.8615112304688,80.7508544921875,88.11466979980469
1776021575812509400,10.966509521484374,-607.1231689453125,83.17332458496094,87.23661804199219
1776021575822504400,10.97650439453125,-606.5250854492188,84.39430236816406,86.56857299804688
1776021575832498400,10.98649853515625,-607.0035400390625,84.32907104492188,86.67471313476562
1776021575842492400,10.996492431640625,-607.45947265625,81.5296630859375,87.59199523925781
1776021575852486400,11.006486328125,-607.8772583007812,78.56416320800781,88.77217102050781
1776021575862480400,11.01648046875,-608.707275390625,76.2454833984375,89.376708984375
1776021575872473600,11.0264736328125,-609.9244384765625,76.12522888183594,89.40937805175781
1776021575882468400,11.03646826171875,-610.8265380859375,77.36187744140625,88.79949951171875
1776021575892462600,11.046462646484375,-609.6168212890625,78.70974731445312,88.08279418945312
1776021575902455300,11.056455322265625,-609.3243408203125,79.37199401855469,87.88304138183594
1776021575912449300,11.06644921875,-609.73046875,77.88714599609375,88.52192687988281
1776021575922443300,11.076443359375,-609.4420776367188,74.35105895996094,89.57133483886719
1776021575932434400,11.086434326171876,-609.4850463867188,70.46238708496094,91.29974365234375
1776021575942427400,11.096427490234374,-611.0144653320312,66.33578491210938,92.4940185546875
1776021575952419600,11.106419677734374,-611.406494140625,63.114837646484375,93.83984375
1776021575962413300,11.116413330078124,-612.0751953125,59.970947265625,94.50807189941406
1776021575972406300,11.12640625,-613.2164916992188,58.22467041015625,95.53341674804688
1776021575982399500,11.1363994140625,-614.0183715820312,56.58543395996094,95.95292663574219
1776021575992392200,11.14639208984375,-614.55078125,55.72758483886719,96.49726867675781
1776021576002387500,11.156387451171875,-614.263916015625,55.05784606933594,96.82392883300781
1776021576012383500,11.166383544921874,-614.1170043945312,56.42146301269531,96.32542419433594
1776021576022378500,11.17637841796875,-612.9973754882812,58.23258972167969,95.45362854003906
1776021576032374300,11.186374267578126,-613.2974853515625,60.05694580078125,94.86918640136719
1776021576042368500,11.196368408203124,-613.4837646484375,59.270965576171875,94.94871520996094
1776021576052361500,11.206361572265624,-614.1250610351562,57.001495361328125,95.68478393554688
1776021576062355500,11.21635546875,-615.0875854492188,53.40943908691406,97.01788330078125
1776021576072348400,11.226348388671875,-615.1298828125,50.816314697265625,97.76467895507812
1776021576082343400,11.236343505859375,-615.3828735351562,50.270294189453125,98.38601684570312
1776021576092337400,11.24633740234375,-615.5005493164062,50.757720947265625,98.01406860351562
1776021576102330400,11.256330322265624,-614.69921875,52.080780029296875,97.38261413574219
1776021576112322300,11.266322265625,-614.9954833984375,52.2408447265625,97.19540405273438
1776021576122315500,11.2763154296875,-615.194091796875,52.472625732421875,97.05831909179688
1776021576132308500,11.28630859375,-614.9848022460938,51.58775329589844,97.46525573730469
1776021576142301400,11.296301513671875,-615.287841796875,50.7718505859375,98.0106201171875
1776021576152294400,11.30629443359375,-615.4739379882812,49.03236389160156,98.11741638183594
1776021576162287600,11.31628759765625,-615.5050659179688,48.411041259765625,98.46786499023438
1776021576172279800,11.32627978515625,-615.3868408203125,48.087554931640625,98.66781616210938
1776021576182271700,11.336271728515625,-615.68505859375,48.08494567871094,98.53224182128906
1776021576192264000,11.346263916015625,-615.1412353515625,48.43278503417969,98.27947998046875
1776021576202256600,11.356256591796875,-615.7577514648438,48.82661437988281,98.12094116210938
1776021576212249900,11.366249755859375,-615.35205078125,48.15083312988281,98.30224609375
1776021576222243800,11.376243896484375,-614.593505859375,46.11067199707031,99.13404846191406
1776021576232235800,11.38623583984375,-614.7625732421875,43.502716064453125,100.47764587402344
1776021576242228700,11.396228759765625,-615.0216674804688,40.34495544433594,100.9696044921875
1776021576252221700,11.4062216796875,-615.472900390625,38.43585205078125,101.74732971191406
1776021576262216000,11.4162158203125,-616.0762939453125,38.55271911621094,101.62220764160156
1776021576272208600,11.426208740234374,-615.804443359375,39.804443359375,101.02339172363281
1776021576282201900,11.436201904296874,-616.69970703125,41.58815002441406,100.474853515625
1776021576292194800,11.44619482421875,-617.7299194335938,43.81622314453125,99.45921325683594
1776021576302185700,11.456185791015624,-617.574951171875,44.087890625,99.66114807128906
1776021576312179000,11.466178955078124,-618.1942749023438,44.35459899902344,98.95266723632812
1776021576322170600,11.476170654296874,-617.921630859375,44.051788330078125,98.93655395507812
1776021576332163800,11.486163818359374,-618.047607421875,44.17266845703125,98.98710632324219
1776021576342154800,11.49615478515625,-617.6517333984375,43.65446472167969,99.07124328613281
1776021576352147000,11.50614697265625,-617.6590576171875,40.930633544921875,99.978515625
1776021576362139600,11.5161396484375,-618.2698364257812,34.56648254394531,102.35733032226562
1776021576372131800,11.5261318359375,-618.695068359375,27.182708740234375,105.03475952148438
1776021576382122800,11.536122802734376,-618.791015625,21.589828491210938,106.62797546386719
1776021576392115700,11.54611572265625,-620.3682861328125,18.884353637695312,107.95269775390625
1776021576402105900,11.55610595703125,-620.064697265625,18.86517333984375,107.6875
1776021576412096800,11.5660966796875,-620.531494140625,18.827484130859375,107.83511352539062
1776021576422089700,11.57608984375,-620.2845458984375,18.713592529296875,107.76606750488281
1776021576432081700,11.58608154296875,-620.776123046875,18.68975830078125,107.94589233398438
1776021576442073900,11.596073974609375,-620.1983032226562,17.953018188476562,108.28671264648438
1776021576452066600,11.606066650390625,-620.9166870117188,16.399734497070312,108.72825622558594
1776021576462060800,11.616060791015625,-621.1015014648438,15.515243530273438,108.9664306640625
1776021576472053800,11.6260537109375,-621.8877563476562,15.686203002929688,109.26402282714844
1776021576482046700,11.636046630859376,-622.070556640625,15.296798706054688,109.61288452148438
1776021576492040700,11.646040771484374,-621.648681640625,15.95111083984375,109.88154602050781
1776021576502033700,11.65603369140625,-621.6867065429688,15.882400512695312,109.82423400878906
1776021576512025900,11.66602587890625,-621.9750366210938,15.923538208007812,109.30831909179688
1776021576522018600,11.6760185546875,-621.5006103515625,15.700912475585938,109.31137084960938
1776021576532011800,11.68601171875,-621.403564453125,15.733993530273438,109.32424926757812
1776021576542004700,11.696004638671875,-621.6134033203125,15.71038818359375,109.29124450683594
1776021576551996700,11.70599658203125,-621.9676513671875,15.407760620117188,109.67630004882812
1776021576561990000,11.715989990234375,-622.0189208984375,15.6722412109375,109.4814453125
1776021576571984000,11.72598388671875,-622.1444091796875,15.692947387695312,109.673828125
1776021576581977900,11.735977783203126,-622.5358276367188,15.9830322265625,109.46531677246094
1776021576591969800,11.7459697265625,-622.5394287109375,15.927734375,109.58265686035156
1776021576601962800,11.755962646484376,-622.2652587890625,15.69989013671875,109.48776245117188
1776021576611955700,11.765955810546876,-622.6478881835938,16.057952880859375,109.56916809082031
1776021576621947600,11.77594775390625,-622.103271484375,16.017379760742188,109.15377807617188
1776021576631942000,11.78594189453125,-622.7562255859375,16.183303833007812,109.23428344726562
1776021576641934600,11.7959345703125,-622.6746826171875,16.108474731445312,109.28376770019531
1776021576651927800,11.805927734375,-622.9068603515625,16.444183349609375,109.02325439453125
1776021576661919700,11.815919677734374,-622.5255737304688,16.269271850585938,109.22666931152344
1776021576671912700,11.82591259765625,-622.9663696289062,16.6646728515625,109.03120422363281
1776021576681903900,11.83590380859375,-622.64501953125,16.41412353515625,108.87789916992188
1776021576691896600,11.845896484375,-622.507080078125,16.575698852539062,108.79838562011719
1776021576701890800,11.855890869140625,-622.4945068359375,16.448455810546875,108.83609008789062
1776021576711884800,11.865884765625,-622.4358520507812,16.743331909179688,108.51478576660156
1776021576721878800,11.875878662109375,-623.1649169921875,16.79425048828125,108.42724609375
1776021576731871700,11.885871826171876,-623.6016845703125,16.931503295898438,108.27909851074219
1776021576741863700,11.89586376953125,-623.87060546875,17.237152099609375,108.43966674804688
1776021576751857000,11.90585693359375,-623.2133178710938,17.486968994140625,108.52824401855469
1776021576761848600,11.9158486328125,-623.8555908203125,18.032379150390625,108.69099426269531
1776021576771841800,11.925841796875,-623.6519775390625,18.262985229492188,108.69181823730469
1776021576781834800,11.935834716796874,-623.7360229492188,18.542373657226562,108.36961364746094
1776021576791826700,11.94582666015625,-623.9979858398438,18.823455810546875,108.58534240722656
1776021576801820000,11.95581982421875,-624.25244140625,19.343994140625,108.32969665527344
1776021576811812600,11.9658125,-624.2683715820312,19.320480346679688,108.279052734375
1776021576821806600,11.975806640625,-624.3463745117188,19.422409057617188,107.80027770996094
1776021576831799800,11.9857998046875,-624.3886108398438,19.361282348632812,107.68646240234375
1776021576841793800,11.995793701171875,-624.6949462890625,18.839019775390625,107.69520568847656
1776021576851786800,12.005786865234375,-624.3971557617188,18.932662963867188,107.18357849121094
1776021576861780700,12.01578076171875,-624.3366088867188,18.71710205078125,107.61796569824219
1776021576871774700,12.025774658203124,-624.1831665039062,18.775726318359375,107.63467407226562
1776021576881768700,12.035768798828125,-624.696533203125,19.362564086914062,107.77442932128906
1776021576891762700,12.0457626953125,-624.8668212890625,19.626983642578125,108.04519653320312
1776021576901756700,12.055756591796875,-624.440185546875,20.088729858398438,107.81982421875
1776021576911751000,12.0657509765625,-624.260009765625,19.790054321289062,107.65103149414062
1776021576921745000,12.075744873046874,-624.2735595703125,20.020980834960938,107.41925048828125
1776021576931739000,12.08573876953125,-623.96630859375,20.254241943359375,107.60514831542969
1776021576941732600,12.095732666015625,-624.1124267578125,20.17755126953125,107.30799865722656
1776021576951729000,12.10572900390625,-624.558349609375,20.24127197265625,107.44747924804688
1776021576961723000,12.115722900390624,-624.3770751953125,20.378219604492188,107.0145263671875
1776021576971716600,12.125716552734374,-624.4191284179688,20.507400512695312,107.16331481933594
1776021576981710600,12.135710693359375,-624.9869384765625,20.625396728515625,106.93818664550781
1776021576991703800,12.145703857421875,-624.8857421875,20.435699462890625,106.81768798828125
1776021577001695700,12.15569580078125,-624.8406982421875,21.03973388671875,106.64299011230469
1776021577011687700,12.165687744140625,-624.65771484375,20.951248168945312,106.36299133300781
1776021577021679600,12.1756796875,-625.5062866210938,21.089126586914062,106.42503356933594
1776021577031671800,12.185671875,-625.431396484375,21.267471313476562,106.55238342285156
1776021577041664800,12.195664794921875,-625.1600341796875,21.673492431640625,106.18760681152344
1776021577051657700,12.20565771484375,-625.3604736328125,21.598007202148438,106.00827026367188
1776021577061650700,12.215650634765625,-625.616455078125,21.345794677734375,105.84878540039062
1776021577071644000,12.225643798828125,-625.4618530273438,21.511215209960938,106.03378295898438
1776021577081638000,12.235637939453126,-625.95263671875,21.655105590820312,105.85893249511719
1776021577091633000,12.2456328125,-625.44140625,21.4481201171875,105.52340698242188
1776021577101628700,12.255628662109375,-625.7118530273438,21.502456665039062,105.55430603027344
1776021577111623700,12.265623779296876,-626.0880737304688,21.800888061523438,105.41268920898438
1776021577121618000,12.275617919921874,-626.236083984375,21.473785400390625,105.60734558105469
1776021577131612000,12.28561181640625,-626.1995239257812,21.8660888671875,105.44195556640625
1776021577141606000,12.29560595703125,-626.8133544921875,22.525741577148438,105.87425231933594
1776021577151598600,12.3055986328125,-626.6487426757812,22.675628662109375,105.95846557617188
1776021577161592600,12.315592529296875,-626.8131103515625,22.66021728515625,106.03732299804688
1776021577171585500,12.32558544921875,-626.5408935546875,22.767898559570312,105.60711669921875
1776021577181578500,12.33557861328125,-626.2830810546875,22.871749877929688,105.774169921875
1776021577191570400,12.3455703125,-627.129638671875,22.9837646484375,105.40489196777344
1776021577201564700,12.355564697265624,-626.4403686523438,22.977447509765625,105.37290954589844
1776021577211558700,12.36555859375,-626.950439453125,23.106491088867188,105.46076965332031
1776021577221551400,12.37555126953125,-627.36865234375,23.264739990234375,105.42498779296875
1776021577231545300,12.38554541015625,-628.227294921875,23.259475708007812,105.52534484863281
1776021577241538600,12.39553857421875,-628.3712158203125,23.382553100585938,105.5137939453125
1776021577251531500,12.405531494140625,-628.248779296875,23.518356323242188,105.83755493164062
1776021577261525500,12.415525390625,-628.748779296875,23.729415893554688,105.87677001953125
1776021577271520500,12.4255205078125,-628.4849853515625,24.157272338867188,105.71371459960938
1776021577281513500,12.435513427734374,-628.5357666015625,24.388595581054688,105.476318359375
1776021577291507500,12.445507568359375,-628.532958984375,24.47955322265625,105.86933898925781
1776021577301500700,12.455500732421875,-629.232177734375,24.838516235351562,105.678955078125
1776021577311494700,12.46549462890625,-629.1437377929688,24.743011474609375,105.44758605957031
1776021577321487400,12.4754873046875,-629.971435546875,24.642471313476562,105.68116760253906
1776021577331479600,12.4854794921875,-630.224365234375,24.986770629882812,105.9111328125
1776021577341471500,12.495471435546875,-630.0043334960938,24.7384033203125,105.94007873535156
1776021577351463700,12.505463623046875,-630.2542114257812,24.675308227539062,106.23492431640625
1776021577361456400,12.515456298828125,-630.36669921875,24.99652099609375,105.87652587890625
1776021577371448600,12.525448486328125,-629.9434204101562,24.84375,105.86112976074219
1776021577381443600,12.535443603515626,-630.344970703125,24.655517578125,105.82319641113281
1776021577391437600,12.5454375,-631.234375,24.489883422851562,106.1185302734375
1776021577401429500,12.555429443359374,-631.2171020507812,24.500335693359375,106.51719665527344
1776021577411424500,12.565424560546875,-631.406982421875,24.509597778320312,106.88731384277344
1776021577421418500,12.57541845703125,-631.6075439453125,24.586196899414062,107.03285217285156
1776021577431412500,12.58541259765625,-632.734375,24.8682861328125,107.05119323730469
1776021577441405400,12.595405517578126,-632.037841796875,25.178863525390625,107.01301574707031
1776021577451400400,12.605400390625,-632.477294921875,25.476516723632812,106.81016540527344
1776021577461394400,12.61539453125,-632.8472290039062,25.60406494140625,107.01316833496094
1776021577471389400,12.625389404296875,-632.462646484375,25.197433471679688,106.9718017578125
1776021577481381400,12.63538134765625,-632.9500732421875,25.686996459960938,107.64628601074219
1776021577491374600,12.64537451171875,-633.814453125,25.577590942382812,108.34318542480469
1776021577501366500,12.655366455078125,-633.81787109375,25.255538940429688,108.74470520019531
1776021577511358500,12.6653583984375,-634.1406860351562,25.277633666992188,109.1563720703125
1776021577521352400,12.6753525390625,-634.3614501953125,25.730056762695312,109.57949829101562
1776021577531345700,12.685345703125,-635.385009765625,25.95758056640625,110.00523376464844
1776021577541338400,12.69533837890625,-635.312255859375,26.229248046875,110.25450134277344
1776021577551332400,12.705332275390624,-635.3372802734375,26.204071044921875,110.29336547851562
1776021577561326600,12.71532666015625,-635.416748046875,26.56024169921875,110.20738220214844
1776021577571320600,12.725320556640625,-636.2401733398438,26.808120727539062,110.43833923339844
1776021577581312500,12.7353125,-635.6947631835938,26.428802490234375,110.67668151855469
1776021577591305500,12.745305419921875,-635.7520751953125,26.5836181640625,111.27693176269531
1776021577601299500,12.755299560546876,-636.4157104492188,26.306716918945312,111.98959350585938
1776021577611292700,12.765292724609376,-636.9423828125,26.57843017578125,112.74130249023438
1776021577621286400,12.775286376953124,-636.2763671875,27.419418334960938,113.444091796875
1776021577631279400,12.785279296875,-636.34130859375,33.18601989746094,112.767822265625
1776021577641272600,12.7952724609375,-635.761962890625,38.34492492675781,111.22615051269531
1776021577651266600,12.8052666015625,-635.7958374023438,43.99324035644531,109.57186889648438
1776021577661260500,12.815260498046875,-636.1878662109375,47.49205017089844,108.06333923339844
1776021577671255600,12.825255615234376,-636.194091796875,50.21026611328125,107.01901245117188
1776021577681250600,12.83525048828125,-635.4407958984375,51.8292236328125,106.6005859375
1776021577691244500,12.84524462890625,-635.853759765625,51.86494445800781,107.35964965820312
1776021577701238300,12.85523828125,-636.3126831054688,52.2816162109375,108.05184936523438
1776021577711234600,12.865234619140624,-636.9373779296875,52.59429931640625,108.96955871582031
1776021577721230600,12.875230712890625,-637.3740844726562,52.76942443847656,109.59733581542969
1776021577731226400,12.885226318359376,-637.2838745117188,55.25660705566406,109.32038879394531
1776021577741222700,12.89522265625,-636.0508422851562,60.63603210449219,108.37429809570312
1776021577751218400,12.905218505859375,-635.1672973632812,68.13688659667969,106.64056396484375
1776021577761213400,12.91521337890625,-633.2139282226562,74.5167236328125,104.978515625
