time,seconds_elapsed,z,y,x
1776019089129337000,0.060337158203125,-1.036773681640625,-0.109710693359375,0.0089263916015625
1776019089139398100,0.070398193359375,-1.0099945068359375,-0.08587646484375,-0.0201568603515625
1776019089149458200,0.080458251953125,-1.001007080078125,-0.084808349609375,-0.0416259765625
1776019089159519200,0.090519287109375,-0.9839019775390625,-0.0969696044921875,-0.049835205078125
1776019089169579300,0.100579345703125,-0.973114013671875,-0.1105499267578125,-0.043304443359375
1776019089179640000,0.11064013671875,-0.9785614013671875,-0.124603271484375,-0.017974853515625
1776019089189700000,0.1207001953125,-1.005096435546875,-0.137237548828125,0.017791748046875
1776019089199761200,0.13076123046875,-1.0246429443359375,-0.148681640625,0.0474090576171875
1776019089209821200,0.1408212890625,-1.01348876953125,-0.1558837890625,0.0634918212890625
1776019089219882200,0.15088232421875,-1.001312255859375,-0.1592559814453125,0.0648956298828125
1776019089229942000,0.16094189453125,-0.9945068359375,-0.1597900390625,0.050872802734375
1776019089240003000,0.171003173828125,-0.9925689697265625,-0.15875244140625,0.0431060791015625
1776019089250063000,0.18106298828125,-0.988677978515625,-0.1560211181640625,0.039520263671875
1776019089260124200,0.191124267578125,-0.9886016845703125,-0.15020751953125,0.03662109375
1776019089270185200,0.201185302734375,-0.9909820556640625,-0.14837646484375,0.039031982421875
1776019089280245000,0.211244873046875,-0.9852294921875,-0.1496734619140625,0.0402984619140625
1776019089290306000,0.22130615234375,-0.965545654296875,-0.1423187255859375,0.0434112548828125
1776019089300366000,0.231365966796875,-0.9580841064453125,-0.1356048583984375,0.0425262451171875
1776019089310427100,0.24142724609375,-0.9547882080078125,-0.1309967041015625,0.03985595703125
1776019089320487200,0.251487060546875,-0.9455108642578125,-0.1261138916015625,0.03790283203125
1776019089330548000,0.2615478515625,-0.940399169921875,-0.1258697509765625,0.036163330078125
1776019089340608000,0.27160791015625,-0.94927978515625,-0.1250152587890625,0.0374908447265625
1776019089350669000,0.2816689453125,-0.97222900390625,-0.1279296875,0.036376953125
1776019089360729300,0.291729248046875,-1.004425048828125,-0.1414031982421875,0.044769287109375
1776019089370790100,0.3017900390625,-1.0347747802734375,-0.149169921875,0.0624847412109375
1776019089380850200,0.31185009765625,-1.0365447998046875,-0.1572418212890625,0.076385498046875
1776019089390911000,0.321910888671875,-1.0228729248046875,-0.1624755859375,0.0904541015625
1776019089400971300,0.33197119140625,-1.01898193359375,-0.1605377197265625,0.0989990234375
1776019089411032300,0.3420322265625,-1.0197601318359375,-0.1635589599609375,0.0938873291015625
1776019089421093000,0.352093017578125,-1.014434814453125,-0.161865234375,0.074981689453125
1776019089431154000,0.36215380859375,-0.99822998046875,-0.1460418701171875,0.0538787841796875
1776019089441215000,0.372215087890625,-0.9936981201171875,-0.1301116943359375,0.041717529296875
1776019089451274800,0.382274658203125,-0.99920654296875,-0.1161041259765625,0.03558349609375
1776019089461335800,0.392335693359375,-1.00177001953125,-0.111724853515625,0.0279998779296875
1776019089471396000,0.40239599609375,-1.002960205078125,-0.1152191162109375,0.019134521484375
1776019089481457000,0.412456787109375,-0.995269775390625,-0.118927001953125,0.0207977294921875
1776019089491517200,0.42251708984375,-0.98876953125,-0.1219024658203125,0.0281524658203125
1776019089501577700,0.43257763671875,-0.9769439697265625,-0.12664794921875,0.031982421875
1776019089511638000,0.442637939453125,-0.9696807861328125,-0.1287689208984375,0.03643798828125
1776019089521699000,0.452698974609375,-0.972442626953125,-0.1326751708984375,0.0375213623046875
1776019089531759000,0.462759033203125,-0.98236083984375,-0.135894775390625,0.0335693359375
1776019089541820200,0.472820068359375,-0.9901275634765625,-0.1413726806640625,0.0235137939453125
1776019089551880000,0.4828798828125,-0.994140625,-0.1437225341796875,0.012664794921875
1776019089561941000,0.49294091796875,-0.9963226318359375,-0.145050048828125,0.0027923583984375
1776019089572001000,0.5030009765625,-0.99468994140625,-0.13958740234375,-0.004486083984375
1776019089582062000,0.51306201171875,-0.990936279296875,-0.130859375,-0.0072784423828125
1776019089592123100,0.523123046875,-0.9870147705078125,-0.1220703125,-0.0016937255859375
1776019089602183000,0.533182861328125,-0.98272705078125,-0.1203765869140625,0.008941650390625
1776019089612244000,0.543243896484375,-0.973907470703125,-0.122833251953125,0.0111541748046875
1776019089622304000,0.553303955078125,-0.9732666015625,-0.1266326904296875,0.009246826171875
1776019089632365000,0.563364990234375,-0.9770050048828125,-0.133636474609375,0.012939453125
1776019089642425000,0.573425048828125,-0.9813385009765625,-0.132720947265625,0.023834228515625
1776019089652486000,0.58348583984375,-0.9775848388671875,-0.1235198974609375,0.022186279296875
1776019089662546000,0.5935458984375,-0.9803466796875,-0.12030029296875,0.0124053955078125
1776019089672607000,0.60360693359375,-0.989898681640625,-0.1298980712890625,0.009613037109375
1776019089682667000,0.6136669921875,-0.9908599853515625,-0.152099609375,0.0082244873046875
1776019089692728000,0.62372802734375,-0.9775238037109375,-0.1877593994140625,0.0064697265625
1776019089702787800,0.633787841796875,-0.9625244140625,-0.2042236328125,0.012786865234375
1776019089712849000,0.643848876953125,-0.948822021484375,-0.1967315673828125,0.0165863037109375
1776019089722909000,0.653908935546875,-0.93280029296875,-0.1826171875,0.0230865478515625
1776019089732970000,0.663969970703125,-0.9070281982421875,-0.1667633056640625,0.0385894775390625
1776019089743029800,0.67402978515625,-0.872039794921875,-0.1493988037109375,0.06982421875
1776019089753090800,0.6840908203125,-0.835540771484375,-0.167083740234375,0.04339599609375
1776019089763152000,0.69415185546875,-0.828216552734375,-0.1736907958984375,0.05511474609375
1776019089773212000,0.7042119140625,-0.799896240234375,-0.158416748046875,0.0829010009765625
1776019089783273000,0.71427294921875,-0.6002655029296875,-0.1753997802734375,0.1444091796875
1776019089793333000,0.7243330078125,-0.5101776123046875,-0.17547607421875,0.1072540283203125
1776019089803393800,0.734393798828125,-0.58544921875,-0.2744140625,0.0338287353515625
1776019089813453800,0.744453857421875,-0.7560882568359375,-0.340728759765625,0.0266571044921875
1776019089823515000,0.754514892578125,-0.796478271484375,-0.294189453125,0.027557373046875
1776019089833575000,0.764574951171875,-0.9144439697265625,-0.2117767333984375,-0.0207672119140625
1776019089843636000,0.774635986328125,-1.0880584716796875,-0.1199188232421875,-0.0928802490234375
1776019089853695700,0.78469580078125,-1.1694183349609375,-0.0256500244140625,-0.1241912841796875
1776019089863756800,0.7947568359375,-1.2211761474609375,0.0866546630859375,-0.05810546875
1776019089873817000,0.804817138671875,-1.2228546142578125,0.269622802734375,-0.0195465087890625
1776019089883878000,0.8148779296875,-1.20941162109375,0.3995819091796875,0.1260223388671875
1776019089893938200,0.824938232421875,-1.11639404296875,0.4331207275390625,0.2814788818359375
1776019089903999000,0.8349990234375,-0.9213104248046875,0.3455657958984375,0.358642578125
1776019089914059800,0.845059814453125,-0.8079376220703125,0.224456787109375,0.4103240966796875
1776019089924120000,0.8551201171875,-0.79864501953125,0.0917816162109375,0.445404052734375
1776019089934180900,0.865180908203125,-0.79229736328125,-0.0129547119140625,0.343231201171875
1776019089944241200,0.8752412109375,-0.70068359375,-0.0769500732421875,0.3779754638671875
1776019089954302000,0.885302001953125,-0.68621826171875,-0.0997314453125,0.4818878173828125
1776019089964362000,0.895362060546875,-0.7633209228515625,-0.020050048828125,0.5362548828125
1776019089974423000,0.905423095703125,-0.86248779296875,0.0389556884765625,0.4434051513671875
1776019089984483000,0.915483154296875,-0.8240509033203125,0.0688629150390625,0.544952392578125
1776019089994544000,0.925544189453125,-0.7196197509765625,0.156768798828125,0.5107269287109375
1776019090004604000,0.93560400390625,-0.59423828125,0.13604736328125,0.6442718505859375
1776019090014665000,0.9456650390625,-0.49554443359375,-0.003204345703125,0.5251617431640625
1776019090024725000,0.95572509765625,-0.4810638427734375,-0.1051177978515625,0.42431640625
1776019090034786000,0.9657861328125,-0.4766387939453125,-0.072662353515625,0.5475006103515625
1776019090044846000,0.97584619140625,-0.5219879150390625,-0.13482666015625,0.44281005859375
1776019090054907000,0.985906982421875,-0.461212158203125,-0.0609283447265625,0.5741119384765625
1776019090064968000,0.995968017578125,-0.39892578125,0.223358154296875,0.4902801513671875
1776019090075028000,1.006028076171875,-0.438018798828125,0.4039306640625,0.3897552490234375
1776019090085089000,1.016089111328125,-0.4197235107421875,0.3587799072265625,0.2698516845703125
1776019090095149000,1.026149169921875,-0.428680419921875,0.3178558349609375,0.22430419921875
1776019090105210000,1.036210205078125,-0.52813720703125,0.406341552734375,0.23779296875
1776019090115270000,1.046269775390625,-0.5879974365234375,0.53338623046875,0.3506011962890625
1776019090125331000,1.0563310546875,-0.6088409423828125,0.5213623046875,0.54302978515625
1776019090135391000,1.066390869140625,-0.6728515625,0.5006103515625,0.7407073974609375
1776019090145452000,1.0764521484375,-0.6927490234375,0.49847412109375,0.91839599609375
1776019090155511800,1.08651171875,-0.6846160888671875,0.447265625,1.035369873046875
1776019090165572900,1.09657275390625,-0.66937255859375,0.3906707763671875,1.057342529296875
1776019090175633000,1.1066328125,-0.675140380859375,0.427764892578125,1.075714111328125
1776019090185694000,1.11669384765625,-0.71136474609375,0.501068115234375,1.09326171875
1776019090195754000,1.12675390625,-0.6634368896484375,0.49053955078125,1.072540283203125
1776019090205814800,1.136814697265625,-0.4951934814453125,0.53173828125,1.063812255859375
1776019090215875800,1.146875732421875,-0.6077423095703125,0.634368896484375,1.1042633056640625
1776019090225936000,1.156935791015625,-0.74432373046875,0.6141510009765625,1.165618896484375
1776019090235997000,1.166996826171875,-0.70147705078125,0.5338592529296875,1.1689300537109375
1776019090246057000,1.177056884765625,-0.606414794921875,0.542694091796875,1.130645751953125
1776019090256118000,1.187117919921875,-0.531829833984375,0.6014251708984375,1.115753173828125
1776019090266177800,1.197177734375,-0.5247650146484375,0.622406005859375,1.1004791259765625
1776019090276238800,1.20723876953125,-0.54644775390625,0.613677978515625,1.0873870849609375
1776019090286299000,1.217298828125,-0.5584259033203125,0.582611083984375,1.072021484375
1776019090296360000,1.22735986328125,-0.5738372802734375,0.576629638671875,1.0381622314453125
1776019090306420000,1.237419921875,-0.563323974609375,0.577545166015625,1.0074462890625
1776019090316480800,1.247480712890625,-0.54522705078125,0.5793914794921875,0.97186279296875
1776019090326541000,1.257541015625,-0.50091552734375,0.580169677734375,0.9477386474609375
1776019090336601900,1.267601806640625,-0.444671630859375,0.6119537353515625,0.94140625
1776019090346662100,1.277662109375,-0.389434814453125,0.6896209716796875,0.9653472900390625
1776019090356723000,1.287722900390625,-0.3327178955078125,0.742034912109375,0.9832763671875
1776019090366783700,1.29778369140625,-0.290008544921875,0.7365875244140625,0.977996826171875
1776019090376844000,1.307843994140625,-0.2856597900390625,0.7283782958984375,0.9844970703125
1776019090386904800,1.31790478515625,-0.2931671142578125,0.7202301025390625,0.9735107421875
1776019090396965000,1.327965087890625,-0.3197021484375,0.69219970703125,0.936279296875
1776019090407026200,1.338026123046875,-0.3590850830078125,0.678863525390625,0.907501220703125
1776019090417086000,1.3480859375,-0.37542724609375,0.7099761962890625,0.876312255859375
1776019090427147300,1.358147216796875,-0.3710784912109375,0.7574615478515625,0.8384552001953125
1776019090437207000,1.36820703125,-0.3422088623046875,0.7868194580078125,0.8170623779296875
1776019090447268000,1.37826806640625,-0.281585693359375,0.8137359619140625,0.81573486328125
1776019090457328000,1.388328125,-0.2286529541015625,0.82403564453125,0.8541259765625
1776019090467389200,1.39838916015625,-0.2044677734375,0.8154296875,0.8653411865234375
1776019090477449000,1.408448974609375,-0.1957855224609375,0.8314208984375,0.87335205078125
1776019090487510000,1.418510009765625,-0.1903839111328125,0.8274383544921875,0.8664093017578125
1776019090497570000,1.428570068359375,-0.2039794921875,0.809783935546875,0.8616943359375
1776019090507631000,1.438631103515625,-0.2171630859375,0.8089752197265625,0.8802642822265625
1776019090517692200,1.448692138671875,-0.238922119140625,0.860382080078125,0.90679931640625
1776019090527752000,1.458751953125,-0.212005615234375,0.96392822265625,0.9306640625
1776019090537813000,1.46881298828125,-0.1299285888671875,1.095123291015625,0.9893798828125
1776019090547873000,1.478873046875,-0.066070556640625,1.185394287109375,1.048553466796875
1776019090557934000,1.48893408203125,-0.0258026123046875,1.1087493896484375,1.100250244140625
1776019090567994000,1.498994140625,-0.019989013671875,0.9158477783203125,1.1326141357421875
1776019090578055200,1.50905517578125,-0.079803466796875,0.68853759765625,1.1434326171875
1776019090588115000,1.519114990234375,-0.1904144287109375,0.512939453125,1.1075897216796875
1776019090598176000,1.529176025390625,-0.3119964599609375,0.4327392578125,1.0594635009765625
1776019090608236000,1.539236083984375,-0.470123291015625,0.3500213623046875,0.9362030029296875
1776019090618297000,1.549297119140625,-0.4759674072265625,0.2782440185546875,0.849945068359375
1776019090628356900,1.55935693359375,-0.3214569091796875,0.23919677734375,0.831085205078125
1776019090638418000,1.56941796875,-0.1417388916015625,0.200714111328125,0.7960968017578125
1776019090648478000,1.57947802734375,-0.0417633056640625,0.167572021484375,0.7319183349609375
1776019090658539000,1.5895390625,0.006011962890625,0.10845947265625,0.6912689208984375
1776019090668600000,1.59960009765625,0.02880859375,0.0689544677734375,0.6845245361328125
1776019090678659800,1.609659912109375,0.0554656982421875,0.068695068359375,0.6593475341796875
1776019090688721000,1.619720947265625,0.0343475341796875,0.0479736328125,0.62310791015625
1776019090698781000,1.629781005859375,0.032958984375,-0.008392333984375,0.5738372802734375
1776019090708842000,1.639842041015625,0.0780487060546875,-0.0382232666015625,0.5239105224609375
1776019090718902000,1.649902099609375,0.0806732177734375,-0.007965087890625,0.4622344970703125
1776019090728963000,1.659963134765625,0.10906982421875,0.02764892578125,0.42510986328125
1776019090739022800,1.67002294921875,0.1472625732421875,0.052337646484375,0.4698944091796875
1776019090749084000,1.680083984375,0.203857421875,0.078277587890625,0.5323638916015625
1776019090759144200,1.690144287109375,0.27984619140625,0.1487274169921875,0.5680999755859375
1776019090769205000,1.700205078125,0.31585693359375,0.2708740234375,0.603515625
1776019090779265000,1.71026513671875,0.304229736328125,0.398223876953125,0.6476898193359375
1776019090789326000,1.720326171875,0.2513580322265625,0.5257415771484375,0.6645660400390625
1776019090799386000,1.73038623046875,0.139923095703125,0.642242431640625,0.6991119384765625
1776019090809447200,1.740447265625,0.00360107421875,0.67620849609375,0.7360992431640625
1776019090819508000,1.750508056640625,-0.1149749755859375,0.6616668701171875,0.779937744140625
1776019090829568300,1.760568359375,-0.1998138427734375,0.3925933837890625,0.7447357177734375
1776019090839629000,1.770629150390625,-0.1827239990234375,0.1029052734375,0.744781494140625
1776019090849689000,1.780689208984375,-0.1001129150390625,-0.009185791015625,0.753570556640625
1776019090859750100,1.790750244140625,0.0191497802734375,0.2444610595703125,0.9026641845703125
1776019090869810200,1.80081005859375,0.09857177734375,0.56884765625,1.0064697265625
1776019090879871200,1.810871337890625,0.237884521484375,0.630340576171875,1.1882171630859375
1776019090889931000,1.820930908203125,0.401702880859375,0.6146087646484375,1.3988800048828125
1776019090899992000,1.830991943359375,0.5079345703125,0.6136016845703125,1.4131011962890625
1776019090910052000,1.841052001953125,0.4537506103515625,0.7997283935546875,1.2683563232421875
1776019090920113200,1.851113037109375,0.2752227783203125,0.8335723876953125,1.0260772705078125
1776019090930173000,1.8611728515625,0.1551055908203125,0.6999359130859375,0.783843994140625
1776019090940234000,1.87123388671875,0.0819549560546875,0.6537628173828125,0.5568695068359375
1776019090950294000,1.8812939453125,0.0254669189453125,0.5621795654296875,0.4619598388671875
1776019090960355000,1.89135498046875,-0.0161590576171875,0.468841552734375,0.4872283935546875
1776019090970415000,1.9014150390625,-0.0482330322265625,0.373931884765625,0.5871429443359375
1776019090980476200,1.91147607421875,0.0352630615234375,0.315826416015625,0.670684814453125
1776019090990536000,1.921535888671875,0.0775909423828125,0.266693115234375,0.7312164306640625
1776019091000597000,1.931596923828125,0.1077728271484375,0.3520660400390625,0.7984771728515625
1776019091010658000,1.941657958984375,0.11669921875,0.4899139404296875,0.8521881103515625
1776019091020718000,1.951718017578125,0.146942138671875,0.517822265625,0.9385986328125
1776019091030779100,1.961779052734375,0.152679443359375,0.46142578125,0.994232177734375
1776019091040839000,1.9718388671875,0.0495147705078125,0.39697265625,1.0180511474609375
1776019091050900000,1.98189990234375,-0.0677642822265625,0.27630615234375,0.94342041015625
1776019091060960000,1.9919599609375,-0.0662994384765625,0.1985626220703125,0.8212738037109375
1776019091071021000,2.00202099609375,-0.0175628662109375,0.28338623046875,0.73480224609375
1776019091081081000,2.0120810546875,0.02935791015625,0.4969329833984375,0.7033233642578125
1776019091091142000,2.022141845703125,0.0630645751953125,0.6801605224609375,0.571929931640625
1776019091101202000,2.032201904296875,0.0874176025390625,0.816986083984375,0.4129638671875
1776019091111263000,2.042262939453125,0.141815185546875,0.9304351806640625,0.373565673828125
1776019091121323000,2.052322998046875,0.1507568359375,0.8778533935546875,0.4197540283203125
1776019091131384000,2.062384033203125,0.1197967529296875,0.8473358154296875,0.5273590087890625
1776019091141443800,2.07244384765625,0.1070709228515625,0.8987274169921875,0.6233673095703125
1776019091151505000,2.0825048828125,0.1260986328125,0.9140625,0.700958251953125
1776019091161566000,2.09256591796875,0.0611114501953125,0.890289306640625,0.838531494140625
1776019091171626000,2.1026259765625,-0.077392578125,0.88287353515625,1.01446533203125
1776019091181687000,2.11268701171875,-0.178466796875,0.8622894287109375,1.1161346435546875
1776019091191747000,2.1227470703125,-0.2342681884765625,0.855255126953125,1.1842041015625
1776019091201808000,2.132807861328125,-0.24212646484375,0.8680572509765625,1.1895751953125
1776019091211868200,2.1428681640625,-0.2100067138671875,0.8612823486328125,1.0844268798828125
1776019091221929000,2.152928955078125,-0.1161346435546875,0.894195556640625,0.9463958740234375
1776019091231989200,2.1629892578125,-0.018829345703125,0.9893798828125,0.80230712890625
1776019091242050000,2.173050048828125,0.036041259765625,1.046142578125,0.640869140625
1776019091252110000,2.183110107421875,0.0634765625,1.0735321044921875,0.5127410888671875
1776019091262171100,2.193171142578125,0.080963134765625,1.046661376953125,0.45977783203125
1776019091272231200,2.203231201171875,0.0592193603515625,0.9899139404296875,0.4712066650390625
1776019091282292200,2.213292236328125,0.01873779296875,0.949462890625,0.5458526611328125
1776019091292352000,2.22335205078125,0.0206298828125,0.9244842529296875,0.6548614501953125
1776019091302413000,2.2334130859375,0.0682830810546875,0.8851470947265625,0.7203216552734375
1776019091312473000,2.24347314453125,0.1321563720703125,0.9108734130859375,0.7411041259765625
1776019091322534100,2.2535341796875,0.172760009765625,0.924346923828125,0.765380859375
1776019091332595200,2.26359521484375,0.182342529296875,0.8919219970703125,0.7835235595703125
1776019091342655000,2.273655029296875,0.1804962158203125,0.8298797607421875,0.8337249755859375
1776019091352716000,2.283716064453125,0.1638946533203125,0.8168182373046875,0.8654022216796875
1776019091362776000,2.293776123046875,0.15960693359375,0.871124267578125,0.8227691650390625
1776019091372837000,2.303837158203125,0.1809234619140625,0.876190185546875,0.800445556640625
1776019091382897200,2.313897216796875,0.13330078125,0.810333251953125,0.7743377685546875
1776019091392958000,2.3239580078125,0.159454345703125,0.8260040283203125,0.71697998046875
1776019091403018000,2.33401806640625,0.19049072265625,0.851806640625,0.709808349609375
1776019091413079000,2.3440791015625,0.2127838134765625,0.78936767578125,0.7360687255859375
1776019091423139000,2.35413916015625,0.2960662841796875,0.7169647216796875,0.7315521240234375
1776019091433199900,2.364199951171875,0.2293853759765625,0.67156982421875,0.69622802734375
1776019091443259600,2.374259765625,0.031341552734375,0.6209716796875,0.6669464111328125
1776019091453320700,2.38432080078125,0.07928466796875,0.5323486328125,0.7252044677734375
1776019091463380700,2.394380615234375,0.2416534423828125,0.444488525390625,0.7790069580078125
1776019091473441800,2.40444189453125,0.359619140625,0.4022064208984375,0.8729705810546875
1776019091483501600,2.41450146484375,0.3933563232421875,0.3911285400390625,0.9525909423828125
1776019091493562600,2.424562744140625,0.465179443359375,0.335113525390625,1.0423126220703125
1776019091503623700,2.434623779296875,0.457733154296875,0.2588958740234375,1.031646728515625
1776019091513683700,2.44468359375,0.292205810546875,0.1677703857421875,0.9723968505859375
1776019091523744800,2.454744873046875,-0.08026123046875,0.1373138427734375,0.754150390625
1776019091533804800,2.4648046875,-0.219451904296875,0.1101837158203125,0.499786376953125
1776019091543865600,2.474865478515625,-0.0238494873046875,0.1488189697265625,0.392578125
1776019091553925600,2.484925537109375,-0.006744384765625,0.2459869384765625,0.3925628662109375
1776019091563986700,2.494986572265625,0.0047607421875,0.3140716552734375,0.4317779541015625
1776019091574047000,2.505046875,-0.0412750244140625,0.3586273193359375,0.4171142578125
1776019091584107800,2.515107666015625,0.023834228515625,0.457672119140625,0.3668670654296875
1776019091594167800,2.525167724609375,0.1535186767578125,0.58538818359375,0.416259765625
1776019091604228600,2.535228515625,0.2612152099609375,0.6483001708984375,0.500030517578125
1776019091614289000,2.545288818359375,0.306060791015625,0.60662841796875,0.618560791015625
1776019091624350000,2.555349853515625,0.3101654052734375,0.542266845703125,0.6993865966796875
1776019091634409700,2.56540966796875,0.198486328125,0.4809417724609375,0.7738494873046875
1776019091644470800,2.575470703125,-0.0027008056640625,0.2876434326171875,0.8533935546875
1776019091654530800,2.58553076171875,-0.1185302734375,0.09136962890625,0.896636962890625
1776019091664592000,2.595591796875,-0.1120758056640625,0.1168670654296875,0.973663330078125
1776019091674653000,2.60565283203125,0.01348876953125,0.3114013671875,1.0507965087890625
1776019091684713000,2.615712890625,0.3056182861328125,0.5163116455078125,1.036773681640625
1776019091694773800,2.625773681640625,0.5844268798828125,0.681915283203125,0.9576416015625
1776019091704833800,2.635833740234375,0.753631591796875,0.782470703125,0.88482666015625
1776019091714894800,2.645894775390625,0.6956939697265625,0.7781219482421875,0.8252105712890625
1776019091724955000,2.655954833984375,0.4658203125,0.6548004150390625,0.7398223876953125
1776019091735016000,2.666015869140625,0.198883056640625,0.513336181640625,0.6295166015625
1776019091745075700,2.67607568359375,-0.0295257568359375,0.3688507080078125,0.5879364013671875
1776019091755136800,2.68613671875,-0.1645050048828125,0.2066192626953125,0.6313629150390625
1776019091765196800,2.69619677734375,-0.136810302734375,0.239410400390625,0.7614593505859375
1776019091775257900,2.7062578125,-0.02642822265625,0.4571075439453125,0.883209228515625
1776019091785318000,2.71631787109375,0.04730224609375,0.665069580078125,0.9373016357421875
1776019091795378700,2.726378662109375,0.0796966552734375,0.7151336669921875,0.933685302734375
1776019091805438700,2.736438720703125,0.005126953125,0.6551361083984375,0.9689483642578125
1776019091815499800,2.746499755859375,-0.0733795166015625,0.63140869140625,0.9761199951171875
1776019091825560800,2.756560791015625,-0.1000518798828125,0.606597900390625,0.9610748291015625
1776019091835620900,2.766620849609375,-0.12164306640625,0.581451416015625,0.8885345458984375
1776019091845681700,2.776681640625,-0.0944671630859375,0.5480194091796875,0.741943359375
1776019091855741700,2.78674169921875,-0.003570556640625,0.455108642578125,0.590240478515625
1776019091865802800,2.796802734375,-0.0683135986328125,0.4457550048828125,0.5739898681640625
1776019091875862800,2.80686279296875,-0.1151123046875,0.465576171875,0.5229644775390625
1776019091885923800,2.816923828125,-0.1255645751953125,0.609527587890625,0.4525146484375
1776019091895983600,2.826983642578125,-0.11749267578125,0.60504150390625,0.358673095703125
1776019091906044700,2.837044677734375,-0.0899810791015625,0.5885467529296875,0.2640228271484375
1776019091916104700,2.847104736328125,-0.0520782470703125,0.730072021484375,0.3184661865234375
1776019091926165800,2.857165771484375,-0.0462188720703125,0.853240966796875,0.42230224609375
1776019091936225800,2.867225830078125,0.051788330078125,0.8454437255859375,0.4808807373046875
1776019091946286600,2.87728662109375,0.0852813720703125,0.8644866943359375,0.7133331298828125
1776019091956346600,2.8873466796875,0.0971527099609375,0.71575927734375,1.021636962890625
1776019091966407700,2.89740771484375,0.1323699951171875,0.478363037109375,1.2487640380859375
1776019091976468700,2.90746875,0.0692291259765625,0.41943359375,1.18524169921875
1776019091986528800,2.91752880859375,-0.2325897216796875,0.6017303466796875,1.162445068359375
1776019091996589800,2.92758984375,-0.5598602294921875,0.75958251953125,1.14349365234375
1776019092006649900,2.93764990234375,-0.4325103759765625,0.801116943359375,0.9261627197265625
1776019092016710700,2.947710693359375,-0.227142333984375,0.915740966796875,0.719970703125
1776019092026771000,2.95777099609375,-0.0357513427734375,0.9289703369140625,0.606201171875
1776019092036831700,2.967831787109375,0.01739501953125,0.7755126953125,0.518096923828125
1776019092046891800,2.977891845703125,-0.1764068603515625,0.610015869140625,0.404388427734375
1776019092056952800,2.987952880859375,-0.406158447265625,0.6999053955078125,0.41949462890625
1776019092067012900,2.998012939453125,-0.5167083740234375,0.9173736572265625,0.49066162109375
1776019092077074000,3.008073974609375,-0.44830322265625,1.138885498046875,0.5381927490234375
1776019092087134000,3.018134033203125,-0.1365966796875,1.0833587646484375,0.50262451171875
1776019092097194800,3.02819482421875,0.0954742431640625,0.846771240234375,0.416473388671875
1776019092107255800,3.038255859375,0.1367645263671875,0.6168670654296875,0.3276214599609375
1776019092117315800,3.04831591796875,0.12762451171875,0.52349853515625,0.2769622802734375
1776019092127377000,3.058376953125,0.1381683349609375,0.5572052001953125,0.2855224609375
1776019092137437000,3.06843701171875,0.1942138671875,0.59393310546875,0.28289794921875
1776019092147498000,3.078498046875,0.251007080078125,0.545562744140625,0.2310943603515625
1776019092157557800,3.088557861328125,0.2379608154296875,0.460357666015625,0.1793670654296875
1776019092167618800,3.098618896484375,0.1788177490234375,0.4458160400390625,0.1448974609375
1776019092177678800,3.108678955078125,0.0837249755859375,0.443389892578125,0.1273193359375
1776019092187740000,3.118739990234375,0.014251708984375,0.4641876220703125,0.0998077392578125
1776019092197799700,3.128799560546875,-0.04010009765625,0.526336669921875,0.089569091796875
1776019092207860700,3.13886083984375,-0.0523834228515625,0.509429931640625,0.0655670166015625
1776019092217920800,3.148920654296875,0.006378173828125,0.45208740234375,0.02557373046875
1776019092227981800,3.15898193359375,0.0431365966796875,0.50933837890625,0.009857177734375
1776019092238043000,3.16904296875,-0.0971527099609375,1.09368896484375,0.1148834228515625
1776019092248103000,3.17910302734375,-0.226165771484375,2.339691162109375,0.3399505615234375
1776019092258163700,3.189163818359375,-0.186370849609375,3.225006103515625,0.37530517578125
1776019092268223700,3.1992236328125,-0.0172882080078125,3.478057861328125,0.271026611328125
1776019092278284800,3.209284912109375,0.25775146484375,3.1035614013671875,0.0979461669921875
1776019092288344800,3.2193447265625,0.4612884521484375,2.080047607421875,-0.1451873779296875
1776019092298406000,3.229406005859375,0.47589111328125,1.2323455810546875,-0.2216644287109375
1776019092308465700,3.239465576171875,0.368621826171875,0.798828125,-0.2040252685546875
1776019092318526700,3.249526611328125,0.2575836181640625,0.5611114501953125,-0.214569091796875
1776019092328586800,3.259586669921875,0.151397705078125,0.4960784912109375,-0.250732421875
1776019092338647800,3.269647705078125,-0.00103759765625,0.566864013671875,-0.286407470703125
1776019092348707600,3.27970751953125,-0.1501922607421875,0.8074493408203125,-0.2334747314453125
1776019092358768600,3.2897685546875,-0.1873931884765625,1.0465240478515625,-0.0698699951171875
1776019092368829700,3.29982958984375,-0.14501953125,1.130523681640625,0.0481719970703125
1776019092378889700,3.3098896484375,-0.0533294677734375,1.0988616943359375,0.10516357421875
1776019092388950800,3.31995068359375,0.040679931640625,1.02783203125,0.1165008544921875
1776019092399010800,3.3300107421875,0.0922393798828125,0.9811553955078125,0.1036834716796875
1776019092409071600,3.340071533203125,0.1021270751953125,0.9659271240234375,0.0747528076171875
1776019092419131600,3.350131591796875,0.0923309326171875,0.97125244140625,0.0437164306640625
1776019092429192200,3.360192138671875,0.0741729736328125,0.998748779296875,0.020263671875
1776019092439252200,3.370252197265625,0.0621795654296875,1.0169219970703125,0.004364013671875
1776019092449313300,3.380313232421875,0.0557098388671875,1.0109405517578125,-0.0002899169921875
1776019092459373000,3.390373046875,0.0440826416015625,1.00067138671875,0.007781982421875
1776019092469434000,3.40043408203125,0.0311279296875,0.9962310791015625,0.0107879638671875
1776019092479494100,3.410494140625,0.0224761962890625,0.9934844970703125,0.0149993896484375
1776019092489555200,3.42055517578125,0.0198822021484375,0.995330810546875,0.0167999267578125
1776019092499616300,3.4306162109375,0.0248260498046875,0.9917755126953125,0.018890380859375
1776019092509676000,3.440676025390625,0.032073974609375,0.9827423095703125,0.022125244140625
1776019092519737000,3.450737060546875,0.0413818359375,0.980316162109375,0.0273284912109375
1776019092529797000,3.460797119140625,0.05029296875,0.980804443359375,0.0246734619140625
1776019092539858200,3.470858154296875,0.058380126953125,0.9871978759765625,0.01763916015625
1776019092549918200,3.480918212890625,0.060333251953125,0.997283935546875,0.0146942138671875
1776019092559979000,3.49097900390625,0.05279541015625,1.0052032470703125,0.0145263671875
1776019092570039000,3.5010390625,0.0428314208984375,1.007049560546875,0.01739501953125
1776019092580100000,3.51110009765625,0.0358734130859375,1.0002899169921875,0.020965576171875
1776019092590160100,3.52116015625,0.030029296875,0.993988037109375,0.026580810546875
1776019092600221200,3.53122119140625,0.0297393798828125,0.9910888671875,0.031768798828125
1776019092610282200,3.5412822265625,0.032257080078125,0.9896697998046875,0.0389556884765625
1776019092620342000,3.551342041015625,0.0331268310546875,0.9869842529296875,0.0434417724609375
1776019092630403000,3.561403076171875,0.033233642578125,0.9854888916015625,0.047119140625
1776019092640463000,3.571463134765625,0.034942626953125,0.9911041259765625,0.05194091796875
1776019092650524200,3.581524169921875,0.0311126708984375,0.9988555908203125,0.0535125732421875
1776019092660584000,3.591583984375,0.0305633544921875,1.000396728515625,0.0527496337890625
1776019092670645000,3.60164501953125,0.028717041015625,0.9919586181640625,0.04827880859375
1776019092680705000,3.611705078125,0.0207672119140625,0.9847869873046875,0.044891357421875
1776019092690766000,3.62176611328125,0.0150604248046875,0.979095458984375,0.04254150390625
1776019092700826000,3.631826171875,0.009002685546875,0.9832000732421875,0.0445556640625
1776019092710887200,3.64188720703125,0.0066986083984375,0.9892120361328125,0.0439453125
1776019092720947000,3.651947021484375,0.013031005859375,0.9879913330078125,0.0426788330078125
1776019092731008000,3.662008056640625,0.01995849609375,0.98712158203125,0.0407867431640625
1776019092741068000,3.672068115234375,0.030487060546875,0.9824981689453125,0.039337158203125
1776019092751129000,3.682129150390625,0.0367889404296875,0.9845733642578125,0.0409088134765625
1776019092761190100,3.692190185546875,0.0428009033203125,0.9948577880859375,0.04412841796875
1776019092771250000,3.70225,0.05010986328125,1.010101318359375,0.04669189453125
1776019092781311000,3.71231103515625,0.0549163818359375,1.0155029296875,0.03912353515625
1776019092791371000,3.72237109375,0.0543670654296875,1.0130157470703125,0.0245361328125
1776019092801432000,3.73243212890625,0.0535736083984375,1.0142669677734375,0.0031585693359375
1776019092811491800,3.742491943359375,0.05181884765625,1.0208740234375,-0.0235748291015625
1776019092821553000,3.752552978515625,0.0518798828125,1.0216064453125,-0.0494537353515625
1776019092831613200,3.76261328125,0.051788330078125,1.017333984375,-0.06829833984375
1776019092841674000,3.772674072265625,0.0542144775390625,1.00836181640625,-0.0784149169921875
1776019092851734300,3.782734375,0.058685302734375,0.9947967529296875,-0.076690673828125
1776019092861795000,3.792795166015625,0.0601654052734375,0.9827117919921875,-0.0686187744140625
1776019092871855900,3.80285595703125,0.0643768310546875,0.9773712158203125,-0.0540313720703125
1776019092881916200,3.812916259765625,0.0628662109375,0.97955322265625,-0.0351715087890625
1776019092891977000,3.82297705078125,0.0583038330078125,0.986572265625,-0.0164642333984375
1776019092902037200,3.833037353515625,0.0596466064453125,0.99151611328125,0.0029144287109375
1776019092912098000,3.84309814453125,0.0581512451171875,0.9964447021484375,0.0203399658203125
1776019092922158000,3.853157958984375,0.04754638671875,0.988250732421875,0.0299224853515625
1776019092932219100,3.86321923828125,0.039154052734375,0.9744720458984375,0.026275634765625
1776019092942279200,3.873279052734375,0.0378570556640625,1.0057830810546875,0.0347137451171875
1776019092952340200,3.88334033203125,0.035888671875,1.0096893310546875,0.044952392578125
1776019092962400000,3.89339990234375,0.030548095703125,0.9996795654296875,0.0621337890625
1776019092972461000,3.9034609375,0.0315704345703125,0.9853668212890625,0.077972412109375
1776019092982521000,3.91352099609375,0.0345611572265625,1.0072021484375,0.098175048828125
1776019092992582100,3.92358203125,0.02935791015625,1.001190185546875,0.111358642578125
1776019093002643200,3.933643310546875,0.0183258056640625,0.9860382080078125,0.1144866943359375
1776019093012703200,3.943703125,0.0179290771484375,0.989410400390625,0.11981201171875
1776019093022764000,3.953763916015625,0.0266876220703125,0.9922332763671875,0.1175079345703125
1776019093032824000,3.963823974609375,0.0339508056640625,0.983795166015625,0.1080474853515625
1776019093042885000,3.973885009765625,0.0354461669921875,0.986328125,0.0953826904296875
1776019093052945200,3.983945068359375,0.029266357421875,0.9953765869140625,0.0832977294921875
1776019093063006200,3.994006103515625,0.022369384765625,0.9958953857421875,0.073150634765625
1776019093073066000,4.00406591796875,0.0219268798828125,0.994659423828125,0.0639801025390625
1776019093083127000,4.014126953125,0.0231475830078125,0.9891204833984375,0.055328369140625
1776019093093187000,4.02418701171875,0.0231781005859375,0.9854736328125,0.047882080078125
1776019093103248100,4.034248046875,0.0206756591796875,0.9810791015625,0.0357208251953125
1776019093113309200,4.04430908203125,0.020111083984375,0.9856109619140625,0.0225982666015625
1776019093123369000,4.054368896484375,0.0169677734375,0.9899139404296875,0.0127410888671875
1776019093133430000,4.064429931640625,0.014739990234375,0.99737548828125,0.0061187744140625
1776019093143490000,4.074489990234375,0.0139007568359375,0.9966278076171875,0.0008392333984375
1776019093153551000,4.084551025390625,0.0175323486328125,0.9928436279296875,-0.003143310546875
1776019093163611100,4.094611083984375,0.0251312255859375,0.9889373779296875,-0.004180908203125
1776019093173672000,4.104671875,0.029815673828125,0.98974609375,-0.002838134765625
1776019093183732000,4.11473193359375,0.0296630859375,0.9886016845703125,-0.0011138916015625
1776019093193793000,4.12479296875,0.0272216796875,0.995880126953125,-0.002197265625
1776019093203853000,4.13485302734375,0.0220794677734375,1.0026702880859375,-0.0053558349609375
1776019093213914000,4.1449140625,0.0236053466796875,1.0095672607421875,-0.01483154296875
1776019093223974000,4.154973876953125,0.0272064208984375,1.0119476318359375,-0.0260772705078125
1776019093234035000,4.165034912109375,0.0295562744140625,1.01202392578125,-0.0356903076171875
1776019093244096000,4.175095947265625,0.02618408203125,1.008880615234375,-0.0427093505859375
1776019093254156000,4.185156005859375,0.0230560302734375,1.0065155029296875,-0.042938232421875
1776019093264217000,4.195217041015625,0.026947021484375,1.0060577392578125,-0.0357513427734375
1776019093274276900,4.20527685546875,0.0314178466796875,1.004547119140625,-0.02313232421875
1776019093284338000,4.215337890625,0.035552978515625,0.99871826171875,-0.0103912353515625
1776019093294398000,4.22539794921875,0.0383453369140625,0.9946441650390625,-0.0033111572265625
1776019093304459000,4.235458984375,0.0404205322265625,0.9907073974609375,0.002044677734375
1776019093314519000,4.24551904296875,0.0386505126953125,0.985809326171875,0.0018157958984375
1776019093324580000,4.255580078125,0.0353851318359375,0.9864044189453125,-0.00164794921875
1776019093334640000,4.26564013671875,0.03228759765625,0.9856719970703125,-0.0017242431640625
1776019093344701000,4.275700927734375,0.0247039794921875,0.9887542724609375,0.0007171630859375
1776019093354762000,4.285761962890625,0.017578125,0.9951934814453125,0.00396728515625
1776019093364822300,4.295822265625,0.0133514404296875,1.0032196044921875,0.0075836181640625
1776019093374883000,4.305883056640625,0.016143798828125,1.008148193359375,0.0126495361328125
1776019093384943000,4.315943115234375,0.0219268798828125,1.0079803466796875,0.0140533447265625
1776019093395004200,4.326004150390625,0.0252685546875,0.9990234375,0.0079803466796875
1776019093405064200,4.336064208984375,0.0277862548828125,0.9857330322265625,0.0052337646484375
1776019093415125200,4.346125244140625,0.02978515625,0.979156494140625,0.01141357421875
1776019093425185000,4.35618505859375,0.0349884033203125,0.981048583984375,0.0225067138671875
1776019093435246600,4.36624658203125,0.0390167236328125,0.9878387451171875,0.036529541015625
1776019093445307000,4.376306884765625,0.0428314208984375,0.99267578125,0.0482330322265625
1776019093455367700,4.38636767578125,0.0442352294921875,0.9827880859375,0.0467987060546875
1776019093465428700,4.3964287109375,0.0493621826171875,0.98468017578125,0.0265655517578125
1776019093475489000,4.406489013671875,0.05950927734375,1.0175323486328125,0.0091400146484375
1776019093485549600,4.416549560546875,0.0747528076171875,1.034454345703125,-0.0063323974609375
1776019093495609900,4.42660986328125,0.0544586181640625,1.0115966796875,-0.0047149658203125
1776019093505671000,4.4366708984375,0.012908935546875,0.9991912841796875,0.0088348388671875
1776019093515731000,4.44673095703125,-0.006805419921875,0.9734649658203125,0.0249786376953125
1776019093525792000,4.4567919921875,0.00164794921875,0.9561614990234375,0.0377960205078125
1776019093535851800,4.466851806640625,0.03070068359375,0.9744415283203125,0.0396270751953125
1776019093545912800,4.476912841796875,0.0570831298828125,1.00079345703125,0.0233154296875
1776019093555972900,4.486972900390625,0.0682220458984375,1.0230712890625,0.0048980712890625
1776019093566034000,4.497033935546875,0.0719451904296875,1.0192413330078125,-0.0132904052734375
1776019093576095000,4.507094970703125,0.0699920654296875,1.0131683349609375,-0.0190277099609375
1776019093586154800,4.51715478515625,0.05462646484375,1.004974365234375,-0.015350341796875
1776019093596215800,4.5272158203125,0.043975830078125,1.0007171630859375,-0.0077667236328125
1776019093606275800,4.53727587890625,0.0260772705078125,1.0054779052734375,0.0116119384765625
1776019093616337000,4.5473369140625,0.016204833984375,0.9931793212890625,0.02337646484375
1776019093626397000,4.55739697265625,0.037384033203125,0.9838714599609375,0.03509521484375
1776019093636457700,4.567457763671875,0.0432281494140625,0.9900054931640625,0.0467529296875
1776019093646517800,4.577517822265625,0.0403900146484375,0.9930267333984375,0.0464019775390625
1776019093656578800,4.587578857421875,0.0284881591796875,0.9936065673828125,0.04315185546875
1776019093666638800,4.597638916015625,0.0226898193359375,0.9901123046875,0.0395965576171875
1776019093676700000,4.607699951171875,0.0279998779296875,0.9864349365234375,0.0355987548828125
1776019093686759700,4.617759765625,0.0337371826171875,0.9830780029296875,0.033935546875
1776019093696820700,4.62782080078125,0.0382537841796875,0.9821014404296875,0.0340576171875
1776019093706881800,4.6378818359375,0.0377349853515625,0.9820556640625,0.0394439697265625
1776019093716941800,4.64794189453125,0.0344696044921875,0.988250732421875,0.0513458251953125
1776019093727003000,4.6580029296875,0.02838134765625,0.9981842041015625,0.064239501953125
1776019093737062700,4.668062744140625,0.02093505859375,1.0060272216796875,0.0699005126953125
1776019093747123700,4.678123779296875,0.0190582275390625,1.0027008056640625,0.0653228759765625
1776019093757183700,4.688183837890625,0.0203399658203125,0.9954833984375,0.050079345703125
1776019093767244800,4.698244873046875,0.0219879150390625,0.9910430908203125,0.0314483642578125
1776019093777304800,4.708304931640625,0.0187835693359375,0.9934234619140625,0.0140228271484375
1776019093787365600,4.71836572265625,0.0133514404296875,0.99664306640625,0.001983642578125
1776019093797425700,4.72842578125,0.00775146484375,0.997100830078125,-0.0073699951171875
1776019093807486700,4.73848681640625,0.001922607421875,0.999053955078125,-0.0099945068359375
1776019093817547800,4.7485478515625,-0.00341796875,1.0034942626953125,-0.0076751708984375
1776019093827607800,4.75860791015625,-0.004547119140625,1.0048828125,-0.0043792724609375
1776019093837668900,4.7686689453125,0.004058837890625,0.998138427734375,-0.0057220458984375
1776019093847728600,4.778728759765625,0.00701904296875,0.997802734375,-0.0084991455078125
1776019093857789700,4.788789794921875,0.010894775390625,1.0022735595703125,-0.0429534912109375
1776019093867849700,4.798849609375,0.040008544921875,1.0142974853515625,-0.0718231201171875
1776019093877910800,4.808910888671875,0.0596923828125,1.0634918212890625,-0.0646209716796875
1776019093887970600,4.818970458984375,0.049407958984375,1.0591888427734375,-0.0721282958984375
1776019093898031600,4.829031494140625,0.0099945068359375,0.9858245849609375,-0.0117645263671875
1776019093908092000,4.839091796875,-0.075897216796875,0.948089599609375,0.10552978515625
1776019093918152700,4.849152587890625,-0.1129150390625,0.9602508544921875,0.172454833984375
1776019093928213800,4.8592138671875,-0.0446929931640625,0.9710235595703125,0.1259307861328125
1776019093938273800,4.869273681640625,0.007080078125,0.9455718994140625,0.09820556640625
1776019093948334600,4.87933447265625,0.0083160400390625,0.9384002685546875,0.096649169921875
1776019093958395000,4.889394775390625,0.0009307861328125,0.9842071533203125,0.0461273193359375
1776019093968455700,4.89945556640625,0.0018768310546875,1.0169525146484375,-0.0026397705078125
1776019093978516000,4.909515869140625,0.00836181640625,1.0473480224609375,-0.0173797607421875
1776019093988576800,4.91957666015625,0.0261383056640625,1.0419921875,-0.035064697265625
1776019093998636800,4.92963671875,0.04034423828125,1.034881591796875,-0.0325469970703125
1776019094008697900,4.93969775390625,0.043182373046875,1.0120697021484375,-0.0351409912109375
1776019094018758000,4.9497578125,0.0205230712890625,1.0030364990234375,-0.0379486083984375
1776019094028819000,4.95981884765625,-0.0107879638671875,1.0118408203125,-0.0358123779296875
1776019094038879700,4.969879638671875,-0.0198974609375,1.0260162353515625,-0.0311279296875
1776019094048939800,4.979939697265625,-0.0075531005859375,1.026214599609375,-0.0175018310546875
1776019094059000800,4.990000732421875,0.0064849853515625,1.0071258544921875,-0.00054931640625
1776019094069060900,5.000060791015625,0.010894775390625,0.9886322021484375,0.000946044921875
1776019094079122000,5.010121826171875,0.010986328125,0.9777984619140625,-0.0030670166015625
1776019094089182000,5.020181884765625,0.0079193115234375,0.9810333251953125,-0.010894775390625
1776019094099242800,5.03024267578125,0.007659912109375,0.992584228515625,-0.0135955810546875
1776019094109302800,5.040302734375,-0.00067138671875,0.9920654296875,-0.010772705078125
1776019094119363800,5.05036376953125,-0.0111846923828125,0.987060546875,-0.003936767578125
1776019094129424000,5.060423828125,-0.0156097412109375,1.0031890869140625,0.00244140625
1776019094139485000,5.07048486328125,-0.01031494140625,1.0243988037109375,0.0028076171875
1776019094149545700,5.080545654296875,-0.001129150390625,1.02264404296875,-0.0040283203125
1776019094159605800,5.090605712890625,0.0123291015625,1.021453857421875,-0.0069732666015625
1776019094169666800,5.100666748046875,0.0197906494140625,1.01336669921875,-0.0015411376953125
1776019094179726800,5.110726806640625,0.0137786865234375,0.9990234375,0.0150146484375
1776019094189788000,5.120787841796875,-0.0040740966796875,0.9850921630859375,0.0352020263671875
1776019094199847700,5.13084765625,-0.0202178955078125,0.9820098876953125,0.0561065673828125
1776019094209908700,5.14090869140625,-0.02105712890625,0.99493408203125,0.0810699462890625
1776019094219968800,5.15096875,-0.01953125,0.99237060546875,0.098052978515625
1776019094230029800,5.16102978515625,-0.015289306640625,0.9892425537109375,0.10693359375
1776019094240089900,5.17108984375,-0.01910400390625,0.98419189453125,0.11285400390625
1776019094250150700,5.181150634765625,-0.0260467529296875,0.9823455810546875,0.111114501953125
1776019094260211700,5.191211669921875,-0.0325469970703125,0.9766082763671875,0.108001708984375
1776019094270271700,5.201271728515625,-0.0338287353515625,0.9746856689453125,0.0973358154296875
1776019094280332800,5.211332763671875,-0.0305328369140625,0.986236572265625,0.0847625732421875
1776019094290392800,5.221392822265625,-0.0392913818359375,1.0093994140625,0.074188232421875
1776019094300454000,5.231453857421875,-0.04876708984375,1.0321197509765625,0.0528106689453125
1776019094310513700,5.241513671875,-0.055450439453125,1.0449371337890625,0.0285797119140625
1776019094320574700,5.25157470703125,-0.0605010986328125,1.0283355712890625,0.0060882568359375
1776019094330634800,5.261634765625,-0.0694580078125,1.018310546875,-0.0087890625
1776019094340695800,5.27169580078125,-0.0840606689453125,0.9934844970703125,-0.005828857421875
1776019094350756900,5.2817568359375,-0.0945892333984375,0.971435546875,0.0123291015625
1776019094360816600,5.291816650390625,-0.10003662109375,0.963165283203125,0.0359649658203125
1776019094370877700,5.301877685546875,-0.1028594970703125,0.937896728515625,0.0656585693359375
1776019094380937700,5.311937744140625,-0.108184814453125,0.9276885986328125,0.0902862548828125
1776019094390998800,5.321998779296875,-0.108245849609375,0.933624267578125,0.1015777587890625
1776019094401058600,5.33205859375,-0.1019439697265625,0.9593353271484375,0.0953216552734375
1776019094411119600,5.34211962890625,-0.096435546875,0.9802703857421875,0.0770111083984375
1776019094421179600,5.3521796875,-0.09869384765625,0.9891357421875,0.0506591796875
1776019094431240400,5.362240478515625,-0.1133880615234375,0.9889984130859375,0.02130126953125
1776019094441300500,5.372300537109375,-0.138702392578125,0.993988037109375,0.0008392333984375
1776019094451361500,5.382361572265625,-0.1601409912109375,1.0191497802734375,0.0005950927734375
1776019094461422300,5.39242236328125,-0.1681060791015625,1.025299072265625,0.0160675048828125
1776019094471482600,5.402482666015625,-0.1571502685546875,1.0340118408203125,0.0230560302734375
1776019094481543400,5.41254345703125,-0.1582183837890625,1.0233306884765625,0.036773681640625
1776019094491603500,5.422603515625,-0.1814422607421875,1.01080322265625,0.0510101318359375
1776019094501664500,5.43266455078125,-0.18768310546875,1.0259857177734375,0.0669708251953125
1776019094511724500,5.442724609375,-0.1820831298828125,1.036956787109375,0.0830841064453125
1776019094521785600,5.45278564453125,-0.1734161376953125,1.0894012451171875,0.0921173095703125
1776019094531845600,5.462845703125,-0.158905029296875,1.1259307861328125,0.0940704345703125
1776019094541906400,5.472906494140625,-0.1373443603515625,1.1273345947265625,0.08837890625
1776019094551966500,5.482966552734375,-0.1248931884765625,1.0965118408203125,0.0793914794921875
1776019094562027500,5.493027587890625,-0.1237335205078125,1.0540008544921875,0.072021484375
1776019094572088600,5.503088623046875,-0.12774658203125,1.0099945068359375,0.063690185546875
1776019094582148600,5.513148681640625,-0.1294403076171875,0.9691162109375,0.0634307861328125
1776019094592209400,5.52320947265625,-0.1321258544921875,0.925018310546875,0.0640869140625
1776019094602269400,5.53326953125,-0.120452880859375,0.8979339599609375,0.079437255859375
1776019094612330500,5.54333056640625,-0.169921875,0.887786865234375,0.0635528564453125
1776019094622390500,5.553390625,-0.2064971923828125,0.918060302734375,0.058349609375
1776019094632451600,5.56345166015625,-0.196624755859375,0.9461669921875,0.0878143310546875
1776019094642511400,5.573511474609375,-0.178955078125,0.9483642578125,0.1185455322265625
1776019094652572400,5.583572509765625,-0.1674957275390625,0.9534912109375,0.15460205078125
1776019094662633500,5.593633544921875,-0.14111328125,0.96954345703125,0.2199249267578125
1776019094672693500,5.603693603515625,-0.2442169189453125,0.95709228515625,0.2207489013671875
1776019094682754600,5.613754638671875,-0.311370849609375,0.9733123779296875,0.2105560302734375
1776019094692814300,5.623814453125,-0.244781494140625,0.912933349609375,0.1400909423828125
1776019094702875400,5.63387548828125,-0.060394287109375,0.90130615234375,0.09405517578125
1776019094712935400,5.643935302734375,-0.0250701904296875,0.92254638671875,0.0836334228515625
1776019094722996500,5.65399658203125,-0.105621337890625,0.894073486328125,0.08660888671875
1776019094733056500,5.664056396484375,-0.2012939453125,0.859619140625,0.0732574462890625
1776019094743117600,5.67411767578125,-0.2828369140625,0.860687255859375,0.063690185546875
1776019094753177300,5.68417724609375,-0.3049774169921875,0.8944854736328125,0.081298828125
1776019094763238400,5.69423828125,-0.2678985595703125,0.9087982177734375,0.1027374267578125
1776019094773299500,5.704299560546875,-0.207855224609375,0.894134521484375,0.11090087890625
1776019094783359500,5.714359375,-0.1610565185546875,0.8921356201171875,0.10711669921875
1776019094793420500,5.724420654296875,-0.13690185546875,0.9045562744140625,0.089691162109375
1776019094803480300,5.734480224609375,-0.1348114013671875,0.9225616455078125,0.0619354248046875
1776019094813541400,5.744541259765625,-0.1457061767578125,0.9344482421875,0.033905029296875
1776019094823601400,5.754601318359375,-0.1625518798828125,0.932525634765625,0.0171966552734375
1776019094833662500,5.764662353515625,-0.18231201171875,0.9228973388671875,0.013885498046875
1776019094843722200,5.77472216796875,-0.200897216796875,0.921844482421875,0.0223846435546875
1776019094853783300,5.784783203125,-0.216705322265625,0.9293060302734375,0.03656005859375
1776019094863844400,5.79484423828125,-0.229644775390625,0.94622802734375,0.04949951171875
1776019094873904400,5.804904296875,-0.2402496337890625,0.9616851806640625,0.0626373291015625
1776019094883965400,5.81496533203125,-0.247955322265625,0.97381591796875,0.079559326171875
1776019094894025500,5.825025390625,-0.249114990234375,0.9869842529296875,0.101531982421875
1776019094904086300,5.835086181640625,-0.2411041259765625,0.9969024658203125,0.1283111572265625
1776019094914146300,5.845146240234375,-0.22509765625,0.9935455322265625,0.149078369140625
1776019094924207400,5.855207275390625,-0.2080535888671875,0.9790802001953125,0.1627349853515625
1776019094934267600,5.865267578125,-0.1938018798828125,0.97369384765625,0.169677734375
1776019094944328400,5.875328369140625,-0.1838836669921875,0.96551513671875,0.156036376953125
1776019094954388500,5.885388427734375,-0.183807373046875,0.96435546875,0.1435394287109375
1776019094964449300,5.89544921875,-0.191802978515625,0.96087646484375,0.1279296875
1776019094974510300,5.90551025390625,-0.196014404296875,0.952239990234375,0.110198974609375
1776019094984570600,5.915570556640625,-0.1906890869140625,0.9647979736328125,0.1077880859375
1776019094994631400,5.92563134765625,-0.184356689453125,1.0153961181640625,0.1165008544921875
1776019095004691500,5.93569140625,-0.1730804443359375,1.0920257568359375,0.128448486328125
1776019095014752500,5.94575244140625,-0.182952880859375,1.1679534912109375,0.14111328125
1776019095024812500,5.9558125,-0.2394866943359375,1.2142791748046875,0.157958984375
1776019095034873600,5.96587353515625,-0.3083343505859375,1.207916259765625,0.183837890625
1776019095044933600,5.97593359375,-0.36260986328125,1.1517181396484375,0.224212646484375
1776019095054994400,5.985994384765625,-0.39312744140625,1.080230712890625,0.270721435546875
1776019095065055500,5.996055419921875,-0.412933349609375,1.028106689453125,0.32666015625
1776019095075115500,6.006115478515625,-0.424560546875,0.9951629638671875,0.368682861328125
1776019095085176600,6.016176513671875,-0.4009552001953125,0.9645843505859375,0.3872222900390625
1776019095095236600,6.026236572265625,-0.3369903564453125,0.941925048828125,0.3809661865234375
1776019095105297700,6.036297607421875,-0.276641845703125,0.937042236328125,0.32806396484375
1776019095115357400,6.046357421875,-0.2395172119140625,0.929534912109375,0.2407684326171875
1776019095125418500,6.05641845703125,-0.22003173828125,0.91632080078125,0.161346435546875
1776019095135478500,6.066478515625,-0.2275543212890625,0.8966522216796875,0.0926055908203125
1776019095145539600,6.07653955078125,-0.2314605712890625,0.8679962158203125,0.037628173828125
1776019095155599400,6.086599365234375,-0.2120208740234375,0.8343048095703125,0.000885009765625
1776019095165660400,6.096660400390625,-0.1775360107421875,0.80767822265625,-0.0133819580078125
1776019095175721500,6.106721435546875,-0.1379241943359375,0.82061767578125,-0.0084381103515625
1776019095185781500,6.116781494140625,-0.08697509765625,0.834930419921875,0.00274658203125
1776019095195842600,6.126842529296875,-0.048370361328125,0.869964599609375,0.0272979736328125
1776019095205902300,6.13690234375,-0.0232696533203125,0.878875732421875,0.0553436279296875
1776019095215963400,6.14696337890625,-0.000274658203125,0.8770599365234375,0.0845184326171875
1776019095226023400,6.1570234375,0.0247955322265625,0.8626251220703125,0.1037750244140625
1776019095236084500,6.16708447265625,0.0368194580078125,0.86700439453125,0.1248321533203125
1776019095246144500,6.17714453125,0.028533935546875,0.884368896484375,0.1518096923828125
1776019095256205600,6.18720556640625,0.005615234375,0.9033050537109375,0.1721038818359375
1776019095266266400,6.197266357421875,-0.02825927734375,0.9197845458984375,0.186431884765625
1776019095276326400,6.207326416015625,-0.0777130126953125,0.9271697998046875,0.18499755859375
1776019095286387500,6.217387451171875,-0.1321258544921875,0.925506591796875,0.1701812744140625
1776019095296447500,6.227447509765625,-0.1854095458984375,0.9202423095703125,0.15185546875
1776019095306508500,6.237508544921875,-0.2285003662109375,0.9256134033203125,0.1322479248046875
1776019095316568300,6.247568359375,-0.251312255859375,0.9394378662109375,0.1143951416015625
1776019095326629400,6.25762939453125,-0.2570648193359375,0.9546966552734375,0.1020050048828125
1776019095336689400,6.267689453125,-0.2498931884765625,0.967193603515625,0.0890045166015625
1776019095346750500,6.27775048828125,-0.2364959716796875,0.9763641357421875,0.0706787109375
1776019095356811500,6.2878115234375,-0.23175048828125,0.987030029296875,0.054443359375
1776019095366871300,6.297871337890625,-0.2473602294921875,1.01568603515625,0.051361083984375
1776019095376932400,6.307932373046875,-0.2740020751953125,1.0365142822265625,0.050537109375
1776019095386992400,6.317992431640625,-0.306793212890625,1.0817413330078125,0.0564117431640625
1776019095397053400,6.328053466796875,-0.32861328125,1.148590087890625,0.06964111328125
1776019095407113500,6.338113525390625,-0.327789306640625,1.20025634765625,0.0851287841796875
1776019095417174300,6.34817431640625,-0.3116912841796875,1.22021484375,0.098114013671875
1776019095427234300,6.358234375,-0.2810516357421875,1.1972198486328125,0.101776123046875
1776019095437296000,6.368296142578125,-0.2483062744140625,1.146697998046875,0.095855712890625
1776019095447357000,6.37835693359375,-0.21575927734375,1.100341796875,0.0899658203125
1776019095457417000,6.3884169921875,-0.1786651611328125,1.056243896484375,0.0674896240234375
1776019095467478000,6.39847802734375,-0.14605712890625,1.0017852783203125,0.02099609375
1776019095477538000,6.4085380859375,-0.132659912109375,0.9530487060546875,-0.02935791015625
1776019095487599000,6.41859912109375,-0.1446380615234375,0.927032470703125,-0.07867431640625
1776019095497659000,6.428658935546875,-0.17181396484375,0.896697998046875,-0.128936767578125
1776019095507720000,6.438719970703125,-0.18511962890625,0.867034912109375,-0.16900634765625
1776019095517780000,6.448780029296875,-0.161224365234375,0.8731536865234375,-0.171600341796875
1776019095527841000,6.458841064453125,-0.113311767578125,0.90338134765625,-0.124481201171875
1776019095537900800,6.46890087890625,-0.0727996826171875,0.9279022216796875,-0.032318115234375
1776019095547961900,6.4789619140625,-0.05743408203125,0.9533233642578125,0.0731964111328125
1776019095558023000,6.48902294921875,-0.0603179931640625,0.9601593017578125,0.161163330078125
1776019095568083000,6.4990830078125,-0.07281494140625,0.9620361328125,0.224365234375
1776019095578144000,6.50914404296875,-0.098480224609375,0.9652862548828125,0.251495361328125
1776019095588204000,6.5192041015625,-0.1278839111328125,0.9656219482421875,0.23260498046875
1776019095598264800,6.529264892578125,-0.1444091796875,0.9712982177734375,0.1774444580078125
1776019095608325000,6.5393251953125,-0.13397216796875,0.9899444580078125,0.11541748046875
1776019095618386000,6.549385986328125,-0.1053619384765625,0.9990081787109375,0.065765380859375
1776019095628446200,6.5594462890625,-0.079132080078125,1.0034637451171875,0.037750244140625
1776019095638507000,6.569507080078125,-0.0715789794921875,1.010345458984375,0.034881591796875
1776019095648568000,6.579568115234375,-0.0823516845703125,1.0380401611328125,0.0447540283203125
1776019095658628000,6.589628173828125,-0.095794677734375,1.0377349853515625,0.05120849609375
1776019095668689000,6.59968896484375,-0.0988616943359375,1.0096588134765625,0.0423736572265625
1776019095678749200,6.609749267578125,-0.0835723876953125,0.994049072265625,0.026397705078125
1776019095688810000,6.61981005859375,-0.0624237060546875,0.99066162109375,0.0113677978515625
1776019095698870000,6.6298701171875,-0.0365447998046875,0.986572265625,-0.005340576171875
1776019095708931000,6.63993115234375,-0.01922607421875,0.984466552734375,-0.01971435546875
1776019095718991000,6.6499912109375,-0.01483154296875,0.9897003173828125,-0.029327392578125
1776019095729052200,6.66005224609375,-0.02362060546875,1.0014801025390625,-0.0322418212890625
1776019095739113200,6.67011328125,-0.037811279296875,1.018035888671875,-0.0275115966796875
1776019095749173000,6.680173095703125,-0.0476837158203125,1.0318450927734375,-0.015472412109375
1776019095759234000,6.690234130859375,-0.0483551025390625,1.0113983154296875,-0.0019989013671875
1776019095769294000,6.700294189453125,-0.0383453369140625,0.963623046875,0.005950927734375
1776019095779355100,6.710355224609375,-0.02593994140625,0.9226531982421875,0.0092620849609375
1776019095789415200,6.720415283203125,-0.0125579833984375,0.8940277099609375,0.01239013671875
1776019095799476200,6.730476318359375,-0.010009765625,0.8797760009765625,0.0157928466796875
1776019095809536000,6.740535888671875,-0.0166015625,0.8863983154296875,0.0166778564453125
1776019095819597000,6.75059716796875,-0.0214080810546875,0.9202880859375,0.0201416015625
1776019095829658000,6.760658203125,-0.0291595458984375,0.9644012451171875,0.026123046875
1776019095839718100,6.77071826171875,-0.0335845947265625,1.0225830078125,0.0335235595703125
1776019095849779200,6.780779296875,-0.0292816162109375,1.0729522705078125,0.0360107421875
1776019095859839000,6.7908388671875,-0.0241851806640625,1.0560455322265625,0.032073974609375
1776019095869900000,6.800900146484375,-0.01556396484375,1.0309906005859375,0.023345947265625
1776019095879960000,6.8109599609375,-0.0015716552734375,1.0265960693359375,0.0248870849609375
1776019095890021000,6.821021240234375,0.013671875,1.0104522705078125,0.0270843505859375
1776019095900081000,6.831080810546875,0.0277862548828125,0.9914398193359375,0.0249786376953125
1776019095910142000,6.841141845703125,0.0421295166015625,0.97821044921875,0.0206298828125
1776019095920203000,6.851203125,0.0528717041015625,0.9794769287109375,0.01995849609375
1776019095930263000,6.861262939453125,0.0572357177734375,0.9944305419921875,0.0240631103515625
1776019095940324000,6.871323974609375,0.0537261962890625,1.0170745849609375,0.035003662109375
1776019095950384000,6.881384033203125,0.0368499755859375,1.0326995849609375,0.051422119140625
1776019095960445000,6.89144482421875,0.0235137939453125,1.047027587890625,0.0510711669921875
1776019095970505000,6.9015048828125,-0.0069427490234375,1.0088348388671875,0.0404815673828125
1776019095980566000,6.91156591796875,-0.0316162109375,0.9951934814453125,0.0163726806640625
1776019095990626000,6.9216259765625,-0.047332763671875,0.993927001953125,0.0033721923828125
1776019096000687000,6.93168701171875,-0.0473785400390625,0.9921112060546875,-0.0100860595703125
1776019096010748200,6.941748046875,-0.0283050537109375,1.000244140625,-0.0245208740234375
1776019096020808000,6.951807861328125,-0.0068817138671875,1.02020263671875,-0.0299072265625
1776019096030869000,6.961868896484375,0.0010223388671875,1.0477752685546875,-0.0217742919921875
1776019096040929000,6.971928955078125,-0.001190185546875,1.0728759765625,0.0041351318359375
1776019096050990000,6.981989990234375,0.001739501953125,1.08172607421875,0.0402374267578125
1776019096061049900,6.9920498046875,0.0244903564453125,1.048919677734375,0.0665283203125
1776019096071111000,7.00211083984375,0.061431884765625,1.0036468505859375,0.0724334716796875
1776019096081171000,7.0121708984375,0.08795166015625,0.9735565185546875,0.0677490234375
1776019096091232000,7.02223193359375,0.09295654296875,0.968505859375,0.0642547607421875
1776019096101293000,7.03229296875,0.065032958984375,0.9962005615234375,0.06414794921875
1776019096111352800,7.042352783203125,0.027069091796875,1.0084686279296875,0.058135986328125
1776019096121414000,7.052413818359375,0.010101318359375,0.9979400634765625,0.0439910888671875
1776019096131474000,7.062473876953125,0.0336456298828125,0.964935302734375,0.0213623046875
1776019096141535000,7.072534912109375,0.0687255859375,0.9799957275390625,0.014373779296875
1776019096151595000,7.082594970703125,0.09442138671875,0.9539947509765625,0.0044097900390625
1776019096161656000,7.092656005859375,0.1084747314453125,0.88787841796875,-0.0202484130859375
1776019096171716000,7.102716064453125,0.123382568359375,0.8892364501953125,-0.0207366943359375
1776019096181777000,7.11277685546875,0.132080078125,0.9333648681640625,-0.0014190673828125
1776019096191838000,7.122837890625,0.134429931640625,0.9090118408203125,0.001983642578125
1776019096201898000,7.13289794921875,0.1360015869140625,0.9021148681640625,-0.007720947265625
1776019096211959000,7.142958984375,0.130401611328125,0.879150390625,-0.04498291015625
1776019096222019000,7.15301904296875,0.11651611328125,0.908111572265625,-0.0813140869140625
1776019096232080000,7.163079833984375,0.112548828125,0.9891204833984375,-0.089996337890625
1776019096242140200,7.17314013671875,0.1088409423828125,1.0303192138671875,-0.0847320556640625
1776019096252201000,7.183200927734375,0.1051788330078125,1.0452728271484375,-0.0775299072265625
1776019096262261200,7.19326123046875,0.093017578125,1.0630035400390625,-0.0764617919921875
1776019096272322000,7.203322021484375,0.0692596435546875,1.06396484375,-0.0880279541015625
1776019096282382800,7.2133828125,0.0538787841796875,1.0596466064453125,-0.096221923828125
1776019096292443100,7.223443115234375,0.0535736083984375,1.0489044189453125,-0.0999298095703125
1776019096302504000,7.23350390625,0.057281494140625,1.0466766357421875,-0.0989990234375
1776019096312564200,7.243564208984375,0.0518035888671875,1.0626678466796875,-0.092681884765625
1776019096322625000,7.253625,0.040283203125,1.081573486328125,-0.0753326416015625
1776019096332685000,7.26368505859375,0.0185089111328125,1.089080810546875,-0.0377044677734375
1776019096342746000,7.27374609375,-0.00360107421875,1.0836181640625,0.0117340087890625
1776019096352807200,7.28380712890625,0.0128631591796875,1.062652587890625,0.0575714111328125
1776019096362867200,7.2938671875,0.0547637939453125,1.0289459228515625,0.090789794921875
1776019096372928300,7.30392822265625,0.0879058837890625,1.0013885498046875,0.1092071533203125
1776019096382988000,7.313988037109375,0.0995635986328125,0.9734344482421875,0.108428955078125
1776019096393049000,7.324049072265625,0.0943756103515625,0.941131591796875,0.080841064453125
1776019096403109000,7.334109130859375,0.083953857421875,0.93536376953125,0.050628662109375
1776019096413170200,7.344170166015625,0.08258056640625,0.9231109619140625,0.024505615234375
1776019096423230000,7.35422998046875,0.09130859375,0.902740478515625,0.00909423828125
1776019096433291000,7.364291015625,0.0954437255859375,0.8983154296875,0.0096893310546875
1776019096443351600,7.3743515625,0.09674072265625,0.8917694091796875,0.0203094482421875
1776019096453411300,7.384411376953125,0.0778961181640625,0.991180419921875,0.0803680419921875
1776019096463472400,7.394472412109375,0.05908203125,1.06640625,0.14617919921875
1776019096473532400,7.404532470703125,0.059661865234375,1.071990966796875,0.2012481689453125
1776019096483593500,7.414593505859375,0.0723114013671875,1.0827178955078125,0.251861572265625
1776019096493653500,7.424653564453125,0.0870361328125,1.0584716796875,0.2606048583984375
1776019096503714600,7.434714599609375,0.09759521484375,0.9433441162109375,0.170806884765625
1776019096513774300,7.4447744140625,0.0607452392578125,0.9282379150390625,0.074188232421875
1776019096523835400,7.45483544921875,0.009368896484375,0.962738037109375,0.009246826171875
1776019096533896400,7.464896484375,-0.003814697265625,0.99420166015625,-0.031341552734375
1776019096543956500,7.47495654296875,0.025970458984375,0.995269775390625,-0.043731689453125
1776019096554017500,7.485017578125,0.06268310546875,0.9837799072265625,-0.0465545654296875
1776019096564077300,7.495077392578125,0.0780029296875,1.02154541015625,-0.039398193359375
1776019096574138400,7.505138427734375,0.073638916015625,1.0811614990234375,-0.0034332275390625
1776019096584198400,7.515198486328125,0.069854736328125,1.1038970947265625,0.039886474609375
1776019096594259500,7.525259521484375,0.085205078125,1.0778045654296875,0.0720062255859375
1776019096604319200,7.5353193359375,0.1099395751953125,1.0227813720703125,0.0705413818359375
1776019096614380300,7.54538037109375,0.10955810546875,0.9339141845703125,0.0272064208984375
1776019096624441300,7.55544140625,0.0804901123046875,0.89849853515625,-0.03948974609375
1776019096634501400,7.56550146484375,0.0354766845703125,0.94464111328125,-0.0910797119140625
1776019096644562400,7.5755625,-0.002288818359375,1.031982421875,-0.10205078125
1776019096654622500,7.58562255859375,-0.010498046875,1.057037353515625,-0.063629150390625
1776019096664683300,7.595683349609375,0.04364013671875,1.04779052734375,0.010894775390625
1776019096674743300,7.605743408203125,0.1097564697265625,0.992645263671875,0.0666961669921875
1776019096684804400,7.615804443359375,0.15118408203125,0.92327880859375,0.097564697265625
1776019096694865400,7.625865478515625,0.155242919921875,0.8585052490234375,0.0961151123046875
1776019096704925400,7.635925537109375,0.1285858154296875,0.8909912109375,0.10504150390625
1776019096714986500,7.645986572265625,0.0923614501953125,0.9698333740234375,0.1319427490234375
1776019096725046300,7.65604638671875,0.0911407470703125,0.9995880126953125,0.1259002685546875
1776019096735107300,7.666107421875,0.0816650390625,1.02484130859375,0.1176910400390625
1776019096745167600,7.676167724609375,0.0633544921875,1.0061492919921875,0.1002044677734375
1776019096755228400,7.686228515625,0.0454254150390625,0.98944091796875,0.0789642333984375
1776019096765288400,7.696288330078125,0.0400238037109375,1.006103515625,0.06146240234375
1776019096775349500,7.706349609375,0.039794921875,1.049346923828125,0.0525360107421875
1776019096785410300,7.716410400390625,0.043487548828125,1.095794677734375,0.050445556640625
1776019096795470600,7.726470703125,0.041290283203125,1.1097412109375,0.063934326171875
1776019096805531400,7.736531494140625,0.0483856201171875,1.0511932373046875,0.06524658203125
1776019096815591400,7.74659130859375,0.05206298828125,0.98114013671875,0.0637664794921875
1776019096825652500,7.756652587890625,0.051055908203125,0.977783203125,0.0659942626953125
1776019096835712500,7.76671240234375,0.0601959228515625,0.9582366943359375,0.0508575439453125
1776019096845773600,7.776773681640625,0.0596160888671875,0.949554443359375,0.0414886474609375
1776019096855833600,7.78683349609375,0.0555267333984375,0.9581756591796875,0.049041748046875
1776019096865894700,7.796894775390625,0.0575714111328125,0.96002197265625,0.0638580322265625
1776019096875955500,7.80695556640625,0.0601348876953125,0.959564208984375,0.074371337890625
1776019096886015500,7.817015380859375,0.066131591796875,0.967254638671875,0.0892791748046875
1776019096896076500,7.82707666015625,0.0747528076171875,1.0067596435546875,0.1175384521484375
1776019096906136600,7.837136474609375,0.08978271484375,1.0580291748046875,0.1527099609375
1776019096916197600,7.84719775390625,0.1049652099609375,1.0844268798828125,0.181915283203125
1776019096926257400,7.85725732421875,0.129547119140625,1.061553955078125,0.1729888916015625
1776019096936318500,7.867318359375,0.1474609375,1.0233154296875,0.1352386474609375
1776019096946378500,7.87737841796875,0.1522216796875,0.9864654541015625,0.076202392578125
1776019096956439600,7.887439453125,0.1473541259765625,0.9576873779296875,0.0002593994140625
1776019096966500600,7.89750048828125,0.125244140625,0.967071533203125,-0.0671539306640625
1776019096976560400,7.907560302734375,0.08502197265625,1.0027313232421875,-0.0974884033203125
1776019096986621400,7.917621337890625,0.0506744384765625,1.0398101806640625,-0.089599609375
1776019096996681500,7.927681396484375,0.0446319580078125,1.0429534912109375,-0.06005859375
1776019097006742500,7.937742431640625,0.0587310791015625,1.018829345703125,-0.0278472900390625
1776019097016802600,7.947802490234375,0.0765838623046875,1.0013427734375,0.004241943359375
1776019097026863400,7.95786328125,0.085784912109375,0.9814605712890625,0.0218505859375
1776019097036924400,7.96792431640625,0.0864715576171875,0.9737701416015625,0.0242767333984375
1776019097046984400,7.977984375,0.074371337890625,1.0035400390625,0.027496337890625
1776019097057045500,7.98804541015625,0.06231689453125,1.033660888671875,0.0358123779296875
1776019097067105500,7.99810546875,0.060455322265625,1.04119873046875,0.04193115234375
1776019097077166600,8.00816650390625,0.07275390625,1.02069091796875,0.038787841796875
1776019097087226400,8.018226318359375,0.0948638916015625,0.9911651611328125,0.0218505859375
1776019097097287400,8.028287353515625,0.1179046630859375,0.933563232421875,-0.021942138671875
1776019097107348500,8.038348388671874,0.128753662109375,0.885528564453125,-0.079132080078125
1776019097117408500,8.048408447265626,0.11346435546875,0.8805389404296875,-0.114288330078125
1776019097127469600,8.058469482421875,0.095977783203125,0.9044036865234375,-0.1087188720703125
1776019097137529300,8.068529296875,0.0868377685546875,0.9554901123046875,-0.072021484375
1776019097147590400,8.07859033203125,0.0886993408203125,0.9899444580078125,-0.0450897216796875
1776019097157650400,8.088650390625,0.0834197998046875,1.0283966064453125,-0.020233154296875
1776019097167711500,8.09871142578125,0.0605926513671875,1.041046142578125,-0.0127410888671875
1776019097177771500,8.108771484375,0.0457916259765625,1.00970458984375,-0.0207977294921875
1776019097187832300,8.118832275390625,0.048370361328125,0.9789886474609375,-0.0476837158203125
1776019097197893400,8.128893310546875,0.0516815185546875,0.9998626708984375,-0.074615478515625
1776019097207953400,8.138953369140625,0.0516204833984375,1.03948974609375,-0.0953826904296875
1776019097218014500,8.149014404296874,0.0563507080078125,1.04803466796875,-0.1070098876953125
1776019097228074500,8.159074462890626,0.0638580322265625,1.0234222412109375,-0.1324920654296875
1776019097238135300,8.16913525390625,0.0491180419921875,0.99322509765625,-0.1514129638671875
1776019097248195300,8.1791953125,0.020111083984375,0.9932098388671875,-0.1361541748046875
1776019097258256400,8.18925634765625,0.0103302001953125,1.0020599365234375,-0.1031646728515625
1776019097268316400,8.19931640625,0.0247039794921875,1.0170135498046875,-0.068206787109375
1776019097278377500,8.20937744140625,0.036773681640625,1.0352020263671875,-0.0401611328125
1776019097288438500,8.2194384765625,0.0398101806640625,1.0349884033203125,-0.0186920166015625
1776019097298498300,8.229498291015625,0.0443572998046875,1.008544921875,-0.0145263671875
1776019097308559400,8.239559326171875,0.04638671875,0.983367919921875,-0.0274810791015625
1776019097318619400,8.249619384765625,0.0496368408203125,0.9785003662109375,-0.0424957275390625
1776019097328680400,8.259680419921875,0.0449676513671875,0.9942169189453125,-0.043426513671875
1776019097338740200,8.269740234375,0.0400238037109375,0.99810791015625,-0.0423736572265625
1776019097348801300,8.27980126953125,0.04168701171875,0.996734619140625,-0.0444183349609375
1776019097358862300,8.2898623046875,0.048065185546875,0.99072265625,-0.04779052734375
1776019097368922400,8.29992236328125,0.0518798828125,0.99542236328125,-0.0490570068359375
1776019097378983400,8.3099833984375,0.0521392822265625,1.000823974609375,-0.054107666015625
1776019097389043500,8.32004345703125,0.047637939453125,0.9953155517578125,-0.0700836181640625
1776019097399104300,8.330104248046876,0.0324249267578125,1.0465240478515625,-0.0719757080078125
1776019097409164500,8.34016455078125,-0.0019378662109375,1.0467376708984375,-0.068145751953125
1776019097419225300,8.350225341796875,-0.0364837646484375,0.9970703125,-0.06365966796875
1776019097429285600,8.36028564453125,-0.0523681640625,0.9635772705078125,-0.048431396484375
1776019097439346400,8.370346435546875,-0.050079345703125,0.9493255615234375,-0.0282135009765625
1776019097449407500,8.380407470703124,-0.0453033447265625,0.9300689697265625,-0.0128936767578125
1776019097459467800,8.3904677734375,-0.0423583984375,0.9430084228515625,0.006988525390625
1776019097469528600,8.400528564453126,-0.048828125,1.00457763671875,0.0482940673828125
1776019097479588900,8.4105888671875,-0.0554656982421875,1.0518035888671875,0.081787109375
1776019097489649700,8.420649658203125,-0.0699920654296875,1.055633544921875,0.1009521484375
1776019097499709700,8.430709716796875,-0.0927886962890625,1.061798095703125,0.1232757568359375
1776019097509770800,8.440770751953124,-0.112457275390625,1.04534912109375,0.1392974853515625
1776019097519831600,8.45083154296875,-0.1224212646484375,0.992340087890625,0.1388397216796875
1776019097529891800,8.460891845703125,-0.12640380859375,0.9291229248046875,0.123931884765625
1776019097539952600,8.47095263671875,-0.1297760009765625,0.8779754638671875,0.103424072265625
1776019097550012700,8.4810126953125,-0.1398162841796875,0.928192138671875,0.121673583984375
1776019097560073700,8.49107373046875,-0.14678955078125,1.055816650390625,0.1728973388671875
1776019097570133800,8.5011337890625,-0.133880615234375,1.128875732421875,0.2046051025390625
1776019097580194800,8.51119482421875,-0.1073150634765625,1.0910797119140625,0.183990478515625
1776019097590255600,8.521255615234375,-0.0975189208984375,1.0090484619140625,0.1384124755859375
1776019097600315600,8.531315673828125,-0.116546630859375,0.939361572265625,0.10736083984375
1776019097610376700,8.541376708984375,-0.1259307861328125,0.9261016845703125,0.084686279296875
1776019097620436700,8.551436767578124,-0.1119842529296875,0.9507293701171875,0.0660858154296875
1776019097630497800,8.561497802734374,-0.093841552734375,0.980743408203125,0.0579376220703125
1776019097640557800,8.571557861328126,-0.08038330078125,1.0057220458984375,0.059234619140625
1776019097650618600,8.58161865234375,-0.0773468017578125,1.0127716064453125,0.06536865234375
1776019097660678700,8.5916787109375,-0.07562255859375,1.001678466796875,0.0653839111328125
1776019097670739700,8.60173974609375,-0.0706939697265625,0.9798126220703125,0.060699462890625
1776019097680800800,8.61180078125,-0.069122314453125,0.9578704833984375,0.050537109375
1776019097690860800,8.62186083984375,-0.0685272216796875,0.949371337890625,0.04595947265625
1776019097700921900,8.631921875,-0.0739898681640625,0.948974609375,0.0505523681640625
1776019097710981600,8.641981689453125,-0.076690673828125,0.9486236572265625,0.0586090087890625
1776019097721042700,8.652042724609375,-0.071563720703125,0.9536590576171875,0.0665283203125
1776019097731102700,8.662102783203125,-0.071807861328125,0.96234130859375,0.07794189453125
1776019097741163800,8.672163818359374,-0.071136474609375,0.964752197265625,0.0789794921875
1776019097751224800,8.682224853515624,-0.073272705078125,0.960906982421875,0.0730133056640625
1776019097761284600,8.69228466796875,-0.0826263427734375,0.966552734375,0.0659027099609375
1776019097771345700,8.702345703125,-0.0901336669921875,0.97601318359375,0.0518798828125
1776019097781405700,8.71240576171875,-0.1007537841796875,0.99169921875,0.0328216552734375
1776019097791466800,8.722466796875,-0.1205596923828125,1.0112457275390625,0.01519775390625
1776019097801526500,8.732526611328124,-0.158782958984375,1.04205322265625,0.009918212890625
1776019097811587600,8.742587646484376,-0.2181396484375,1.0792388916015625,0.0108184814453125
1776019097821647600,8.752647705078125,-0.28570556640625,1.097900390625,0.0283966064453125
1776019097831708700,8.762708740234375,-0.3442840576171875,1.094696044921875,0.0636444091796875
1776019097841769700,8.772769775390625,-0.3738250732421875,1.0762481689453125,0.104095458984375
1776019097851829800,8.782829833984374,-0.3812255859375,1.053924560546875,0.151611328125
1776019097861890600,8.792890625,-0.3686065673828125,1.0394744873046875,0.193817138671875
1776019097871950600,8.80295068359375,-0.342987060546875,1.037017822265625,0.2235565185546875
1776019097882011600,8.81301171875,-0.311553955078125,1.0471343994140625,0.23291015625
1776019097892071700,8.82307177734375,-0.29205322265625,1.06982421875,0.22076416015625
1776019097902132700,8.8331328125,-0.283111572265625,1.08917236328125,0.18780517578125
1776019097912193800,8.84319384765625,-0.263153076171875,1.0908050537109375,0.1378173828125
1776019097922253600,8.853253662109376,-0.23095703125,1.0681304931640625,0.0805511474609375
1776019097932314600,8.863314697265626,-0.2056427001953125,1.0142059326171875,0.0240631103515625
1776019097942374700,8.873374755859375,-0.19317626953125,0.94378662109375,-0.0224761962890625
1776019097952435700,8.883435791015625,-0.1873321533203125,0.8728790283203125,-0.0602264404296875
1776019097962495500,8.89349560546875,-0.1827850341796875,0.814544677734375,-0.0839996337890625
1776019097972556500,8.903556640625,-0.1770477294921875,0.7777252197265625,-0.0960693359375
1776019097982617600,8.91361767578125,-0.1571044921875,0.7531280517578125,-0.095550537109375
1776019097992677600,8.923677734375,-0.1389617919921875,0.7476959228515625,-0.0683746337890625
1776019098002738700,8.93373876953125,-0.129364013671875,0.7638092041015625,-0.0335845947265625
1776019098012798500,8.943798583984375,-0.1251373291015625,0.802337646484375,0.00341796875
1776019098022859500,8.953859619140625,-0.1119384765625,0.849395751953125,0.0266876220703125
1776019098032919600,8.96391943359375,-0.097076416015625,0.8886260986328125,0.0379180908203125
1776019098042980600,8.973980712890626,-0.0859832763671875,0.9041748046875,0.03289794921875
1776019098053041700,8.984041748046875,-0.082916259765625,0.9026031494140625,0.0206146240234375
1776019098063101700,8.994101806640625,-0.0876922607421875,0.901153564453125,0.0117034912109375
1776019098073162500,9.00416259765625,-0.104522705078125,0.8885345458984375,0.0011138916015625
1776019098083222500,9.014222412109374,-0.12908935546875,0.8480987548828125,-0.0186614990234375
1776019098093283600,9.02428369140625,-0.1551361083984375,0.79010009765625,-0.0429229736328125
1776019098103343600,9.034343505859376,-0.216888427734375,0.7910308837890625,-0.0474090576171875
1776019098113404700,9.04440478515625,-0.290985107421875,0.7606048583984375,-0.066009521484375
1776019098123464700,9.054464599609375,-0.355133056640625,0.7309417724609375,-0.0858612060546875
1776019098133525500,9.064525390625,-0.402252197265625,0.877410888671875,-0.0601806640625
1776019098143586600,9.074586669921874,-0.42633056640625,1.058746337890625,-0.0004425048828125
1776019098153646600,9.084646484375,-0.467681884765625,1.284271240234375,0.0816192626953125
1776019098163707600,9.094707763671876,-0.507659912109375,1.47479248046875,0.1592864990234375
1776019098173767700,9.104767578125,-0.5477294921875,1.590118408203125,0.2359161376953125
1776019098183828500,9.114828369140625,-0.5882720947265625,1.5460662841796875,0.2635040283203125
1776019098193888800,9.124888671875,-0.6160430908203125,1.3539276123046875,0.2126007080078125
1776019098203949600,9.134949462890624,-0.61572265625,1.1873626708984375,0.140960693359375
1776019098214010600,9.1450107421875,-0.5768890380859375,1.081573486328125,0.085693359375
1776019098224070700,9.155070556640625,-0.543701171875,1.0223236083984375,0.0499420166015625
1776019098234131500,9.16513134765625,-0.513946533203125,1.005889892578125,0.030120849609375
1776019098244191700,9.175191650390625,-0.4560089111328125,0.984375,0.0006256103515625
1776019098254252800,9.185252685546875,-0.39459228515625,0.9490966796875,-0.043548583984375
1776019098264312800,9.195312744140624,-0.3415374755859375,0.8928375244140625,-0.0947113037109375
1776019098274374000,9.205373779296876,-0.2877044677734375,0.8253326416015625,-0.1371307373046875
1776019098284434400,9.215434326171875,-0.2287445068359375,0.76416015625,-0.17669677734375
1776019098294494700,9.22549462890625,-0.183837890625,0.722686767578125,-0.2046356201171875
1776019098304555800,9.2355556640625,-0.1392059326171875,0.7144622802734375,-0.20233154296875
1776019098314615800,9.24561572265625,-0.0897674560546875,0.73870849609375,-0.1763763427734375
1776019098324676900,9.2556767578125,-0.050506591796875,0.7824554443359375,-0.1387786865234375
1776019098334736600,9.265736572265626,-0.0379180908203125,0.8228302001953125,-0.0888824462890625
1776019098344797700,9.275797607421875,-0.0340576171875,0.8504638671875,-0.02593994140625
1776019098354857700,9.285857666015625,-0.0235748291015625,0.856781005859375,0.0370025634765625
1776019098364918800,9.295918701171875,0.00030517578125,0.860107421875,0.09600830078125
1776019098374979800,9.305979736328124,0.0334320068359375,0.859954833984375,0.142181396484375
1776019098385039600,9.31603955078125,0.0593414306640625,0.8665924072265625,0.173309326171875
1776019098395100700,9.3261005859375,0.0650787353515625,0.868499755859375,0.200225830078125
1776019098405160700,9.33616064453125,0.04541015625,0.849517822265625,0.20343017578125
1776019098415221800,9.3462216796875,0.0070648193359375,0.8418426513671875,0.1804046630859375
1776019098425281800,9.35628173828125,-0.053955078125,0.8739471435546875,0.16387939453125
1776019098435342600,9.366342529296874,-0.1313934326171875,0.8950958251953125,0.146697998046875
1776019098445404200,9.376404052734374,-0.2003173828125,0.922393798828125,0.1330413818359375
1776019098455464200,9.386464111328126,-0.2664031982421875,0.9321441650390625,0.1258544921875
1776019098465525200,9.396525146484375,-0.3272705078125,0.945770263671875,0.128265380859375
1776019098475585300,9.406585205078125,-0.3748016357421875,0.9734039306640625,0.144195556640625
1776019098485646300,9.416646240234375,-0.4023284912109375,1.0405426025390625,0.16741943359375
1776019098495706000,9.4267060546875,-0.397796630859375,1.167449951171875,0.1872711181640625
1776019098505767200,9.43676708984375,-0.3885498046875,1.3383636474609375,0.207244873046875
1776019098515828200,9.446828125,-0.403472900390625,1.4933013916015625,0.2136077880859375
1776019098525888300,9.45688818359375,-0.4315338134765625,1.5977630615234375,0.2066650390625
1776019098535949300,9.46694921875,-0.4557037353515625,1.5515594482421875,0.2020111083984375
1776019098546009000,9.477009033203124,-0.44866943359375,1.27813720703125,0.15679931640625
1776019098556070100,9.487070068359374,-0.401275634765625,1.03717041015625,0.1023712158203125
1776019098566130200,9.497130126953126,-0.3165435791015625,0.899169921875,0.0601959228515625
1776019098576191200,9.507191162109375,-0.2190093994140625,0.8268280029296875,0.0097198486328125
1776019098586252300,9.517252197265625,-0.143310546875,0.7566070556640625,-0.04498291015625
1776019098596312000,9.52731201171875,-0.113800048828125,0.677947998046875,-0.0862884521484375
1776019098606373000,9.537373046875,-0.10931396484375,0.6349639892578125,-0.115081787109375
1776019098616433200,9.54743310546875,-0.1040496826171875,0.65667724609375,-0.111114501953125
1776019098626494200,9.557494140625,-0.06756591796875,0.70556640625,-0.0772552490234375
1776019098636554200,9.56755419921875,-0.009307861328125,0.769866943359375,-0.016815185546875
1776019098646615300,9.577615234375,0.0314788818359375,0.8437957763671875,0.053466796875
1776019098656675000,9.587675048828125,0.0111846923828125,0.9271087646484375,0.1186065673828125
1776019098666736000,9.597736083984374,-0.06622314453125,1.0200653076171875,0.1793212890625
1776019098676797200,9.607797119140624,-0.16326904296875,1.1076812744140625,0.2283782958984375
1776019098686857200,9.617857177734376,-0.2617950439453125,1.169342041015625,0.2583465576171875
1776019098696918300,9.627918212890625,-0.3358154296875,1.1826019287109375,0.259490966796875
1776019098706978000,9.63797802734375,-0.36279296875,1.14971923828125,0.2419891357421875
1776019098717039000,9.6480390625,-0.3225555419921875,1.108306884765625,0.223114013671875
1776019098727099100,9.65809912109375,-0.2368011474609375,1.0766448974609375,0.200897216796875
1776019098737160200,9.66816015625,-0.140380859375,1.0373992919921875,0.1817474365234375
1776019098747221200,9.67822119140625,-0.051788330078125,0.9903717041015625,0.1620941162109375
1776019098757281000,9.688281005859375,0.02313232421875,0.945098876953125,0.1331024169921875
1776019098767342000,9.698342041015625,0.081390380859375,0.9142608642578125,0.0930938720703125
1776019098777402000,9.708402099609375,0.1207122802734375,0.892425537109375,0.0532989501953125
1776019098787463200,9.718463134765624,0.1334991455078125,0.8867950439453125,0.0181427001953125
1776019098797523200,9.728523193359376,0.11322021484375,0.90350341796875,-0.014739990234375
1776019098807584000,9.738583984375,0.056976318359375,0.9425201416015625,-0.044342041015625
1776019098817645000,9.74864501953125,-0.024261474609375,0.99420166015625,-0.06085205078125
1776019098827705000,9.758705078125,-0.1135101318359375,1.0336761474609375,-0.070098876953125
1776019098837766100,9.76876611328125,-0.18743896484375,1.048553466796875,-0.07196044921875
1776019098847826200,9.778826171875,-0.2057342529296875,1.046142578125,-0.0651092529296875
1776019098857887200,9.78888720703125,-0.1688232421875,1.0314178466796875,-0.060272216796875
1776019098867947000,9.798947021484375,-0.1002960205078125,1.0211639404296875,-0.061737060546875
1776019098878008000,9.809008056640625,-0.023345947265625,1.01220703125,-0.068603515625
1776019098888069000,9.819069091796875,0.01947021484375,1.0204315185546875,-0.070068359375
1776019098898129200,9.829129150390624,0.0299072265625,1.028045654296875,-0.0793609619140625
1776019098908190200,9.839190185546874,0.029815673828125,1.0047149658203125,-0.0912322998046875
1776019098918250000,9.84925,0.040771484375,0.9651336669921875,-0.0985107421875
1776019098928311000,9.85931103515625,0.038055419921875,0.991851806640625,-0.083587646484375
1776019098938371000,9.86937109375,0.0135650634765625,1.027191162109375,-0.0474090576171875
1776019098948432100,9.87943212890625,-0.01324462890625,1.021148681640625,-0.01153564453125
1776019098958493200,9.8894931640625,-0.031280517578125,0.9908905029296875,0.02178955078125
1776019098968553000,9.899552978515626,-0.0290069580078125,0.9600830078125,0.0512237548828125
1776019098978614000,9.909614013671876,-0.0001678466796875,0.9345245361328125,0.0783843994140625
1776019098988674000,9.919674072265625,0.027069091796875,0.911376953125,0.1011810302734375
1776019098998735000,9.929735107421875,0.0396270751953125,0.9041900634765625,0.12213134765625
1776019099008795100,9.939795166015625,0.0452728271484375,0.9075927734375,0.1347198486328125
1776019099018856000,9.94985595703125,0.0449981689453125,0.9176177978515625,0.137115478515625
1776019099028917000,9.9599169921875,0.054107666015625,0.940216064453125,0.125396728515625
1776019099038977000,9.96997705078125,0.0628509521484375,0.968292236328125,0.117706298828125
1776019099049038000,9.9800380859375,0.0556488037109375,0.9879913330078125,0.1089935302734375
1776019099059098400,9.990098388671875,0.067352294921875,1.032867431640625,0.1012115478515625
1776019099069159200,10.0001591796875,0.0759429931640625,1.060760498046875,0.088104248046875
1776019099079219200,10.01021923828125,0.079437255859375,1.0740814208984375,0.0700531005859375
1776019099089280300,10.0202802734375,0.0930328369140625,1.075592041015625,0.042938232421875
1776019099099341000,10.030341064453125,0.1060638427734375,1.060211181640625,0.0126953125
1776019099109401300,10.0404013671875,0.106964111328125,1.047210693359375,-0.0135040283203125
1776019099119462100,10.050462158203125,0.0962371826171875,1.0390777587890625,-0.03753662109375
1776019099129522200,10.060522216796874,0.0747528076171875,1.038421630859375,-0.0596771240234375
1776019099139583200,10.070583251953124,0.043365478515625,1.0449066162109375,-0.0706787109375
1776019099149643300,10.080643310546876,0.0172576904296875,1.05206298828125,-0.067596435546875
1776019099159704300,10.090704345703125,0.0171966552734375,1.047882080078125,-0.05126953125
1776019099169765000,10.10076513671875,0.0359039306640625,1.0385284423828125,-0.040771484375
1776019099179825200,10.1108251953125,0.05419921875,1.0390167236328125,-0.0305633544921875
1776019099189886200,10.12088623046875,0.057586669921875,1.0435638427734375,-0.0168914794921875
1776019099199946200,10.1309462890625,0.0575103759765625,1.043914794921875,-0.0015411376953125
1776019099210007300,10.14100732421875,0.056365966796875,1.03424072265625,0.026885986328125
1776019099220067300,10.1510673828125,0.0597991943359375,1.0196990966796875,0.06396484375
1776019099230128000,10.161128173828125,0.05999755859375,1.007171630859375,0.0992584228515625
1776019099240189200,10.171189208984375,0.0582427978515625,1.0042572021484375,0.1363067626953125
1776019099250249200,10.181249267578124,0.0634307861328125,1.0116424560546875,0.1668548583984375
1776019099260310300,10.191310302734376,0.0721435546875,1.02593994140625,0.184844970703125
1776019099270370300,10.201370361328125,0.0823822021484375,1.0299072265625,0.1925048828125
1776019099280431400,10.211431396484375,0.0917510986328125,1.0151519775390625,0.1920013427734375
1776019099290491100,10.2214912109375,0.100738525390625,0.979736328125,0.1781005859375
1776019099300552200,10.23155224609375,0.097686767578125,0.9413604736328125,0.146026611328125
1776019099310613200,10.24161328125,0.0799713134765625,0.9371185302734375,0.0968170166015625
1776019099320673300,10.25167333984375,0.0550079345703125,0.958343505859375,0.0508880615234375
1776019099330734300,10.261734375,0.0340118408203125,0.9805755615234375,0.0069427490234375
1776019099340794000,10.271794189453125,0.026611328125,0.9936370849609375,-0.030792236328125
1776019099350855200,10.281855224609375,0.0322113037109375,0.9966583251953125,-0.062408447265625
1776019099360915200,10.291915283203124,0.0414581298828125,0.9834136962890625,-0.0858612060546875
1776019099370976300,10.301976318359374,0.0465850830078125,0.965362548828125,-0.09893798828125
1776019099381037300,10.312037353515626,0.04638671875,0.9590606689453125,-0.09466552734375
1776019099391097000,10.32209716796875,0.0388031005859375,0.966766357421875,-0.0716552734375
1776019099401158100,10.332158203125,0.0356903076171875,0.970550537109375,-0.0272674560546875
1776019099411218200,10.34221826171875,0.0452728271484375,0.968231201171875,0.0264739990234375
1776019099421279200,10.352279296875,0.0670318603515625,0.9691162109375,0.0753936767578125
1776019099431339300,10.36233935546875,0.086395263671875,0.98052978515625,0.114166259765625
1776019099441399000,10.37239892578125,0.0998992919921875,0.99951171875,0.1407928466796875
1776019099451460000,10.382460205078125,0.1053924560546875,1.011016845703125,0.1599273681640625
1776019099461520000,10.392519775390625,0.1029815673828125,1.012481689453125,0.1692657470703125
1776019099471581000,10.402580810546874,0.0873260498046875,1.00555419921875,0.1665802001953125
1776019099481641000,10.412640869140626,0.0581817626953125,1.0006561279296875,0.145782470703125
1776019099491702000,10.422701904296876,0.0254058837890625,1.0050506591796875,0.1103057861328125
1776019099501762000,10.432761962890625,-0.0059967041015625,1.0207977294921875,0.0659942626953125
1776019099511822800,10.44282275390625,-0.02520751953125,1.029510498046875,0.0169677734375
1776019099521884000,10.4528837890625,-0.032806396484375,1.032623291015625,-0.0328369140625
1776019099531944000,10.46294384765625,-0.033843994140625,1.0310821533203125,-0.0802001953125
1776019099542005000,10.4730048828125,-0.0321044921875,1.0267791748046875,-0.1222076416015625
1776019099552065000,10.48306494140625,-0.0291290283203125,1.0224609375,-0.1519775390625
1776019099562125800,10.493125732421875,-0.024688720703125,1.014862060546875,-0.1626434326171875
1776019099572186000,10.50318603515625,-0.0088043212890625,1.0083465576171875,-0.1576385498046875
1776019099582247000,10.513246826171875,0.0162811279296875,1.001617431640625,-0.1401214599609375
1776019099592308000,10.523307861328124,0.0432281494140625,0.99566650390625,-0.11529541015625
1776019099602368000,10.533367919921876,0.0625,0.99072265625,-0.086181640625
1776019099612429000,10.543428955078125,0.0759124755859375,0.9848175048828125,-0.0540618896484375
1776019099622489000,10.553489013671875,0.0842132568359375,0.974456787109375,-0.0253753662109375
1776019099632550000,10.5635498046875,0.0886077880859375,0.97052001953125,0.0008087158203125
1776019099642610200,10.573610107421874,0.08685302734375,0.96600341796875,0.0233917236328125
1776019099652671000,10.5836708984375,0.0787811279296875,0.96185302734375,0.03729248046875
1776019099662731000,10.59373095703125,0.062408447265625,0.9601898193359375,0.04644775390625
1776019099672792000,10.6037919921875,0.0374298095703125,0.966217041015625,0.0459747314453125
1776019099682852900,10.613852783203125,0.0106201171875,0.979583740234375,0.039215087890625
1776019099692913200,10.6239130859375,-0.007110595703125,0.9892578125,0.030303955078125
1776019099702974200,10.63397412109375,-0.022003173828125,0.999786376953125,0.0205841064453125
1776019099713034200,10.6440341796875,-0.033660888671875,1.0099029541015625,0.01605224609375
1776019099723095000,10.654094970703126,-0.0399627685546875,1.017120361328125,0.02001953125
1776019099733155800,10.66415576171875,-0.0330047607421875,1.0188140869140625,0.025604248046875
1776019099743216000,10.674216064453125,-0.024200439453125,1.018768310546875,0.035858154296875
1776019099753277200,10.684277099609375,-0.016265869140625,1.0164794921875,0.044403076171875
1776019099763337200,10.694337158203124,-0.0089263916015625,1.0116119384765625,0.048858642578125
1776019099773398000,10.70439794921875,0.0018157958984375,0.9962005615234375,0.0460662841796875
1776019099783458000,10.7144580078125,0.0132904052734375,0.9830169677734375,0.0335235595703125
1776019099793519000,10.72451904296875,0.0254974365234375,0.974273681640625,0.0168914794921875
1776019099803579100,10.7345791015625,0.03826904296875,0.9778289794921875,0.001007080078125
1776019099813640200,10.74464013671875,0.0453948974609375,0.986358642578125,-0.0142822265625
1776019099823701200,10.754701171875,0.047760009765625,0.994873046875,-0.02435302734375
1776019099833761000,10.764760986328126,0.0418853759765625,1.0051422119140625,-0.0298614501953125
1776019099843822000,10.774822021484376,0.0308380126953125,1.0147247314453125,-0.033111572265625
1776019099853882000,10.784882080078125,0.0138702392578125,1.0213623046875,-0.0355682373046875
1776019099863943200,10.794943115234375,0.0023193359375,1.0214385986328125,-0.035186767578125
1776019099874004200,10.805004150390625,-0.0045013427734375,1.0183868408203125,-0.0368194580078125
1776019099884064000,10.81506396484375,-0.0118560791015625,1.0177459716796875,-0.0333251953125
1776019099894125000,10.825125,-0.0114898681640625,1.0123138427734375,-0.0290985107421875
1776019099904185000,10.83518505859375,-0.0023345947265625,1.0045318603515625,-0.0197906494140625
1776019099914246100,10.84524609375,0.0103302001953125,0.9969329833984375,-0.0075836181640625
1776019099924306000,10.855305908203125,0.0252532958984375,0.992919921875,0.0005950927734375
1776019099934367000,10.865366943359374,0.0323486328125,0.9877166748046875,0.00286865234375
1776019099944428000,10.875427978515624,0.03167724609375,0.98248291015625,0.0026702880859375
1776019099954488000,10.885488037109376,0.02899169921875,0.9761199951171875,0.003875732421875
1776019099964549000,10.895549072265625,0.0288543701171875,0.972686767578125,-0.0018310546875
1776019099974609200,10.905609130859375,0.0302734375,0.9734649658203125,-0.0113983154296875
1776019099984670000,10.915669921875,0.028472900390625,0.9815216064453125,-0.0208892822265625
1776019099994730000,10.92572998046875,0.023468017578125,0.9888153076171875,-0.030364990234375
1776019100004791000,10.935791015625,0.016387939453125,0.99163818359375,-0.0418243408203125
1776019100014852000,10.94585205078125,0.00933837890625,0.999481201171875,-0.0507965087890625
1776019100024912100,10.955912109375,0.001190185546875,1.0050506591796875,-0.054473876953125
1776019100034973200,10.96597314453125,-0.0084991455078125,1.01116943359375,-0.053802490234375
1776019100045033000,10.976032958984375,-0.016265869140625,1.0069122314453125,-0.0502471923828125
1776019100055094000,10.986093994140624,-0.0187225341796875,0.9987030029296875,-0.04241943359375
1776019100065154000,10.996154052734376,-0.0160980224609375,0.995452880859375,-0.0320587158203125
1776019100075215000,11.006215087890626,-0.01336669921875,0.991546630859375,-0.0225372314453125
1776019100085276200,11.016276123046875,-0.0118408203125,0.9913177490234375,-0.013519287109375
1776019100095336000,11.0263359375,-0.0108489990234375,0.98907470703125,-0.0044097900390625
1776019100105397000,11.03639697265625,-0.009185791015625,0.985595703125,0.0029754638671875
1776019100115457000,11.04645703125,0.0018768310546875,0.9807586669921875,0.013580322265625
1776019100125518000,11.05651806640625,0.0072479248046875,0.9767303466796875,0.0205841064453125
1776019100135577900,11.066577880859375,0.0083770751953125,0.9818267822265625,0.0290069580078125
1776019100145639000,11.076638916015625,0.0020904541015625,0.995086669921875,0.03338623046875
1776019100155700000,11.086699951171875,-0.0076751708984375,1.0064849853515625,0.0334930419921875
1776019100165760000,11.096760009765624,-0.015869140625,1.0084991455078125,0.032623291015625
1776019100175821000,11.106821044921874,-0.0175933837890625,1.004852294921875,0.0267333984375
1776019100185881000,11.116881103515626,-0.017364501953125,1.0001373291015625,0.02178955078125
1776019100195942000,11.12694189453125,-0.023345947265625,0.9896240234375,0.016632080078125
1776019100206002000,11.137001953125,-0.0303192138671875,0.986358642578125,0.015594482421875
1776019100216063000,11.14706298828125,-0.0355072021484375,0.989532470703125,0.016448974609375
1776019100226124000,11.1571240234375,-0.03753662109375,1.0046234130859375,0.0155181884765625
1776019100236184000,11.16718408203125,-0.0365142822265625,1.0234527587890625,0.0179443359375
1776019100246245000,11.1772451171875,-0.037078857421875,1.024688720703125,0.021820068359375
1776019100256305000,11.187304931640625,-0.031982421875,1.0216522216796875,0.02239990234375
1776019100266366000,11.197365966796875,-0.0240936279296875,1.0086669921875,0.0193328857421875
1776019100276426000,11.207426025390625,-0.0168609619140625,0.9970703125,0.009552001953125
1776019100286487000,11.217487060546874,-0.012603759765625,0.990692138671875,-0.001861572265625
1776019100296548000,11.227548095703124,-0.01458740234375,0.9945068359375,-0.0185394287109375
1776019100306607900,11.23760791015625,-0.0213470458984375,1.002777099609375,-0.031494140625
1776019100316669000,11.2476689453125,-0.022979736328125,1.0129547119140625,-0.0410919189453125
1776019100326729000,11.25772900390625,-0.0208740234375,1.0212249755859375,-0.051849365234375
1776019100336790000,11.2677900390625,-0.02215576171875,1.029296875,-0.062469482421875
1776019100346849800,11.277849853515624,-0.0249786376953125,1.029449462890625,-0.073089599609375
1776019100356910800,11.287910888671876,-0.0302276611328125,1.0230255126953125,-0.0767822265625
1776019100366972000,11.297971923828126,-0.03619384765625,1.0088348388671875,-0.0782470703125
1776019100377032000,11.308031982421875,-0.043365478515625,0.997833251953125,-0.06854248046875
1776019100387093000,11.318093017578125,-0.0514984130859375,0.99224853515625,-0.052154541015625
1776019100397153000,11.328153076171875,-0.0592193603515625,0.9874267578125,-0.0281982421875
1776019100407213800,11.3382138671875,-0.0678863525390625,0.9820098876953125,-0.0093536376953125
1776019100417274000,11.348274169921876,-0.0677032470703125,0.9799652099609375,0.00408935546875
1776019100427335000,11.3583349609375,-0.064453125,0.9921112060546875,0.004913330078125
1776019100437396000,11.36839599609375,-0.06463623046875,1.02178955078125,-0.0008392333984375
1776019100447456300,11.378456298828125,-0.07403564453125,1.056243896484375,-0.0129852294921875
1776019100457517300,11.388517333984375,-0.0877227783203125,1.078033447265625,-0.0301971435546875
1776019100467577300,11.398577392578124,-0.096649169921875,1.08282470703125,-0.044158935546875
1776019100477638100,11.40863818359375,-0.09625244140625,1.073516845703125,-0.0597686767578125
1776019100487698400,11.418698486328125,-0.09075927734375,1.0556640625,-0.0724029541015625
1776019100497759200,11.42875927734375,-0.09271240234375,1.039947509765625,-0.0789794921875
1776019100507820300,11.4388203125,-0.1024017333984375,1.0338287353515625,-0.0867462158203125
1776019100517880300,11.44888037109375,-0.12249755859375,1.0440216064453125,-0.0929107666015625
1776019100527941000,11.458941162109374,-0.1540679931640625,1.0574493408203125,-0.096893310546875
1776019100538001400,11.46900146484375,-0.1918182373046875,1.0615081787109375,-0.086883544921875
1776019100548062200,11.479062255859375,-0.233612060546875,1.0519866943359375,-0.0647430419921875
1776019100558122500,11.48912255859375,-0.269378662109375,1.02459716796875,-0.0303192138671875
1776019100568183300,11.499183349609375,-0.2956695556640625,0.9856414794921875,0.01519775390625
1776019100578244000,11.509244140625,-0.3043060302734375,0.9484100341796875,0.0645904541015625
1776019100588304400,11.519304443359376,-0.2967987060546875,0.91949462890625,0.11090087890625
1776019100598365200,11.529365234375,-0.277679443359375,0.8983612060546875,0.144683837890625
1776019100608425500,11.539425537109375,-0.256683349609375,0.8805084228515625,0.168609619140625
1776019100618486500,11.549486572265625,-0.235504150390625,0.8740997314453125,0.186767578125
1776019100628547300,11.55954736328125,-0.211944580078125,0.8721771240234375,0.1954498291015625
1776019100638607400,11.569607421875,-0.19256591796875,0.8696746826171875,0.192901611328125
1776019100648668400,11.57966845703125,-0.1831207275390625,0.8721771240234375,0.1795806884765625
1776019100658728400,11.589728515625,-0.177032470703125,0.8838653564453125,0.1552734375
1776019100668789500,11.59978955078125,-0.16949462890625,0.9021759033203125,0.1331024169921875
1776019100678849300,11.609849365234375,-0.15350341796875,0.910614013671875,0.113800048828125
1776019100688910300,11.619910400390625,-0.1218414306640625,0.9018707275390625,0.095062255859375
1776019100698971400,11.629971435546874,-0.0857391357421875,0.885955810546875,0.075103759765625
1776019100709031400,11.640031494140626,-0.055816650390625,0.8615875244140625,0.05657958984375
1776019100719092500,11.650092529296876,-0.0321502685546875,0.8217620849609375,0.0431976318359375
1776019100729152500,11.660152587890625,-0.0050506591796875,0.7787628173828125,0.0225830078125
1776019100739213300,11.67021337890625,0.0329437255859375,0.766693115234375,-0.0041046142578125
1776019100749273300,11.6802734375,0.059051513671875,0.80572509765625,-0.02783203125
1776019100759334400,11.69033447265625,0.053497314453125,0.88427734375,-0.038970947265625
1776019100769395500,11.7003955078125,0.0342559814453125,0.9537353515625,-0.03704833984375
1776019100779455500,11.71045556640625,0.004486083984375,0.987945556640625,-0.0284271240234375
1776019100789516300,11.720516357421875,-0.0283203125,1.003814697265625,-0.022705078125
1776019100799576300,11.730576416015625,-0.0414886474609375,1.0205230712890625,-0.019805908203125
1776019100809637400,11.740637451171875,-0.03228759765625,1.0596771240234375,-0.00811767578125
1776019100819697400,11.750697509765626,-0.0662841796875,1.1481475830078125,0.0208587646484375
1776019100829758500,11.760758544921876,-0.2006072998046875,1.243988037109375,0.0638427734375
1776019100839819500,11.770819580078125,-0.3780059814453125,1.28424072265625,0.1234588623046875
1776019100849879300,11.78087939453125,-0.48291015625,1.2444915771484375,0.1772918701171875
1776019100859940400,11.7909404296875,-0.4671783447265625,1.1456451416015625,0.197601318359375
1776019100870000400,11.80100048828125,-0.38299560546875,1.0353546142578125,0.1773223876953125
1776019100880061400,11.8110615234375,-0.293060302734375,0.9564666748046875,0.10174560546875
1776019100890121200,11.821121337890625,-0.2384185791015625,0.9157562255859375,-0.00335693359375
1776019100900182300,11.831182373046875,-0.238800048828125,0.89044189453125,-0.097503662109375
1776019100910243300,11.841243408203125,-0.2485504150390625,0.8557891845703125,-0.1658935546875
1776019100920303400,11.851303466796875,-0.242706298828125,0.823455810546875,-0.204345703125
1776019100930364400,11.861364501953124,-0.2096405029296875,0.8196868896484375,-0.2193756103515625
1776019100940424400,11.871424560546876,-0.1378936767578125,0.836761474609375,-0.2190704345703125
1776019100950485200,11.8814853515625,-0.0465087890625,0.87469482421875,-0.1983642578125
1776019100960545300,11.891545166015625,0.03271484375,0.919952392578125,-0.1508636474609375
1776019100970606300,11.9016064453125,0.0803375244140625,0.968902587890625,-0.0844268798828125
1776019100980667400,11.91166748046875,0.071136474609375,1.0134124755859375,-0.0045166015625
1776019100990727400,11.9217275390625,0.016387939453125,1.044036865234375,0.0757598876953125
1776019101000788200,11.931788330078126,-0.0355682373046875,1.0601959228515625,0.1415252685546875
1776019101010848300,11.94184814453125,-0.075225830078125,1.0673370361328125,0.192291259765625
1776019101020909300,11.951909423828125,-0.107269287109375,1.064666748046875,0.2280120849609375
1776019101030969300,11.96196923828125,-0.1356353759765625,1.051910400390625,0.2476959228515625
1776019101041030400,11.972030517578125,-0.1614227294921875,1.025970458984375,0.24871826171875
1776019101051091500,11.982091552734374,-0.17523193359375,1.0025634765625,0.2290191650390625
1776019101061151200,11.992151123046876,-0.1724395751953125,0.97906494140625,0.1962127685546875
1776019101071212300,12.00221240234375,-0.16131591796875,0.9552001953125,0.1534576416015625
1776019101081272300,12.012272216796875,-0.1399078369140625,0.9395904541015625,0.1097412109375
1776019101091333400,12.02233349609375,-0.1101837158203125,0.944793701171875,0.0682220458984375
1776019101101393200,12.03239306640625,-0.081329345703125,0.9674835205078125,0.02874755859375
1776019101111454200,12.0424541015625,-0.064208984375,0.991851806640625,-0.0010528564453125
1776019101121515300,12.052515380859376,-0.057525634765625,1.012298583984375,-0.0168914794921875
1776019101131575300,12.0625751953125,-0.0526123046875,1.018768310546875,-0.0123748779296875
1776019101141636400,12.07263623046875,-0.04412841796875,1.0129547119140625,0.0089874267578125
1776019101151696400,12.0826962890625,-0.0494384765625,1.0018768310546875,0.041107177734375
1776019101161757200,12.092757080078124,-0.068023681640625,0.9939727783203125,0.073760986328125
1776019101171818200,12.102818359375,-0.0988616943359375,0.995758056640625,0.104888916015625
1776019101181878300,12.112878173828125,-0.12579345703125,0.9998779296875,0.129791259765625
1776019101191939300,12.122939208984375,-0.1369171142578125,1.0068359375,0.1508941650390625
1776019101201999400,12.132999267578125,-0.13726806640625,1.01177978515625,0.1624298095703125
1776019101212060200,12.14306005859375,-0.1323394775390625,1.0087127685546875,0.171630859375
1776019101222120200,12.1531201171875,-0.1221771240234375,1.0010528564453125,0.1778411865234375
1776019101232181200,12.16318115234375,-0.111572265625,0.991790771484375,0.1758575439453125
1776019101242242300,12.1732421875,-0.100799560546875,0.974639892578125,0.1723175048828125
1776019101252302300,12.18330224609375,-0.0931549072265625,0.9551544189453125,0.1717071533203125
1776019101262363400,12.19336328125,-0.0868072509765625,0.9409637451171875,0.17352294921875
1776019101272423200,12.203423095703124,-0.082489013671875,0.9403839111328125,0.17437744140625
1776019101282484200,12.213484130859374,-0.08038330078125,0.9431915283203125,0.1771087646484375
1776019101292544300,12.223544189453126,-0.0837860107421875,0.949066162109375,0.1791839599609375
1776019101302605300,12.233605224609375,-0.0903778076171875,0.951812744140625,0.1756134033203125
1776019101312666400,12.243666259765625,-0.0914154052734375,0.9585113525390625,0.1696014404296875
1776019101322726100,12.25372607421875,-0.090911865234375,0.9726104736328125,0.1625518798828125
1776019101332787200,12.263787109375,-0.093841552734375,0.9858245849609375,0.1556854248046875
1776019101342847200,12.27384716796875,-0.0958404541015625,0.9980316162109375,0.1564178466796875
1776019101352908300,12.283908203125,-0.1033172607421875,1.0016021728515625,0.16357421875
1776019101362968300,12.29396826171875,-0.1137847900390625,0.9942474365234375,0.1714630126953125
1776019101373029000,12.304029052734375,-0.1242523193359375,0.985595703125,0.178955078125
1776019101383090200,12.314090087890625,-0.128997802734375,0.9780426025390625,0.18402099609375
1776019101393150200,12.324150146484374,-0.1259918212890625,0.97406005859375,0.1836090087890625
1776019101403211300,12.334211181640624,-0.1272430419921875,0.9697723388671875,0.1844940185546875
1776019101413271600,12.344271484375,-0.1317291259765625,0.9649658203125,0.19000244140625
1776019101423332000,12.35433203125,-0.135284423828125,0.9578094482421875,0.2013702392578125
1776019101433392400,12.364392333984375,-0.1362152099609375,0.9583740234375,0.212432861328125
1776019101443453700,12.37445361328125,-0.134521484375,0.961517333984375,0.2275543212890625
1776019101453514800,12.3845146484375,-0.132476806640625,0.9629669189453125,0.2420501708984375
1776019101463574500,12.394574462890626,-0.12823486328125,0.9626922607421875,0.2543792724609375
1776019101473635600,12.404635498046876,-0.1303863525390625,0.9601593017578125,0.2673187255859375
1776019101483695900,12.41469580078125,-0.14093017578125,0.955078125,0.28570556640625
1776019101493756700,12.424756591796875,-0.149444580078125,0.9524993896484375,0.3031463623046875
1776019101503817700,12.434817626953125,-0.154693603515625,0.9520111083984375,0.3248748779296875
1776019101513877500,12.44487744140625,-0.1588134765625,0.9471893310546875,0.34564208984375
1776019101523938600,12.4549384765625,-0.161651611328125,0.953521728515625,0.352020263671875
1776019101533998800,12.464998779296875,-0.156982421875,0.9604949951171875,0.3552093505859375
1776019101544059600,12.4750595703125,-0.14837646484375,0.95794677734375,0.3612213134765625
1776019101554119700,12.48511962890625,-0.1497344970703125,0.9640960693359375,0.3718109130859375
1776019101564180700,12.4951806640625,-0.150543212890625,0.9708404541015625,0.3931427001953125
1776019101574241500,12.505241455078124,-0.1497039794921875,0.97100830078125,0.4166107177734375
1776019101584301800,12.5153017578125,-0.1538238525390625,0.97296142578125,0.427703857421875
1776019101594362600,12.525362548828125,-0.1601104736328125,0.9817962646484375,0.4266510009765625
1776019101604423000,12.5354228515625,-0.1661834716796875,0.98577880859375,0.4208984375
1776019101614483700,12.545483642578125,-0.1737518310546875,0.9840545654296875,0.4060211181640625
1776019101624543700,12.555543701171874,-0.175689697265625,0.984954833984375,0.3882293701171875
1776019101634604800,12.565604736328124,-0.17193603515625,0.9871826171875,0.3741912841796875
1776019101644665600,12.57566552734375,-0.155181884765625,0.9916839599609375,0.354217529296875
1776019101654726000,12.585725830078125,-0.13055419921875,0.9959869384765625,0.33807373046875
1776019101664786700,12.59578662109375,-0.1074066162109375,0.9870758056640625,0.3135223388671875
1776019101674846700,12.6058466796875,-0.085906982421875,0.985931396484375,0.30712890625
1776019101684907800,12.61590771484375,-0.0826416015625,0.9935760498046875,0.30950927734375
1776019101694967800,12.6259677734375,-0.0998382568359375,0.9898681640625,0.3266143798828125
1776019101705028900,12.63602880859375,-0.1370697021484375,0.976409912109375,0.3621368408203125
1776019101715090000,12.64608984375,-0.199798583984375,0.956146240234375,0.382965087890625
1776019101725149700,12.656149658203125,-0.260406494140625,0.9476776123046875,0.386749267578125
1776019101735210800,12.666210693359375,-0.2999420166015625,0.954681396484375,0.3986968994140625
1776019101745270800,12.676270751953124,-0.3128662109375,0.976837158203125,0.4210052490234375
1776019101755331800,12.686331787109374,-0.3077850341796875,0.9912567138671875,0.442657470703125
1776019101765393000,12.696392822265626,-0.3072052001953125,1.00238037109375,0.489471435546875
1776019101775452700,12.70645263671875,-0.325439453125,1.0119781494140625,0.569549560546875
1776019101785513700,12.716513671875,-0.369537353515625,1.02056884765625,0.676849365234375
1776019101795573800,12.72657373046875,-0.413604736328125,1.010223388671875,0.8073883056640625
1776019101805634800,12.736634765625,-0.4365692138671875,0.9746246337890625,0.92041015625
1776019101815694800,12.74669482421875,-0.38031005859375,0.9035186767578125,0.95501708984375
1776019101825755600,12.756755615234376,-0.2662811279296875,0.820037841796875,0.831756591796875
1776019101835816700,12.766816650390625,-0.1580810546875,0.7738494873046875,0.615203857421875
1776019101845876700,12.776876708984375,-0.1799774169921875,0.7266693115234375,0.4376220703125
1776019101855937800,12.786937744140625,-0.4712677001953125,0.747344970703125,0.3581390380859375
1776019101865997800,12.796997802734374,-0.93475341796875,0.8167877197265625,0.0968017578125
1776019101876059000,12.807058837890626,-0.918609619140625,0.7757415771484375,-0.2435455322265625
1776019101886118700,12.81711865234375,0.0203094482421875,0.6123199462890625,-0.1539459228515625
1776019101896179700,12.8271796875,0.2964324951171875,0.33673095703125,-0.1359100341796875
1776019101906240800,12.83724072265625,0.2850494384765625,0.3203887939453125,-0.17083740234375
1776019101916300800,12.84730078125,0.3213043212890625,0.432220458984375,-0.1190948486328125
1776019101926361900,12.85736181640625,0.1143341064453125,0.6331939697265625,0.0057830810546875
1776019101936421600,12.867421630859376,-0.304656982421875,1.0218963623046875,0.2509765625
1776019101946482700,12.877482666015625,-0.2049560546875,1.189422607421875,0.1265411376953125
1776019101956542700,12.887542724609375,-0.21014404296875,1.2114105224609375,0.0207977294921875
1776019101966603800,12.897603759765625,-0.3169403076171875,1.1292266845703125,0.012298583984375
1776019101976664800,12.907664794921875,-0.3667449951171875,0.8723907470703125,0.107177734375
1776019101986724600,12.917724609375,-0.3818359375,0.5876617431640625,0.2718505859375
1776019101996785700,12.92778564453125,-0.3979949951171875,0.407623291015625,0.423095703125
1776019102006845700,12.937845703125,-0.3809661865234375,0.34576416015625,0.4992828369140625
1776019102016906800,12.94790673828125,-0.3573760986328125,0.393951416015625,0.505889892578125
1776019102026966800,12.957966796875,-0.377105712890625,0.489349365234375,0.5500030517578125
1776019102037027600,12.968027587890624,-0.4505615234375,0.5989532470703125,0.6213836669921875
1776019102047088600,12.978088623046874,-0.534088134765625,0.70782470703125,0.697601318359375
1776019102057148700,12.988148681640626,-0.634246826171875,0.7666473388671875,0.759979248046875
1776019102067209700,12.998209716796875,-0.6972503662109375,0.7640838623046875,0.8022918701171875
1776019102077269800,13.008269775390625,-0.6406707763671875,0.6910552978515625,0.834136962890625
1776019102087330800,13.018330810546875,-0.5434722900390625,0.576568603515625,0.8579864501953125
1776019102097391600,13.0283916015625,-0.4661102294921875,0.4815521240234375,0.8863525390625
1776019102107451600,13.03845166015625,-0.3922271728515625,0.4347686767578125,0.93438720703125
1776019102117512700,13.0485126953125,-0.3397674560546875,0.4554901123046875,0.9965972900390625
1776019102127572700,13.05857275390625,-0.3260498046875,0.5240631103515625,1.070220947265625
1776019102137633800,13.0686337890625,-0.3519134521484375,0.6036834716796875,1.1461334228515625
1776019102147693600,13.078693603515624,-0.4018707275390625,0.688812255859375,1.216552734375
1776019102157754600,13.088754638671874,-0.4654083251953125,0.75885009765625,1.265960693359375
1776019102167815700,13.098815673828126,-0.5851593017578125,0.8615875244140625,1.153594970703125
1776019102177875700,13.108875732421875,-0.6488800048828125,0.93316650390625,0.8411865234375
1776019102187936800,13.118936767578125,-0.6052703857421875,0.973876953125,0.6229095458984375
1776019102197996500,13.12899658203125,-0.52838134765625,1.0246734619140625,0.4814605712890625
1776019102208057600,13.1390576171875,-0.46148681640625,1.0665130615234375,0.425048828125
