time,seconds_elapsed,z,y,x
1776019089143170000,0.074170166015625,-14.159088134765625,4.964001655578613,-21.415626525878906
1776019089153230000,0.08422998046875,-14.3331298828125,5.2157182693481445,-21.466415405273438
1776019089163291100,0.094291015625,-14.274322509765625,5.032747268676758,-21.567913055419922
1776019089173351200,0.10435107421875,-14.50506591796875,4.962924957275391,-21.492416381835938
1776019089183412000,0.114411865234375,-14.39935302734375,5.356431007385254,-21.550899505615234
1776019089193472300,0.12447216796875,-14.46441650390625,5.215546607971191,-21.001352310180664
1776019089203533000,0.134532958984375,-14.159332275390625,4.705592155456543,-21.31144142150879
1776019089213594000,0.144593994140625,-14.25555419921875,4.655040740966797,-21.10782241821289
1776019089223654100,0.154654052734375,-14.05438232421875,4.816740036010742,-21.16554832458496
1776019089233715000,0.16471484375,-14.2777099609375,4.864933490753174,-21.23874282836914
1776019089243775200,0.174775146484375,-14.4716796875,4.787839412689209,-21.118484497070312
1776019089253836000,0.1848359375,-14.04632568359375,4.603424072265625,-21.15036392211914
1776019089263896300,0.194896240234375,-14.1881103515625,4.842722415924072,-21.023502349853516
1776019089273957400,0.204957275390625,-13.959564208984375,4.900218486785889,-21.040315628051758
1776019089284017200,0.21501708984375,-14.271575927734375,4.99826717376709,-21.223609924316406
1776019089294078200,0.225078125,-14.47076416015625,5.0742573738098145,-21.177906036376953
1776019089304138200,0.23513818359375,-14.03424072265625,4.827929973602295,-21.291839599609375
1776019089314199300,0.24519921875,-14.14337158203125,4.8556084632873535,-21.34109878540039
1776019089324259000,0.255259033203125,-14.1922607421875,4.906571388244629,-21.458208084106445
1776019089334320000,0.265320068359375,-14.00079345703125,4.961617946624756,-21.515586853027344
1776019089344380200,0.275380126953125,-14.17694091796875,5.084196090698242,-21.37348175048828
1776019089354441200,0.285441162109375,-14.3082275390625,5.246898174285889,-21.08123779296875
1776019089364501200,0.295501220703125,-14.54083251953125,5.23760986328125,-20.99286651611328
1776019089374562300,0.305562255859375,-14.57147216796875,5.079849720001221,-21.148746490478516
1776019089384623000,0.315623046875,-14.730621337890625,4.961845397949219,-21.17304801940918
1776019089394683100,0.32568310546875,-14.452362060546875,4.975210189819336,-21.051013946533203
1776019089404744200,0.335744140625,-14.030487060546875,5.133944511413574,-21.15686798095703
1776019089414804200,0.34580419921875,-14.11810302734375,5.201805114746094,-21.123619079589844
1776019089424865300,0.355865234375,-13.93359375,5.080236911773682,-21.255996704101562
1776019089434926000,0.365926025390625,-14.201568603515625,4.784996509552002,-21.31458854675293
1776019089444987100,0.375987060546875,-13.68475341796875,4.969414234161377,-21.31733512878418
1776019089455047000,0.386046875,-13.893341064453125,5.092494964599609,-21.171165466308594
1776019089465108000,0.39610791015625,-13.678985595703125,5.0858259201049805,-21.099523544311523
1776019089475168000,0.40616796875,-13.813934326171875,4.780670642852783,-21.22481918334961
1776019089485229000,0.41622900390625,-14.027435302734375,5.000887393951416,-21.43044090270996
1776019089495288800,0.426288818359375,-13.8011474609375,5.068857669830322,-21.31745147705078
1776019089505350000,0.436349853515625,-14.20782470703125,5.173554420471191,-21.212177276611328
1776019089515410000,0.446409912109375,-13.847198486328125,5.132441997528076,-21.124263763427734
1776019089525471000,0.456470947265625,-14.07135009765625,4.894103050231934,-21.205944061279297
1776019089535531000,0.466531005859375,-13.78094482421875,4.814229488372803,-21.045379638671875
1776019089545592000,0.476592041015625,-13.400665283203125,4.698339462280273,-21.13134765625
1776019089555652900,0.48665283203125,-13.605438232421875,5.05647611618042,-21.302528381347656
1776019089565713000,0.496712890625,-13.33050537109375,5.020012378692627,-21.42060661315918
1776019089575774000,0.50677392578125,-13.210693359375,4.903050422668457,-21.285221099853516
1776019089585834000,0.516833984375,-13.171173095703125,4.751367568969727,-21.20398712158203
1776019089595895000,0.52689501953125,-13.382049560546875,4.858051776885986,-21.184261322021484
1776019089605954800,0.536954833984375,-13.3363037109375,4.742511749267578,-21.435718536376953
1776019089616016000,0.547015869140625,-13.2423095703125,4.94099235534668,-21.215557098388672
1776019089626076000,0.557075927734375,-13.28619384765625,4.720226287841797,-21.285022735595703
1776019089636137000,0.567136962890625,-13.3319091796875,4.598503112792969,-21.370269775390625
1776019089646196700,0.57719677734375,-13.94036865234375,4.930614471435547,-21.14931297302246
1776019089656257800,0.5872578125,-13.72039794921875,4.790442943572998,-21.18352508544922
1776019089666317800,0.59731787109375,-13.678466796875,4.470236778259277,-21.42780303955078
1776019089676379000,0.60737890625,-13.69384765625,4.463866233825684,-21.58895492553711
1776019089686439000,0.61743896484375,-13.111602783203125,4.591494560241699,-21.42630386352539
1776019089696500000,0.6275,-13.261138916015625,4.481227874755859,-21.247196197509766
1776019089706560800,0.637560791015625,-13.25775146484375,4.761223793029785,-21.198612213134766
1776019089716620800,0.647620849609375,-13.03070068359375,4.664194107055664,-21.376916885375977
1776019089726681900,0.657681884765625,-13.354400634765625,4.582675933837891,-21.379688262939453
1776019089736742100,0.6677421875,-13.280670166015625,4.605616569519043,-21.23383140563965
1776019089746803000,0.677802978515625,-13.0093994140625,4.714450836181641,-21.188159942626953
1776019089756863000,0.687863037109375,-13.1055908203125,4.649877548217773,-21.004207611083984
1776019089766924000,0.697924072265625,-13.61773681640625,4.597627639770508,-21.093738555908203
1776019089776984000,0.707984130859375,-14.227996826171875,4.407456398010254,-20.957706451416016
1776019089787045000,0.718045166015625,-14.5343017578125,4.362545013427734,-20.686260223388672
1776019089797105000,0.72810498046875,-15.012664794921875,4.478680610656738,-20.31997299194336
1776019089807166000,0.738166015625,-15.55914306640625,4.4765520095825195,-19.691471099853516
1776019089817226000,0.74822607421875,-15.930755615234375,4.730594635009766,-19.414491653442383
1776019089827287000,0.758287109375,-16.108154296875,4.897833824157715,-18.6959285736084
1776019089837347000,0.76834716796875,-16.87542724609375,5.33303689956665,-18.291175842285156
1776019089847408000,0.778408203125,-17.642608642578125,6.02701997756958,-17.702857971191406
1776019089857468000,0.788468017578125,-17.968353271484375,6.225822448730469,-16.90056610107422
1776019089867529000,0.798529052734375,-18.451446533203125,7.227051734924316,-16.3415470123291
1776019089877590000,0.808590087890625,-18.371795654296875,7.890741348266602,-15.628349304199219
1776019089887650000,0.818650146484375,-18.923919677734375,8.646195411682129,-14.848258972167969
1776019089897711000,0.828711181640625,-19.007720947265625,9.28857707977295,-14.094781875610352
1776019089907771000,0.83877099609375,-19.443145751953125,9.926132202148438,-13.153373718261719
1776019089917832000,0.84883203125,-19.763397216796875,10.20009994506836,-12.355817794799805
1776019089927892000,0.85889208984375,-20.042205810546875,10.514820098876953,-11.466672897338867
1776019089937953000,0.868953125,-20.241058349609375,10.896711349487305,-10.490026473999023
1776019089948013000,0.879012939453125,-20.36376953125,11.30959701538086,-9.318065643310547
1776019089958073900,0.889073974609375,-20.41754150390625,11.496097564697266,-8.638521194458008
1776019089968134000,0.8991337890625,-20.746978759765625,11.844072341918945,-7.676128387451172
1776019089978195000,0.90919482421875,-20.86383056640625,12.299036979675293,-6.633298873901367
1776019089988255000,0.9192548828125,-21.1046142578125,12.347210884094238,-5.752582550048828
1776019089998316000,0.92931591796875,-21.432708740234375,12.445825576782227,-4.821331024169922
1776019090008375800,0.939375732421875,-21.36456298828125,12.564332008361816,-3.858156204223633
1776019090018436900,0.949436767578125,-21.531890869140625,12.464710235595703,-3.187131881713867
1776019090028498000,0.959497802734375,-21.319305419921875,12.1944580078125,-2.704498291015625
1776019090038558000,0.969557861328125,-21.664398193359375,12.34618854522705,-2.292325973510742
1776019090048619000,0.979618896484375,-21.59051513671875,12.373762130737305,-2.214862823486328
1776019090058678800,0.9896787109375,-21.356353759765625,12.532720565795898,-2.1433658599853516
1776019090068739800,0.99973974609375,-20.933349609375,12.334676742553711,-1.9237442016601562
1776019090078800000,1.0097998046875,-20.844390869140625,12.714252471923828,-1.7574615478515625
1776019090088861000,1.01986083984375,-20.811004638671875,12.887396812438965,-1.5744056701660156
1776019090098921000,1.0299208984375,-20.473052978515625,12.91392707824707,-1.5311927795410156
1776019090108981800,1.039981689453125,-20.660797119140625,12.949127197265625,-1.7182197570800781
1776019090119041800,1.050041748046875,-20.7821044921875,13.001434326171875,-2.255584716796875
1776019090129102800,1.060102783203125,-20.827301025390625,12.960213661193848,-2.731342315673828
1776019090139163100,1.0701630859375,-20.62890625,13.00674057006836,-3.019102096557617
1776019090149224000,1.080223876953125,-20.773101806640625,13.067521095275879,-3.480243682861328
1776019090159284000,1.090283935546875,-20.424652099609375,13.160239219665527,-4.153785705566406
1776019090169345000,1.100344970703125,-19.983154296875,13.512142181396484,-4.566682815551758
1776019090179405800,1.11040576171875,-19.998443603515625,13.803632736206055,-4.948114395141602
1776019090189466000,1.120466064453125,-19.890350341796875,14.132475852966309,-5.420906066894531
1776019090199527000,1.13052685546875,-19.52838134765625,14.231438636779785,-5.871583938598633
1776019090209587000,1.1405869140625,-19.44671630859375,14.314796447753906,-6.176362991333008
1776019090219648000,1.15064794921875,-19.15875244140625,14.543107986450195,-6.643211364746094
1776019090229708000,1.1607080078125,-18.7923583984375,14.782230377197266,-6.651922225952148
1776019090239769000,1.17076904296875,-19.064697265625,14.928750991821289,-6.708992004394531
1776019090249829000,1.1808291015625,-18.691864013671875,15.246953964233398,-7.190834045410156
1776019090259890000,1.190889892578125,-18.672760009765625,15.400274276733398,-7.350709915161133
1776019090269950000,1.200949951171875,-18.54705810546875,15.503719329833984,-7.334253311157227
1776019090280011000,1.211010986328125,-18.49200439453125,15.487279891967773,-7.73698616027832
1776019090290071000,1.221071044921875,-17.780792236328125,15.541122436523438,-7.827789306640625
1776019090300132000,1.231132080078125,-17.807342529296875,16.06980323791504,-8.123050689697266
1776019090310191900,1.24119189453125,-17.693389892578125,16.1451473236084,-8.348108291625977
1776019090320253000,1.2512529296875,-17.52764892578125,16.30771255493164,-8.275428771972656
1776019090330314000,1.26131396484375,-17.097747802734375,16.457704544067383,-8.336034774780273
1776019090340374000,1.2713740234375,-17.181365966796875,16.52338218688965,-8.658025741577148
1776019090350435000,1.28143505859375,-17.2371826171875,16.72632598876953,-8.903789520263672
1776019090360494800,1.291494873046875,-16.964599609375,16.823503494262695,-9.038850784301758
1776019090370556000,1.301555908203125,-16.484954833984375,16.766769409179688,-8.96579360961914
1776019090380616000,1.311615966796875,-17.071319580078125,17.117717742919922,-8.818496704101562
1776019090390677000,1.321677001953125,-16.66448974609375,17.404033660888672,-8.777523040771484
1776019090400737000,1.331737060546875,-16.39849853515625,17.69392967224121,-8.730056762695312
1776019090410797800,1.3417978515625,-16.017608642578125,18.029449462890625,-8.940752029418945
1776019090420857900,1.35185791015625,-15.80096435546875,18.208938598632812,-8.772649765014648
1776019090430919000,1.3619189453125,-15.621673583984375,18.609498977661133,-8.660772323608398
1776019090440979000,1.37197900390625,-15.841796875,18.748817443847656,-8.538492202758789
1776019090451040000,1.3820400390625,-15.763092041015625,19.256938934326172,-8.683521270751953
1776019090461100000,1.39210009765625,-15.51934814453125,19.559465408325195,-8.742950439453125
1776019090471161000,1.4021611328125,-15.40570068359375,19.711978912353516,-8.720785140991211
1776019090481222100,1.41222216796875,-14.773529052734375,20.033275604248047,-8.634834289550781
1776019090491282000,1.422281982421875,-14.977447509765625,20.402618408203125,-8.396112442016602
1776019090501343000,1.432343017578125,-14.44781494140625,20.600467681884766,-8.208574295043945
1776019090511403000,1.442403076171875,-14.173309326171875,20.865612030029297,-8.066560745239258
1776019090521464000,1.452464111328125,-13.549102783203125,21.427459716796875,-8.119791030883789
1776019090531523800,1.46252392578125,-13.068084716796875,22.03201675415039,-7.685148239135742
1776019090541585000,1.4725849609375,-12.67645263671875,22.577320098876953,-7.2868194580078125
1776019090551645000,1.48264501953125,-11.693878173828125,22.798648834228516,-7.036630630493164
1776019090561706000,1.4927060546875,-10.7779541015625,23.394187927246094,-6.781730651855469
1776019090571766000,1.50276611328125,-10.00860595703125,24.006118774414062,-6.423728942871094
1776019090581826800,1.512826904296875,-8.90411376953125,24.67825698852539,-6.045806884765625
1776019090591887000,1.52288720703125,-7.788543701171875,25.273784637451172,-5.362394332885742
1776019090601948000,1.532947998046875,-6.844024658203125,25.863555908203125,-4.325162887573242
1776019090612008200,1.54300830078125,-5.84515380859375,26.146331787109375,-3.762908935546875
1776019090622069200,1.5530693359375,-5.484893798828125,26.377607345581055,-2.907308578491211
1776019090632130000,1.563130126953125,-5.156036376953125,26.55274200439453,-2.0993309020996094
1776019090642190000,1.573190185546875,-4.898529052734375,26.47360610961914,-1.4061851501464844
1776019090652251000,1.5832509765625,-3.7435302734375,26.248659133911133,-0.2315521240234375
1776019090662311200,1.593311279296875,-3.7747802734375,26.37982177734375,0.5244293212890625
1776019090672372200,1.603372314453125,-3.778656005859375,26.322837829589844,0.8014602661132812
1776019090682432000,1.613431884765625,-3.2257080078125,26.480653762817383,1.3035507202148438
1776019090692493000,1.6234931640625,-2.780731201171875,26.492691040039062,1.7325706481933594
1776019090702553000,1.633552978515625,-2.445404052734375,26.40824317932129,2.1366119384765625
1776019090712614100,1.6436142578125,-2.14544677734375,26.422927856445312,2.459991455078125
1776019090722674200,1.653674072265625,-2.343170166015625,26.416080474853516,2.7905349731445312
1776019090732735000,1.66373486328125,-2.8634033203125,26.22802734375,2.8339462280273438
1776019090742795000,1.673794921875,-3.165679931640625,26.19202423095703,2.9443740844726562
1776019090752856000,1.68385595703125,-3.082183837890625,25.939998626708984,3.076862335205078
1776019090762916000,1.693916015625,-3.05596923828125,26.234207153320312,3.0347824096679688
1776019090772977200,1.70397705078125,-3.774444580078125,26.054506301879883,2.9337234497070312
1776019090783037000,1.714036865234375,-3.957489013671875,26.065135955810547,2.692401885986328
1776019090793098000,1.724097900390625,-4.178863525390625,25.903383255004883,2.4931869506835938
1776019090803159000,1.734158935546875,-4.460784912109375,25.91045379638672,2.3277549743652344
1776019090813219000,1.744218994140625,-4.734222412109375,25.65345001220703,2.2851791381835938
1776019090823280000,1.754280029296875,-4.756256103515625,25.60205078125,2.291728973388672
1776019090833340000,1.76433984375,-5.29998779296875,25.39382553100586,2.351806640625
1776019090843401000,1.77440087890625,-5.44561767578125,25.431747436523438,2.3368797302246094
1776019090853461000,1.7844609375,-6.28033447265625,25.35552978515625,2.3304710388183594
1776019090863522000,1.79452197265625,-6.256988525390625,25.3547306060791,2.043628692626953
1776019090873582000,1.80458203125,-6.600067138671875,25.261478424072266,1.7623710632324219
1776019090883643100,1.81464306640625,-6.967742919921875,25.326007843017578,1.7355461120605469
1776019090893703000,1.824702880859375,-7.22222900390625,25.19580841064453,1.8012466430664062
1776019090903764000,1.834763916015625,-7.52349853515625,24.841642379760742,1.79949951171875
1776019090913824000,1.844823974609375,-7.796539306640625,24.995983123779297,2.1563491821289062
1776019090923885000,1.854885009765625,-8.217315673828125,24.5554141998291,2.2485580444335938
1776019090933944800,1.86494482421875,-8.38299560546875,24.543790817260742,2.672283172607422
1776019090944006000,1.875005859375,-8.03009033203125,24.585674285888672,2.8397979736328125
1776019090954067000,1.88506689453125,-8.064971923828125,24.600521087646484,2.8280029296875
1776019090964127000,1.895126953125,-8.3048095703125,24.710281372070312,2.8841705322265625
1776019090974188000,1.90518798828125,-8.605377197265625,24.439563751220703,2.8426742553710938
1776019090984247800,1.915247802734375,-9.00494384765625,24.15549087524414,3.0792236328125
1776019090994308900,1.925308837890625,-8.997955322265625,24.17272186279297,3.055103302001953
1776019091004369000,1.935368896484375,-9.11920166015625,24.013286590576172,3.0919151306152344
1776019091014430000,1.945429931640625,-9.1871337890625,23.895383834838867,3.1306533813476562
1776019091024490200,1.955490234375,-9.72222900390625,23.96896743774414,3.1035614013671875
1776019091034551000,1.965551025390625,-10.008575439453125,23.8856201171875,2.9909896850585938
1776019091044611000,1.975611083984375,-9.805389404296875,23.760181427001953,2.63922119140625
1776019091054672100,1.985672119140625,-10.181182861328125,23.791889190673828,2.2660293579101562
1776019091064732200,1.995732177734375,-10.65936279296875,23.805923461914062,2.121795654296875
1776019091074793200,2.005793212890625,-10.855133056640625,23.211795806884766,1.8995399475097656
1776019091084853000,2.01585302734375,-11.2479248046875,23.214553833007812,1.7565650939941406
1776019091094914000,2.0259140625,-11.68902587890625,22.868383407592773,1.5038414001464844
1776019091104974000,2.03597412109375,-11.9986572265625,22.826831817626953,1.1266021728515625
1776019091115035100,2.04603515625,-11.981231689453125,22.919864654541016,0.3283195495605469
1776019091125096200,2.05609619140625,-12.216644287109375,22.750072479248047,-0.5401268005371094
1776019091135156000,2.066156005859375,-12.6844482421875,22.64509391784668,-0.9608802795410156
1776019091145217000,2.076217041015625,-12.74615478515625,22.511329650878906,-1.93280029296875
1776019091155277000,2.086277099609375,-12.5936279296875,22.597679138183594,-2.9149608612060547
1776019091165338000,2.096338134765625,-12.32086181640625,22.77135467529297,-3.7100448608398438
1776019091175398100,2.106398193359375,-12.007080078125,22.868370056152344,-4.500940322875977
1776019091185459200,2.116459228515625,-11.502227783203125,22.826215744018555,-5.1218414306640625
1776019091195519000,2.12651904296875,-11.337890625,22.916217803955078,-5.688442230224609
1776019091205580000,2.136580078125,-11.760589599609375,23.000288009643555,-5.882110595703125
1776019091215640000,2.14664013671875,-11.60498046875,22.921037673950195,-5.870578765869141
1776019091225701000,2.156701171875,-11.61083984375,22.715824127197266,-6.115230560302734
1776019091235761000,2.166760986328125,-11.223052978515625,22.652385711669922,-5.924612045288086
1776019091245822000,2.176822021484375,-11.13287353515625,22.750072479248047,-6.067296981811523
1776019091255882000,2.186882080078125,-11.10589599609375,23.065120697021484,-6.1136474609375
1776019091265943000,2.196943115234375,-10.666229248046875,23.178319931030273,-6.241359710693359
1776019091276004000,2.207004150390625,-10.535491943359375,23.305856704711914,-6.432735443115234
1776019091286064000,2.217064208984375,-10.2403564453125,23.37525177001953,-6.623468399047852
1776019091296125000,2.227125,-9.783935546875,23.398101806640625,-6.816658020019531
1776019091306185000,2.23718505859375,-9.444183349609375,23.515872955322266,-6.87957763671875
1776019091316246000,2.24724609375,-9.2601318359375,23.702651977539062,-6.885576248168945
1776019091326306000,2.25730615234375,-8.813262939453125,24.087678909301758,-6.919288635253906
1776019091336367000,2.2673671875,-8.7445068359375,24.04462242126465,-7.016790390014648
1776019091346427000,2.277427001953125,-8.21148681640625,24.195606231689453,-7.278709411621094
1776019091356488000,2.287488037109375,-7.93951416015625,24.292808532714844,-7.206991195678711
1776019091366548000,2.2975478515625,-7.83349609375,24.218059539794922,-7.085453033447266
1776019091376609000,2.307609130859375,-7.924072265625,24.361988067626953,-6.737682342529297
1776019091386668800,2.317668701171875,-7.46978759765625,24.58035659790039,-6.718162536621094
1776019091396729900,2.327729736328125,-6.84716796875,24.792253494262695,-6.52018928527832
1776019091406790100,2.3377900390625,-6.40228271484375,24.92584991455078,-6.27324104309082
1776019091416851000,2.347850830078125,-6.03985595703125,25.097082138061523,-6.283603668212891
1776019091426911200,2.3579111328125,-4.695526123046875,25.26673126220703,-6.181913375854492
1776019091436971800,2.3679716796875,-4.02020263671875,25.53995132446289,-6.131685256958008
1776019091447031800,2.37803173828125,-3.236663818359375,25.971336364746094,-5.98304557800293
1776019091457092900,2.3880927734375,-2.70758056640625,26.15180206298828,-5.851602554321289
1776019091467153700,2.398153564453125,-2.072021484375,26.418102264404297,-5.905832290649414
1776019091477214000,2.4082138671875,-1.497589111328125,26.470237731933594,-5.774871826171875
1776019091487275000,2.41827490234375,-1.3612060546875,26.307613372802734,-5.75721549987793
1776019091497334800,2.428334716796875,-0.6072998046875,26.204631805419922,-5.58317756652832
1776019091507395800,2.438395751953125,0.12353515625,26.281951904296875,-5.215169906616211
1776019091517456000,2.448455810546875,1.219451904296875,26.436946868896484,-4.916128158569336
1776019091527517000,2.458516845703125,1.80548095703125,26.25153923034668,-4.6794281005859375
1776019091537576700,2.46857666015625,2.052215576171875,26.516010284423828,-4.208747863769531
1776019091547637800,2.4786376953125,1.569183349609375,26.26241683959961,-4.058280944824219
1776019091557697800,2.48869775390625,1.479156494140625,26.264480590820312,-4.086727142333984
1776019091567758800,2.4987587890625,1.30584716796875,26.05170440673828,-4.017889022827148
1776019091577819000,2.50881884765625,1.12445068359375,26.333515167236328,-3.715463638305664
1776019091587880000,2.5188798828125,1.085052490234375,26.740066528320312,-3.612546920776367
1776019091597939700,2.528939697265625,0.894378662109375,26.658390045166016,-3.3291854858398438
1776019091608000800,2.539000732421875,0.277923583984375,26.703445434570312,-3.219249725341797
1776019091618060800,2.549060791015625,0.320404052734375,26.505165100097656,-2.9679393768310547
1776019091628121900,2.559121826171875,0.018280029296875,26.522525787353516,-2.612041473388672
1776019091638183000,2.569182861328125,-0.180572509765625,26.391735076904297,-2.2966766357421875
1776019091648242700,2.57924267578125,-0.57806396484375,26.361793518066406,-2.253978729248047
1776019091658303700,2.5893037109375,-0.638702392578125,26.25994110107422,-2.007232666015625
1776019091668363800,2.59936376953125,-1.173583984375,26.251811981201172,-1.6456336975097656
1776019091678424800,2.6094248046875,-1.947021484375,26.522266387939453,-1.2370719909667969
1776019091688484600,2.619484619140625,-2.617828369140625,26.578914642333984,-0.7716331481933594
1776019091698545700,2.629545654296875,-3.094970703125,26.175865173339844,-0.31375885009765625
1776019091708605700,2.639605712890625,-3.71466064453125,26.044536590576172,0.053760528564453125
1776019091718666800,2.649666748046875,-3.825836181640625,25.883636474609375,0.2609825134277344
1776019091728726800,2.659726806640625,-4.54046630859375,25.704730987548828,0.5448493957519531
1776019091738787800,2.669787841796875,-5.299835205078125,25.745006561279297,0.8554573059082031
1776019091748847600,2.67984765625,-5.53790283203125,25.760257720947266,0.853790283203125
1776019091758908700,2.68990869140625,-5.4598388671875,25.752578735351562,0.89508056640625
1776019091768968700,2.69996875,-6.164093017578125,25.559036254882812,0.7132797241210938
1776019091779029800,2.71002978515625,-6.67852783203125,25.33440399169922,1.0159568786621094
1776019091789090800,2.7200908203125,-7.404998779296875,25.057523727416992,0.9479141235351562
1776019091799150600,2.730150634765625,-7.43304443359375,24.864004135131836,1.0334510803222656
1776019091809211600,2.740211669921875,-7.803619384765625,24.73583221435547,1.1479721069335938
1776019091819271700,2.750271728515625,-8.282073974609375,24.708457946777344,1.0602188110351562
1776019091829332700,2.760332763671875,-8.766845703125,24.63167953491211,0.6980247497558594
1776019091839393000,2.77039306640625,-8.81353759765625,24.83066749572754,0.7078590393066406
1776019091849453600,2.78045361328125,-9.142181396484375,24.540401458740234,0.8017730712890625
1776019091859513900,2.790513916015625,-9.1070556640625,24.583356857299805,0.6170806884765625
1776019091869575000,2.800574951171875,-9.457275390625,24.122276306152344,0.29636383056640625
1776019091879635000,2.810635009765625,-10.2998046875,24.100971221923828,0.14030838012695312
1776019091889696000,2.820696044921875,-10.611572265625,23.675199508666992,-0.3629264831542969
1776019091899755800,2.830755859375,-11.895782470703125,23.578659057617188,-0.6805801391601562
1776019091909816800,2.84081689453125,-11.8294677734375,23.21257781982422,-1.4062652587890625
1776019091919878000,2.8508779296875,-12.51947021484375,23.050357818603516,-2.160062789916992
1776019091929938000,2.86093798828125,-12.79962158203125,22.600069046020508,-2.934907913208008
1776019091939999000,2.8709990234375,-12.93328857421875,22.129192352294922,-4.0612030029296875
1776019091950058800,2.881058837890625,-13.148956298828125,22.091205596923828,-5.308141708374023
1776019091960119800,2.891119873046875,-13.120574951171875,21.797266006469727,-6.501140594482422
1776019091970179800,2.901179931640625,-13.049163818359375,21.347780227661133,-7.683481216430664
1776019091980241000,2.911240966796875,-13.08880615234375,20.885311126708984,-8.621557235717773
1776019091990301000,2.921301025390625,-13.3096923828125,20.770061492919922,-9.322027206420898
1776019092000361700,2.93136181640625,-13.807373046875,20.52882957458496,-9.851213455200195
1776019092010421800,2.941421875,-14.12017822265625,20.00537872314453,-9.869611740112305
1776019092020482800,2.95148291015625,-14.695770263671875,19.844219207763672,-9.973199844360352
1776019092030542800,2.96154296875,-14.990203857421875,19.72107696533203,-9.737882614135742
1776019092040604000,2.97160400390625,-15.780975341796875,19.493972778320312,-9.343658447265625
1776019092050663700,2.98166357421875,-16.032379150390625,19.44723892211914,-8.878467559814453
1776019092060724700,2.991724853515625,-16.483856201171875,19.465147018432617,-8.612010955810547
1776019092070785800,3.001785888671875,-16.072906494140625,19.556861877441406,-8.148820877075195
1776019092080845800,3.011845703125,-16.07708740234375,19.727088928222656,-8.17293930053711
1776019092090907000,3.021906982421875,-15.61492919921875,19.641138076782227,-8.982065200805664
1776019092100966700,3.031966552734375,-15.11871337890625,19.627605438232422,-9.662860870361328
1776019092111027700,3.04202783203125,-14.5714111328125,19.53989601135254,-10.414941787719727
1776019092121087700,3.052087646484375,-14.3427734375,19.239303588867188,-10.971405029296875
1776019092131148800,3.062148681640625,-14.372894287109375,19.161623001098633,-11.951044082641602
1776019092141208800,3.072208740234375,-14.393707275390625,18.7496280670166,-12.418094635009766
1776019092151269600,3.08226953125,-14.509033203125,18.47650146484375,-12.928365707397461
1776019092161329700,3.09232958984375,-14.98162841796875,17.946277618408203,-13.260900497436523
1776019092171390700,3.102390625,-14.884674072265625,17.60832405090332,-13.664083480834961
1776019092181450800,3.11245068359375,-15.024566650390625,17.386890411376953,-14.049779891967773
1776019092191511800,3.12251171875,-14.655548095703125,16.82833480834961,-14.508121490478516
1776019092201572900,3.13257275390625,-15.00634765625,16.412370681762695,-14.868406295776367
1776019092211632600,3.142632568359375,-15.4578857421875,16.230178833007812,-15.064889907836914
1776019092221693700,3.152693603515625,-15.227630615234375,15.797106742858887,-15.447286605834961
1776019092231753700,3.162753662109375,-15.6009521484375,15.474250793457031,-15.837272644042969
1776019092241814800,3.172814697265625,-15.881988525390625,15.39526653289795,-16.437063217163086
1776019092251874600,3.18287451171875,-15.207763671875,15.107680320739746,-16.8127384185791
1776019092261935600,3.192935546875,-14.274871826171875,14.875463485717773,-17.67401885986328
1776019092271996000,3.202995849609375,-13.453216552734375,14.630338668823242,-18.472434997558594
1776019092282056700,3.213056640625,-12.9217529296875,14.441458702087402,-18.930633544921875
1776019092292117000,3.223116943359375,-12.649505615234375,14.38267993927002,-19.186214447021484
1776019092302177800,3.233177734375,-12.746429443359375,14.166668891906738,-19.282764434814453
1776019092312237800,3.24323779296875,-12.933624267578125,14.215157508850098,-19.002105712890625
1776019092322299000,3.253298828125,-13.24188232421875,14.221022605895996,-18.88330078125
1776019092332359700,3.263359619140625,-13.5367431640625,14.15401840209961,-18.684165954589844
1776019092342420000,3.273419921875,-14.198944091796875,14.179518699645996,-18.34227752685547
1776019092352480800,3.283480712890625,-14.422943115234375,14.24827766418457,-18.20148277282715
1776019092362540800,3.293540771484375,-14.05828857421875,14.221966743469238,-18.20014190673828
1776019092372601900,3.303601806640625,-13.784942626953125,14.014366149902344,-18.32365608215332
1776019092382662000,3.313661865234375,-13.544464111328125,13.8681058883667,-18.419153213500977
1776019092392723000,3.323722900390625,-13.82708740234375,13.962471008300781,-18.47536849975586
1776019092402782700,3.33378271484375,-13.4932861328125,14.094012260437012,-18.48885726928711
1776019092412843800,3.34384375,-14.07891845703125,14.077863693237305,-18.283306121826172
1776019092422903800,3.35390380859375,-14.25872802734375,14.223711013793945,-18.399688720703125
1776019092432964000,3.363964111328125,-14.169830322265625,14.202737808227539,-18.381771087646484
1776019092443024100,3.374024169921875,-13.659454345703125,14.013412475585938,-18.486289978027344
1776019092453085200,3.384085205078125,-13.490203857421875,14.102965354919434,-18.42318344116211
1776019092463146000,3.39414599609375,-13.823211669921875,14.27242374420166,-18.26271629333496
1776019092473206000,3.4042060546875,-13.9022216796875,14.344722747802734,-18.191631317138672
1776019092483267000,3.41426708984375,-13.654083251953125,14.17276382446289,-18.065723419189453
1776019092493327000,3.4243271484375,-13.577911376953125,14.03367805480957,-18.228580474853516
1776019092503388200,3.43438818359375,-13.42449951171875,14.047429084777832,-18.478199005126953
1776019092513448000,3.444447998046875,-13.325653076171875,14.06475830078125,-18.39159393310547
1776019092523509000,3.454509033203125,-13.620269775390625,14.270894050598145,-18.366683959960938
1776019092533569000,3.464569091796875,-13.729156494140625,13.930866241455078,-18.504493713378906
1776019092543630000,3.474630126953125,-13.61639404296875,14.267171859741211,-18.554237365722656
1776019092553690000,3.484690185546875,-14.047119140625,14.226558685302734,-18.215679168701172
1776019092563751000,3.4947509765625,-14.198516845703125,13.975109100341797,-18.095130920410156
1776019092573811000,3.50481103515625,-13.8536376953125,13.991439819335938,-18.038116455078125
1776019092583872000,3.5148720703125,-14.051727294921875,13.90839958190918,-18.187026977539062
1776019092593933000,3.52493310546875,-14.071624755859375,14.119721412658691,-18.0626220703125
1776019092603993000,3.5349931640625,-13.962432861328125,14.09375,-18.06281280517578
1776019092614054000,3.545053955078125,-13.809906005859375,14.037748336791992,-17.996322631835938
1776019092624114000,3.555114013671875,-14.0423583984375,14.130871772766113,-18.121370315551758
1776019092634175000,3.565175048828125,-13.916168212890625,14.102599143981934,-18.054208755493164
1776019092644235000,3.575235107421875,-14.045928955078125,14.253543853759766,-18.259864807128906
1776019092654296000,3.585296142578125,-14.172149658203125,14.054081916809082,-18.181684494018555
1776019092664356000,3.595356201171875,-13.680694580078125,13.935354232788086,-18.182193756103516
1776019092674417000,3.6054169921875,-13.89239501953125,14.01005744934082,-18.140256881713867
1776019092684477200,3.615477294921875,-13.95587158203125,13.769203186035156,-18.298851013183594
1776019092694538200,3.625538330078125,-13.91766357421875,13.924323081970215,-18.463245391845703
1776019092704598300,3.635598388671875,-14.07244873046875,14.061323165893555,-18.574176788330078
1776019092714659000,3.6456591796875,-13.66375732421875,14.053048133850098,-18.453567504882812
1776019092724720000,3.65572021484375,-13.8638916015625,13.893917083740234,-18.58614730834961
1776019092734780200,3.6657802734375,-14.157562255859375,14.199620246887207,-18.39262580871582
1776019092744841200,3.67584130859375,-14.16815185546875,14.033931732177734,-18.606637954711914
1776019092754901200,3.6859013671875,-13.997161865234375,14.035417556762695,-18.413925170898438
1776019092764962000,3.695962158203125,-13.997283935546875,14.186829566955566,-18.349525451660156
1776019092775022000,3.70602197265625,-13.534576416015625,14.152135848999023,-18.48438262939453
1776019092785083100,3.716083251953125,-13.46075439453125,14.096829414367676,-18.699831008911133
1776019092795143200,3.72614306640625,-13.4073486328125,14.142720222473145,-18.914608001708984
1776019092805204200,3.736204345703125,-13.09130859375,13.871223449707031,-18.83530044555664
1776019092815264000,3.746263916015625,-13.728759765625,13.887142181396484,-18.544544219970703
1776019092825325000,3.756324951171875,-13.479827880859375,14.047945976257324,-18.54397964477539
1776019092835386000,3.76638623046875,-13.3310546875,14.534631729125977,-18.598495483398438
1776019092845446100,3.776446044921875,-13.180145263671875,14.308388710021973,-18.556060791015625
1776019092855507200,3.786507080078125,-13.420928955078125,14.34592056274414,-18.566261291503906
1776019092865567000,3.79656689453125,-13.32086181640625,14.395027160644531,-18.747806549072266
1776019092875628000,3.8066279296875,-13.483306884765625,14.40820598602295,-18.655284881591797
1776019092885688000,3.81668798828125,-13.55474853515625,14.216047286987305,-18.662105560302734
1776019092895749000,3.8267490234375,-13.60418701171875,14.419651985168457,-18.83365821838379
1776019092905809200,3.83680908203125,-13.586273193359375,14.195082664489746,-18.531436920166016
1776019092915870200,3.8468701171875,-13.1612548828125,14.026909828186035,-18.558238983154297
1776019092925930000,3.856929931640625,-13.579742431640625,14.029991149902344,-18.630260467529297
1776019092935991000,3.866990966796875,-13.561065673828125,13.927308082580566,-18.686965942382812
1776019092946051000,3.877051025390625,-13.374847412109375,14.06434440612793,-18.786678314208984
1776019092956112100,3.887112060546875,-13.58050537109375,13.922818183898926,-18.760498046875
1776019092966173200,3.897173095703125,-13.372344970703125,13.875890731811523,-18.708423614501953
1776019092976233000,3.90723291015625,-12.91497802734375,13.872391700744629,-18.786148071289062
1776019092986294000,3.9172939453125,-13.402801513671875,13.998326301574707,-18.73615837097168
1776019092996354000,3.92735400390625,-13.425140380859375,14.046930313110352,-18.755781173706055
1776019093006415000,3.9374150390625,-13.498870849609375,13.92799186706543,-18.77048110961914
1776019093016475000,3.947474853515625,-13.6849365234375,13.835762023925781,-18.78858184814453
1776019093026536000,3.957535888671875,-13.366668701171875,14.165657043457031,-18.830402374267578
1776019093036596000,3.967595947265625,-13.54144287109375,14.054644584655762,-18.805309295654297
1776019093046657000,3.977656982421875,-13.36529541015625,14.186909675598145,-18.71552276611328
1776019093056717000,3.987717041015625,-13.494598388671875,13.983539581298828,-18.675724029541016
1776019093066778000,3.997778076171875,-13.38433837890625,14.107627868652344,-18.862302780151367
1776019093076838100,4.007838134765625,-13.11328125,14.079904556274414,-18.92013168334961
1776019093086899000,4.01789892578125,-13.44879150390625,13.926438331604004,-18.7762451171875
1776019093096960000,4.0279599609375,-13.299591064453125,14.011155128479004,-18.685832977294922
1776019093107020000,4.03802001953125,-13.47021484375,14.022767066955566,-18.686080932617188
1776019093117081000,4.0480810546875,-13.313446044921875,14.146496772766113,-18.955799102783203
1776019093127141000,4.05814111328125,-13.293853759765625,14.16547966003418,-18.925445556640625
1776019093137202000,4.068201904296875,-13.09344482421875,14.092964172363281,-18.885257720947266
1776019093147262200,4.07826220703125,-12.989837646484375,14.055285453796387,-19.251895904541016
1776019093157323000,4.088322998046875,-13.058013916015625,13.864524841308594,-19.18218994140625
1776019093167383300,4.09838330078125,-12.576751708984375,14.015376091003418,-19.369361877441406
1776019093177444000,4.108444091796875,-12.56341552734375,13.963897705078125,-19.31067657470703
1776019093187504000,4.118504150390625,-12.6162109375,14.006762504577637,-19.383159637451172
1776019093197565200,4.128565185546875,-12.29266357421875,13.967679023742676,-19.50366973876953
1776019093207626000,4.1386259765625,-12.796966552734375,14.061360359191895,-19.271793365478516
1776019093217686300,4.148686279296875,-12.897491455078125,14.123554229736328,-19.160736083984375
1776019093227747000,4.1587470703125,-12.841796875,14.045958518981934,-19.237842559814453
1776019093237807000,4.16880712890625,-12.487518310546875,14.033578872680664,-19.467113494873047
1776019093247868200,4.1788681640625,-12.84710693359375,14.052934646606445,-19.356487274169922
1776019093257928200,4.18892822265625,-12.612335205078125,14.294054985046387,-19.371767044067383
1776019093267989200,4.1989892578125,-12.477294921875,14.105389595031738,-19.291790008544922
1776019093278049000,4.209049072265625,-12.601959228515625,14.031903266906738,-19.357698440551758
1776019093288110000,4.219110107421875,-12.326751708984375,14.217867851257324,-19.50860595703125
1776019093298170000,4.229170166015625,-12.65155029296875,14.052562713623047,-19.448944091796875
1776019093308231200,4.239231201171875,-13.16363525390625,13.984796524047852,-19.314300537109375
1776019093318291200,4.249291259765625,-12.986328125,14.173624038696289,-19.352436065673828
1776019093328352000,4.25935205078125,-12.88153076171875,14.264741897583008,-18.917457580566406
1776019093338413000,4.2694130859375,-12.711578369140625,14.165468215942383,-18.936725616455078
1776019093348473000,4.27947314453125,-12.85552978515625,14.016385078430176,-19.11454963684082
1776019093358534100,4.2895341796875,-13.199859619140625,14.045389175415039,-19.237598419189453
1776019093368594200,4.29959423828125,-13.30316162109375,13.928797721862793,-19.133037567138672
1776019093378655200,4.3096552734375,-13.43084716796875,14.018844604492188,-19.014007568359375
1776019093388715000,4.319715087890625,-13.746490478515625,13.985647201538086,-18.85974884033203
1776019093398776000,4.329776123046875,-13.7391357421875,13.95621109008789,-18.788162231445312
1776019093408836000,4.339836181640625,-13.6007080078125,14.010786056518555,-18.806549072265625
1776019093418897200,4.349897216796875,-13.552825927734375,13.954371452331543,-18.8809814453125
1776019093428957000,4.35995703125,-13.51727294921875,13.85728645324707,-18.89499282836914
1776019093439018800,4.370018798828125,-13.716461181640625,13.60367202758789,-18.811105728149414
1776019093449079800,4.380079833984375,-13.322296142578125,13.843032836914062,-18.770061492919922
1776019093459139800,4.390139892578125,-13.557525634765625,14.006847381591797,-18.90446662902832
1776019093469201000,4.400200927734375,-13.39410400390625,13.990517616271973,-18.80416488647461
1776019093479260700,4.4102607421875,-13.40228271484375,13.796772003173828,-18.807785034179688
1776019093489321700,4.42032177734375,-13.5213623046875,13.993823051452637,-18.660818099975586
1776019093499381800,4.4303818359375,-13.77783203125,14.35710334777832,-18.73980712890625
1776019093509442800,4.44044287109375,-13.710693359375,14.079419136047363,-18.556915283203125
1776019093519502800,4.4505029296875,-13.708343505859375,14.099536895751953,-18.639719009399414
1776019093529564000,4.46056396484375,-14.030609130859375,14.157965660095215,-18.700889587402344
1776019093539623700,4.470623779296875,-13.69287109375,13.999673843383789,-18.70058250427246
1776019093549684700,4.480684814453125,-13.487091064453125,14.066143035888672,-18.78864288330078
1776019093559745800,4.490745849609375,-13.483795166015625,14.184473037719727,-18.592002868652344
1776019093569805800,4.500805908203125,-13.80926513671875,14.215203285217285,-18.484130859375
1776019093579867000,4.510866943359375,-13.85321044921875,14.075798034667969,-18.48113441467285
1776019093589926700,4.5209267578125,-13.917388916015625,14.165094375610352,-18.480030059814453
1776019093599987700,4.53098779296875,-13.5234375,14.04531478881836,-18.417888641357422
1776019093610047700,4.5410478515625,-13.489990234375,13.917314529418945,-18.50864028930664
1776019093620108800,4.55110888671875,-13.476348876953125,13.95510196685791,-18.612857818603516
1776019093630168600,4.56116845703125,-13.630279541015625,13.973694801330566,-18.477807998657227
1776019093640229600,4.571229736328125,-13.855377197265625,14.075396537780762,-18.6639461517334
1776019093650289700,4.58128955078125,-13.859222412109375,14.036935806274414,-18.557167053222656
1776019093660350700,4.591350830078125,-13.75921630859375,14.019559860229492,-18.52816390991211
1776019093670411800,4.601411865234375,-14.141937255859375,13.96015453338623,-18.462020874023438
1776019093680471800,4.611471923828125,-13.992584228515625,14.100786209106445,-18.629825592041016
1776019093690532600,4.62153271484375,-13.92205810546875,13.948952674865723,-18.322784423828125
1776019093700592600,4.631592529296875,-14.094146728515625,13.913663864135742,-18.377729415893555
1776019093710653700,4.64165380859375,-13.934356689453125,13.840787887573242,-18.37769317626953
1776019093720713700,4.651713623046875,-13.8143310546875,13.955994606018066,-18.53266716003418
1776019093730774800,4.66177490234375,-14.052886962890625,13.875715255737305,-18.805648803710938
1776019093740834800,4.671834716796875,-14.256500244140625,13.990976333618164,-18.6317195892334
1776019093750895600,4.6818955078125,-13.560546875,13.869526863098145,-18.602115631103516
1776019093760956000,4.691955810546875,-13.9664306640625,13.717647552490234,-18.52790069580078
1776019093771017000,4.702016845703125,-14.10784912109375,13.582977294921875,-18.319448471069336
1776019093781077800,4.712077880859375,-14.26934814453125,13.676362037658691,-18.445266723632812
1776019093791137800,4.7221376953125,-13.96270751953125,13.917646408081055,-18.495431900024414
1776019093801198800,4.73219873046875,-14.116058349609375,13.792898178100586,-18.467496871948242
1776019093811259000,4.7422587890625,-14.071533203125,13.737798690795898,-18.419998168945312
1776019093821320000,4.75231982421875,-14.370635986328125,13.693604469299316,-18.589431762695312
1776019093831380000,4.7623798828125,-14.02490234375,13.929300308227539,-18.515230178833008
1776019093841440800,4.772440673828125,-13.794525146484375,13.765497207641602,-18.452762603759766
1776019093851500800,4.782500732421875,-14.28900146484375,13.611103057861328,-18.27035903930664
1776019093861561900,4.792561767578125,-14.085601806640625,13.792915344238281,-18.292030334472656
1776019093871622000,4.802621826171875,-13.997589111328125,13.716571807861328,-18.34283447265625
1776019093881683000,4.812682861328125,-14.351318359375,13.504742622375488,-17.98601722717285
1776019093891744000,4.822743896484375,-14.694793701171875,13.726882934570312,-18.13427734375
1776019093901803800,4.8328037109375,-15.144989013671875,13.692244529724121,-17.982080459594727
1776019093911864800,4.84286474609375,-14.96759033203125,13.75338363647461,-18.077070236206055
1776019093921924900,4.8529248046875,-15.145751953125,13.92090129852295,-18.13776969909668
1776019093931986000,4.86298583984375,-15.02703857421875,13.70887565612793,-18.175033569335938
1776019093942045700,4.873045654296875,-15.02667236328125,13.613851547241211,-18.120349884033203
1776019093952106800,4.883106689453125,-15.182281494140625,13.621847152709961,-18.18279266357422
1776019093962166800,4.893166748046875,-14.781402587890625,13.521904945373535,-18.166362762451172
1776019093972227800,4.903227783203125,-14.973968505859375,13.523828506469727,-18.068105697631836
1776019093982288000,4.913287841796875,-14.94561767578125,13.520217895507812,-17.99224090576172
1776019093992348700,4.9233486328125,-14.5595703125,13.33527660369873,-17.954668045043945
1776019094002409700,4.93340966796875,-14.624755859375,13.240974426269531,-18.264827728271484
1776019094012469800,4.9434697265625,-14.60284423828125,13.247625350952148,-18.18328285217285
1776019094022530800,4.95353076171875,-14.962249755859375,13.402746200561523,-18.141910552978516
1776019094032590800,4.9635908203125,-14.6104736328125,13.358530044555664,-18.125537872314453
1776019094042652000,4.97365185546875,-15.079925537109375,13.364895820617676,-18.0228214263916
1776019094052711700,4.983711669921875,-15.08172607421875,13.335455894470215,-17.766895294189453
1776019094062772700,4.993772705078125,-14.73626708984375,13.245283126831055,-17.65987777709961
1776019094072832800,5.003832763671875,-15.096771240234375,13.053226470947266,-17.817655563354492
1776019094082893800,5.013893798828125,-15.208709716796875,13.346774101257324,-17.77927017211914
1776019094092953600,5.02395361328125,-15.192108154296875,13.43227481842041,-17.62009620666504
1776019094103014700,5.0340146484375,-14.8223876953125,13.192191123962402,-17.637943267822266
1776019094113074700,5.04407470703125,-15.012420654296875,12.84032917022705,-17.713823318481445
1776019094123135700,5.0541357421875,-15.053314208984375,12.762006759643555,-17.4511775970459
1776019094133196800,5.06419677734375,-15.0909423828125,13.023651123046875,-17.5184326171875
1776019094143256800,5.0742568359375,-15.475128173828125,12.97374153137207,-17.69873809814453
1776019094153317600,5.084317626953125,-15.524322509765625,13.136582374572754,-17.653108596801758
1776019094163377700,5.094377685546875,-15.61578369140625,13.1564359664917,-17.587574005126953
1776019094173438700,5.104438720703125,-15.98968505859375,12.943897247314453,-17.616865158081055
1776019094183498800,5.114498779296875,-15.7581787109375,12.935171127319336,-17.520483016967773
1776019094193559800,5.124559814453125,-16.466064453125,12.707894325256348,-17.23256492614746
1776019094203619800,5.134619873046875,-15.74420166015625,12.89417839050293,-17.131004333496094
1776019094213680600,5.1446806640625,-15.9671630859375,12.782747268676758,-17.160118103027344
1776019094223741700,5.15474169921875,-15.9652099609375,12.753762245178223,-16.913908004760742
1776019094233801700,5.1648017578125,-16.459320068359375,12.792713165283203,-16.818269729614258
1776019094243862800,5.17486279296875,-16.6800537109375,12.877973556518555,-16.935096740722656
1776019094253922800,5.1849228515625,-16.80712890625,12.627909660339355,-16.935510635375977
1776019094263983600,5.194983642578125,-16.894683837890625,12.298531532287598,-16.85485076904297
1776019094274044000,5.2050439453125,-16.576904296875,12.334589958190918,-16.937397003173828
1776019094284104700,5.215104736328125,-16.717071533203125,12.207114219665527,-16.94280242919922
1776019094294165000,5.2251650390625,-16.57757568359375,12.36699390411377,-16.761083602905273
1776019094304225800,5.235225830078125,-16.72845458984375,12.32257080078125,-16.84050941467285
1776019094314285800,5.245285888671875,-16.7276611328125,12.410530090332031,-16.831819534301758
1776019094324347000,5.255346923828125,-16.542755126953125,12.118672370910645,-16.654232025146484
1776019094334407700,5.26540771484375,-16.541290283203125,12.246438980102539,-16.815797805786133
1776019094344468000,5.275468017578125,-16.826812744140625,12.438551902770996,-16.61149787902832
1776019094354529000,5.285529052734375,-17.025909423828125,12.386012077331543,-16.51644515991211
1776019094364588800,5.2955888671875,-16.849822998046875,12.180858612060547,-16.401168823242188
1776019094374649900,5.30564990234375,-16.777374267578125,12.137380599975586,-16.48720359802246
1776019094384710000,5.3157099609375,-16.81756591796875,11.931760787963867,-16.68817901611328
1776019094394771000,5.32577099609375,-17.312774658203125,12.24654483795166,-16.4548282623291
1776019094404830700,5.335830810546875,-16.700592041015625,11.973844528198242,-16.507431030273438
1776019094414891800,5.345891845703125,-16.859100341796875,12.19607162475586,-16.400711059570312
1776019094424951800,5.355951904296875,-17.06591796875,12.077601432800293,-16.599397659301758
1776019094435012400,5.366012451171875,-16.44671630859375,12.064830780029297,-16.76395034790039
1776019094445073400,5.376073486328125,-17.09954833984375,12.147050857543945,-16.639543533325195
1776019094455133400,5.386133544921875,-17.365142822265625,12.015116691589355,-16.827728271484375
1776019094465194500,5.396194580078125,-17.476593017578125,12.096999168395996,-16.32188606262207
1776019094475254500,5.406254638671875,-17.656494140625,12.052122116088867,-16.312589645385742
1776019094485315600,5.416315673828125,-17.40838623046875,11.921631813049316,-16.057981491088867
1776019094495375400,5.426375244140625,-17.310211181640625,12.011762619018555,-16.06005096435547
1776019094505436400,5.4364365234375,-17.374969482421875,12.044990539550781,-15.843685150146484
1776019094515496400,5.446496337890625,-17.7120361328125,12.088340759277344,-15.645252227783203
1776019094525557500,5.4565576171875,-17.5289306640625,12.059329986572266,-15.689409255981445
1776019094535618600,5.46661865234375,-17.883270263671875,12.138914108276367,-15.452579498291016
1776019094545678300,5.47667822265625,-17.834930419921875,11.855829238891602,-15.423076629638672
1776019094555739400,5.486739501953125,-18.197723388671875,11.97099494934082,-15.431970596313477
1776019094565799400,5.49679931640625,-18.303863525390625,12.036170959472656,-15.231060028076172
1776019094575860500,5.506860595703125,-18.333587646484375,12.249669075012207,-15.043050765991211
1776019094585920300,5.516920166015625,-18.48895263671875,12.086163520812988,-14.789583206176758
1776019094595981300,5.526981201171875,-18.554046630859375,12.028571128845215,-14.913681030273438
1776019094606041300,5.537041259765625,-18.688232421875,11.96055793762207,-14.967643737792969
1776019094616102400,5.547102294921875,-18.48883056640625,11.996282577514648,-14.898502349853516
1776019094626162400,5.557162353515625,-18.49822998046875,12.117509841918945,-14.470357894897461
1776019094636223500,5.567223388671875,-18.723419189453125,12.112222671508789,-14.635639190673828
1776019094646284300,5.5772841796875,-18.53948974609375,11.997846603393555,-14.841943740844727
1776019094656344300,5.58734423828125,-18.042449951171875,11.74968147277832,-14.836746215820312
1776019094666405400,5.5974052734375,-17.93316650390625,11.745584487915039,-14.849971771240234
1776019094676465400,5.60746533203125,-17.990814208984375,11.50782585144043,-15.202795028686523
1776019094686526500,5.6175263671875,-17.744171142578125,11.340799331665039,-15.53526496887207
1776019094696586500,5.62758642578125,-17.975830078125,11.276506423950195,-15.610305786132812
1776019094706647300,5.637647216796875,-17.908599853515625,11.378665924072266,-15.809223175048828
1776019094716707600,5.64770751953125,-17.9271240234375,11.243237495422363,-15.779436111450195
1776019094726768400,5.657768310546875,-17.855560302734375,11.392797470092773,-15.632608413696289
1776019094736828700,5.66782861328125,-17.9947509765625,11.407014846801758,-15.470832824707031
1776019094746889500,5.677889404296875,-17.92572021484375,11.47280216217041,-15.375743865966797
1776019094756950300,5.6879501953125,-18.26983642578125,11.248306274414062,-15.598590850830078
1776019094767010600,5.698010498046875,-18.10400390625,11.134002685546875,-15.634103775024414
1776019094777071400,5.7080712890625,-17.816375732421875,11.3292875289917,-15.76053237915039
1776019094787131600,5.718131591796875,-17.87249755859375,11.355918884277344,-15.859838485717773
1776019094797192400,5.7281923828125,-17.470184326171875,10.992769241333008,-15.642568588256836
1776019094807252500,5.73825244140625,-17.972442626953125,10.685163497924805,-15.850715637207031
1776019094817313500,5.7483134765625,-17.775482177734375,10.719439506530762,-15.83945083618164
1776019094827373600,5.75837353515625,-17.948150634765625,11.020345687866211,-15.776992797851562
1776019094837434600,5.7684345703125,-18.248748779296875,11.090780258178711,-15.694189071655273
1776019094847495700,5.77849560546875,-18.21734619140625,11.07675838470459,-15.643659591674805
1776019094857555500,5.788555419921875,-18.4158935546875,11.232358932495117,-15.549123764038086
1776019094867616500,5.798616455078125,-18.560272216796875,11.329532623291016,-15.53575325012207
1776019094877676500,5.808676513671875,-18.27081298828125,11.333795547485352,-15.29034423828125
1776019094887737600,5.818737548828125,-18.291351318359375,11.546812057495117,-15.28752326965332
1776019094897797400,5.82879736328125,-18.282745361328125,11.47774600982666,-14.891134262084961
1776019094907858400,5.8388583984375,-18.427520751953125,11.41667366027832,-14.801776885986328
1776019094917918500,5.84891845703125,-18.59442138671875,11.535283088684082,-14.844036102294922
1776019094927979500,5.8589794921875,-18.361114501953125,11.297571182250977,-14.9312744140625
1776019094938040600,5.86904052734375,-18.574859619140625,11.511842727661133,-14.948440551757812
1776019094948100600,5.8791005859375,-18.596527099609375,11.619449615478516,-14.745353698730469
1776019094958161400,5.889161376953125,-18.817108154296875,11.680203437805176,-14.772687911987305
1776019094968221400,5.899221435546875,-18.72283935546875,11.695464134216309,-14.425752639770508
1776019094978282500,5.909282470703125,-18.260894775390625,11.931154251098633,-14.45088005065918
1776019094988342500,5.919342529296875,-18.571929931640625,11.576184272766113,-14.491811752319336
1776019094998403600,5.929403564453125,-18.72760009765625,11.523918151855469,-14.373559951782227
1776019095008463400,5.93946337890625,-18.4703369140625,11.5552396774292,-14.487598419189453
1776019095018524400,5.9495244140625,-18.70562744140625,11.621320724487305,-14.552988052368164
1776019095028584400,5.95958447265625,-18.8529052734375,11.917831420898438,-14.363485336303711
1776019095038645500,5.9696455078125,-19.10888671875,11.991992950439453,-14.352973937988281
1776019095048706600,5.97970654296875,-18.806304931640625,12.022552490234375,-14.442975997924805
1776019095058766300,5.989766357421875,-18.375701904296875,11.928215026855469,-14.462118148803711
1776019095068827400,5.999827392578125,-18.809906005859375,11.842342376708984,-14.30894660949707
1776019095078887400,6.009887451171875,-19.351715087890625,11.73837947845459,-14.400154113769531
1776019095088948500,6.019948486328125,-19.292449951171875,11.683825492858887,-14.255374908447266
1776019095099008500,6.030008544921875,-19.4276123046875,11.919017791748047,-14.337520599365234
1776019095109069300,6.0400693359375,-19.204498291015625,11.760147094726562,-14.165689468383789
1776019095119129300,6.05012939453125,-19.511993408203125,11.480619430541992,-14.09353256225586
1776019095129190400,6.0601904296875,-19.4935302734375,11.306038856506348,-14.104019165039062
1776019095139250400,6.07025048828125,-19.949462890625,11.168784141540527,-14.121915817260742
1776019095149311500,6.0803115234375,-20.096405029296875,11.095694541931152,-13.988256454467773
1776019095159372500,6.09037255859375,-19.95220947265625,10.688248634338379,-13.854984283447266
1776019095169432300,6.100432373046875,-19.870697021484375,10.543652534484863,-14.06808853149414
1776019095179493400,6.110493408203125,-19.846221923828125,10.554852485656738,-14.198122024536133
1776019095189553400,6.120553466796875,-20.09527587890625,10.482358932495117,-14.155717849731445
1776019095199614500,6.130614501953125,-19.81903076171875,10.301883697509766,-14.275175094604492
1776019095209674200,6.14067431640625,-19.935394287109375,10.195219039916992,-14.395257949829102
1776019095219735300,6.1507353515625,-19.81494140625,10.297107696533203,-14.324947357177734
1776019095229795300,6.16079541015625,-19.989105224609375,10.63344669342041,-14.4161376953125
1776019095239856400,6.1708564453125,-19.811676025390625,10.457865715026855,-14.157281875610352
1776019095249917400,6.18091748046875,-19.70416259765625,10.39650821685791,-14.192594528198242
1776019095259977200,6.190977294921875,-20.0885009765625,10.543625831604004,-14.239179611206055
1776019095270038300,6.201038330078125,-20.0091552734375,10.95849609375,-14.117473602294922
1776019095280098600,6.2110986328125,-19.99395751953125,10.840394020080566,-14.257598876953125
1776019095290159400,6.221159423828125,-20.14508056640625,10.933242797851562,-14.341592788696289
1776019095300219600,6.2312197265625,-19.80560302734375,11.056013107299805,-14.190120697021484
1776019095310280400,6.241280517578125,-19.614105224609375,11.144868850708008,-14.407302856445312
1776019095320340500,6.251340576171875,-19.6446533203125,11.37302017211914,-14.761608123779297
1776019095330401500,6.261401611328125,-19.604827880859375,11.308534622192383,-14.860406875610352
1776019095340462300,6.27146240234375,-19.237152099609375,11.457294464111328,-14.986780166625977
1776019095350522600,6.281522705078125,-19.228179931640625,11.627568244934082,-15.001789093017578
1776019095360583400,6.29158349609375,-18.952239990234375,11.944596290588379,-15.216934204101562
1776019095370643500,6.3016435546875,-18.569732666015625,12.262532234191895,-15.338172912597656
1776019095380704500,6.31170458984375,-18.2379150390625,12.131491661071777,-15.438512802124023
1776019095390764500,6.3217646484375,-18.316131591796875,12.359945297241211,-15.583446502685547
1776019095400825600,6.33182568359375,-18.24981689453125,12.37131404876709,-15.629159927368164
1776019095410885400,6.341885498046875,-18.03936767578125,12.413846969604492,-15.835329055786133
1776019095420946400,6.351946533203125,-17.789093017578125,12.58161449432373,-15.873157501220703
1776019095431007500,6.362007568359375,-17.573272705078125,12.485664367675781,-16.046419143676758
1776019095441068000,6.372068115234375,-17.414459228515625,12.387260437011719,-16.097095489501953
1776019095451128800,6.38212890625,-17.51812744140625,12.142155647277832,-16.03775978088379
1776019095461189000,6.392189208984375,-17.332427978515625,12.358613967895508,-16.143436431884766
1776019095471250200,6.402250244140625,-17.63616943359375,12.436615943908691,-16.028362274169922
1776019095481310200,6.412310302734375,-18.00408935546875,12.472417831420898,-15.937789916992188
1776019095491371000,6.42237109375,-17.834747314453125,12.674346923828125,-15.777778625488281
1776019095501431000,6.43243115234375,-17.707183837890625,12.656661033630371,-15.81673812866211
1776019095511492000,6.4424921875,-17.57464599609375,12.686613082885742,-15.774982452392578
1776019095521553200,6.45255322265625,-17.85528564453125,12.653973579406738,-15.755741119384766
1776019095531613200,6.46261328125,-17.40032958984375,12.4202299118042,-15.745014190673828
1776019095541674200,6.47267431640625,-17.67205810546875,12.472797393798828,-15.929235458374023
1776019095551734000,6.482734130859375,-17.81048583984375,12.489853858947754,-15.895965576171875
1776019095561795000,6.492795166015625,-18.1392822265625,12.439538955688477,-16.138721466064453
1776019095571855000,6.502855224609375,-17.9564208984375,12.300798416137695,-16.149770736694336
1776019095581916200,6.512916259765625,-17.84100341796875,12.147359848022461,-16.092758178710938
1776019095591976000,6.522975830078125,-17.80218505859375,12.38754940032959,-16.110719680786133
1776019095602037000,6.533037109375,-17.77008056640625,12.151266098022461,-15.824462890625
1776019095612097000,6.543096923828125,-17.66876220703125,12.307609558105469,-15.77393913269043
1776019095622158000,6.553157958984375,-18.136138916015625,12.512681007385254,-15.738130569458008
1776019095632219100,6.56321923828125,-18.172882080078125,12.620004653930664,-15.747228622436523
1776019095642279200,6.573279052734375,-17.852813720703125,12.454029083251953,-15.63321304321289
1776019095652340000,6.583340087890625,-17.99884033203125,12.52695369720459,-15.547622680664062
1776019095662400000,6.59339990234375,-17.98748779296875,12.537120819091797,-15.396976470947266
1776019095672461000,6.6034609375,-18.067718505859375,12.624853134155273,-15.423734664916992
1776019095682521000,6.61352099609375,-17.790496826171875,12.80955696105957,-15.392227172851562
1776019095692582100,6.62358203125,-17.905181884765625,12.719212532043457,-15.329477310180664
1776019095702642000,6.633641845703125,-18.1602783203125,12.779277801513672,-15.310306549072266
1776019095712703000,6.643702880859375,-18.046905517578125,12.647621154785156,-15.365859985351562
1776019095722764000,6.653763916015625,-17.6627197265625,12.686070442199707,-15.463640213012695
1776019095732824000,6.663823974609375,-17.792022705078125,12.938323020935059,-15.515266418457031
1776019095742885000,6.673885009765625,-17.767852783203125,12.880270004272461,-15.243207931518555
1776019095752945000,6.68394482421875,-17.57244873046875,12.758889198303223,-15.272207260131836
1776019095763006000,6.694005859375,-18.04388427734375,12.780462265014648,-15.509925842285156
1776019095773066000,6.70406591796875,-17.8818359375,12.787125587463379,-15.388364791870117
1776019095783127000,6.714126953125,-18.1927490234375,12.759854316711426,-15.312320709228516
1776019095793187000,6.72418701171875,-18.374664306640625,12.88878345489502,-15.28598403930664
1776019095803247900,6.734247802734375,-17.93743896484375,12.897073745727539,-15.32735824584961
1776019095813309000,6.744308837890625,-18.03558349609375,13.026168823242188,-15.443534851074219
1776019095823369000,6.754368896484375,-18.145599365234375,12.946349143981934,-15.437170028686523
1776019095833430000,6.764429931640625,-17.936920166015625,13.242782592773438,-15.41033935546875
1776019095843490000,6.774489990234375,-17.815155029296875,12.752008438110352,-15.391437530517578
1776019095853551000,6.784551025390625,-18.00250244140625,12.96306037902832,-15.64792251586914
1776019095863611000,6.79461083984375,-17.85028076171875,12.850982666015625,-15.734935760498047
1776019095873672000,6.804671875,-17.956817626953125,12.795559883117676,-15.800243377685547
1776019095883732000,6.81473193359375,-18.0146484375,12.879416465759277,-15.841285705566406
1776019095893793000,6.82479296875,-17.904754638671875,12.932439804077148,-15.776411056518555
1776019095903854000,6.83485400390625,-17.8841552734375,12.727431297302246,-15.769355773925781
1776019095913913900,6.844913818359375,-17.847198486328125,12.808710098266602,-15.904582977294922
1776019095923975000,6.854974853515625,-18.15283203125,12.942094802856445,-15.721332550048828
1776019095934035000,6.865034912109375,-17.90740966796875,12.854283332824707,-15.745689392089844
1776019095944096000,6.875095947265625,-18.00103759765625,12.835589408874512,-15.675216674804688
1776019095954156000,6.885156005859375,-17.755523681640625,12.821176528930664,-16.00751495361328
1776019095964216800,6.895216796875,-17.54534912109375,12.890036582946777,-15.973926544189453
1776019095974277000,6.905277099609375,-17.7684326171875,12.944150924682617,-16.122560501098633
1776019095984338000,6.915337890625,-17.84417724609375,12.904666900634766,-16.207719802856445
1776019095994399000,6.92539892578125,-16.732177734375,13.105582237243652,-16.307376861572266
1776019096004459300,6.935459228515625,-16.982269287109375,12.858983039855957,-16.344276428222656
1776019096014519800,6.945519775390625,-17.321868896484375,13.162616729736328,-16.2820987701416
1776019096024580000,6.955580078125,-17.43939208984375,13.32146167755127,-16.210859298706055
1776019096034641200,6.96564111328125,-17.555145263671875,13.416720390319824,-16.526731491088867
1776019096044701200,6.975701171875,-17.072601318359375,13.258129119873047,-16.761661529541016
1776019096054762200,6.98576220703125,-16.907135009765625,13.275802612304688,-16.815567016601562
1776019096064822000,6.995822021484375,-16.325958251953125,13.312870979309082,-17.01420021057129
1776019096074883000,7.005883056640625,-15.925140380859375,13.296993255615234,-17.321680068969727
1776019096084944100,7.015944091796875,-15.896331787109375,13.354008674621582,-17.286420822143555
1776019096095004200,7.026004150390625,-15.76898193359375,13.266402244567871,-17.54324722290039
1776019096105065200,7.036065185546875,-16.01397705078125,13.216962814331055,-17.666284561157227
1776019096115125000,7.046125,-15.526641845703125,13.34811782836914,-17.648130416870117
1776019096125186000,7.05618603515625,-15.589813232421875,13.311161994934082,-17.641368865966797
1776019096135246000,7.06624609375,-15.191986083984375,13.376903533935547,-18.040607452392578
1776019096145307100,7.07630712890625,-14.84326171875,13.518834114074707,-18.170795440673828
1776019096155367200,7.0863671875,-14.723175048828125,13.407190322875977,-18.06951904296875
1776019096165428000,7.096427978515625,-14.619354248046875,13.420510292053223,-18.224214553833008
1776019096175489000,7.106489013671875,-14.649017333984375,13.556285858154297,-18.241727828979492
1776019096185549000,7.116549072265625,-14.4713134765625,13.765066146850586,-18.55777359008789
1776019096195610000,7.126610107421875,-13.957305908203125,13.559883117675781,-18.90662956237793
1776019096205670100,7.136670166015625,-13.50689697265625,13.499761581420898,-18.984237670898438
1776019096215731200,7.146731201171875,-13.352508544921875,13.619667053222656,-19.373289108276367
1776019096225791000,7.156791015625,-13.5516357421875,13.959540367126465,-19.309242248535156
1776019096235852000,7.16685205078125,-13.494384765625,14.031469345092773,-19.149551391601562
1776019096245913000,7.1769130859375,-13.415496826171875,13.950531959533691,-19.301191329956055
1776019096255973000,7.18697314453125,-12.971405029296875,13.867568016052246,-19.38951873779297
1776019096266034200,7.1970341796875,-12.81158447265625,13.875785827636719,-19.53117561340332
1776019096276094000,7.207093994140625,-12.5989990234375,13.758955955505371,-19.701175689697266
1776019096286155000,7.217155029296875,-12.42645263671875,13.872109413146973,-19.655899047851562
1776019096296215000,7.227215087890625,-12.686614990234375,13.808253288269043,-19.71988296508789
1776019096306276000,7.237276123046875,-12.53857421875,14.060283660888672,-19.830673217773438
1776019096316335900,7.2473359375,-12.504547119140625,14.068350791931152,-20.154829025268555
1776019096326397000,7.25739697265625,-12.340972900390625,14.017115592956543,-20.15129852294922
1776019096336458000,7.2674580078125,-12.28466796875,13.858049392700195,-20.194843292236328
1776019096346518000,7.27751806640625,-12.465057373046875,13.938627243041992,-20.090389251708984
1776019096356579000,7.2875791015625,-12.47406005859375,13.885421752929688,-20.077123641967773
1776019096366639000,7.29763916015625,-12.538299560546875,13.808243751525879,-20.027576446533203
1776019096376700000,7.307699951171875,-12.88714599609375,14.082276344299316,-19.99762725830078
1776019096386760000,7.317760009765625,-12.391693115234375,14.07552719116211,-19.857322692871094
1776019096396821000,7.327821044921875,-12.516754150390625,14.326562881469727,-19.72017478942871
1776019096406881000,7.337881103515625,-12.534423828125,14.278556823730469,-19.74708366394043
1776019096416942000,7.347942138671875,-13.240203857421875,14.37716007232666,-19.83065414428711
1776019096427003100,7.358003173828125,-12.893585205078125,14.444830894470215,-19.62645721435547
1776019096437062400,7.3680625,-13.30792236328125,14.287142753601074,-19.59954833984375
1776019096447123500,7.37812353515625,-13.2603759765625,14.265558242797852,-19.55746078491211
1776019096457183500,7.38818359375,-13.321563720703125,14.25396728515625,-19.418933868408203
1776019096467244300,7.398244384765625,-13.42950439453125,14.457014083862305,-19.45663070678711
1776019096477304600,7.4083046875,-13.319366455078125,14.328248023986816,-19.582565307617188
1776019096487365400,7.418365478515625,-13.273162841796875,14.190311431884766,-19.715919494628906
1776019096497425700,7.42842578125,-13.014373779296875,14.372461318969727,-19.611093521118164
1776019096507486500,7.438486572265625,-13.393707275390625,14.370880126953125,-19.657527923583984
1776019096517547300,7.44854736328125,-13.29705810546875,14.228708267211914,-19.595478057861328
1776019096527607600,7.458607666015625,-13.05706787109375,14.47385025024414,-19.34518814086914
1776019096537668400,7.46866845703125,-13.202362060546875,14.492501258850098,-19.37408447265625
1776019096547728600,7.478728759765625,-13.1431884765625,14.569417953491211,-19.58291244506836
1776019096557789400,7.48878955078125,-12.885833740234375,14.604103088378906,-19.572256088256836
1776019096567849500,7.498849365234375,-12.81304931640625,14.58113956451416,-19.586143493652344
1776019096577910500,7.50891064453125,-12.5853271484375,14.370681762695312,-19.785785675048828
1776019096587970600,7.518970458984375,-12.4302978515625,14.486902236938477,-19.807064056396484
1776019096598031600,7.529031494140625,-12.484649658203125,14.293461799621582,-19.891475677490234
1776019096608092700,7.5390927734375,-12.816650390625,14.430354118347168,-20.08240509033203
1776019096618152400,7.54915234375,-12.795745849609375,14.386069297790527,-20.096561431884766
1776019096628213500,7.559213623046875,-12.39990234375,14.569734573364258,-19.833511352539062
1776019096638273500,7.5692734375,-12.5037841796875,14.496987342834473,-20.051759719848633
1776019096648334600,7.57933447265625,-12.53094482421875,14.84134578704834,-19.98940086364746
1776019096658394400,7.589394287109375,-12.779571533203125,14.616393089294434,-19.955158233642578
1776019096668455400,7.599455322265625,-12.4896240234375,14.51778793334961,-20.25977325439453
1776019096678516500,7.6095166015625,-12.43328857421875,14.630539894104004,-20.08447265625
1776019096688576500,7.619576416015625,-12.36474609375,14.601696968078613,-19.93206787109375
1776019096698637600,7.629637451171875,-12.49249267578125,14.787202835083008,-20.016029357910156
1776019096708697600,7.639697509765625,-12.892242431640625,14.812906265258789,-19.946035385131836
1776019096718758400,7.64975830078125,-12.743988037109375,15.054424285888672,-20.217702865600586
1776019096728818400,7.659818359375,-12.412200927734375,14.648862838745117,-20.370746612548828
1776019096738879500,7.66987939453125,-12.909942626953125,14.606574058532715,-20.20685577392578
1776019096748939500,7.679939453125,-12.52398681640625,14.694823265075684,-20.017179489135742
1776019096759000600,7.69000048828125,-12.6678466796875,14.424737930297852,-20.06411361694336
1776019096769061600,7.7000615234375,-12.822540283203125,14.433385848999023,-20.14250946044922
1776019096779121400,7.710121337890625,-12.6212158203125,14.312528610229492,-19.869478225708008
1776019096789182500,7.720182373046875,-12.634613037109375,14.337831497192383,-19.904970169067383
1776019096799242500,7.730242431640625,-12.444122314453125,14.390639305114746,-19.835187911987305
1776019096809303600,7.740303466796875,-12.039398193359375,14.328034400939941,-19.95684242248535
1776019096819363300,7.75036328125,-12.210845947265625,14.291179656982422,-19.9296817779541
1776019096829424400,7.76042431640625,-12.011749267578125,14.431821823120117,-19.943389892578125
1776019096839484400,7.770484375,-12.023529052734375,14.548273086547852,-19.853687286376953
1776019096849545500,7.78054541015625,-12.195068359375,14.407054901123047,-19.904033660888672
1776019096859606500,7.7906064453125,-12.595672607421875,14.289424896240234,-19.952716827392578
1776019096869666300,7.800666259765625,-12.59033203125,14.081454277038574,-20.117605209350586
1776019096879727400,7.810727294921875,-12.775848388671875,13.987736701965332,-20.025104522705078
1776019096889787400,7.820787353515625,-12.781036376953125,13.825366973876953,-20.17071533203125
1776019096899848400,7.830848388671875,-12.654296875,14.025288581848145,-20.261913299560547
1776019096909908500,7.840908447265625,-12.64483642578125,13.853083610534668,-20.50687599182129
1776019096919969500,7.850969482421875,-12.26824951171875,13.929889678955078,-20.551837921142578
1776019096930030300,7.8610302734375,-12.128875732421875,13.80261516571045,-20.37411880493164
1776019096940090400,7.87109033203125,-11.80426025390625,13.773836135864258,-20.535776138305664
1776019096950151400,7.8811513671875,-11.86614990234375,13.7741060256958,-20.41626739501953
1776019096960211500,7.89121142578125,-11.8543701171875,13.632525444030762,-20.416736602783203
1776019096970272500,7.9012724609375,-11.5892333984375,13.667954444885254,-20.547218322753906
1776019096980332300,7.911332275390625,-11.77935791015625,13.579717636108398,-20.525920867919922
1776019096990393300,7.921393310546875,-11.518218994140625,13.770140647888184,-20.618322372436523
1776019097000453400,7.931453369140625,-11.24920654296875,13.854825973510742,-20.495704650878906
1776019097010514400,7.941514404296875,-11.54595947265625,13.613363265991211,-20.572694778442383
1776019097020575500,7.951575439453125,-11.6597900390625,13.92414665222168,-20.43484115600586
1776019097030635300,7.96163525390625,-11.541015625,14.073781967163086,-20.49390411376953
1776019097040696300,7.9716962890625,-11.371917724609375,13.991556167602539,-20.40736198425293
1776019097050756400,7.98175634765625,-11.03857421875,13.791850090026855,-20.482166290283203
1776019097060817400,7.9918173828125,-11.207061767578125,13.82453441619873,-20.63190460205078
1776019097070877400,8.00187744140625,-10.939453125,13.870131492614746,-20.57836151123047
1776019097080938200,8.011938232421874,-11.21270751953125,13.876199722290039,-20.45663833618164
1776019097090998500,8.02199853515625,-11.1220703125,14.036306381225586,-20.603580474853516
1776019097101059300,8.032059326171876,-11.403717041015625,13.986469268798828,-20.638286590576172
1776019097111120400,8.042120361328125,-11.103363037109375,13.971902847290039,-20.743896484375
1776019097121180400,8.052180419921875,-10.8424072265625,14.02002239227295,-20.581668853759766
1776019097131241500,8.062241455078125,-11.0283203125,13.999736785888672,-20.594072341918945
1776019097141301500,8.072301513671874,-11.11749267578125,13.88594913482666,-20.542694091796875
1776019097151362300,8.0823623046875,-11.10015869140625,14.03935432434082,-20.657426834106445
1776019097161422600,8.092422607421875,-11.110107421875,13.993350982666016,-20.725730895996094
1776019097171483400,8.1024833984375,-11.353302001953125,13.667525291442871,-20.626361846923828
1776019097181544400,8.11254443359375,-11.306427001953125,13.70268440246582,-20.405109405517578
1776019097191604500,8.1226044921875,-11.2198486328125,13.730396270751953,-20.474504470825195
1776019097201665300,8.132665283203124,-11.3489990234375,13.816093444824219,-20.404438018798828
1776019097211725600,8.1427255859375,-11.105560302734375,13.908555030822754,-20.574064254760742
1776019097221786600,8.15278662109375,-11.651092529296875,13.866122245788574,-20.54273223876953
1776019097231846400,8.162846435546875,-11.37017822265625,13.644075393676758,-20.596111297607422
1776019097241907500,8.172907470703125,-11.20599365234375,13.61416244506836,-20.568077087402344
1776019097251968300,8.18296826171875,-11.5545654296875,13.533133506774902,-20.556079864501953
1776019097262028500,8.193028564453124,-11.7012939453125,13.449586868286133,-20.4058895111084
1776019097272089600,8.203089599609376,-11.981597900390625,13.487112998962402,-20.372303009033203
1776019097282149600,8.213149658203125,-12.005615234375,13.337655067443848,-20.363277435302734
1776019097292210400,8.22321044921875,-12.07415771484375,13.443990707397461,-20.241844177246094
1776019097302270500,8.2332705078125,-11.80120849609375,13.2464599609375,-20.235206604003906
1776019097312331500,8.24333154296875,-11.881317138671875,13.36010456085205,-20.35446548461914
1776019097322391600,8.2533916015625,-11.849761962890625,13.080327987670898,-20.08135986328125
1776019097332452600,8.26345263671875,-12.16009521484375,13.104216575622559,-20.27492904663086
1776019097342513700,8.273513671875,-12.3629150390625,12.959632873535156,-20.237407684326172
1776019097352573400,8.283573486328125,-12.2568359375,12.828436851501465,-20.272064208984375
1776019097362634500,8.293634521484375,-12.2562255859375,12.977433204650879,-20.201038360595703
1776019097372694500,8.303694580078124,-12.295989990234375,12.986305236816406,-20.37781524658203
1776019097382755600,8.313755615234374,-12.541900634765625,12.985740661621094,-20.304121017456055
1776019097392815400,8.3238154296875,-12.48590087890625,12.842362403869629,-20.159992218017578
1776019097402876400,8.33387646484375,-12.69342041015625,13.064882278442383,-20.281261444091797
1776019097412937500,8.3439375,-12.83123779296875,12.91353988647461,-20.19200897216797
1776019097422997500,8.35399755859375,-13.126220703125,13.15280818939209,-19.953887939453125
1776019097433058600,8.36405859375,-13.074798583984375,13.015925407409668,-20.153154373168945
1776019097443118600,8.37411865234375,-13.464385986328125,12.708205223083496,-20.078994750976562
1776019097453179600,8.3841796875,-13.362884521484375,12.803893089294434,-19.947933197021484
1776019097463239700,8.39423974609375,-13.484283447265625,12.343280792236328,-19.91135025024414
1776019097473300700,8.40430078125,-13.10382080078125,12.44113826751709,-19.808950424194336
1776019097483360800,8.41436083984375,-13.57647705078125,12.342243194580078,-20.004150390625
1776019097493421600,8.424421630859374,-13.757781982421875,12.283881187438965,-19.791522979736328
1776019097503482600,8.434482666015626,-13.904510498046875,12.274540901184082,-19.82010269165039
1776019097513542700,8.444542724609375,-13.8173828125,12.418681144714355,-19.942975997924805
1776019097523603700,8.454603759765625,-13.649505615234375,12.418082237243652,-20.06093978881836
1776019097533663700,8.464663818359375,-13.918701171875,12.690975189208984,-20.072856903076172
1776019097543724800,8.474724853515625,-14.135223388671875,12.575582504272461,-19.93118667602539
1776019097553784600,8.48478466796875,-14.27630615234375,12.787848472595215,-19.768245697021484
1776019097563845600,8.494845703125,-14.593475341796875,12.433661460876465,-19.804866790771484
1776019097573906700,8.50490673828125,-14.281829833984375,12.2373628616333,-19.735700607299805
1776019097583966700,8.514966796875,-14.283599853515625,12.222124099731445,-19.555221557617188
1776019097594027800,8.52502783203125,-14.605712890625,12.030555725097656,-19.616891860961914
1776019097604087600,8.535087646484374,-14.5494384765625,12.183830261230469,-19.478988647460938
1776019097614148600,8.545148681640624,-14.56280517578125,12.267417907714844,-19.411087036132812
1776019097624208600,8.555208740234375,-14.735809326171875,11.983976364135742,-19.4761962890625
1776019097634269700,8.565269775390625,-14.329132080078125,12.05018138885498,-19.335559844970703
1776019097644329500,8.57532958984375,-14.057647705078125,11.955738067626953,-19.21063995361328
1776019097654390500,8.585390625,-14.26995849609375,11.830188751220703,-19.021018981933594
1776019097664451600,8.59545166015625,-14.427978515625,12.142414093017578,-18.969375610351562
1776019097674511600,8.60551171875,-14.60589599609375,11.740984916687012,-19.024276733398438
1776019097684572700,8.61557275390625,-14.985382080078125,11.719956398010254,-19.03571128845215
1776019097694632700,8.6256328125,-15.05560302734375,11.938273429870605,-18.95343780517578
1776019097704693500,8.635693603515625,-15.001861572265625,11.520454406738281,-18.891021728515625
1776019097714753500,8.64575341796875,-14.990142822265625,11.369129180908203,-18.963825225830078
1776019097724814600,8.655814697265624,-15.14642333984375,11.391534805297852,-18.791606903076172
1776019097734875600,8.665875732421876,-15.2633056640625,11.158294677734375,-18.779979705810547
1776019097744935700,8.675935791015625,-15.170257568359375,11.314326286315918,-18.741443634033203
1776019097754996700,8.685996826171875,-15.493743896484375,11.350011825561523,-18.651432037353516
1776019097765056500,8.696056396484375,-15.58685302734375,11.47134780883789,-18.71868896484375
1776019097775117600,8.70611767578125,-15.3358154296875,11.131233215332031,-18.635425567626953
1776019097785177600,8.716177490234376,-15.418701171875,11.080357551574707,-18.406204223632812
1776019097795238700,8.72623876953125,-15.14227294921875,10.95694637298584,-18.25417137145996
1776019097805299700,8.7362998046875,-16.0274658203125,10.964984893798828,-17.838754653930664
1776019097815359500,8.746359375,-16.299530029296875,10.86252212524414,-17.800580978393555
1776019097825420500,8.756420654296875,-16.149658203125,10.85721206665039,-17.64090919494629
1776019097835480600,8.76648046875,-16.671173095703125,10.73947811126709,-17.127561569213867
1776019097845541600,8.776541748046874,-16.87261962890625,10.876270294189453,-16.76775550842285
1776019097855601700,8.7866015625,-17.252593994140625,10.939643859863281,-16.3370418548584
1776019097865662500,8.796662353515625,-17.33428955078125,10.653770446777344,-16.05783462524414
1776019097875722800,8.80672265625,-17.803802490234375,10.412900924682617,-15.573484420776367
1776019097885783600,8.816783447265625,-18.406158447265625,10.432538032531738,-15.353927612304688
1776019097895844600,8.8268447265625,-18.520477294921875,10.535792350769043,-14.950946807861328
1776019097905905000,8.83690478515625,-18.510101318359375,10.471771240234375,-14.854583740234375
1776019097915965400,8.84696533203125,-18.198577880859375,10.31432819366455,-14.746116638183594
1776019097926025700,8.857025634765625,-17.983917236328125,10.214162826538086,-14.824602127075195
1776019097936086500,8.86708642578125,-18.09088134765625,9.992398262023926,-14.855585098266602
1776019097946146800,8.877146728515624,-18.29241943359375,10.086122512817383,-15.210702896118164
1776019097956207900,8.887207763671874,-18.282806396484375,9.822738647460938,-14.973037719726562
1776019097966268700,8.8972685546875,-18.167022705078125,9.805620193481445,-15.174640655517578
1776019097976328700,8.90732861328125,-18.04876708984375,9.759551048278809,-15.161314010620117
1776019097986389800,8.9173896484375,-18.134063720703125,9.737936019897461,-15.0723876953125
1776019097996449800,8.92744970703125,-17.988037109375,10.021734237670898,-15.022659301757812
1776019098006510800,8.9375107421875,-18.09661865234375,10.468378067016602,-14.965705871582031
1776019098016570600,8.947570556640626,-18.4068603515625,10.347517967224121,-14.822870254516602
1776019098026631700,8.957631591796876,-18.18353271484375,10.088239669799805,-14.804824829101562
1776019098036691700,8.967691650390625,-18.1319580078125,10.212091445922852,-15.026500701904297
1776019098046752800,8.977752685546875,-18.132171630859375,10.329964637756348,-15.05474853515625
1776019098056813800,8.987813720703125,-17.763702392578125,10.342684745788574,-15.21757698059082
1776019098066873600,8.99787353515625,-17.57794189453125,10.391289710998535,-15.190084457397461
1776019098076934700,9.0079345703125,-17.916168212890625,10.66208553314209,-15.32856559753418
1776019098086994700,9.01799462890625,-17.4188232421875,10.832674026489258,-15.470632553100586
1776019098097055700,9.0280556640625,-17.2806396484375,10.785676956176758,-15.741338729858398
1776019098107115800,9.03811572265625,-17.106231689453125,11.125161170959473,-15.915624618530273
1776019098117176800,9.0481767578125,-16.797454833984375,11.075878143310547,-15.98023796081543
1776019098127237600,9.058237548828124,-16.643463134765625,11.040172576904297,-15.828611373901367
1776019098137297700,9.068297607421876,-16.460479736328125,11.617956161499023,-15.715047836303711
1776019098147358700,9.078358642578126,-15.99017333984375,11.5081787109375,-15.719022750854492
1776019098157418800,9.088418701171875,-16.52362060546875,11.580953598022461,-15.776710510253906
1776019098167479800,9.098479736328125,-16.6507568359375,11.575947761535645,-15.539167404174805
1776019098177539600,9.10853955078125,-16.77850341796875,11.557275772094727,-15.397134780883789
1776019098187600600,9.1186005859375,-16.921905517578125,11.607677459716797,-15.470478057861328
1776019098197661700,9.12866162109375,-16.461761474609375,11.696588516235352,-15.658267974853516
1776019098207721700,9.1387216796875,-16.848175048828125,11.987741470336914,-15.74160385131836
1776019098217782800,9.14878271484375,-16.736053466796875,11.92902660369873,-15.867244720458984
1776019098227842600,9.158842529296875,-16.69171142578125,11.647046089172363,-15.765220642089844
1776019098237903600,9.168903564453124,-16.75506591796875,11.101202964782715,-15.866050720214844
1776019098247963600,9.178963623046876,-17.161407470703125,10.941113471984863,-15.807802200317383
1776019098258024700,9.189024658203126,-16.947357177734375,10.678485870361328,-15.81568717956543
1776019098268085800,9.199085693359375,-16.629119873046875,10.31095027923584,-15.851509094238281
1776019098278145500,9.2091455078125,-17.156646728515625,10.042213439941406,-15.868165969848633
1776019098288206600,9.21920654296875,-17.042266845703125,9.923832893371582,-15.758159637451172
1776019098298266600,9.2292666015625,-17.434112548828125,9.793075561523438,-15.882041931152344
1776019098308327700,9.23932763671875,-17.851470947265625,9.527149200439453,-15.984870910644531
1776019098318387700,9.2493876953125,-17.635589599609375,9.142213821411133,-16.198671340942383
1776019098328448800,9.25944873046875,-18.006561279296875,8.769298553466797,-15.975486755371094
1776019098338509600,9.269509521484375,-18.130645751953125,8.6722993850708,-15.811931610107422
1776019098348569600,9.279569580078125,-18.401519775390625,8.757553100585938,-15.767261505126953
1776019098358630700,9.289630615234374,-18.6124267578125,8.751951217651367,-15.848642349243164
1776019098368690700,9.299690673828126,-18.09844970703125,8.653772354125977,-15.965299606323242
1776019098378751700,9.309751708984376,-17.802978515625,8.771055221557617,-15.605438232421875
1776019098388811500,9.3198115234375,-18.424957275390625,8.905256271362305,-15.820772171020508
1776019098398872600,9.32987255859375,-18.3338623046875,9.006697654724121,-15.79464340209961
1776019098408932600,9.3399326171875,-18.5594482421875,9.05589485168457,-15.810993194580078
1776019098418993700,9.34999365234375,-18.514617919921875,9.199239730834961,-15.954137802124023
1776019098429054700,9.3600546875,-18.773468017578125,9.058537483215332,-15.697330474853516
1776019098439115000,9.370114990234375,-18.7513427734375,9.008373260498047,-15.645591735839844
1776019098449176000,9.380176025390625,-18.8507080078125,9.077810287475586,-15.723030090332031
1776019098459236000,9.390236083984375,-18.875244140625,9.337201118469238,-15.52978515625
1776019098469297200,9.400297119140625,-18.830291748046875,9.433632850646973,-15.459392547607422
1776019098479357200,9.410357177734374,-18.736480712890625,9.44058895111084,-15.459083557128906
1776019098489418200,9.420418212890626,-18.69854736328125,9.818439483642578,-15.57891845703125
1776019098499479000,9.43047900390625,-18.8116455078125,10.142377853393555,-15.752248764038086
1776019098509539000,9.4405390625,-18.48175048828125,10.399765014648438,-15.39071273803711
1776019098519600000,9.45060009765625,-18.59857177734375,10.380168914794922,-15.72677993774414
1776019098529660200,9.46066015625,-18.498870849609375,10.424488067626953,-15.787006378173828
1776019098539721200,9.47072119140625,-18.308624267578125,10.551895141601562,-15.99917221069336
1776019098549781000,9.480781005859376,-18.95001220703125,10.575973510742188,-15.6524658203125
1776019098559842000,9.490842041015625,-18.745880126953125,10.675962448120117,-15.608097076416016
1776019098569903000,9.500903076171875,-18.290283203125,10.669553756713867,-15.734550476074219
1776019098579963100,9.510963134765625,-18.249267578125,10.841873168945312,-15.629091262817383
1776019098590024200,9.521024169921875,-18.77874755859375,10.724414825439453,-15.554397583007812
1776019098600084000,9.531083984375,-18.730682373046875,11.085030555725098,-15.23297119140625
1776019098610145000,9.54114501953125,-18.88238525390625,11.034306526184082,-15.15766716003418
1776019098620205000,9.551205078125,-18.911956787109375,11.025164604187012,-15.11441421508789
1776019098630266000,9.56126611328125,-19.194549560546875,11.321922302246094,-14.787647247314453
1776019098640327200,9.5713271484375,-18.891815185546875,11.18074893951416,-14.617328643798828
1776019098650387000,9.581386962890624,-19.089385986328125,11.243082046508789,-14.574605941772461
1776019098660448000,9.591447998046876,-19.079833984375,11.116044044494629,-14.399984359741211
1776019098670508000,9.601508056640625,-19.17889404296875,11.265950202941895,-14.581464767456055
1776019098680569000,9.611569091796875,-19.06890869140625,11.390135765075684,-14.758878707885742
1776019098690629000,9.621629150390625,-19.160003662109375,11.6043062210083,-14.890663146972656
1776019098700690200,9.631690185546875,-18.855499267578125,11.663405418395996,-14.917886734008789
1776019098710751000,9.6417509765625,-18.724761962890625,11.69621753692627,-14.709848403930664
1776019098720811000,9.65181103515625,-19.14434814453125,11.501405715942383,-14.61972427368164
1776019098730872000,9.6618720703125,-18.881500244140625,11.703075408935547,-14.354839324951172
1776019098740932400,9.671932373046875,-19.36614990234375,11.828871726989746,-14.437307357788086
1776019098750993200,9.6819931640625,-19.73431396484375,11.808894157409668,-14.408544540405273
1776019098761053200,9.69205322265625,-19.600494384765625,11.758867263793945,-14.334579467773438
1776019098771114000,9.702114013671874,-19.003448486328125,11.719566345214844,-14.762971878051758
1776019098781174300,9.71217431640625,-19.018218994140625,11.949471473693848,-14.618633270263672
1776019098791235300,9.7222353515625,-18.277313232421875,11.96195125579834,-14.831602096557617
1776019098801296100,9.732296142578125,-18.108123779296875,11.860447883605957,-14.90492057800293
1776019098811356200,9.742356201171875,-18.069793701171875,12.25938892364502,-14.859527587890625
1776019098821417200,9.752417236328125,-18.701446533203125,12.223196983337402,-14.845888137817383
1776019098831477200,9.762477294921876,-18.24658203125,12.204338073730469,-14.776891708374023
1776019098841538300,9.772538330078126,-17.99822998046875,12.250275611877441,-14.713165283203125
1776019098851598300,9.782598388671875,-17.996063232421875,12.260905265808105,-14.942657470703125
1776019098861659100,9.7926591796875,-17.8272705078125,12.343890190124512,-14.811616897583008
1776019098871720200,9.80272021484375,-18.013153076171875,12.635855674743652,-15.05180549621582
1776019098881780200,9.8127802734375,-18.04852294921875,12.358953475952148,-14.847801208496094
1776019098891841300,9.82284130859375,-17.855438232421875,12.390472412109375,-14.926822662353516
1776019098901901300,9.8329013671875,-18.017608642578125,12.615220069885254,-14.830327987670898
1776019098911962400,9.84296240234375,-17.915283203125,12.786620140075684,-15.058855056762695
1776019098922022100,9.853022216796875,-18.13037109375,12.636075973510742,-14.814167022705078
1776019098932083200,9.863083251953125,-17.9166259765625,12.443517684936523,-14.979612350463867
1776019098942144300,9.873144287109374,-17.90570068359375,12.382796287536621,-14.912288665771484
1776019098952204300,9.883204345703126,-17.981689453125,12.475210189819336,-14.737716674804688
1776019098962265300,9.893265380859376,-17.986663818359375,12.419609069824219,-14.75960922241211
1776019098972325000,9.9033251953125,-18.494598388671875,12.302811622619629,-14.701534271240234
1776019098982386200,9.91338623046875,-18.31878662109375,12.40571403503418,-14.892637252807617
1776019098992446200,9.9234462890625,-17.988677978515625,12.61070442199707,-14.66622543334961
1776019099002507300,9.93350732421875,-18.225433349609375,13.03602123260498,-14.973638534545898
1776019099012568300,9.943568359375,-18.077178955078125,12.796405792236328,-15.135055541992188
1776019099022628000,9.953628173828125,-17.579559326171875,12.72057819366455,-15.210063934326172
1776019099032689200,9.963689208984375,-17.74383544921875,12.812905311584473,-15.386005401611328
1776019099042749200,9.973749267578125,-17.41619873046875,12.80611801147461,-15.491762161254883
1776019099052810200,9.983810302734375,-17.26226806640625,12.792539596557617,-15.457828521728516
1776019099062870300,9.993870361328124,-17.4498291015625,12.91411018371582,-15.766414642333984
1776019099072931000,10.00393115234375,-17.332550048828125,12.918102264404297,-15.751052856445312
1776019099082992000,10.0139921875,-17.249664306640625,12.869242668151855,-15.837196350097656
1776019099093052200,10.02405224609375,-16.82879638671875,12.815210342407227,-15.765783309936523
1776019099103113200,10.03411328125,-16.481231689453125,12.780357360839844,-16.095632553100586
1776019099113173200,10.04417333984375,-16.518341064453125,13.22894287109375,-16.204421997070312
1776019099123234300,10.054234375,-16.096649169921875,13.102522850036621,-16.213903427124023
1776019099133294000,10.064294189453125,-15.72308349609375,12.9517822265625,-16.328248977661133
1776019099143355100,10.074355224609375,-15.94610595703125,13.21876335144043,-16.48960304260254
1776019099153416200,10.084416259765625,-16.256744384765625,13.149064064025879,-16.631389617919922
1776019099163476200,10.094476318359375,-16.325592041015625,13.463311195373535,-16.311002731323242
1776019099173537300,10.104537353515624,-16.40380859375,13.40632152557373,-16.543716430664062
1776019099183597000,10.11459716796875,-16.253814697265625,13.083395004272461,-16.57537841796875
1776019099193658000,10.124658203125,-16.348724365234375,13.177637100219727,-16.613481521606445
1776019099203718100,10.13471826171875,-16.41925048828125,13.274922370910645,-16.63524055480957
1776019099213779200,10.144779296875,-16.217559814453125,13.19051456451416,-16.652841567993164
1776019099223840300,10.15484033203125,-16.435028076171875,13.396163940429688,-16.567684173583984
1776019099233900000,10.164900146484374,-15.9556884765625,13.198330879211426,-16.453401565551758
1776019099243961000,10.174961181640626,-16.08343505859375,13.298626899719238,-16.267724990844727
1776019099254021000,10.185021240234375,-16.309112548828125,13.624960899353027,-16.242856979370117
1776019099264082200,10.195082275390625,-16.32647705078125,13.553214073181152,-16.23810386657715
1776019099274142200,10.20514208984375,-16.351715087890625,13.417237281799316,-16.362918853759766
1776019099284203000,10.215203125,-16.383697509765625,13.131028175354004,-16.273759841918945
1776019099294264000,10.22526416015625,-16.206024169921875,13.33061408996582,-16.30441665649414
1776019099304324000,10.235323974609376,-16.595306396484375,13.183048248291016,-16.455923080444336
1776019099314385200,10.24538525390625,-16.8145751953125,13.476945877075195,-16.28369140625
1776019099324445200,10.255445068359375,-16.69610595703125,13.336213111877441,-16.312362670898438
1776019099334506200,10.26550634765625,-16.394073486328125,13.082686424255371,-16.417587280273438
1776019099344566000,10.27556591796875,-16.51055908203125,13.255081176757812,-16.207372665405273
1776019099354627000,10.285626953125,-16.509979248046875,13.370046615600586,-16.24530792236328
1776019099364688100,10.295688232421876,-16.29229736328125,13.405942916870117,-16.270599365234375
1776019099374748200,10.305748046875,-16.179412841796875,13.269492149353027,-16.137014389038086
1776019099384809200,10.315809326171875,-15.856658935546875,13.432548522949219,-16.29572296142578
1776019099394869000,10.325868896484375,-15.495941162109375,13.57042121887207,-16.25389289855957
1776019099404930000,10.335929931640624,-16.41436767578125,13.557209014892578,-16.248111724853516
1776019099414990000,10.345989990234376,-16.05877685546875,13.428733825683594,-16.185894012451172
1776019099425051100,10.356051025390625,-16.16827392578125,13.35496711730957,-16.437253952026367
1776019099435111200,10.366111083984375,-16.53289794921875,13.26862907409668,-16.47198486328125
1776019099445171200,10.376171142578125,-16.22540283203125,13.002408981323242,-16.427682876586914
1776019099455232300,10.386232177734374,-16.185546875,13.46306324005127,-16.582382202148438
1776019099465292000,10.3962919921875,-15.8553466796875,13.27723503112793,-16.53525161743164
1776019099475353000,10.40635302734375,-16.098236083984375,13.244529724121094,-16.629175186157227
1776019099485413000,10.4164130859375,-15.860015869140625,13.183873176574707,-16.747655868530273
1776019099495474200,10.42647412109375,-15.741302490234375,13.204673767089844,-16.683046340942383
1776019099505534000,10.436533935546874,-16.021636962890625,13.349128723144531,-16.840425491333008
1776019099515595000,10.446594970703124,-15.541168212890625,13.454460144042969,-16.690204620361328
1776019099525656000,10.456656005859376,-15.52484130859375,13.625833511352539,-16.825347900390625
1776019099535716000,10.466716064453125,-15.374420166015625,13.430057525634766,-16.9019718170166
1776019099545777200,10.476777099609375,-15.63153076171875,13.630634307861328,-16.95887565612793
1776019099555837000,10.4868369140625,-15.38409423828125,13.548224449157715,-16.937301635742188
1776019099565898000,10.49689794921875,-15.276031494140625,13.421439170837402,-17.059675216674805
1776019099575958000,10.5069580078125,-15.904327392578125,13.120162010192871,-16.921463012695312
1776019099586019000,10.51701904296875,-15.548614501953125,13.311473846435547,-16.761484146118164
1776019099596080000,10.527080078125,-15.54876708984375,13.188691139221191,-17.05129051208496
1776019099606140200,10.53714013671875,-15.613861083984375,13.35116195678711,-16.994922637939453
1776019099616201000,10.547200927734375,-15.771148681640625,12.936071395874023,-16.644161224365234
1776019099626261000,10.557260986328124,-15.6624755859375,12.893438339233398,-16.966398239135742
1776019099636322000,10.567322021484374,-15.606109619140625,13.138506889343262,-16.716548919677734
1776019099646382000,10.577382080078126,-15.644073486328125,12.608345985412598,-16.790077209472656
1776019099656443100,10.587443115234375,-15.651580810546875,12.65313720703125,-16.767709732055664
1776019099666504200,10.597504150390625,-15.700408935546875,12.6979341506958,-17.009891510009766
1776019099676564000,10.60756396484375,-15.79736328125,13.067898750305176,-16.88238525390625
1776019099686625000,10.617625,-15.6636962890625,12.880579948425293,-16.75275230407715
1776019099696685000,10.62768505859375,-15.631988525390625,12.889314651489258,-16.763954162597656
1776019099706746000,10.63774609375,-15.434967041015625,12.828782081604004,-16.904748916625977
1776019099716806000,10.647805908203125,-15.248626708984375,13.077751159667969,-16.889225006103516
1776019099726867000,10.657866943359375,-15.382659912109375,13.133994102478027,-17.03505516052246
1776019099736928000,10.667927978515625,-15.269317626953125,13.181275367736816,-16.973894119262695
1776019099746988000,10.677988037109374,-15.259521484375,12.975211143493652,-17.00186538696289
1776019099757049000,10.688049072265626,-15.505828857421875,12.969877243041992,-17.205537796020508
1776019099767108900,10.69810888671875,-15.266754150390625,12.877833366394043,-17.191492080688477
1776019099777170000,10.708169921875,-15.561065673828125,12.842150688171387,-17.18990707397461
1776019099787230000,10.71822998046875,-15.213470458984375,12.740922927856445,-17.392559051513672
1776019099797291000,10.728291015625,-15.008575439453125,12.697976112365723,-17.206504821777344
1776019099807352000,10.73835205078125,-15.322967529296875,12.484341621398926,-17.050636291503906
1776019099817412000,10.748412109375,-15.3880615234375,12.746631622314453,-17.283180236816406
1776019099827473000,10.758472900390625,-15.506011962890625,12.66701602935791,-17.185667037963867
1776019099837533000,10.768532958984375,-15.322174072265625,12.952122688293457,-17.293283462524414
1776019099847594000,10.778593994140625,-15.284271240234375,12.860389709472656,-17.115264892578125
1776019099857655000,10.788655029296875,-15.5421142578125,12.741277694702148,-17.03127098083496
1776019099867715000,10.798715087890624,-15.328125,12.696646690368652,-17.1041259765625
1776019099877776100,10.808776123046876,-15.5072021484375,12.690909385681152,-17.214305877685547
1776019099887836000,10.8188359375,-15.203155517578125,12.827079772949219,-17.241899490356445
1776019099897897000,10.82889697265625,-14.796173095703125,13.116782188415527,-17.399137496948242
1776019099907957000,10.83895703125,-14.605712890625,12.840851783752441,-17.37054443359375
1776019099918018000,10.84901806640625,-15.2144775390625,12.722541809082031,-17.49025535583496
1776019099928079000,10.8590791015625,-14.85137939453125,12.74061107635498,-17.23754119873047
1776019099938139000,10.869138916015626,-14.98651123046875,12.691664695739746,-17.400232315063477
1776019099948200000,10.879199951171875,-14.93646240234375,12.662823677062988,-17.426822662353516
1776019099958260000,10.889260009765625,-14.894378662109375,12.744573593139648,-17.363426208496094
1776019099968321000,10.899321044921875,-15.00592041015625,12.515539169311523,-17.29886817932129
1776019099978380800,10.909380859375,-14.953094482421875,12.57503604888916,-17.37737464904785
1776019099988441900,10.91944189453125,-14.891937255859375,12.808030128479004,-17.47870635986328
1776019099998503000,10.9295029296875,-14.387603759765625,12.538216590881348,-17.306779861450195
1776019100008563000,10.93956298828125,-14.386962890625,12.711237907409668,-17.619199752807617
1776019100018624000,10.9496240234375,-15.015594482421875,12.523702621459961,-17.608497619628906
1776019100028684000,10.95968408203125,-14.942169189453125,12.674970626831055,-17.71178436279297
1776019100038744800,10.969744873046874,-14.748931884765625,12.555472373962402,-17.859642028808594
1776019100048805000,10.97980517578125,-14.878631591796875,12.604914665222168,-17.586261749267578
1776019100058866000,10.989865966796875,-14.89892578125,12.561535835266113,-17.36768341064453
1776019100068927000,10.999927001953125,-15.1962890625,12.487525939941406,-17.547983169555664
1776019100078987000,11.009987060546875,-15.17730712890625,12.739710807800293,-17.56219482421875
1776019100089048000,11.020048095703125,-14.699310302734375,12.629427909851074,-17.525249481201172
1776019100099108000,11.030108154296874,-14.931549072265625,12.810323715209961,-17.688692092895508
1776019100109169000,11.0401689453125,-14.92034912109375,12.76813793182373,-17.64313316345215
1776019100119229200,11.050229248046875,-15.559326171875,12.605960845947266,-17.631967544555664
1776019100129290000,11.0602900390625,-15.606292724609375,12.458939552307129,-17.570388793945312
1776019100139351000,11.07035107421875,-15.662689208984375,12.4589262008667,-17.474868774414062
1776019100149411000,11.0804111328125,-15.336883544921875,12.63642692565918,-17.359743118286133
1776019100159471900,11.090471923828124,-15.327484130859375,12.8491792678833,-17.388051986694336
1776019100169532200,11.1005322265625,-15.26300048828125,12.375676155090332,-17.631589889526367
1776019100179593000,11.110593017578125,-14.97308349609375,12.58199405670166,-17.710256576538086
1776019100189653000,11.120653076171875,-15.22747802734375,12.370979309082031,-17.53143310546875
1776019100199714000,11.130714111328125,-15.456207275390625,12.446161270141602,-17.493003845214844
1776019100209774800,11.14077490234375,-15.422943115234375,12.619269371032715,-17.568204879760742
1776019100219835100,11.150835205078126,-14.960205078125,12.469135284423828,-17.392026901245117
1776019100229896200,11.160896240234376,-14.839752197265625,12.405479431152344,-17.402393341064453
1776019100239956200,11.170956298828125,-15.264068603515625,12.446035385131836,-17.377376556396484
1776019100250017000,11.18101708984375,-15.25750732421875,12.358242988586426,-17.292152404785156
1776019100260077000,11.1910771484375,-15.082489013671875,12.311129570007324,-17.473848342895508
1776019100270138000,11.20113818359375,-14.42962646484375,12.279501914978027,-17.480173110961914
1776019100280199200,11.21119921875,-15.066192626953125,12.37889575958252,-17.311214447021484
1776019100290259200,11.22125927734375,-15.47369384765625,12.484993934631348,-17.509292602539062
1776019100300320300,11.2313203125,-15.122344970703125,12.386687278747559,-17.312984466552734
1776019100310380000,11.241380126953125,-14.94903564453125,12.504556655883789,-17.55628776550293
1776019100320441000,11.251441162109375,-14.596588134765625,12.459628105163574,-17.60150909423828
1776019100330501000,11.261501220703124,-14.94305419921875,12.218369483947754,-17.85421371459961
1776019100340562200,11.271562255859376,-14.896697998046875,12.276876449584961,-17.729473114013672
1776019100350623200,11.281623291015626,-15.039031982421875,12.363499641418457,-17.544214248657227
1776019100360683000,11.29168310546875,-15.33294677734375,12.237174034118652,-17.60558319091797
1776019100370744000,11.301744140625,-15.172607421875,12.279106140136719,-17.654956817626953
1776019100380804000,11.31180419921875,-15.6068115234375,12.281118392944336,-17.54380226135254
1776019100390865200,11.321865234375,-15.76141357421875,12.294734954833984,-17.505517959594727
1776019100400925000,11.331925048828126,-15.784698486328125,12.322527885437012,-17.56282615661621
1776019100410986000,11.341986083984375,-15.84661865234375,12.435111045837402,-17.388216018676758
1776019100421047000,11.352047119140625,-15.44512939453125,12.371092796325684,-17.363998413085938
1776019100431107000,11.362107177734375,-15.448150634765625,12.178784370422363,-17.50444984436035
1776019100441168400,11.37216845703125,-15.967498779296875,12.067867279052734,-17.413888931274414
1776019100451228400,11.382228515625,-15.695709228515625,12.068708419799805,-17.417490005493164
1776019100461289500,11.39228955078125,-15.636474609375,12.394364356994629,-17.267436981201172
1776019100471349200,11.402349365234375,-15.988922119140625,12.06686019897461,-17.438608169555664
1776019100481410300,11.412410400390625,-15.86474609375,12.057331085205078,-17.389244079589844
1776019100491471400,11.422471435546875,-16.233306884765625,12.04383373260498,-17.235252380371094
1776019100501531400,11.432531494140624,-16.431732177734375,12.076364517211914,-17.18451499938965
1776019100511592400,11.442592529296874,-16.645477294921875,12.23664665222168,-17.02633285522461
1776019100521652200,11.45265234375,-16.740753173828125,12.002214431762695,-16.917682647705078
1776019100531713300,11.46271337890625,-16.39666748046875,11.810253143310547,-16.75407600402832
1776019100541773300,11.472773193359375,-17.071136474609375,11.805232048034668,-16.596965789794922
1776019100551834400,11.48283447265625,-17.2425537109375,11.985183715820312,-16.495574951171875
1776019100561895400,11.4928955078125,-17.400390625,11.889022827148438,-16.484729766845703
1776019100571955500,11.50295556640625,-17.2216796875,11.802762985229492,-16.4461669921875
1776019100582016300,11.513016357421876,-17.570465087890625,11.576757431030273,-16.344205856323242
1776019100592076300,11.523076171875,-17.90020751953125,11.583574295043945,-16.197763442993164
1776019100602137300,11.533137451171875,-18.5606689453125,11.283534049987793,-15.963756561279297
1776019100612197400,11.543197265625,-18.7042236328125,11.225593566894531,-15.722368240356445
1776019100622258400,11.553258544921874,-19.062042236328125,10.89808464050293,-15.381509780883789
1776019100632319200,11.5633193359375,-19.30859375,10.817425727844238,-15.203348159790039
1776019100642379300,11.573379150390625,-19.234405517578125,10.797591209411621,-14.840400695800781
1776019100652440300,11.5834404296875,-19.329833984375,10.979494094848633,-14.655582427978516
1776019100662500400,11.593500244140625,-19.779876708984375,10.894891738891602,-14.390850067138672
1776019100672561400,11.6035615234375,-20.083984375,10.538301467895508,-14.167692184448242
1776019100682622500,11.61362255859375,-20.252349853515625,10.827582359313965,-13.884788513183594
1776019100692682200,11.62368212890625,-20.57684326171875,10.818624496459961,-13.901676177978516
1776019100702743300,11.633743408203125,-20.647216796875,10.754301071166992,-13.696371078491211
1776019100712803300,11.64380322265625,-20.58062744140625,10.724172592163086,-13.757862091064453
1776019100722864400,11.653864501953125,-20.375213623046875,10.860641479492188,-13.370525360107422
1776019100732924200,11.663924072265624,-20.451873779296875,10.90395450592041,-13.339345932006836
1776019100742985200,11.673985107421874,-20.244171142578125,11.144752502441406,-13.631645202636719
1776019100753046300,11.68404638671875,-20.50653076171875,11.097370147705078,-13.663990020751953
1776019100763106300,11.694106201171875,-20.572296142578125,11.1906099319458,-13.982641220092773
1776019100773167400,11.70416748046875,-19.866455078125,11.325017929077148,-14.316181182861328
1776019100783227400,11.714227294921875,-20.19390869140625,11.51833438873291,-14.650421142578125
1776019100793288200,11.7242880859375,-19.97833251953125,11.93758773803711,-14.773832321166992
1776019100803348200,11.73434814453125,-19.838958740234375,12.092704772949219,-15.06760025024414
1776019100813409300,11.7444091796875,-19.743499755859375,12.233163833618164,-15.329313278198242
1776019100823470300,11.75447021484375,-19.031890869140625,12.368982315063477,-15.293722152709961
1776019100833530400,11.7645302734375,-18.838623046875,12.49649429321289,-15.38161849975586
1776019100843591200,11.774591064453125,-18.73089599609375,12.67160415649414,-15.400074005126953
1776019100853651200,11.784651123046874,-18.84307861328125,12.738557815551758,-15.36654281616211
1776019100863712300,11.794712158203126,-18.71221923828125,13.043612480163574,-15.309350967407227
1776019100873772300,11.804772216796875,-18.45904541015625,13.197851181030273,-15.659795761108398
1776019100883833300,11.814833251953125,-18.256866455078125,13.250066757202148,-15.994951248168945
1776019100893894400,11.824894287109375,-18.451446533203125,13.305197715759277,-16.08124542236328
1776019100903954200,11.8349541015625,-18.513458251953125,13.184754371643066,-16.090829849243164
1776019100914015200,11.84501513671875,-18.497528076171875,13.217761993408203,-16.147581100463867
1776019100924075300,11.8550751953125,-18.1451416015625,13.111959457397461,-16.190181732177734
1776019100934136300,11.86513623046875,-17.84271240234375,13.104028701782227,-16.222381591796875
1776019100944196400,11.8751962890625,-17.881744384765625,13.311707496643066,-16.64929962158203
1776019100954257200,11.885257080078125,-17.67388916015625,13.349387168884277,-16.57326889038086
1776019100964318200,11.895318115234375,-17.8642578125,13.302845001220703,-16.529918670654297
1776019100974378200,11.905378173828124,-18.277435302734375,13.607494354248047,-16.623903274536133
1776019100984439300,11.915439208984376,-18.2392578125,13.722549438476562,-16.657724380493164
1776019100994499300,11.925499267578125,-18.48919677734375,13.708455085754395,-16.48539161682129
1776019101004560100,11.93556005859375,-18.83880615234375,13.908844947814941,-16.50061798095703
1776019101014620400,11.945620361328125,-19.2154541015625,13.870308876037598,-16.280147552490234
1776019101024681200,11.95568115234375,-19.265289306640625,13.836002349853516,-16.047361373901367
1776019101034742300,11.9657421875,-19.399169921875,13.906929969787598,-16.28554344177246
1776019101044802300,11.97580224609375,-19.483367919921875,14.273754119873047,-16.143123626708984
1776019101054863000,11.985863037109375,-19.702178955078125,14.292191505432129,-15.844350814819336
1776019101064923400,11.99592333984375,-19.827484130859375,14.609090805053711,-15.958871841430664
1776019101074984200,12.005984130859375,-20.061492919921875,14.733112335205078,-16.085987091064453
1776019101085045200,12.016045166015624,-19.79052734375,14.933110237121582,-15.953250885009766
1776019101095105500,12.02610546875,-19.6727294921875,14.846606254577637,-15.751733779907227
1776019101105166300,12.036166259765626,-19.4920654296875,14.787153244018555,-15.78219985961914
1776019101115226400,12.046226318359375,-19.52960205078125,14.93841552734375,-15.79694938659668
1776019101125287200,12.056287109375,-19.8155517578125,14.836600303649902,-15.850761413574219
1776019101135347500,12.066347412109375,-19.6192626953125,14.83716106414795,-16.01476287841797
1776019101145408500,12.076408447265624,-19.824737548828125,14.860397338867188,-15.901355743408203
1776019101155469300,12.08646923828125,-19.640716552734375,15.194424629211426,-15.780845642089844
1776019101165529300,12.096529296875,-20.375244140625,15.198070526123047,-15.954082489013672
1776019101175590400,12.10659033203125,-20.440673828125,15.065824508666992,-15.829103469848633
1776019101185650400,12.116650390625,-20.336700439453125,15.348471641540527,-15.930931091308594
1776019101195711500,12.12671142578125,-20.36236572265625,15.399246215820312,-15.933561325073242
1776019101205771300,12.136771240234374,-20.7705078125,15.5740966796875,-15.91179084777832
1776019101215832300,12.146832275390626,-20.656036376953125,15.33226203918457,-15.851812362670898
1776019101225893400,12.156893310546875,-20.5655517578125,15.510822296142578,-15.885063171386719
1776019101235953400,12.166953369140625,-20.88555908203125,15.51115608215332,-15.981473922729492
1776019101246014500,12.177014404296875,-20.8560791015625,15.190145492553711,-15.893257141113281
1776019101256074500,12.187074462890624,-21.23193359375,15.222156524658203,-15.868183135986328
1776019101266135300,12.19713525390625,-21.008056640625,15.264188766479492,-15.702547073364258
1776019101276195300,12.2071953125,-21.784393310546875,15.251089096069336,-15.562564849853516
1776019101286256400,12.21725634765625,-21.768157958984375,15.25096321105957,-15.760223388671875
1776019101296317400,12.2273173828125,-21.33154296875,15.363787651062012,-15.666679382324219
1776019101306377500,12.23737744140625,-21.77642822265625,15.326374053955078,-15.696239471435547
1776019101316438500,12.2474384765625,-21.60479736328125,15.528806686401367,-15.380218505859375
1776019101326498300,12.257498291015626,-21.675567626953125,15.569817543029785,-15.313220977783203
1776019101336559400,12.267559326171876,-21.903900146484375,15.548686981201172,-15.375434875488281
1776019101346619400,12.277619384765625,-21.9072265625,15.232495307922363,-15.385629653930664
1776019101356680400,12.287680419921875,-21.76434326171875,15.448981285095215,-15.368904113769531
1776019101366741500,12.297741455078125,-21.94610595703125,15.512712478637695,-15.562740325927734
1776019101376801300,12.30780126953125,-22.114654541015625,15.438371658325195,-15.552268981933594
1776019101386862300,12.3178623046875,-22.13946533203125,15.592676162719727,-15.350301742553711
1776019101396922400,12.32792236328125,-22.119354248046875,15.680027961730957,-15.252889633178711
1776019101406983400,12.3379833984375,-22.522125244140625,15.462608337402344,-15.234540939331055
1776019101417044500,12.34804443359375,-22.382080078125,15.499126434326172,-15.306276321411133
1776019101427104300,12.358104248046875,-22.56048583984375,15.55142593383789,-15.244638442993164
1776019101437165300,12.368165283203124,-22.699981689453125,15.655647277832031,-15.176738739013672
1776019101447225900,12.378225830078126,-22.807647705078125,15.520051956176758,-15.12989616394043
1776019101457286700,12.38828662109375,-22.9539794921875,15.19859504699707,-14.942344665527344
1776019101467346700,12.3983466796875,-23.29852294921875,15.3084716796875,-14.943382263183594
1776019101477407700,12.40840771484375,-23.128662109375,15.542257308959961,-14.889741897583008
1776019101487468800,12.41846875,-23.22943115234375,15.093746185302734,-14.596357345581055
1776019101497528800,12.42852880859375,-23.317962646484375,15.503347396850586,-14.357063293457031
1776019101507590000,12.43858984375,-23.720611572265625,15.3716402053833,-14.130655288696289
1776019101517649700,12.448649658203125,-23.775177001953125,15.296418190002441,-14.197896957397461
1776019101527710700,12.458710693359375,-23.664154052734375,15.214152336120605,-14.331783294677734
1776019101537770800,12.468770751953125,-23.82220458984375,15.268952369689941,-14.097097396850586
1776019101547831800,12.478831787109375,-24.153045654296875,15.217098236083984,-14.126791000366211
1776019101557892900,12.488892822265624,-23.9146728515625,15.204742431640625,-13.980146408081055
1776019101567952600,12.49895263671875,-23.759490966796875,15.000469207763672,-13.716936111450195
1776019101578013700,12.509013671875,-24.13031005859375,15.053117752075195,-13.774839401245117
1776019101588073700,12.51907373046875,-24.179779052734375,14.86815357208252,-13.818706512451172
1776019101598134800,12.529134765625,-24.200408935546875,14.979589462280273,-13.72513198852539
1776019101608194600,12.539194580078124,-24.02606201171875,15.108818054199219,-13.682584762573242
1776019101618255600,12.549255615234374,-24.241241455078125,15.167887687683105,-13.843732833862305
1776019101628316700,12.559316650390626,-23.61846923828125,14.961816787719727,-13.76870346069336
1776019101638376700,12.569376708984375,-23.839111328125,15.126999855041504,-13.63233757019043
1776019101648437800,12.579437744140625,-23.69622802734375,14.856782913208008,-13.723546981811523
1776019101658497800,12.589497802734375,-24.303802490234375,14.865086555480957,-13.82540512084961
1776019101668558600,12.59955859375,-23.99102783203125,14.95769214630127,-14.003246307373047
1776019101678618600,12.60961865234375,-24.27911376953125,14.799513816833496,-13.755844116210938
1776019101688679700,12.6196796875,-23.9193115234375,14.709739685058594,-13.660989761352539
1776019101698740700,12.62974072265625,-23.918243408203125,14.911209106445312,-13.670595169067383
1776019101708800800,12.63980078125,-23.817108154296875,15.116896629333496,-13.651857376098633
1776019101718861800,12.64986181640625,-23.748504638671875,15.117877960205078,-13.694150924682617
1776019101728921600,12.659921630859374,-23.891845703125,14.91239070892334,-13.329410552978516
1776019101738982700,12.669982666015626,-24.117950439453125,14.602108001708984,-13.269964218139648
1776019101749042700,12.680042724609375,-24.005828857421875,14.793880462646484,-12.999958038330078
1776019101759103700,12.690103759765625,-24.105560302734375,15.0545654296875,-12.603065490722656
1776019101769164800,12.700164794921875,-24.03326416015625,15.006904602050781,-12.588907241821289
1776019101779224600,12.710224609375,-24.619110107421875,14.662453651428223,-12.286510467529297
1776019101789285600,12.72028564453125,-24.49884033203125,14.723760604858398,-11.892265319824219
1776019101799345700,12.730345703125,-24.59967041015625,14.579073905944824,-11.307025909423828
1776019101809406700,12.74040673828125,-24.998321533203125,14.3466796875,-10.637702941894531
1776019101819467800,12.7504677734375,-25.048919677734375,14.283343315124512,-9.894575119018555
1776019101829527600,12.760527587890625,-25.461212158203125,14.274126052856445,-8.788061141967773
1776019101839588600,12.770588623046875,-25.65838623046875,14.266962051391602,-7.603414535522461
1776019101849648600,12.780648681640624,-26.063751220703125,14.236933708190918,-6.305122375488281
1776019101859709700,12.790709716796876,-26.418212890625,13.963358879089355,-5.212879180908203
1776019101869769700,12.800769775390625,-26.626220703125,13.4609956741333,-4.526834487915039
1776019101879830500,12.81083056640625,-26.847137451171875,12.947998046875,-4.130430221557617
1776019101889891600,12.8208916015625,-26.915008544921875,12.52100658416748,-4.4670867919921875
1776019101899951600,12.83095166015625,-26.545623779296875,12.221843719482422,-4.9178466796875
1776019101910012700,12.8410126953125,-26.2679443359375,12.278039932250977,-5.898567199707031
