time,seconds_elapsed,z,y,x
1776870091811924000,0.276924072265625,-0.951202392578125,-0.0500335693359375,0.567626953125
1776870091821960000,0.2869599609375,-1.0060882568359375,0.0852203369140625,0.7238616943359375
1776870091831997000,0.296996826171875,-0.8760833740234375,0.0091094970703125,0.515838623046875
1776870091842033000,0.307032958984375,-0.9673004150390625,0.100982666015625,0.4051513671875
1776870091852070000,0.31706982421875,-0.7889862060546875,0.182403564453125,0.5389556884765625
1776870091862105900,0.32710595703125,-0.8592529296875,-0.01019287109375,0.620391845703125
1776870091872141800,0.337141845703125,-0.71392822265625,-0.306304931640625,0.726348876953125
1776870091882178800,0.3471787109375,-0.4468536376953125,-0.3179473876953125,0.741729736328125
1776870091892214800,0.35721484375,-0.662628173828125,-0.20977783203125,0.70562744140625
1776870091902250800,0.367250732421875,-0.7899322509765625,-0.0952606201171875,0.6475372314453125
1776870091912288000,0.3772880859375,-0.7618560791015625,0.042449951171875,0.629669189453125
1776870091922324000,0.387323974609375,-0.748443603515625,0.1135711669921875,0.6542816162109375
1776870091932361000,0.39736083984375,-0.943450927734375,0.137115478515625,0.4293670654296875
1776870091942397000,0.40739697265625,-1.0972442626953125,0.021759033203125,0.036407470703125
1776870091952433000,0.417432861328125,-1.1071929931640625,0.2360992431640625,0.48895263671875
1776870091962470000,0.427469970703125,-0.7697296142578125,0.2043914794921875,0.87432861328125
1776870091972505900,0.437505859375,-0.622039794921875,0.1016387939453125,0.789764404296875
1776870091982542800,0.44754296875,-0.4548492431640625,0.068603515625,0.6798248291015625
1776870091992579000,0.4575791015625,-0.516815185546875,0.1361236572265625,0.928009033203125
1776870092002615000,0.467614990234375,-0.498809814453125,0.124359130859375,0.9647216796875
1776870092012652000,0.477652099609375,-0.5029449462890625,0.1159210205078125,0.89794921875
1776870092022688000,0.48768798828125,-0.5560760498046875,0.149932861328125,0.7464447021484375
1776870092032724700,0.497724853515625,-0.5533599853515625,0.1827850341796875,0.5406036376953125
1776870092042761000,0.507760986328125,-0.5770721435546875,0.2117767333984375,0.4314727783203125
1776870092052797000,0.517796875,-0.5951690673828125,0.226776123046875,0.4114227294921875
1776870092062833700,0.527833740234375,-0.5803985595703125,0.226409912109375,0.4856719970703125
1776870092072870000,0.537869873046875,-0.5491485595703125,0.21148681640625,0.6146087646484375
1776870092082907000,0.547906982421875,-0.510833740234375,0.1452484130859375,0.778045654296875
1776870092092942800,0.55794287109375,-0.60101318359375,0.2040557861328125,0.6543731689453125
1776870092102979000,0.56797900390625,-0.66485595703125,0.3836669921875,0.5328369140625
1776870092113015800,0.578015869140625,-0.674591064453125,0.58953857421875,0.3791961669921875
1776870092123051800,0.5880517578125,-0.606689453125,0.68658447265625,0.2509765625
1776870092133088800,0.5980888671875,-0.554779052734375,0.663299560546875,0.219482421875
1776870092143124700,0.608124755859375,-0.576385498046875,0.61907958984375,0.2812957763671875
1776870092153160700,0.61816064453125,-0.606475830078125,0.5863037109375,0.3712921142578125
1776870092163197700,0.62819775390625,-0.5927886962890625,0.5721588134765625,0.432098388671875
1776870092173233700,0.638233642578125,-0.5631866455078125,0.6118011474609375,0.463958740234375
1776870092183271000,0.64827099609375,-0.5154876708984375,0.613800048828125,0.4915618896484375
1776870092193307000,0.658306884765625,-0.45526123046875,0.5889892578125,0.5043792724609375
1776870092203342800,0.6683427734375,-0.3724212646484375,0.670074462890625,0.4804534912109375
1776870092213379800,0.6783798828125,-0.2855987548828125,0.797027587890625,0.4530792236328125
1776870092223415800,0.688415771484375,-0.242950439453125,0.8924102783203125,0.4827728271484375
1776870092233452800,0.698452880859375,-0.2156829833984375,0.96832275390625,0.5399169921875
1776870092243488800,0.70848876953125,-0.228515625,1.0260772705078125,0.6064605712890625
1776870092253524700,0.718524658203125,-0.2776947021484375,1.0357666015625,0.705230712890625
1776870092263562000,0.72856201171875,-0.2979278564453125,1.0291290283203125,0.83453369140625
1776870092273598000,0.738597900390625,-0.3173065185546875,0.982696533203125,1.0194091796875
1776870092283634000,0.748634033203125,-0.29888916015625,0.935791015625,1.1985321044921875
1776870092293671000,0.7586708984375,-0.266876220703125,0.9468841552734375,1.3111114501953125
1776870092303707000,0.768706787109375,-0.254302978515625,0.9861602783203125,1.3212738037109375
1776870092313744000,0.778743896484375,-0.21923828125,1.0549163818359375,1.272705078125
1776870092323779800,0.78877978515625,-0.1103515625,1.037506103515625,1.272705078125
1776870092333815800,0.79881591796875,-0.058502197265625,1.005279541015625,1.277435302734375
1776870092343852800,0.808852783203125,-0.1094970703125,0.9886932373046875,1.338623046875
1776870092353888800,0.818888671875,-0.1478729248046875,0.9909515380859375,1.405181884765625
1776870092363926000,0.828926025390625,-0.1451568603515625,0.9785919189453125,1.4764251708984375
1776870092373962000,0.8389619140625,-0.1133270263671875,0.9330902099609375,1.487030029296875
1776870092383998000,0.848998046875,-0.061798095703125,0.896942138671875,1.4409637451171875
1776870092394035000,0.859034912109375,-0.0123443603515625,0.8925018310546875,1.4251251220703125
1776870092404071000,0.86907080078125,0.0320892333984375,0.9010467529296875,1.399322509765625
1776870092414108000,0.87910791015625,0.0262908935546875,0.9047393798828125,1.381866455078125
1776870092424144000,0.889143798828125,-0.008026123046875,0.9142913818359375,1.3337249755859375
1776870092434179800,0.899179931640625,-0.0255584716796875,0.9061431884765625,1.27685546875
1776870092444217000,0.909217041015625,-0.0439453125,0.8407135009765625,1.2354888916015625
1776870092454253000,0.919253173828125,-0.02239990234375,0.7980804443359375,1.2119293212890625
1776870092464289800,0.929289794921875,0.00067138671875,0.7868499755859375,1.2071075439453125
1776870092474326000,0.939325927734375,0.0067291259765625,0.777069091796875,1.19989013671875
1776870092484362000,0.949362060546875,-0.0142822265625,0.7632293701171875,1.2118682861328125
1776870092494398700,0.959398681640625,-0.02490234375,0.775970458984375,1.223297119140625
1776870092504435000,0.96943505859375,-0.000091552734375,0.7912445068359375,1.2320404052734375
1776870092514471700,0.9794716796875,0.02337646484375,0.7735748291015625,1.2388153076171875
1776870092524507600,0.989507568359375,0.044647216796875,0.7413787841796875,1.213165283203125
1776870092534544000,0.9995439453125,-0.0138092041015625,0.6802520751953125,1.19647216796875
1776870092544580900,1.009580810546875,-0.111724853515625,0.6560516357421875,1.154052734375
1776870092554616800,1.019616943359375,-0.1880645751953125,0.7129974365234375,1.085357666015625
1776870092564653800,1.02965380859375,-0.2024688720703125,0.7629852294921875,1.019134521484375
1776870092574689800,1.039689697265625,-0.105194091796875,0.82464599609375,0.9725189208984375
1776870092584725800,1.049725830078125,-0.0619354248046875,0.8458099365234375,0.87969970703125
1776870092594762800,1.0597626953125,-0.173614501953125,0.8435516357421875,0.655670166015625
1776870092604798700,1.069798828125,-0.3256683349609375,0.7439727783203125,0.5342254638671875
1776870092614836000,1.0798359375,-0.4033203125,0.5086822509765625,0.5061187744140625
1776870092624872000,1.089871826171875,-0.476776123046875,0.4222412109375,0.471649169921875
1776870092634908000,1.099907958984375,-0.380218505859375,0.498077392578125,0.462158203125
1776870092644945000,1.10994482421875,-0.2524261474609375,0.6014556884765625,0.4595184326171875
1776870092654980900,1.11998095703125,-0.13128662109375,0.616180419921875,0.4735870361328125
1776870092665017900,1.130017822265625,-0.0821075439453125,0.5878753662109375,0.53375244140625
1776870092675053800,1.1400537109375,0.0596771240234375,0.5452880859375,0.5188140869140625
1776870092685090800,1.1500908203125,0.108673095703125,0.5311126708984375,0.460662841796875
1776870092695126800,1.160126708984375,0.2267303466796875,0.5439910888671875,0.37744140625
1776870092705162800,1.170162841796875,0.2066192626953125,0.5964202880859375,0.3119964599609375
1776870092715200000,1.180199951171875,0.2572784423828125,0.5811614990234375,0.2804412841796875
1776870092725236000,1.190236083984375,0.3037261962890625,0.60638427734375,0.32879638671875
1776870092735272000,1.20027197265625,0.349151611328125,0.5832672119140625,0.431976318359375
1776870092745309000,1.210308837890625,0.4107818603515625,0.6009368896484375,0.477081298828125
1776870092755345000,1.220344970703125,0.4703369140625,0.58270263671875,0.54248046875
1776870092765382000,1.2303818359375,0.5638885498046875,0.532989501953125,0.571044921875
1776870092775417900,1.24041796875,0.6064605712890625,0.5389556884765625,0.6432647705078125
1776870092785453800,1.250453857421875,0.5911712646484375,0.5282745361328125,0.7319488525390625
1776870092795491000,1.260490966796875,0.570281982421875,0.5909576416015625,0.7263946533203125
1776870092805527300,1.27052734375,0.4752960205078125,0.68084716796875,0.71502685546875
1776870092815564300,1.280564208984375,0.44598388671875,0.7235260009765625,0.7618560791015625
1776870092825600500,1.2906005859375,0.60107421875,0.6255340576171875,0.7688751220703125
1776870092835637200,1.30063720703125,0.61834716796875,0.5886688232421875,0.8108978271484375
1776870092845673200,1.310673095703125,0.5835723876953125,0.5606231689453125,0.78765869140625
1776870092855709400,1.32070947265625,0.560394287109375,0.57977294921875,0.752044677734375
1776870092865746200,1.33074609375,0.48760986328125,0.5802001953125,0.772064208984375
1776870092875782100,1.3407822265625,0.2938690185546875,0.5100555419921875,0.7861785888671875
1776870092885818400,1.350818359375,0.254180908203125,0.3677978515625,0.834228515625
1776870092895855000,1.360855224609375,0.35137939453125,0.31854248046875,0.846710205078125
1776870092905891000,1.37089111328125,0.429901123046875,0.418670654296875,0.919830322265625
1776870092915928300,1.38092822265625,0.34686279296875,0.4377593994140625,0.9185333251953125
1776870092925964300,1.39096435546875,0.23468017578125,0.4189453125,0.961700439453125
1776870092936001300,1.401001220703125,0.223480224609375,0.344970703125,0.9208831787109375
1776870092946037200,1.411037353515625,0.2412872314453125,0.3596038818359375,0.8775634765625
1776870092956073200,1.4210732421875,0.18609619140625,0.345733642578125,0.85455322265625
1776870092966110200,1.431110107421875,0.277587890625,0.376312255859375,0.8375701904296875
1776870092976146200,1.441146240234375,0.357574462890625,0.414825439453125,0.8968048095703125
1776870092986183200,1.45118310546875,0.3231048583984375,0.3929443359375,0.961669921875
1776870092996219400,1.461219482421875,0.3330535888671875,0.3180084228515625,0.9617156982421875
1776870093006255400,1.47125537109375,0.3482208251953125,0.203399658203125,0.9807891845703125
1776870093016292400,1.481292236328125,0.2572021484375,0.2504119873046875,0.9518280029296875
1776870093026328300,1.491328369140625,0.225250244140625,0.2599945068359375,0.9277191162109375
1776870093036364300,1.5013642578125,0.2000732421875,0.2866058349609375,0.914794921875
1776870093046401300,1.5114013671875,0.3057861328125,0.34454345703125,0.892974853515625
1776870093056437200,1.521437255859375,0.35772705078125,0.3735809326171875,0.8995819091796875
1776870093066474200,1.53147412109375,0.353424072265625,0.3318634033203125,0.8955230712890625
1776870093076510200,1.54151025390625,0.2131805419921875,0.4104461669921875,0.9372711181640625
1776870093086547500,1.55154736328125,0.3477325439453125,0.317474365234375,0.8977508544921875
1776870093096583400,1.56158349609375,0.252166748046875,0.3974456787109375,0.933319091796875
1776870093106619400,1.571619384765625,0.2218170166015625,0.3879241943359375,0.9295196533203125
1776870093116656400,1.581656494140625,0.1230621337890625,0.3140106201171875,0.9215240478515625
1776870093126692400,1.5916923828125,0.017669677734375,0.2023162841796875,0.9098358154296875
1776870093136729300,1.601729248046875,-0.0306549072265625,0.112335205078125,1.0078582763671875
1776870093146765300,1.611765380859375,0.0396881103515625,0.029815673828125,1.0536041259765625
1776870093156801300,1.62180126953125,0.124114990234375,0.1066741943359375,1.047149658203125
1776870093166838300,1.63183837890625,0.1859893798828125,0.244049072265625,1.0792236328125
1776870093176874500,1.64187451171875,0.19036865234375,0.27734375,1.0352630615234375
1776870093186911200,1.6519111328125,0.1542205810546875,0.3311309814453125,1.0075531005859375
1776870093196947500,1.661947509765625,0.1398773193359375,0.3416900634765625,0.9530792236328125
1776870093206983400,1.6719833984375,0.045013427734375,0.333404541015625,0.89862060546875
1776870093217020200,1.682020263671875,0.048736572265625,0.3515625,0.8093414306640625
1776870093227056400,1.692056396484375,0.07513427734375,0.387542724609375,0.732330322265625
1776870093237093000,1.702093017578125,0.09820556640625,0.355255126953125,0.727508544921875
1776870093247129000,1.712129150390625,0.1269683837890625,0.3291473388671875,0.7930908203125
1776870093257165300,1.722165283203125,0.06610107421875,0.3083953857421875,0.837646484375
1776870093267202300,1.732202392578125,-0.0046539306640625,0.2353668212890625,0.8672637939453125
1776870093277238300,1.74223828125,-0.003173828125,0.3070526123046875,0.9456329345703125
1776870093287275300,1.752275146484375,0.021514892578125,0.245330810546875,0.89617919921875
1776870093297311200,1.762311279296875,0.007049560546875,0.26776123046875,0.8826446533203125
1776870093307347200,1.77234716796875,-0.0377044677734375,0.1988677978515625,0.8482208251953125
1776870093317384200,1.78238427734375,-0.1111297607421875,0.1277923583984375,0.8857879638671875
1776870093327420200,1.792420166015625,-0.198272705078125,-0.0649871826171875,1.0085906982421875
1776870093337457200,1.80245703125,-0.3387298583984375,-0.1346435546875,1.086181640625
1776870093347493000,1.8124931640625,-0.34619140625,-0.1264190673828125,1.1332550048828125
1776870093357529000,1.822529052734375,-0.2071990966796875,-0.037322998046875,1.3397369384765625
1776870093367566300,1.83256640625,-0.0261688232421875,0.12115478515625,1.5379638671875
1776870093377602300,1.842602294921875,-0.00103759765625,-0.1992340087890625,1.5987091064453125
1776870093387639300,1.852639404296875,-0.0386199951171875,-0.1109466552734375,1.5374298095703125
1776870093397675300,1.86267529296875,-0.1514892578125,0.066619873046875,1.3879241943359375
1776870093407711200,1.872711181640625,-0.1939544677734375,-0.0379791259765625,1.25506591796875
1776870093417748200,1.882748291015625,-0.14593505859375,0.0718231201171875,1.0926055908203125
1776870093427784200,1.8927841796875,-0.1633148193359375,0.1787261962890625,1.0233917236328125
1776870093437821400,1.902821533203125,-0.2121734619140625,0.15484619140625,1.01898193359375
1776870093447857400,1.912857421875,-0.3037261962890625,0.1826934814453125,1.0347442626953125
1776870093457893400,1.922893310546875,-0.399688720703125,0.1146240234375,0.9255828857421875
1776870093467930400,1.932930419921875,-0.355743408203125,0.265228271484375,0.752227783203125
1776870093477966300,1.94296630859375,-0.3707122802734375,0.1482391357421875,0.758392333984375
1776870093488003300,1.95300341796875,-0.2649383544921875,0.094024658203125,0.781402587890625
1776870093498039300,1.963039306640625,-0.15338134765625,0.0421600341796875,0.87841796875
1776870093508075300,1.9730751953125,-0.0688018798828125,0.0024871826171875,1.04595947265625
1776870093518112300,1.9831123046875,-0.0541229248046875,0.1380157470703125,0.973236083984375
1776870093528148200,1.993148193359375,-0.03179931640625,0.3025970458984375,0.877105712890625
1776870093538185500,2.003185546875,-0.036224365234375,0.31304931640625,0.750152587890625
1776870093548221400,2.013221435546875,-0.0864105224609375,0.2993927001953125,0.5518798828125
1776870093558258200,2.023258056640625,-0.206634521484375,0.32183837890625,0.4307403564453125
1776870093568294400,2.03329443359375,-0.3393707275390625,0.3230133056640625,0.405181884765625
1776870093578330400,2.043330322265625,-0.4286651611328125,0.386322021484375,0.3762054443359375
1776870093588367000,2.0533671875,-0.5657958984375,0.4018096923828125,0.3207550048828125
1776870093598403300,2.0634033203125,-0.658233642578125,0.3967742919921875,0.255157470703125
1776870093608440300,2.0734404296875,-0.6908111572265625,0.431854248046875,0.1549072265625
1776870093618476300,2.083476318359375,-0.618682861328125,0.5332794189453125,0.1095428466796875
1776870093628512300,2.09351220703125,-0.3043212890625,0.7421112060546875,0.053009033203125
1776870093638549200,2.10354931640625,-0.1712799072265625,1.0346832275390625,0.1236724853515625
1776870093648585200,2.113585205078125,-0.1582489013671875,1.2216644287109375,0.4251556396484375
1776870093658622200,2.123622314453125,-0.1537628173828125,1.171173095703125,0.77874755859375
1776870093668658200,2.133658203125,-0.181182861328125,1.212493896484375,1.2747802734375
1776870093678694100,2.143694091796875,0.058929443359375,0.9818115234375,1.749114990234375
1776870093688731100,2.153731201171875,0.128936767578125,0.578765869140625,1.7674713134765625
1776870093698767000,2.16376708984375,-0.0211334228515625,0.438568115234375,1.5791778564453125
1776870093708804400,2.173804443359375,-0.1982574462890625,0.4370880126953125,1.43585205078125
1776870093718840300,2.18384033203125,-0.1389007568359375,0.4362030029296875,1.342559814453125
1776870093728876300,2.193876220703125,-0.3147735595703125,0.6254119873046875,1.1764984130859375
1776870093738913300,2.203913330078125,-0.4625701904296875,0.8652801513671875,1.0763702392578125
1776870093748949200,2.21394921875,-0.482879638671875,0.85943603515625,1.09320068359375
1776870093758986200,2.223986328125,-0.4211578369140625,0.7027130126953125,1.1103515625
1776870093769022200,2.234022216796875,-0.4423828125,0.507476806640625,1.2180633544921875
1776870093779058200,2.24405810546875,-0.5445709228515625,0.3370513916015625,1.1485748291015625
1776870093789095200,2.25409521484375,-0.539031982421875,0.48199462890625,0.8562164306640625
1776870093799131400,2.26413134765625,-0.569610595703125,0.6833953857421875,0.7399749755859375
1776870093809168000,2.27416796875,-0.5915679931640625,0.7913818359375,0.6890411376953125
1776870093819203800,2.284203857421875,-0.5245819091796875,0.8475189208984375,0.7060089111328125
1776870093829240800,2.29424072265625,-0.3740997314453125,0.7628631591796875,0.6846466064453125
1776870093839276800,2.30427685546875,-0.2707977294921875,0.7002410888671875,0.7155914306640625
1776870093849312800,2.314312744140625,-0.305084228515625,0.5965576171875,0.7144622802734375
1776870093859350000,2.32435009765625,-0.2638092041015625,0.4050750732421875,0.6408233642578125
1776870093869386000,2.334385986328125,-0.1706695556640625,0.385955810546875,0.49542236328125
1776870093879423000,2.344423095703125,0.032806396484375,0.5835113525390625,0.5002899169921875
1776870093889459000,2.354458984375,0.0037078857421875,0.5832366943359375,0.486236572265625
1776870093899495000,2.364494873046875,-0.21527099609375,0.5255279541015625,0.4074554443359375
1776870093909532000,2.374531982421875,-0.1067352294921875,0.614990234375,0.41912841796875
1776870093919568000,2.38456787109375,-0.197845458984375,0.7555999755859375,0.35882568359375
1776870093929604900,2.39460498046875,-0.3068389892578125,0.8395538330078125,0.375457763671875
1776870093939640800,2.404640869140625,-0.2400970458984375,0.7771759033203125,0.26739501953125
1776870093949676800,2.4146767578125,-0.1572723388671875,0.7530364990234375,0.2537078857421875
1776870093959714000,2.424714111328125,0.0191650390625,0.7611083984375,0.216522216796875
1776870093969750000,2.43475,0.1122894287109375,0.8281097412109375,0.2157745361328125
1776870093979786800,2.444786865234375,0.06219482421875,0.8792572021484375,0.218841552734375
1776870093989823000,2.454822998046875,-0.0331878662109375,0.8273468017578125,0.1790771484375
1776870093999859000,2.46485888671875,-0.0401611328125,0.7883758544921875,0.152130126953125
1776870094009895700,2.474895751953125,0.016448974609375,0.8095550537109375,0.185699462890625
1776870094019932000,2.484931884765625,0.0627288818359375,0.876556396484375,0.2541351318359375
1776870094029969000,2.494968994140625,0.035125732421875,0.7699432373046875,0.2845916748046875
1776870094040004900,2.5050048828125,-0.0786895751953125,0.7088623046875,0.30438232421875
1776870094050041900,2.515041748046875,-0.110076904296875,0.7086181640625,0.2951202392578125
1776870094060077800,2.525077880859375,-0.26092529296875,0.591644287109375,0.247894287109375
1776870094070113800,2.53511376953125,-0.151519775390625,0.691864013671875,0.2680206298828125
1776870094080150800,2.54515087890625,-0.277587890625,1.0479583740234375,0.228302001953125
1776870094090186800,2.555186767578125,-0.3124542236328125,1.3240203857421875,0.250823974609375
1776870094100223700,2.5652236328125,-0.1597442626953125,1.7538604736328125,0.272857666015625
1776870094110259700,2.575259765625,0.0523681640625,1.6910400390625,0.0688323974609375
1776870094120295700,2.585295654296875,0.3111419677734375,1.8698883056640625,-0.03436279296875
1776870094130333000,2.5953330078125,0.48480224609375,1.75958251953125,-0.0813140869140625
1776870094140369000,2.605368896484375,0.463592529296875,1.4168701171875,-0.09930419921875
1776870094150406000,2.615406005859375,0.23236083984375,1.22930908203125,-0.2905120849609375
1776870094160441900,2.62544189453125,0.019134521484375,1.112030029296875,-0.622955322265625
1776870094170477800,2.635477783203125,0.048187255859375,1.032684326171875,-0.6465606689453125
1776870094180514800,2.645514892578125,0.236358642578125,1.0847930908203125,-0.381744384765625
1776870094190550800,2.65555078125,0.23681640625,1.03045654296875,-0.318939208984375
1776870094200587800,2.665587890625,0.2061767578125,0.9971771240234375,-0.2622222900390625
1776870094210624000,2.6756240234375,0.207977294921875,0.9828643798828125,-0.2024993896484375
1776870094220660000,2.685659912109375,0.1706390380859375,0.8942718505859375,-0.20135498046875
1776870094230697000,2.695697021484375,0.0164337158203125,0.779052734375,-0.2790374755859375
1776870094240733000,2.70573291015625,-0.1805572509765625,0.7429351806640625,-0.464996337890625
1776870094250770000,2.71577001953125,0.0115814208984375,0.97393798828125,-0.337371826171875
1776870094260806000,2.725805908203125,0.0537872314453125,1.0037994384765625,-0.2850494384765625
1776870094270843000,2.7358427734375,0.00238037109375,1.03955078125,-0.256561279296875
1776870094280878800,2.74587890625,0.0179901123046875,1.0625152587890625,-0.2135162353515625
1776870094290914800,2.755914794921875,0.0072174072265625,1.082366943359375,-0.18402099609375
1776870094300952000,2.7659521484375,0.0152740478515625,1.09454345703125,-0.15936279296875
1776870094310988000,2.775988037109375,0.0038299560546875,1.0778961181640625,-0.134613037109375
1776870094321024800,2.786024658203125,-0.0010833740234375,1.04705810546875,-0.1090087890625
1776870094331061000,2.79606103515625,-0.0003662109375,1.0181121826171875,-0.083953857421875
1776870094341097000,2.806096923828125,0.0231475830078125,0.99578857421875,-0.0660400390625
1776870094351133700,2.8161337890625,0.01824951171875,0.9942626953125,-0.0596160888671875
1776870094361170000,2.826169921875,0.020111083984375,1.0192413330078125,-0.091217041015625
1776870094371206700,2.83620654296875,0.01104736328125,1.03704833984375,-0.1261444091796875
1776870094381243000,2.846242919921875,0.0009613037109375,1.030792236328125,-0.1483917236328125
1776870094391279000,2.856279052734375,0.01123046875,1.0294189453125,-0.16259765625
1776870094401315800,2.86631591796875,0.0203857421875,1.024200439453125,-0.1755523681640625
1776870094411351800,2.876351806640625,0.0381011962890625,1.00189208984375,-0.1839752197265625
1776870094421388800,2.886388916015625,0.04541015625,0.9882049560546875,-0.1938018798828125
1776870094431424800,2.8964248046875,0.017730712890625,0.9775238037109375,-0.194305419921875
1776870094441460700,2.906460693359375,-0.0115814208984375,0.9821319580078125,-0.1931915283203125
1776870094451497700,2.916497802734375,-0.027679443359375,0.9961700439453125,-0.1921844482421875
1776870094461533700,2.92653369140625,-0.031829833984375,1.0037841796875,-0.188018798828125
1776870094471571000,2.936571044921875,-0.0369873046875,1.0093994140625,-0.1922607421875
1776870094481607000,2.94660693359375,-0.0540008544921875,1.0245361328125,-0.19146728515625
1776870094491644000,2.956643798828125,-0.045867919921875,1.05126953125,-0.2049560546875
1776870094501679900,2.966679931640625,-0.0796356201171875,1.0624237060546875,-0.2049560546875
1776870094511715800,2.9767158203125,-0.097564697265625,1.1147003173828125,-0.2217559814453125
1776870094521752800,2.9867529296875,-0.1169586181640625,1.139129638671875,-0.2173004150390625
1776870094531788800,2.996788818359375,-0.1793212890625,1.1598052978515625,-0.2095184326171875
1776870094541825800,3.00682568359375,-0.2016754150390625,1.139434814453125,-0.204437255859375
1776870094551861800,3.01686181640625,-0.2042388916015625,1.0655364990234375,-0.184417724609375
1776870094561897700,3.026897705078125,-0.2028350830078125,1.012908935546875,-0.1586761474609375
1776870094571935000,3.03693505859375,-0.2104949951171875,0.9697113037109375,-0.1304779052734375
1776870094581971000,3.046970947265625,-0.2177886962890625,0.928436279296875,-0.096343994140625
1776870094592008000,3.057008056640625,-0.228790283203125,0.8849334716796875,-0.0440521240234375
1776870094602044000,3.0670439453125,-0.2242584228515625,0.864349365234375,0.0159149169921875
1776870094612079900,3.077079833984375,-0.2165679931640625,0.8522491455078125,0.0613861083984375
1776870094622116900,3.087116943359375,-0.1997222900390625,0.847442626953125,0.09820556640625
1776870094632152800,3.09715283203125,-0.1835479736328125,0.858856201171875,0.1270904541015625
1776870094642190000,3.107190185546875,-0.1762847900390625,0.8799591064453125,0.14581298828125
1776870094652226000,3.11722607421875,-0.170562744140625,0.89984130859375,0.156585693359375
1776870094662262000,3.127261962890625,-0.1525421142578125,0.91143798828125,0.167816162109375
1776870094672299000,3.137299072265625,-0.1312255859375,0.9044189453125,0.180633544921875
1776870094682335000,3.1473349609375,-0.1154632568359375,0.88555908203125,0.1924896240234375
1776870094692372000,3.1573720703125,-0.109771728515625,0.8659515380859375,0.2080230712890625
1776870094702408000,3.167407958984375,-0.1146697998046875,0.8417205810546875,0.222991943359375
1776870094712444000,3.17744384765625,-0.135101318359375,0.830596923828125,0.2258148193359375
1776870094722481000,3.18748095703125,-0.1401824951171875,0.8293304443359375,0.2008056640625
1776870094732516900,3.197516845703125,-0.15826416015625,0.8403167724609375,0.1558380126953125
1776870094742553900,3.207553955078125,-0.240570068359375,0.8421630859375,0.08245849609375
1776870094752589800,3.21758984375,-0.299072265625,0.8273468017578125,0.020965576171875
1776870094762626000,3.2276259765625,-0.330047607421875,0.8031463623046875,-0.0217742919921875
1776870094772662800,3.237662841796875,-0.3613739013671875,0.79345703125,-0.0511016845703125
1776870094782698800,3.24769873046875,-0.3925018310546875,0.8076019287109375,-0.0690460205078125
1776870094792735700,3.25773583984375,-0.4114837646484375,0.8468475341796875,-0.0747528076171875
1776870094802771700,3.267771728515625,-0.4025421142578125,0.902374267578125,-0.064453125
1776870094812813000,3.27781298828125,-0.3623809814453125,0.933990478515625,-0.0401153564453125
1776870094822849000,3.28784912109375,-0.31475830078125,0.9499359130859375,-0.01812744140625
1776870094832885000,3.297885009765625,-0.28173828125,0.970855712890625,-0.0036163330078125
1776870094842922200,3.307922119140625,-0.266357421875,0.993438720703125,0.002960205078125
1776870094852958200,3.317958251953125,-0.2720794677734375,0.9986114501953125,0.00408935546875
1776870094862995200,3.3279951171875,-0.2893829345703125,0.98175048828125,0.00262451171875
1776870094873031200,3.33803125,-0.3201141357421875,0.940704345703125,0.0007781982421875
1776870094883067100,3.348067138671875,-0.3486175537109375,0.899688720703125,-0.00506591796875
1776870094893104000,3.358104248046875,-0.3709869384765625,0.8803558349609375,-0.0233001708984375
1776870094903140000,3.36814013671875,-0.37750244140625,0.882049560546875,-0.0537261962890625
1776870094913177000,3.378177001953125,-0.3773345947265625,0.903656005859375,-0.090484619140625
1776870094923213000,3.388213134765625,-0.3608551025390625,0.9443206787109375,-0.125518798828125
1776870094933249000,3.3982490234375,-0.3175201416015625,0.9940643310546875,-0.157745361328125
1776870094943286300,3.408286376953125,-0.2773590087890625,1.043060302734375,-0.17596435546875
1776870094953322200,3.418322265625,-0.2483978271484375,1.0762481689453125,-0.187835693359375
1776870094963359200,3.428359130859375,-0.2394561767578125,1.0882110595703125,-0.1894073486328125
1776870094973395200,3.438395263671875,-0.26470947265625,1.0884857177734375,-0.1906585693359375
1776870094983431200,3.44843115234375,-0.315673828125,1.0833740234375,-0.185028076171875
1776870094993468200,3.45846826171875,-0.358673095703125,1.0914154052734375,-0.17822265625
1776870095003504000,3.468504150390625,-0.3678131103515625,1.1160125732421875,-0.176422119140625
1776870095013541000,3.478541015625,-0.3410491943359375,1.1407318115234375,-0.1778106689453125
1776870095023577000,3.4885771484375,-0.3034515380859375,1.159759521484375,-0.170013427734375
1776870095033613300,3.49861328125,-0.2661590576171875,1.1570892333984375,-0.141143798828125
1776870095043650000,3.508650146484375,-0.2143096923828125,1.1515960693359375,-0.105804443359375
1776870095053686000,3.51868603515625,-0.1099090576171875,1.146575927734375,-0.0599517822265625
1776870095063723000,3.528722900390625,0.0055084228515625,1.130645751953125,-0.021636962890625
1776870095073759000,3.538759033203125,0.0875091552734375,1.081329345703125,-0.007537841796875
1776870095083795000,3.548794921875,0.1256256103515625,0.986907958984375,-0.011566162109375
1776870095093832000,3.55883203125,0.1333465576171875,0.8880462646484375,-0.02410888671875
1776870095103868000,3.568867919921875,0.117645263671875,0.8179931640625,-0.0335540771484375
1776870095113905200,3.5789052734375,0.0999603271484375,0.779937744140625,-0.0293731689453125
1776870095123941000,3.588941162109375,0.0894775390625,0.7624664306640625,-0.004608154296875
1776870095133977000,3.59897705078125,0.080413818359375,0.7747955322265625,0.0388031005859375
1776870095144014000,3.60901416015625,0.0757598876953125,0.8310394287109375,0.072479248046875
1776870095154050000,3.619050048828125,0.0718231201171875,0.9087066650390625,0.0935211181640625
1776870095164087000,3.629087158203125,0.055419921875,0.9860382080078125,0.108673095703125
1776870095174123000,3.639123046875,0.014190673828125,1.047088623046875,0.1195068359375
1776870095184159000,3.649158935546875,-0.0383758544921875,1.1127471923828125,0.12744140625
1776870095194196200,3.6591962890625,-0.095367431640625,1.1704864501953125,0.128173828125
1776870095204232200,3.669232177734375,-0.1445159912109375,1.2088623046875,0.126556396484375
1776870095214269200,3.679269287109375,-0.1821136474609375,1.2193450927734375,0.114166259765625
1776870095224305200,3.68930517578125,-0.1842193603515625,1.199493408203125,0.0916748046875
1776870095234341000,3.699341064453125,-0.1335601806640625,1.1641998291015625,0.0402679443359375
1776870095244378000,3.709378173828125,-0.058807373046875,1.10040283203125,0.00018310546875
1776870095254414000,3.7194140625,-0.0012359619140625,1.0333099365234375,-0.0189971923828125
1776870095264451000,3.729451171875,0.04486083984375,0.976287841796875,-0.03289794921875
1776870095274487000,3.739487060546875,0.0700225830078125,0.9328460693359375,-0.0569000244140625
1776870095284523000,3.74952294921875,0.0698089599609375,0.9035797119140625,-0.087982177734375
1776870095294560300,3.759560302734375,0.0571746826171875,0.8942718505859375,-0.1237945556640625
1776870095304596200,3.76959619140625,0.0356903076171875,0.9050445556640625,-0.151641845703125
1776870095314633200,3.77963330078125,0.0284881591796875,0.925994873046875,-0.168853759765625
1776870095324669200,3.789669189453125,0.0291900634765625,0.947113037109375,-0.1758270263671875
1776870095334705200,3.799705078125,0.0298614501953125,0.9651641845703125,-0.163482666015625
1776870095344742100,3.8097421875,0.0358123779296875,0.9869232177734375,-0.1353912353515625
1776870095354778000,3.819778076171875,0.0387115478515625,0.9942626953125,-0.0972137451171875
1776870095364815000,3.829815185546875,0.03558349609375,0.99066162109375,-0.065704345703125
1776870095374851300,3.839851318359375,0.025787353515625,0.9872283935546875,-0.04364013671875
1776870095384887300,3.84988720703125,0.0096282958984375,0.975799560546875,-0.0258941650390625
1776870095394924300,3.85992431640625,-0.0112152099609375,0.9626922607421875,-0.0102691650390625
1776870095404960300,3.869960205078125,-0.024566650390625,0.951446533203125,-0.0006866455078125
1776870095414997000,3.8799970703125,-0.028228759765625,0.94024658203125,-0.0003509521484375
1776870095425033200,3.890033203125,-0.0255279541015625,0.9311981201171875,-0.0034332275390625
1776870095435069200,3.900069091796875,-0.0115203857421875,0.9085235595703125,-0.004974365234375
1776870095445106000,3.91010595703125,-0.0233917236328125,0.8738250732421875,-0.0042572021484375
1776870095455142100,3.92014208984375,-0.0692291259765625,0.838348388671875,-0.0070953369140625
1776870095465179100,3.93017919921875,-0.1423797607421875,0.802337646484375,-0.007080078125
1776870095475215000,3.940215087890625,-0.213897705078125,0.7685089111328125,-0.0092620849609375
1776870095485251000,3.9502509765625,-0.25701904296875,0.74737548828125,-0.0158538818359375
1776870095495288000,3.9602880859375,-0.285858154296875,0.747314453125,-0.042083740234375
1776870095505324000,3.970323974609375,-0.270355224609375,0.76849365234375,-0.0774078369140625
1776870095515361000,3.980361083984375,-0.166351318359375,0.8036651611328125,-0.1170196533203125
1776870095525397000,3.99039697265625,-0.035980224609375,0.86676025390625,-0.1509552001953125
1776870095535432200,4.00043212890625,0.0675506591796875,0.9593353271484375,-0.1291046142578125
1776870095545468200,4.01046826171875,0.0991363525390625,0.9529266357421875,-0.1546173095703125
1776870095555505200,4.020505126953125,0.0588226318359375,0.8672027587890625,-0.217864990234375
1776870095565541000,4.030541015625,-0.0040435791015625,0.8192901611328125,-0.2371673583984375
1776870095575577000,4.0405771484375,-0.0758514404296875,0.804443359375,-0.22698974609375
1776870095585614000,4.050614013671875,-0.1003875732421875,0.8057098388671875,-0.1844329833984375
1776870095595650300,4.060650390625,-0.1351470947265625,0.806732177734375,-0.1650848388671875
1776870095605687000,4.07068701171875,-0.18115234375,0.8201446533203125,-0.1704559326171875
1776870095615723000,4.080722900390625,-0.2676849365234375,0.877349853515625,-0.189056396484375
1776870095625759200,4.09075927734375,-0.3559417724609375,0.9449615478515625,-0.17950439453125
1776870095635796000,4.1007958984375,-0.3281707763671875,0.94207763671875,-0.1162567138671875
1776870095645832000,4.11083203125,-0.25518798828125,0.9052734375,-0.035552978515625
1776870095655869000,4.120868896484375,-0.2467803955078125,0.8784332275390625,0.03924560546875
1776870095665905000,4.13090478515625,-0.30291748046875,0.8728485107421875,0.078948974609375
1776870095675941000,4.140941162109375,-0.3514556884765625,0.87322998046875,0.0863494873046875
1776870095685978000,4.15097802734375,-0.339447021484375,0.867584228515625,0.10284423828125
1776870095696014000,4.16101416015625,-0.294097900390625,0.854461669921875,0.1368255615234375
1776870095706051000,4.171051025390625,-0.303253173828125,0.8195648193359375,0.1838836669921875
1776870095716087000,4.181087158203125,-0.418609619140625,0.7794342041015625,0.208587646484375
1776870095726123000,4.191123046875,-0.4969635009765625,0.755462646484375,0.2246551513671875
1776870095736160000,4.201159912109375,-0.439910888671875,0.7283935546875,0.2231903076171875
1776870095746196000,4.211196044921875,-0.32891845703125,0.7190399169921875,0.2095489501953125
1776870095756233200,4.221233154296875,-0.3032989501953125,0.72467041015625,0.202789306640625
1776870095766269200,4.231269287109375,-0.4292449951171875,0.73175048828125,0.2353363037109375
1776870095776305200,4.24130517578125,-0.5308990478515625,0.73040771484375,0.297637939453125
1776870095786342100,4.251342041015625,-0.4993133544921875,0.7405853271484375,0.3843841552734375
1776870095796378000,4.261378173828125,-0.3977508544921875,0.7858734130859375,0.4804840087890625
1776870095806415000,4.2714150390625,-0.3996734619140625,0.87469482421875,0.584991455078125
1776870095816447200,4.281447265625,-0.516571044921875,0.9679412841796875,0.6748199462890625
1776870095826483200,4.291483154296875,-0.5993194580078125,1.0021514892578125,0.705780029296875
1776870095836520200,4.301520263671875,-0.6039581298828125,0.938568115234375,0.6945037841796875
1776870095846556200,4.31155615234375,-0.5732269287109375,0.8180999755859375,0.6626434326171875
1776870095856593200,4.32159326171875,-0.51971435546875,0.70880126953125,0.6355438232421875
1776870095866629000,4.331629150390625,-0.530426025390625,0.66314697265625,0.5396881103515625
1776870095876665300,4.341665283203125,-0.5819091796875,0.68017578125,0.4171142578125
1776870095886702300,4.351702392578125,-0.6747589111328125,0.6566009521484375,0.33209228515625
1776870095896738300,4.36173828125,-0.6813507080078125,0.587646484375,0.2539825439453125
1776870095906775300,4.371775390625,-0.6165771484375,0.5305633544921875,0.20050048828125
1776870095916811300,4.381811279296875,-0.5893096923828125,0.508636474609375,0.1780242919921875
1776870095926847200,4.39184716796875,-0.6349334716796875,0.5185394287109375,0.17852783203125
1776870095936884200,4.40188427734375,-0.6480560302734375,0.5568695068359375,0.2107696533203125
1776870095946920200,4.411920166015625,-0.6698455810546875,0.6104888916015625,0.297515869140625
1776870095956957400,4.42195751953125,-0.7288055419921875,0.6327056884765625,0.3897552490234375
1776870095966993400,4.431993408203125,-0.7454986572265625,0.650390625,0.4499053955078125
1776870095977029400,4.442029296875,-0.7176666259765625,0.6503753662109375,0.4878082275390625
1776870095987066400,4.45206640625,-0.7119903564453125,0.6293792724609375,0.49725341796875
1776870095997102300,4.462102294921875,-0.7353515625,0.60223388671875,0.4922637939453125
1776870096007139300,4.472139404296875,-0.7362823486328125,0.6019439697265625,0.4476318359375
1776870096017175300,4.48217529296875,-0.7260589599609375,0.617828369140625,0.4088592529296875
1776870096027211300,4.492211181640625,-0.7535247802734375,0.6094207763671875,0.3662567138671875
1776870096037248300,4.502248291015625,-0.7266082763671875,0.5949859619140625,0.3345947265625
1776870096047284200,4.5122841796875,-0.7423095703125,0.5673065185546875,0.334320068359375
1776870096057321200,4.5223212890625,-0.7985076904296875,0.5720367431640625,0.3822021484375
1776870096067357200,4.532357177734375,-0.8062896728515625,0.582763671875,0.456085205078125
1776870096077393400,4.542393310546875,-0.7802581787109375,0.5652923583984375,0.5597381591796875
1776870096087430100,4.55243017578125,-0.7221832275390625,0.556365966796875,0.6248931884765625
1776870096097466000,4.562466064453125,-0.704559326171875,0.5474395751953125,0.626495361328125
1776870096107503000,4.572503173828125,-0.7595367431640625,0.557403564453125,0.584075927734375
1776870096117539000,4.5825390625,-0.824554443359375,0.546905517578125,0.5581512451171875
1776870096127575000,4.592574951171875,-0.85467529296875,0.527252197265625,0.520355224609375
1776870096137612300,4.6026123046875,-0.842742919921875,0.47845458984375,0.4724884033203125
1776870096147648300,4.612648193359375,-0.8170166015625,0.4196624755859375,0.45379638671875
1776870096157685200,4.622685302734375,-0.7649688720703125,0.3769378662109375,0.4635162353515625
1776870096167721200,4.63272119140625,-0.721038818359375,0.400726318359375,0.5124969482421875
1776870096177758200,4.64275830078125,-0.774139404296875,0.4322662353515625,0.6186065673828125
1776870096187794200,4.652794189453125,-0.78692626953125,0.4384765625,0.6822967529296875
1776870096197830100,4.662830078125,-0.8027191162109375,0.5201568603515625,0.6085968017578125
1776870096207867100,4.6728671875,-0.701629638671875,0.5029144287109375,0.5598907470703125
1776870096217903000,4.682903076171875,-0.7806854248046875,0.4613800048828125,0.528472900390625
1776870096227940400,4.6929404296875,-0.8418731689453125,0.4095916748046875,0.5162811279296875
1776870096237976300,4.702976318359375,-0.8340606689453125,0.33673095703125,0.53326416015625
1776870096248012300,4.71301220703125,-0.74127197265625,0.2919769287109375,0.547332763671875
1776870096258049300,4.72304931640625,-0.735137939453125,0.3034210205078125,0.58929443359375
1776870096268085200,4.733085205078125,-0.7851409912109375,0.3588714599609375,0.5962982177734375
1776870096278122200,4.743122314453125,-0.7622222900390625,0.3841094970703125,0.6207733154296875
1776870096288158200,4.753158203125,-0.8144378662109375,0.411407470703125,0.6058197021484375
1776870096298195200,4.7631953125,-0.80596923828125,0.411041259765625,0.6509552001953125
1776870096308231400,4.7732314453125,-0.7923583984375,0.3681488037109375,0.6881103515625
1776870096318267400,4.783267333984375,-0.81353759765625,0.3303680419921875,0.6739959716796875
1776870096328304400,4.793304443359375,-0.835479736328125,0.297119140625,0.6415252685546875
1776870096338340400,4.80334033203125,-0.8403167724609375,0.248291015625,0.628204345703125
1776870096348377300,4.81337744140625,-0.760528564453125,0.2242279052734375,0.6342620849609375
1776870096358413300,4.823413330078125,-0.748321533203125,0.263885498046875,0.6700592041015625
1776870096368449300,4.83344921875,-0.828460693359375,0.314422607421875,0.7117767333984375
1776870096378486300,4.843486328125,-0.865753173828125,0.3406829833984375,0.7766876220703125
1776870096388522200,4.853522216796875,-0.87506103515625,0.3549041748046875,0.7851715087890625
1776870096398559200,4.863559326171875,-0.904205322265625,0.353057861328125,0.790252685546875
1776870096408595200,4.87359521484375,-0.9323577880859375,0.34228515625,0.8575897216796875
1776870096418632200,4.883632080078125,-0.9123687744140625,0.320220947265625,0.8339385986328125
1776870096428668200,4.893668212890625,-0.912506103515625,0.32183837890625,0.7528228759765625
1776870096438704000,4.9037041015625,-0.9875030517578125,0.2813262939453125,0.7367706298828125
1776870096448741000,4.9137412109375,-0.945220947265625,0.25445556640625,0.7798614501953125
1776870096458777000,4.923777099609375,-0.9051971435546875,0.268829345703125,0.84173583984375
1776870096468814000,4.93381396484375,-1.02117919921875,0.3081512451171875,0.8586273193359375
1776870096478850000,4.94385009765625,-1.03594970703125,0.3789520263671875,0.782470703125
1776870096488886300,4.95388623046875,-0.932403564453125,0.378631591796875,0.85137939453125
1776870096498923300,4.96392333984375,-0.98138427734375,0.3529205322265625,0.8927764892578125
1776870096508959200,4.973959228515625,-1.009857177734375,0.3548736572265625,0.850128173828125
1776870096518996200,4.983996337890625,-0.9873504638671875,0.3291015625,0.787445068359375
1776870096529032200,4.9940322265625,-0.898895263671875,0.3111114501953125,0.8031768798828125
1776870096539069200,5.004069091796875,-0.889434814453125,0.3285369873046875,0.860137939453125
1776870096549105200,5.014105224609375,-0.9221649169921875,0.342437744140625,0.8470916748046875
1776870096559141000,5.02414111328125,-0.884674072265625,0.365081787109375,0.8311614990234375
1776870096569178400,5.034178466796875,-0.879302978515625,0.3740081787109375,0.7957000732421875
1776870096579214300,5.04421435546875,-0.877899169921875,0.4019775390625,0.755645751953125
1776870096589251300,5.054251220703125,-0.8761749267578125,0.3876190185546875,0.7330780029296875
1776870096599287300,5.064287353515625,-0.816741943359375,0.383880615234375,0.7283782958984375
1776870096609324300,5.07432421875,-0.7970733642578125,0.4022064208984375,0.73809814453125
1776870096619360300,5.0843603515625,-0.7984771728515625,0.4325408935546875,0.737884521484375
1776870096629396200,5.094396240234375,-0.8091278076171875,0.443389892578125,0.692626953125
1776870096639433200,5.10443310546875,-0.75567626953125,0.4498291015625,0.638427734375
1776870096649469200,5.11446923828125,-0.76873779296875,0.4669952392578125,0.6003875732421875
1776870096659506400,5.12450634765625,-0.8107147216796875,0.4484710693359375,0.5879669189453125
1776870096669542400,5.13454248046875,-0.75885009765625,0.409881591796875,0.58721923828125
1776870096679579100,5.1445791015625,-0.7354583740234375,0.389251708984375,0.595947265625
1776870096689615400,5.154615478515625,-0.77239990234375,0.381072998046875,0.623077392578125
1776870096699652000,5.164652099609375,-0.7650299072265625,0.3585205078125,0.6627655029296875
1776870096709688000,5.17468798828125,-0.72210693359375,0.3338775634765625,0.6920928955078125
1776870096719724300,5.184724365234375,-0.7233428955078125,0.326080322265625,0.707763671875
1776870096729761000,5.194760986328125,-0.747344970703125,0.317718505859375,0.7262115478515625
1776870096739797200,5.20479736328125,-0.7462310791015625,0.3048858642578125,0.736541748046875
1776870096749834200,5.214834228515625,-0.6971282958984375,0.2993621826171875,0.7441864013671875
1776870096759870200,5.2248701171875,-0.6719207763671875,0.3268890380859375,0.7341461181640625
1776870096769907200,5.2349072265625,-0.678070068359375,0.3692626953125,0.7037811279296875
1776870096779943200,5.244943115234375,-0.6793060302734375,0.409423828125,0.6703643798828125
1776870096789979100,5.254979248046875,-0.6695709228515625,0.440887451171875,0.6353302001953125
1776870096800016100,5.26501611328125,-0.636932373046875,0.4627685546875,0.6044464111328125
1776870096810052000,5.275052001953125,-0.6373291015625,0.48553466796875,0.581146240234375
1776870096820089600,5.285089599609375,-0.622833251953125,0.49615478515625,0.55743408203125
1776870096830125600,5.29512548828125,-0.6376190185546875,0.5095367431640625,0.5401153564453125
1776870096840162600,5.30516259765625,-0.624298095703125,0.516357421875,0.5182342529296875
1776870096850198500,5.315198486328125,-0.554473876953125,0.503570556640625,0.4850921630859375
1776870096860234500,5.325234375,-0.5402374267578125,0.509735107421875,0.4782562255859375
1776870096870271500,5.335271484375,-0.5384521484375,0.5214691162109375,0.4725189208984375
1776870096880307500,5.345307373046875,-0.5340118408203125,0.5325469970703125,0.4692535400390625
1776870096890344400,5.355344482421875,-0.5417938232421875,0.5532073974609375,0.4659271240234375
1776870096900380400,5.36538037109375,-0.498016357421875,0.5703582763671875,0.4520416259765625
1776870096910417700,5.375417724609375,-0.4924774169921875,0.6095733642578125,0.4324798583984375
1776870096920453600,5.38545361328125,-0.5063323974609375,0.6503753662109375,0.4279327392578125
1776870096930490400,5.395490478515625,-0.5057220458984375,0.67181396484375,0.4302825927734375
1776870096940526600,5.405526611328125,-0.48828125,0.6800384521484375,0.428802490234375
1776870096950563300,5.415563232421875,-0.4678955078125,0.691558837890625,0.4280853271484375
1776870096960599300,5.425599365234375,-0.462432861328125,0.7100372314453125,0.4290771484375
1776870096970635500,5.435635498046875,-0.470062255859375,0.732574462890625,0.4254302978515625
1776870096980672500,5.445672607421875,-0.45916748046875,0.753997802734375,0.4279022216796875
1776870096990708500,5.45570849609375,-0.4551849365234375,0.7837371826171875,0.425079345703125
1776870097000745500,5.465745361328125,-0.4418487548828125,0.812469482421875,0.4267425537109375
1776870097010781400,5.475781494140625,-0.4160919189453125,0.8358306884765625,0.4279022216796875
1776870097020818400,5.485818359375,-0.410247802734375,0.8665771484375,0.4326324462890625
1776870097030854400,5.4958544921875,-0.4068603515625,0.8851165771484375,0.439056396484375
1776870097040891400,5.505891357421875,-0.3871917724609375,0.8868255615234375,0.4429779052734375
1776870097050927400,5.51592724609375,-0.3567962646484375,0.8884429931640625,0.4441070556640625
1776870097060963300,5.52596337890625,-0.325225830078125,0.89410400390625,0.434906005859375
1776870097071000600,5.53600048828125,-0.3127593994140625,0.9108123779296875,0.437164306640625
1776870097081036500,5.54603662109375,-0.34075927734375,0.9262237548828125,0.4416961669921875
1776870097091073500,5.556073486328125,-0.3623199462890625,0.9459686279296875,0.430999755859375
1776870097101109500,5.566109619140625,-0.3678131103515625,0.9481201171875,0.4072265625
1776870097111146500,5.576146484375,-0.35906982421875,0.940643310546875,0.394439697265625
1776870097121182500,5.586182373046875,-0.3466033935546875,0.935150146484375,0.368804931640625
1776870097131219500,5.596219482421875,-0.3173370361328125,0.93109130859375,0.325164794921875
1776870097141255400,5.60625537109375,-0.2751617431640625,0.901092529296875,0.2998199462890625
1776870097151292700,5.616292724609375,-0.213104248046875,0.8702239990234375,0.267242431640625
1776870097161328600,5.62632861328125,-0.165557861328125,0.8548583984375,0.2231292724609375
1776870097171365400,5.636365478515625,-0.1553192138671875,0.8565521240234375,0.169464111328125
1776870097181401600,5.646401611328125,-0.1609039306640625,0.8517303466796875,0.126434326171875
1776870097191437600,5.6564375,-0.1472015380859375,0.837005615234375,0.1068572998046875
1776870097201474300,5.666474365234375,-0.1371307373046875,0.8131866455078125,0.09686279296875
1776870097211510500,5.676510498046875,-0.1424560546875,0.7957000732421875,0.0934600830078125
1776870097221547500,5.686547607421875,-0.1357879638671875,0.7845458984375,0.095672607421875
1776870097231583500,5.69658349609375,-0.136260986328125,0.7915496826171875,0.080535888671875
1776870097241620500,5.706620361328125,-0.1416015625,0.8024139404296875,0.0633087158203125
1776870097251656400,5.716656494140625,-0.1446075439453125,0.8181915283203125,0.050384521484375
1776870097261693400,5.726693359375,-0.1422882080078125,0.8374176025390625,0.033721923828125
1776870097271729400,5.7367294921875,-0.1502685546875,0.83966064453125,0.0230255126953125
1776870097281766400,5.746766357421875,-0.15447998046875,0.8331298828125,0.01715087890625
1776870097291802400,5.75680224609375,-0.140869140625,0.8276519775390625,0.02154541015625
1776870097301839600,5.766839599609375,-0.12371826171875,0.8216400146484375,0.0166168212890625
1776870097311875600,5.77687548828125,-0.116302490234375,0.811309814453125,0.006744384765625
1776870097321911600,5.78691162109375,-0.1450653076171875,0.787261962890625,-0.008544921875
1776870097331948500,5.796948486328125,-0.1713409423828125,0.76080322265625,-0.0272979736328125
1776870097341984500,5.806984619140625,-0.1827545166015625,0.7427215576171875,-0.0244598388671875
1776870097352021500,5.817021484375,-0.1925811767578125,0.73309326171875,-0.02203369140625
1776870097362057500,5.827057373046875,-0.2069549560546875,0.7154693603515625,-0.0235595703125
1776870097372094500,5.837094482421875,-0.216644287109375,0.7076263427734375,-0.0233154296875
1776870097382130400,5.84713037109375,-0.2078857421875,0.714630126953125,-0.038604736328125
1776870097392167700,5.857167724609375,-0.184112548828125,0.727294921875,-0.04644775390625
1776870097402203600,5.86720361328125,-0.1679229736328125,0.752716064453125,-0.0501251220703125
1776870097412240400,5.877240478515625,-0.1455535888671875,0.7840576171875,-0.0588531494140625
1776870097422276600,5.887276611328125,-0.1102447509765625,0.820587158203125,-0.067626953125
1776870097432313300,5.897313232421875,-0.07855224609375,0.8660430908203125,-0.0810546875
1776870097442349300,5.907349365234375,-0.06915283203125,0.9227447509765625,-0.0903778076171875
1776870097452386300,5.91738623046875,-0.076385498046875,0.976806640625,-0.09893798828125
1776870097462422500,5.927422607421875,-0.0886383056640625,1.01385498046875,-0.1028594970703125
1776870097472459500,5.93745947265625,-0.10638427734375,1.02838134765625,-0.100860595703125
1776870097482495500,5.94749560546875,-0.13006591796875,1.0301513671875,-0.1114044189453125
1776870097492532500,5.957532470703125,-0.1462860107421875,1.0343017578125,-0.1190338134765625
1776870097502568400,5.967568359375,-0.1475372314453125,1.0634918212890625,-0.1231536865234375
1776870097512605400,5.97760546875,-0.1269378662109375,1.0873260498046875,-0.1271514892578125
1776870097522641400,5.987641357421875,-0.09375,1.0851287841796875,-0.1269683837890625
1776870097532677400,5.997677490234375,-0.05517578125,1.050445556640625,-0.13031005859375
1776870097542714600,6.007714599609375,-0.019195556640625,1.0032806396484375,-0.123809814453125
1776870097552750600,6.01775048828125,0.017486572265625,0.9664306640625,-0.1192169189453125
1776870097562787600,6.02778759765625,0.04278564453125,0.9367218017578125,-0.10906982421875
1776870097572823600,6.037823486328125,0.053802490234375,0.9167938232421875,-0.0915679931640625
1776870097582860500,6.047860595703125,0.0548858642578125,0.8981475830078125,-0.0724029541015625
1776870097592896500,6.057896484375,0.0318603515625,0.893524169921875,-0.0565032958984375
1776870097602933500,6.06793359375,0.003143310546875,0.909454345703125,-0.047607421875
1776870097612969500,6.077969482421875,-0.0362701416015625,0.937957763671875,-0.046112060546875
1776870097623006500,6.08800634765625,-0.0796051025390625,0.96893310546875,-0.0483856201171875
1776870097633042700,6.098042724609375,-0.122467041015625,0.984649658203125,-0.059051513671875
1776870097643079400,6.108079345703125,-0.1476593017578125,0.9825286865234375,-0.0715179443359375
1776870097653115400,6.118115478515625,-0.1536865234375,0.978546142578125,-0.0858001708984375
1776870097663152400,6.12815234375,-0.144195556640625,0.9703369140625,-0.1037445068359375
1776870097673188400,6.138188232421875,-0.1226043701171875,0.979400634765625,-0.1185455322265625
1776870097683225300,6.148225341796875,-0.1017608642578125,1.00689697265625,-0.134521484375
1776870097693261300,6.15826123046875,-0.0687713623046875,1.041595458984375,-0.1490020751953125
1776870097703298600,6.168298583984375,-0.0308380126953125,1.0721893310546875,-0.1623077392578125
1776870097713334500,6.17833447265625,-0.010223388671875,1.0857696533203125,-0.17218017578125
1776870097723371500,6.18837158203125,0.00579833984375,1.1090850830078125,-0.1880950927734375
1776870097733407500,6.198407470703125,-0.00360107421875,1.12408447265625,-0.1990814208984375
1776870097743444500,6.208444580078125,-0.001800537109375,1.1263427734375,-0.2123870849609375
1776870097753480400,6.21848046875,-0.0068359375,1.1045684814453125,-0.21148681640625
1776870097763517400,6.228517333984375,-0.033111572265625,1.0354461669921875,-0.2047882080078125
1776870097773553700,6.2385537109375,-0.0559539794921875,0.9889068603515625,-0.19354248046875
1776870097783590700,6.248590576171875,-0.071929931640625,1.0071563720703125,-0.1717529296875
1776870097793626600,6.258626708984375,-0.0891876220703125,1.0439910888671875,-0.1411590576171875
1776870097803663600,6.26866357421875,-0.0914154052734375,1.05029296875,-0.11688232421875
1776870097813699000,6.278698974609375,-0.0651092529296875,1.0232391357421875,-0.1053009033203125
1776870097823736000,6.288736083984375,-0.0162200927734375,0.9820556640625,-0.105560302734375
1776870097833772300,6.298772216796875,0.036376953125,0.9499359130859375,-0.1031341552734375
1776870097843809000,6.30880908203125,0.07501220703125,0.9322052001953125,-0.0956878662109375
1776870097853845000,6.318844970703125,0.0883026123046875,0.91656494140625,-0.0870819091796875
1776870097863882000,6.328882080078125,0.0812835693359375,0.909423828125,-0.080230712890625
1776870097873918000,6.33891796875,0.062255859375,0.9156951904296875,-0.07391357421875
1776870097883955000,6.348954833984375,0.037933349609375,0.9343414306640625,-0.0690155029296875
1776870097893991200,6.3589912109375,0.0032806396484375,0.9659881591796875,-0.0671234130859375
1776870097904028200,6.369028076171875,-0.032440185546875,1.0018310546875,-0.069366455078125
1776870097914064100,6.379064208984375,-0.0654754638671875,1.0302886962890625,-0.079193115234375
1776870097924101000,6.38910107421875,-0.0846405029296875,1.038665771484375,-0.09381103515625
1776870097934137000,6.39913720703125,-0.0889739990234375,1.034423828125,-0.11083984375
1776870097944174000,6.409174072265625,-0.08349609375,1.0239715576171875,-0.12542724609375
1776870097954210000,6.4192099609375,-0.0696563720703125,1.012451171875,-0.133148193359375
1776870097964247300,6.429247314453125,-0.0522308349609375,0.997100830078125,-0.1344451904296875
1776870097974283300,6.439283203125,-0.0305023193359375,0.98236083984375,-0.1304168701171875
1776870097984320300,6.4493203125,-0.0057525634765625,0.982086181640625,-0.1210784912109375
1776870097994356200,6.459356201171875,0.0099945068359375,1.0020904541015625,-0.111236572265625
1776870098004393200,6.469393310546875,0.0074005126953125,1.0319366455078125,-0.1093292236328125
1776870098014429200,6.47942919921875,-0.0064239501953125,1.05755615234375,-0.110595703125
1776870098024466000,6.4894658203125,-0.0372772216796875,1.0767059326171875,-0.1221923828125
1776870098034502100,6.499502197265625,-0.0623626708984375,1.078216552734375,-0.13409423828125
1776870098044539100,6.5095390625,-0.0926361083984375,1.05926513671875,-0.1392974853515625
1776870098054575000,6.5195751953125,-0.112762451171875,1.03936767578125,-0.143035888671875
1776870098064612000,6.529612060546875,-0.1201171875,1.024993896484375,-0.14935302734375
1776870098074648000,6.53964794921875,-0.108123779296875,1.0180206298828125,-0.1509857177734375
1776870098084685000,6.54968505859375,-0.0951080322265625,1.0135345458984375,-0.1548614501953125
1776870098094721000,6.559720947265625,-0.08404541015625,1.0172576904296875,-0.1545562744140625
1776870098104758000,6.569758056640625,-0.0808868408203125,1.03106689453125,-0.15386962890625
1776870098114794000,6.5797939453125,-0.0840606689453125,1.047760009765625,-0.1545867919921875
1776870098124831200,6.589831298828125,-0.0987396240234375,1.053985595703125,-0.1594390869140625
1776870098134867200,6.5998671875,-0.120147705078125,1.049560546875,-0.1636505126953125
1776870098144904200,6.609904296875,-0.1361541748046875,1.021331787109375,-0.1592559814453125
1776870098154940200,6.619940185546875,-0.1402587890625,0.969696044921875,-0.1391143798828125
1776870098164977200,6.62997705078125,-0.1450347900390625,0.9080810546875,-0.1188201904296875
1776870098175013000,6.64001318359375,-0.1433868408203125,0.848602294921875,-0.101165771484375
1776870098185050000,6.650050048828125,-0.1158599853515625,0.803131103515625,-0.0910491943359375
1776870098195087000,6.660087158203125,-0.057220458984375,0.7748870849609375,-0.080657958984375
1776870098205123000,6.670123046875,0.0042266845703125,0.75616455078125,-0.0748443603515625
1776870098215160000,6.68016015625,0.03857421875,0.7414703369140625,-0.0732421875
1776870098225196000,6.690196044921875,0.037872314453125,0.745025634765625,-0.076995849609375
1776870098235233000,6.70023291015625,0.0101318359375,0.76507568359375,-0.085968017578125
1776870098245269000,6.71026904296875,-0.0334625244140625,0.8060455322265625,-0.1000518798828125
1776870098255306000,6.720305908203125,-0.1025238037109375,0.872161865234375,-0.1150970458984375
1776870098265342000,6.730342041015625,-0.2163238525390625,0.948699951171875,-0.125
1776870098275379200,6.740379150390625,-0.31768798828125,0.9944305419921875,-0.1138153076171875
1776870098285415200,6.750415283203125,-0.3399200439453125,0.9846038818359375,-0.07275390625
1776870098295452200,6.7604521484375,-0.2737274169921875,0.9453125,-0.0189666748046875
1776870098305488100,6.770488037109375,-0.1855010986328125,0.8800811767578125,0.038818359375
1776870098315525000,6.780525146484375,-0.08453369140625,0.7845916748046875,0.0948333740234375
1776870098325561000,6.79056103515625,0.01617431640625,0.6788787841796875,0.12860107421875
1776870098335598300,6.800598388671875,0.076385498046875,0.5896148681640625,0.155914306640625
1776870098345634300,6.81063427734375,0.0742340087890625,0.5361785888671875,0.1745452880859375
1776870098355671000,6.820671142578125,0.0837554931640625,0.510711669921875,0.172332763671875
1776870098365707300,6.830707275390625,0.0264129638671875,0.5354461669921875,0.174713134765625
1776870098375744000,6.840743896484375,-0.2256622314453125,0.6489105224609375,0.1788330078125
1776870098385780200,6.8507802734375,-0.53558349609375,0.809051513671875,0.12847900390625
1776870098395817000,6.86081689453125,-0.6634674072265625,0.9037628173828125,0.0777587890625
1776870098405853000,6.87085302734375,-0.5845794677734375,0.9104156494140625,0.05035400390625
1776870098415890200,6.88089013671875,-0.4564666748046875,0.8647918701171875,0.0288848876953125
1776870098425926100,6.890926025390625,-0.252716064453125,0.824188232421875,-0.0245819091796875
1776870098435963100,6.900963134765625,-0.0807037353515625,0.81109619140625,-0.090667724609375
1776870098445999000,6.9109990234375,-0.045928955078125,0.8284759521484375,-0.1757965087890625
1776870098456036000,6.9210361328125,-0.0748138427734375,0.816802978515625,-0.2363739013671875
1776870098466073000,6.931072998046875,-0.1123046875,0.7884979248046875,-0.2338409423828125
1776870098476109000,6.941109130859375,-0.1016998291015625,0.7449188232421875,-0.19451904296875
1776870098486146300,6.951146240234375,-0.0626678466796875,0.6814422607421875,-0.0968475341796875
1776870098496182300,6.961182373046875,-0.11676025390625,0.64947509765625,0.0246429443359375
1776870098506219300,6.97121923828125,-0.254150390625,0.662567138671875,0.1468048095703125
1776870098516255200,6.981255126953125,-0.387420654296875,0.7079620361328125,0.242218017578125
1776870098526292000,6.9912919921875,-0.4557952880859375,0.7708740234375,0.3175506591796875
1776870098536328200,7.001328125,-0.42669677734375,0.850677490234375,0.364410400390625
1776870098546365000,7.011364990234375,-0.3753814697265625,0.936737060546875,0.383758544921875
1776870098556401000,7.02140087890625,-0.3393402099609375,1.00421142578125,0.40863037109375
1776870098566438100,7.031438232421875,-0.3097686767578125,1.0461273193359375,0.451416015625
1776870098576474000,7.04147412109375,-0.279052734375,1.0640106201171875,0.4979705810546875
1776870098586511000,7.051510986328125,-0.2729339599609375,1.0589752197265625,0.560577392578125
1776870098596547000,7.061547119140625,-0.282745361328125,1.0264129638671875,0.62652587890625
1776870098606584000,7.071583984375,-0.25152587890625,0.9705352783203125,0.6793212890625
1776870098616620000,7.0816201171875,-0.2439422607421875,0.91290283203125,0.7064056396484375
1776870098626657000,7.091656982421875,-0.211212158203125,0.8261566162109375,0.672515869140625
1776870098636693000,7.10169287109375,-0.2908782958984375,0.7080535888671875,0.548553466796875
1776870098646730200,7.111730224609375,-0.3841705322265625,0.6475067138671875,0.437957763671875
1776870098656766200,7.12176611328125,-0.4020233154296875,0.6423492431640625,0.3777313232421875
1776870098666803200,7.13180322265625,-0.4198150634765625,0.6468048095703125,0.3685302734375
1776870098676840200,7.141840087890625,-0.392974853515625,0.6695404052734375,0.38641357421875
1776870098686876200,7.151876220703125,-0.394744873046875,0.751007080078125,0.408447265625
1776870098696913000,7.161912841796875,-0.4131927490234375,0.851043701171875,0.436737060546875
1776870098706949000,7.17194921875,-0.4631500244140625,0.909942626953125,0.4821929931640625
1776870098716986000,7.181986083984375,-0.6027069091796875,0.9314727783203125,0.5339202880859375
1776870098727022000,7.19202197265625,-0.7244720458984375,0.899810791015625,0.5458984375
1776870098737059000,7.20205908203125,-0.74127197265625,0.84014892578125,0.5435943603515625
1776870098747095000,7.212094970703125,-0.689056396484375,0.76385498046875,0.5316314697265625
1776870098757132000,7.222132080078125,-0.6084747314453125,0.725921630859375,0.4933624267578125
1776870098767168000,7.23216796875,-0.5467071533203125,0.68316650390625,0.4669036865234375
1776870098777205200,7.242205322265625,-0.55340576171875,0.608917236328125,0.4684295654296875
1776870098787241200,7.2522412109375,-0.605621337890625,0.55291748046875,0.47930908203125
1776870098797278200,7.2622783203125,-0.6384735107421875,0.53076171875,0.512176513671875
1776870098807314200,7.272314208984375,-0.679931640625,0.4946441650390625,0.54083251953125
1776870098817351200,7.28235107421875,-0.6136016845703125,0.462860107421875,0.54888916015625
1776870098827387100,7.29238720703125,-0.464599609375,0.4490509033203125,0.5723724365234375
1776870098837424000,7.302424072265625,-0.54547119140625,0.469970703125,0.6772918701171875
1776870098847461000,7.312461181640625,-0.6862945556640625,0.5091705322265625,0.703948974609375
1776870098857497000,7.3224970703125,-0.738616943359375,0.54083251953125,0.6739349365234375
1776870098867534000,7.3325341796875,-0.6447296142578125,0.5625,0.6320037841796875
1776870098877570000,7.342570068359375,-0.5894317626953125,0.565460205078125,0.623779296875
1776870098887607000,7.35260693359375,-0.7044219970703125,0.5215606689453125,0.6257476806640625
1776870098897643000,7.36264306640625,-0.60400390625,0.4640350341796875,0.68511962890625
1776870098907680000,7.372679931640625,-0.515228271484375,0.4022979736328125,0.778228759765625
1776870098917716000,7.382716064453125,-0.581451416015625,0.32781982421875,0.9349822998046875
1776870098927753200,7.392753173828125,-0.6998748779296875,0.3477935791015625,1.021148681640625
1776870098937789200,7.4027890625,-0.789276123046875,0.456390380859375,0.929107666015625
1776870098947826200,7.412826171875,-0.8160552978515625,0.56829833984375,0.7801361083984375
1776870098957862100,7.422862060546875,-0.7884368896484375,0.5921173095703125,0.670196533203125
1776870098967899100,7.432899169921875,-0.7286834716796875,0.5211334228515625,0.63079833984375
1776870098977936100,7.44293603515625,-0.70294189453125,0.4275054931640625,0.650299072265625
1776870098987972000,7.45297216796875,-0.7078857421875,0.2758636474609375,0.7939300537109375
1776870098998009000,7.463009033203125,-0.780120849609375,0.2358856201171875,0.937255859375
1776870099008045300,7.47304541015625,-0.8612823486328125,0.3504180908203125,0.96099853515625
1776870099018082000,7.48308203125,-0.8809967041015625,0.4813995361328125,0.950439453125
1776870099028118000,7.493117919921875,-0.92694091796875,0.586639404296875,0.868316650390625
1776870099038155000,7.503155029296875,-0.92877197265625,0.6329803466796875,0.7786712646484375
1776870099048191000,7.51319091796875,-0.9153900146484375,0.565399169921875,0.7966156005859375
1776870099058228000,7.52322802734375,-0.9418487548828125,0.4625396728515625,0.8831939697265625
1776870099068264000,7.533263916015625,-0.958099365234375,0.4161224365234375,0.967926025390625
1776870099078301200,7.54330126953125,-0.94805908203125,0.4178924560546875,1.0317230224609375
1776870099088337200,7.553337158203125,-0.979766845703125,0.4968414306640625,1.015106201171875
1776870099098374100,7.5633740234375,-1.01922607421875,0.60223388671875,0.9615631103515625
1776870099108411100,7.5734111328125,-1.007354736328125,0.641815185546875,0.9412994384765625
1776870099118447000,7.583447021484375,-0.950897216796875,0.623687744140625,0.975982666015625
1776870099128484000,7.593484130859375,-0.9448699951171875,0.606109619140625,0.97760009765625
1776870099138520000,7.60352001953125,-0.965087890625,0.598968505859375,0.9306793212890625
1776870099148557300,7.613557373046875,-0.8869171142578125,0.5612030029296875,0.904022216796875
1776870099158593300,7.62359326171875,-0.8287811279296875,0.525299072265625,0.8624114990234375
1776870099168630000,7.633630126953125,-0.80621337890625,0.522003173828125,0.82244873046875
1776870099178666200,7.643666259765625,-0.79132080078125,0.528045654296875,0.8299102783203125
1776870099188703000,7.653702880859375,-0.7872314453125,0.580291748046875,0.83929443359375
1776870099198739000,7.663739013671875,-0.7710723876953125,0.604888916015625,0.826202392578125
1776870099208776000,7.67377587890625,-0.709075927734375,0.635040283203125,0.8138580322265625
1776870099218813200,7.683813232421875,-0.7271575927734375,0.6502227783203125,0.788909912109375
1776870099228849200,7.69384912109375,-0.7077178955078125,0.6131744384765625,0.77459716796875
1776870099238886100,7.70388623046875,-0.6592254638671875,0.5810089111328125,0.743896484375
1776870099248922000,7.713922119140625,-0.6556549072265625,0.5329132080078125,0.70556640625
1776870099258959000,7.723958984375,-0.6156768798828125,0.4938201904296875,0.701171875
1776870099268995000,7.7339951171875,-0.6018829345703125,0.50469970703125,0.6916961669921875
1776870099279032300,7.7440322265625,-0.6082611083984375,0.515167236328125,0.6916961669921875
1776870099289068300,7.754068359375,-0.5810089111328125,0.5360870361328125,0.690673828125
1776870099299105300,7.764105224609375,-0.6068267822265625,0.570587158203125,0.6595001220703125
1776870099309142000,7.77414208984375,-0.63427734375,0.5767059326171875,0.643829345703125
1776870099319178000,7.784177978515625,-0.642852783203125,0.576141357421875,0.6329498291015625
1776870099329215000,7.794215087890625,-0.6295318603515625,0.5761260986328125,0.6155242919921875
1776870099339251000,7.8042509765625,-0.589385986328125,0.5760650634765625,0.611175537109375
1776870099349288200,7.8142880859375,-0.583587646484375,0.5739898681640625,0.60784912109375
1776870099359324200,7.82432421875,-0.584320068359375,0.5620880126953125,0.6051177978515625
1776870099369361200,7.834361083984375,-0.56072998046875,0.550689697265625,0.600006103515625
1776870099379397000,7.844397216796875,-0.5367889404296875,0.5570068359375,0.588714599609375
1776870099389434000,7.85443408203125,-0.5349884033203125,0.5798187255859375,0.56805419921875
1776870099399471000,7.86447119140625,-0.5213623046875,0.5959320068359375,0.5530548095703125
1776870099409507000,7.874507080078125,-0.50897216796875,0.6038665771484375,0.5352783203125
1776870099419544300,7.88454443359375,-0.4774932861328125,0.5988311767578125,0.5258636474609375
1776870099429580300,7.894580322265625,-0.4452972412109375,0.59222412109375,0.5281982421875
1776870099439617300,7.9046171875,-0.441558837890625,0.6066741943359375,0.5241851806640625
1776870099449653200,7.9146533203125,-0.4222869873046875,0.61578369140625,0.5214996337890625
1776870099459690000,7.92468994140625,-0.40185546875,0.6390838623046875,0.5064544677734375
1776870099469726200,7.934726318359375,-0.400543212890625,0.66265869140625,0.4947509765625
1776870099479763000,7.944762939453125,-0.3916473388671875,0.6781005859375,0.495635986328125
1776870099489800200,7.95480029296875,-0.387359619140625,0.702117919921875,0.4986114501953125
1776870099499836200,7.964836181640625,-0.373687744140625,0.727508544921875,0.495086669921875
1776870099509873200,7.974873046875,-0.3530731201171875,0.7641143798828125,0.4763946533203125
1776870099519909000,7.9849091796875,-0.33087158203125,0.79986572265625,0.4580230712890625
1776870099529946000,7.994946044921875,-0.31103515625,0.82647705078125,0.4528045654296875
1776870099539982000,8.004982177734375,-0.30889892578125,0.8525390625,0.4565887451171875
1776870099550019000,8.01501904296875,-0.3288116455078125,0.865142822265625,0.467041015625
1776870099560055000,8.025054931640625,-0.3395538330078125,0.8645172119140625,0.4893341064453125
1776870099570092300,8.03509228515625,-0.36151123046875,0.8698577880859375,0.4904022216796875
1776870099580129000,8.04512890625,-0.3639984130859375,0.8806304931640625,0.4866790771484375
1776870099590165200,8.055165283203126,-0.354522705078125,0.9005279541015625,0.4745941162109375
1776870099600202000,8.065201904296876,-0.3477325439453125,0.921661376953125,0.4454498291015625
1776870099610238000,8.075238037109376,-0.3441925048828125,0.94189453125,0.42535400390625
1776870099620275000,8.08527490234375,-0.3383636474609375,0.9490203857421875,0.4163665771484375
1776870099630311000,8.095310791015624,-0.3398284912109375,0.9580078125,0.4017181396484375
1776870099640348200,8.10534814453125,-0.355194091796875,0.966461181640625,0.3890838623046875
1776870099650385200,8.11538525390625,-0.3619232177734375,0.9713287353515625,0.349273681640625
1776870099660421000,8.125421142578125,-0.3572540283203125,0.9701385498046875,0.3259735107421875
1776870099670458000,8.1354580078125,-0.3217926025390625,0.959991455078125,0.307281494140625
1776870099680494000,8.145494140625,-0.2736053466796875,0.953369140625,0.2807769775390625
1776870099690531000,8.155531005859375,-0.247650146484375,0.957611083984375,0.2553558349609375
1776870099700567000,8.165567138671875,-0.23529052734375,0.95819091796875,0.22650146484375
1776870099710604300,8.175604248046875,-0.2462615966796875,0.96087646484375,0.186981201171875
1776870099720640300,8.18564013671875,-0.2661895751953125,0.9598388671875,0.14312744140625
1776870099730677200,8.19567724609375,-0.2609710693359375,0.9462432861328125,0.1238555908203125
1776870099740714000,8.2057138671875,-0.222015380859375,0.926300048828125,0.1102447509765625
1776870099750750000,8.21575,-0.175994873046875,0.90252685546875,0.0996856689453125
1776870099760787000,8.225786865234374,-0.136322021484375,0.8670806884765625,0.099609375
1776870099770823000,8.235822998046874,-0.1126861572265625,0.83441162109375,0.0971832275390625
1776870099780860200,8.245860107421874,-0.101409912109375,0.81378173828125,0.084686279296875
1776870099790896000,8.255896240234375,-0.1031036376953125,0.7972412109375,0.0658416748046875
1776870099800933000,8.26593310546875,-0.1012115478515625,0.785003662109375,0.04217529296875
1776870099810970000,8.27597021484375,-0.099029541015625,0.770233154296875,0.01678466796875
1776870099821006600,8.286006591796875,-0.1018524169921875,0.756378173828125,0.0032196044921875
1776870099831043600,8.296043701171875,-0.09100341796875,0.7359619140625,0.0055389404296875
1776870099841079600,8.30607958984375,-0.0687408447265625,0.71380615234375,0.0100250244140625
1776870099851116500,8.316116455078125,-0.069793701171875,0.6848602294921875,0.0111236572265625
1776870099861152500,8.326152587890626,-0.10333251953125,0.6600341796875,0.001220703125
1776870099871189500,8.336189453125,-0.16058349609375,0.6314849853515625,0.0021209716796875
1776870099881226500,8.3462265625,-0.2066497802734375,0.6064453125,-0.0027618408203125
1776870099891262500,8.356262451171874,-0.2110595703125,0.5987091064453125,-0.00640869140625
1776870099901299500,8.366299560546874,-0.1929779052734375,0.59918212890625,-0.0067596435546875
1776870099911335400,8.37633544921875,-0.1720123291015625,0.5937347412109375,-0.0105438232421875
1776870099921372400,8.386372314453125,-0.1472625732421875,0.5770416259765625,-0.00750732421875
1776870099931409700,8.39640966796875,-0.1451568603515625,0.5756988525390625,-0.017974853515625
1776870099941445600,8.406445556640625,-0.1544036865234375,0.578460693359375,-0.0329742431640625
1776870099951482600,8.416482666015625,-0.14556884765625,0.589447021484375,-0.04296875
1776870099961518600,8.4265185546875,-0.1255035400390625,0.637725830078125,-0.0440521240234375
1776870099971555600,8.4365556640625,-0.1079559326171875,0.6950225830078125,-0.061431884765625
1776870099981591600,8.446591552734375,-0.09075927734375,0.763397216796875,-0.088165283203125
1776870099991628300,8.456628173828125,-0.0933685302734375,0.84356689453125,-0.1192626953125
1776870100001665500,8.46666552734375,-0.1043701171875,0.9239044189453125,-0.1463775634765625
1776870100011701500,8.476701416015626,-0.1211090087890625,1.0054931640625,-0.1669464111328125
1776870100021738500,8.486738525390624,-0.1327362060546875,1.0884246826171875,-0.182464599609375
1776870100031774500,8.4967744140625,-0.124053955078125,1.14892578125,-0.1996002197265625
1776870100041811500,8.5068115234375,-0.078338623046875,1.198699951171875,-0.2142791748046875
1776870100051848400,8.516848388671875,-0.02874755859375,1.224761962890625,-0.219757080078125
1776870100061884400,8.526884521484375,0.0271148681640625,1.2025146484375,-0.229217529296875
1776870100071921700,8.536921630859375,0.087799072265625,1.1381378173828125,-0.21929931640625
1776870100081957600,8.54695751953125,0.1358184814453125,1.0620269775390625,-0.187103271484375
1776870100091994600,8.55699462890625,0.150390625,0.9808807373046875,-0.147613525390625
1776870100102030600,8.567030517578125,0.1469268798828125,0.91180419921875,-0.104949951171875
1776870100112067600,8.577067626953125,0.1040496826171875,0.8686676025390625,-0.0765228271484375
1776870100122104300,8.587104248046876,0.0534210205078125,0.849029541015625,-0.0617523193359375
1776870100132140300,8.597140380859376,-0.0072174072265625,0.8498382568359375,-0.062103271484375
1776870100142177500,8.607177490234376,-0.07012939453125,0.8853607177734375,-0.07373046875
1776870100152213500,8.617213623046876,-0.1241607666015625,0.9451751708984375,-0.09228515625
1776870100162250500,8.62725048828125,-0.175537109375,1.0145263671875,-0.1179962158203125
1776870100172287500,8.63728759765625,-0.2224884033203125,1.0810699462890625,-0.144927978515625
1776870100182323500,8.647323486328125,-0.236236572265625,1.1445465087890625,-0.174224853515625
1776870100192360400,8.6573603515625,-0.224395751953125,1.1965179443359375,-0.2043914794921875
1776870100202396400,8.667396484375,-0.1872406005859375,1.2215728759765625,-0.231658935546875
1776870100212433700,8.67743359375,-0.1195526123046875,1.2085723876953125,-0.2515869140625
1776870100222470400,8.687470458984375,-0.046234130859375,1.1571197509765625,-0.25592041015625
1776870100232506600,8.697506591796875,-0.004425048828125,1.0851898193359375,-0.23443603515625
1776870100242543400,8.70754345703125,0.009368896484375,1.0222015380859375,-0.195281982421875
1776870100252579300,8.717579345703125,0.0187835693359375,0.9692230224609375,-0.1600341796875
1776870100262616300,8.7276162109375,0.0279693603515625,0.927032470703125,-0.133056640625
1776870100272653600,8.737653564453124,0.03985595703125,0.9048919677734375,-0.112945556640625
1776870100282689500,8.747689453125,0.04974365234375,0.9079132080078125,-0.0951385498046875
1776870100292726500,8.7577265625,0.0472564697265625,0.92816162109375,-0.0779876708984375
1776870100302762500,8.767762451171874,0.0378570556640625,0.953521728515625,-0.0682373046875
1776870100312799500,8.777799560546875,0.0182952880859375,0.97930908203125,-0.0711517333984375
1776870100322836500,8.78783642578125,-0.000213623046875,1.0065155029296875,-0.089813232421875
1776870100332872400,8.79787255859375,-0.0157318115234375,1.023162841796875,-0.113555908203125
1776870100342909700,8.80790966796875,-0.02667236328125,1.0108642578125,-0.1284332275390625
1776870100352945700,8.817945556640625,-0.0315093994140625,0.9749755859375,-0.1250457763671875
1776870100362982400,8.827982421875,-0.0345001220703125,0.943359375,-0.1129150390625
1776870100373018600,8.8380185546875,-0.029266357421875,0.9312896728515625,-0.0986175537109375
1776870100383055400,8.848055419921875,-0.01788330078125,0.938446044921875,-0.09075927734375
1776870100393092400,8.85809228515625,-0.0001373291015625,0.958038330078125,-0.0905303955078125
1776870100403128300,8.86812841796875,0.0047760009765625,0.9837188720703125,-0.0899505615234375
1776870100413165600,8.87816552734375,-0.0012969970703125,1.004058837890625,-0.0921478271484375
1776870100423201500,8.888201416015624,-0.016021728515625,1.0210723876953125,-0.0978546142578125
1776870100433238500,8.898238525390624,-0.0414276123046875,1.0316925048828125,-0.104278564453125
1776870100443275500,8.908275634765625,-0.0724334716796875,1.0334014892578125,-0.112060546875
1776870100453311500,8.9183115234375,-0.1033172607421875,1.02874755859375,-0.117095947265625
1776870100463348500,8.928348388671875,-0.125579833984375,1.022003173828125,-0.1199951171875
1776870100473385500,8.938385498046875,-0.13134765625,1.0222015380859375,-0.12445068359375
1776870100483421400,8.94842138671875,-0.1177825927734375,1.0309295654296875,-0.126922607421875
1776870100493458400,8.95845849609375,-0.0871429443359375,1.040771484375,-0.129180908203125
1776870100503494400,8.968494384765625,-0.0493927001953125,1.041656494140625,-0.12811279296875
1776870100513531400,8.978531494140626,-0.0136566162109375,1.0279541015625,-0.1242828369140625
1776870100523568400,8.988568359375,0.0149993896484375,1.0018310546875,-0.115020751953125
1776870100533604400,8.998604248046876,0.03662109375,0.97747802734375,-0.1061553955078125
1776870100543641600,9.0086416015625,0.0497894287109375,0.9605712890625,-0.0974578857421875
1776870100553677600,9.018677490234374,0.0511474609375,0.9552459716796875,-0.0886688232421875
1776870100563714600,9.028714599609375,0.0400390625,0.9592437744140625,-0.081207275390625
1776870100573751600,9.03875146484375,0.0218658447265625,0.9768524169921875,-0.0767974853515625
1776870100583787500,9.04878759765625,0.003814697265625,1.00927734375,-0.0786895751953125
1776870100593824500,9.058824462890625,-0.0127716064453125,1.030670166015625,-0.0869293212890625
1776870100603860500,9.068860595703125,-0.0257720947265625,1.0303802490234375,-0.092742919921875
1776870100613897500,9.0788974609375,-0.0425567626953125,1.0087127685546875,-0.0960235595703125
1776870100623934500,9.0889345703125,-0.052947998046875,0.9835205078125,-0.1006622314453125
1776870100633970400,9.098970458984375,-0.0569000244140625,0.9711761474609375,-0.109039306640625
1776870100644007400,9.10900732421875,-0.0566558837890625,0.9738311767578125,-0.115020751953125
1776870100654043400,9.11904345703125,-0.0550384521484375,0.9885406494140625,-0.118408203125
1776870100664080400,9.129080322265626,-0.0532379150390625,1.005523681640625,-0.1193084716796875
1776870100674117600,9.13911767578125,-0.0525054931640625,1.016448974609375,-0.1185760498046875
1776870100684153600,9.149153564453124,-0.051239013671875,1.028167724609375,-0.118011474609375
1776870100694190600,9.159190673828125,-0.0514984130859375,1.0449981689453125,-0.1197357177734375
1776870100704226600,9.1692265625,-0.0455780029296875,1.05621337890625,-0.1246490478515625
1776870100714263600,9.179263671875,-0.0388031005859375,1.0566864013671875,-0.1326446533203125
1776870100724300300,9.18930029296875,-0.0300445556640625,1.0415191650390625,-0.1421356201171875
1776870100734336300,9.199336181640625,-0.0252227783203125,1.0129547119140625,-0.1527557373046875
1776870100744373500,9.20937353515625,-0.0306243896484375,0.9808807373046875,-0.162872314453125
1776870100754410500,9.219410400390625,-0.0499114990234375,0.958038330078125,-0.169891357421875
1776870100764446500,9.229446533203125,-0.0635223388671875,0.95648193359375,-0.172698974609375
1776870100774483500,9.2394833984375,-0.0657196044921875,0.9801025390625,-0.176300048828125
1776870100784519400,9.24951953125,-0.0640411376953125,1.02044677734375,-0.1802825927734375
1776870100794556400,9.259556396484374,-0.05621337890625,1.0596923828125,-0.184478759765625
1776870100804593700,9.26959375,-0.0412139892578125,1.0799713134765625,-0.1907501220703125
1776870100814633500,9.279633544921875,-0.0303497314453125,1.0713653564453125,-0.1952362060546875
1776870100824670200,9.289670166015625,-0.03717041015625,1.0375213623046875,-0.1931915283203125
1776870100834707200,9.299707275390626,-0.0574951171875,0.9980926513671875,-0.185577392578125
1776870100844743200,9.3097431640625,-0.0786895751953125,0.9710693359375,-0.174224853515625
1776870100854780400,9.319780517578126,-0.1030731201171875,0.9605865478515625,-0.166961669921875
1776870100864816400,9.32981640625,-0.1238555908203125,0.9657745361328125,-0.1656494140625
1776870100874853400,9.339853271484374,-0.127227783203125,0.9798736572265625,-0.167266845703125
1776870100884890400,9.349890380859375,-0.1170196533203125,0.9922332763671875,-0.1663360595703125
1776870100894926300,9.35992626953125,-0.1081390380859375,0.9873199462890625,-0.1600189208984375
1776870100904963300,9.36996337890625,-0.101898193359375,0.96563720703125,-0.148681640625
1776870100915000300,9.380000244140625,-0.090179443359375,0.9328765869140625,-0.1361541748046875
1776870100925036500,9.39003662109375,-0.084228515625,0.8979339599609375,-0.122467041015625
1776870100935073300,9.4000732421875,-0.07373046875,0.865142822265625,-0.1077423095703125
1776870100945109200,9.410109130859375,-0.0606231689453125,0.8382720947265625,-0.0926361083984375
1776870100955146200,9.420146240234375,-0.05999755859375,0.820068359375,-0.08013916015625
1776870100965183200,9.430183349609376,-0.0654296875,0.8167572021484375,-0.0818939208984375
1776870100975219200,9.44021923828125,-0.0594024658203125,0.837066650390625,-0.09765625
1776870100985256400,9.45025634765625,-0.04351806640625,0.87115478515625,-0.1199188232421875
1776870100995293400,9.46029345703125,-0.036956787109375,0.90478515625,-0.13873291015625
1776870101005329400,9.470329345703124,-0.048797607421875,0.93328857421875,-0.149871826171875
1776870101015366400,9.480366455078125,-0.0939483642578125,0.954833984375,-0.154327392578125
1776870101025402400,9.49040234375,-0.1741943359375,0.9682769775390625,-0.1457977294921875
1776870101035439400,9.500439453125,-0.2183990478515625,0.9553375244140625,-0.1197662353515625
1776870101045476400,9.510476318359375,-0.2395782470703125,0.939453125,-0.091217041015625
1776870101055512300,9.52051220703125,-0.246978759765625,0.911590576171875,-0.0614013671875
1776870101065549300,9.53054931640625,-0.2441558837890625,0.881805419921875,-0.0350189208984375
1776870101075586300,9.54058642578125,-0.204071044921875,0.8499908447265625,-0.00592041015625
1776870101085622300,9.550622314453125,-0.1412506103515625,0.8098907470703125,0.0149383544921875
1776870101095659300,9.5606591796875,-0.0867919921875,0.763885498046875,0.0367431640625
1776870101105695200,9.5706953125,-0.092864990234375,0.726226806640625,0.0621490478515625
1776870101115732500,9.580732421875,-0.1388397216796875,0.7122344970703125,0.06134033203125
1776870101125769500,9.59076953125,-0.23358154296875,0.733489990234375,0.047821044921875
1776870101135805400,9.600805419921874,-0.3381805419921875,0.77545166015625,0.013336181640625
1776870101145842400,9.610842529296875,-0.4035797119140625,0.813690185546875,-0.019256591796875
1776870101155879200,9.620879150390625,-0.3476409912109375,0.811309814453125,-0.039337158203125
1776870101165915100,9.6309150390625,-0.227386474609375,0.7890625,-0.0615081787109375
1776870101175952400,9.640952392578125,-0.128387451171875,0.7530975341796875,-0.0762176513671875
1776870101185988400,9.65098828125,-0.104339599609375,0.72332763671875,-0.0756988525390625
1776870101196025300,9.661025390625,-0.1558837890625,0.716217041015625,-0.05401611328125
1776870101206062300,9.671062255859376,-0.2125091552734375,0.7210845947265625,-0.0374908447265625
1776870101216098300,9.681098388671876,-0.200469970703125,0.7459564208984375,-0.0299072265625
1776870101226135300,9.69113525390625,-0.127166748046875,0.78643798828125,-0.0102691650390625
1776870101236172500,9.701172607421874,-0.0623626708984375,0.8357391357421875,0.01837158203125
1776870101246208500,9.71120849609375,-0.0494537353515625,0.884002685546875,0.0675811767578125
1776870101256245200,9.721245361328124,-0.1121063232421875,0.9164276123046875,0.1326446533203125
1776870101266282200,9.7312822265625,-0.2177734375,0.9392852783203125,0.222320556640625
1776870101276318200,9.741318115234375,-0.3043060302734375,0.9434967041015625,0.30181884765625
1776870101286355200,9.751355224609375,-0.3422698974609375,0.9427337646484375,0.3476715087890625
1776870101296391200,9.76139111328125,-0.342193603515625,0.9429473876953125,0.3603973388671875
1776870101306428400,9.771428466796875,-0.2916107177734375,0.9582366943359375,0.3570709228515625
1776870101316465400,9.78146533203125,-0.209564208984375,0.9735260009765625,0.3365631103515625
1776870101326501400,9.79150146484375,-0.1700592041015625,0.9832000732421875,0.317535400390625
1776870101336538400,9.801538330078126,-0.169158935546875,0.9824066162109375,0.3121795654296875
1776870101346575400,9.811575439453126,-0.1937103271484375,0.9623565673828125,0.319366455078125
1776870101356611300,9.821611328125,-0.2776947021484375,0.927978515625,0.2982635498046875
1776870101366648300,9.8316484375,-0.3801116943359375,0.8755340576171875,0.2631378173828125
1776870101376685300,9.841685302734374,-0.4130706787109375,0.8352203369140625,0.2397918701171875
1776870101386721300,9.85172119140625,-0.372283935546875,0.812591552734375,0.212005615234375
1776870101396758300,9.86175830078125,-0.3268280029296875,0.7932891845703125,0.193389892578125
1776870101406795300,9.871795166015625,-0.3068695068359375,0.7866973876953125,0.2010650634765625
1776870101416831200,9.881831298828125,-0.3176727294921875,0.7985992431640625,0.2342529296875
1776870101426868500,9.891868408203125,-0.346221923828125,0.824188232421875,0.27685546875
1776870101436904400,9.901904541015625,-0.4076690673828125,0.86224365234375,0.3095703125
1776870101446941400,9.91194140625,-0.4749298095703125,0.9013671875,0.3489837646484375
1776870101456978400,9.921978515625,-0.4890899658203125,0.920166015625,0.39031982421875
1776870101467014400,9.932014404296876,-0.4525909423828125,0.9049224853515625,0.4261932373046875
1776870101477051100,9.942051025390626,-0.3914031982421875,0.881317138671875,0.452362060546875
1776870101487088400,9.95208837890625,-0.35931396484375,0.8621063232421875,0.472137451171875
1776870101497124400,9.962124267578124,-0.35858154296875,0.8342437744140625,0.4933929443359375
1776870101507161300,9.972161376953125,-0.421417236328125,0.805572509765625,0.5148468017578125
1776870101517198300,9.9821982421875,-0.530914306640625,0.7843017578125,0.4973297119140625
1776870101527234300,9.992234375,-0.56683349609375,0.779022216796875,0.4745025634765625
1776870101537271300,10.002271240234375,-0.5481719970703125,0.7521820068359375,0.4280853271484375
1776870101547308500,10.01230859375,-0.4699554443359375,0.73077392578125,0.3710174560546875
1776870101557344500,10.022344482421875,-0.40643310546875,0.7373809814453125,0.3104248046875
1776870101567381500,10.032381591796875,-0.410125732421875,0.7584991455078125,0.2595062255859375
1776870101577418200,10.042418212890626,-0.4836578369140625,0.771575927734375,0.23895263671875
1776870101587454200,10.0524541015625,-0.5731658935546875,0.76080322265625,0.2451934814453125
1776870101597491200,10.0624912109375,-0.6058502197265625,0.731719970703125,0.2850341796875
1776870101607527200,10.072527099609376,-0.632904052734375,0.69244384765625,0.3251800537109375
1776870101617564400,10.082564453125,-0.682037353515625,0.6478118896484375,0.38580322265625
1776870101627601400,10.092601318359375,-0.5947723388671875,0.5976409912109375,0.407501220703125
1776870101637637400,10.102637451171875,-0.5609130859375,0.61102294921875,0.466583251953125
1776870101647674400,10.11267431640625,-0.5679779052734375,0.651763916015625,0.5732574462890625
1776870101657711400,10.12271142578125,-0.6289520263671875,0.704681396484375,0.7062835693359375
1776870101667747300,10.132747314453125,-0.7562255859375,0.727813720703125,0.7716827392578125
1776870101677784300,10.142784423828125,-0.785888671875,0.709259033203125,0.70745849609375
1776870101687821300,10.1528212890625,-0.76324462890625,0.6888427734375,0.5649871826171875
1776870101697857300,10.162857177734375,-0.7287750244140625,0.64752197265625,0.4480743408203125
1776870101707894300,10.172894287109376,-0.69232177734375,0.5716552734375,0.415740966796875
1776870101717931300,10.18293115234375,-0.6469879150390625,0.5115509033203125,0.4447479248046875
1776870101727967200,10.19296728515625,-0.5656585693359375,0.4859161376953125,0.51361083984375
1776870101738004500,10.20300439453125,-0.6084442138671875,0.4743194580078125,0.6593780517578125
1776870101748041500,10.21304150390625,-0.74127197265625,0.4861297607421875,0.737701416015625
1776870101758077400,10.223077392578125,-0.7757415771484375,0.5504302978515625,0.695953369140625
1776870101768114400,10.233114501953125,-0.7471466064453125,0.5760040283203125,0.6227874755859375
1776870101778150400,10.243150390625,-0.808929443359375,0.5413055419921875,0.619720458984375
1776870101788187400,10.2531875,-0.725555419921875,0.5159912109375,0.6049041748046875
1776870101798224400,10.263224365234375,-0.66827392578125,0.4281005859375,0.6692352294921875
1776870101808260400,10.27326025390625,-0.7500152587890625,0.3716278076171875,0.690185546875
1776870101818299600,10.283299560546874,-0.810699462890625,0.408782958984375,0.7149200439453125
1776870101828337000,10.2933369140625,-0.757904052734375,0.394012451171875,0.790069580078125
1776870101838372900,10.303372802734375,-0.7564544677734375,0.3815460205078125,0.8563690185546875
1776870101848409900,10.313409912109375,-0.7894287109375,0.3799591064453125,0.8314666748046875
1776870101858446800,10.32344677734375,-0.7885589599609375,0.368896484375,0.6367645263671875
1776870101868482800,10.33348291015625,-0.7649688720703125,0.3445587158203125,0.5506744384765625
1776870101878519800,10.343519775390625,-0.791168212890625,0.3088531494140625,0.5882568359375
1776870101888557000,10.35355712890625,-0.8074188232421875,0.2936859130859375,0.6789398193359375
1776870101898593000,10.363593017578125,-0.83837890625,0.29449462890625,0.76361083984375
1776870101908630000,10.373630126953126,-0.8713531494140625,0.3445281982421875,0.83514404296875
1776870101918666800,10.383666748046876,-0.8979339599609375,0.3932647705078125,0.86346435546875
1776870101928702700,10.39370263671875,-0.902984619140625,0.431304931640625,0.836578369140625
1776870101938739700,10.40373974609375,-0.92669677734375,0.4392852783203125,0.79888916015625
1776870101948777000,10.41377685546875,-0.9060211181640625,0.4236297607421875,0.8008270263671875
1776870101958813000,10.42381298828125,-0.9431610107421875,0.4136199951171875,0.849090576171875
1776870101968850000,10.433849853515625,-0.951263427734375,0.4287261962890625,0.8539886474609375
1776870101978887000,10.443886962890625,-0.926788330078125,0.442047119140625,0.8432464599609375
1776870101988923000,10.4539228515625,-0.968475341796875,0.4374847412109375,0.8250732421875
1776870101998959900,10.4639599609375,-0.9407958984375,0.4821014404296875,0.799591064453125
1776870102008996900,10.473996826171875,-0.926422119140625,0.4613800048828125,0.7778167724609375
1776870102019032800,10.48403271484375,-0.8902740478515625,0.4355316162109375,0.7510833740234375
1776870102029069800,10.49406982421875,-0.898712158203125,0.4722442626953125,0.7633056640625
1776870102039106800,10.50410693359375,-0.9554290771484375,0.4843597412109375,0.788787841796875
1776870102049142800,10.514142822265624,-0.901275634765625,0.5001068115234375,0.7821502685546875
1776870102059179800,10.5241796875,-0.8468475341796875,0.5254669189453125,0.8012237548828125
1776870102069215700,10.5342158203125,-0.8658905029296875,0.5618133544921875,0.8187408447265625
1776870102079253000,10.5442529296875,-0.9067535400390625,0.5557403564453125,0.765411376953125
1776870102089290000,10.5542900390625,-0.8257904052734375,0.4962158203125,0.6973876953125
1776870102099327000,10.564326904296875,-0.7632598876953125,0.4681854248046875,0.6977691650390625
1776870102109363000,10.574363037109375,-0.815277099609375,0.467681884765625,0.7424163818359375
1776870102119399700,10.584399658203125,-0.8119659423828125,0.490814208984375,0.7731475830078125
1776870102129436000,10.594435791015625,-0.795745849609375,0.5284271240234375,0.7657318115234375
1776870102139473000,10.604472900390626,-0.7639007568359375,0.5315399169921875,0.7479248046875
1776870102149510000,10.614510009765626,-0.7284393310546875,0.541595458984375,0.720001220703125
1776870102159545900,10.6245458984375,-0.7509918212890625,0.527801513671875,0.6867218017578125
1776870102169582800,10.634582763671874,-0.7170257568359375,0.4955596923828125,0.6777191162109375
1776870102179619800,10.644619873046874,-0.6886749267578125,0.48565673828125,0.691375732421875
1776870102189655800,10.65465576171875,-0.7190093994140625,0.49554443359375,0.69207763671875
1776870102199693000,10.664693115234375,-0.721527099609375,0.5002899169921875,0.65789794921875
1776870102209729800,10.674729736328125,-0.651458740234375,0.515960693359375,0.62744140625
1776870102219766000,10.68476611328125,-0.6629486083984375,0.5369415283203125,0.5930938720703125
1776870102229802800,10.694802734375,-0.6786346435546875,0.5372467041015625,0.5648193359375
1776870102239839700,10.70483984375,-0.646331787109375,0.5401611328125,0.56396484375
1776870102249875700,10.714875732421875,-0.686279296875,0.54876708984375,0.5695343017578125
1776870102259913000,10.724912841796876,-0.6827545166015625,0.5379180908203125,0.5777130126953125
1776870102269950000,10.734949951171876,-0.6148529052734375,0.543853759765625,0.5641632080078125
1776870102279986000,10.74498583984375,-0.58819580078125,0.556732177734375,0.54229736328125
1776870102290023000,10.75502294921875,-0.5849609375,0.5622406005859375,0.5356903076171875
1776870102300060000,10.765059814453124,-0.594940185546875,0.5768280029296875,0.5180511474609375
1776870102310096000,10.775095947265624,-0.6129913330078125,0.5827789306640625,0.500732421875
1776870102320132900,10.7851328125,-0.60736083984375,0.5791168212890625,0.4811248779296875
1776870102330169900,10.795169921875,-0.5765533447265625,0.593994140625,0.4484710693359375
1776870102340205800,10.805205810546875,-0.5572052001953125,0.6168212890625,0.4126434326171875
1776870102350242800,10.815242919921875,-0.5505523681640625,0.6266326904296875,0.40582275390625
1776870102360279800,10.82527978515625,-0.53387451171875,0.6197662353515625,0.4171142578125
1776870102370315800,10.835315673828125,-0.526947021484375,0.6154937744140625,0.4367218017578125
1776870102380353000,10.84535302734375,-0.5397186279296875,0.627685546875,0.446441650390625
1776870102390390000,10.85539013671875,-0.509918212890625,0.6380157470703125,0.4489288330078125
1776870102400426000,10.865426025390626,-0.501556396484375,0.6611328125,0.439544677734375
1776870102410463000,10.875462890625,-0.5274810791015625,0.692535400390625,0.43438720703125
1776870102420499700,10.885499755859374,-0.524169921875,0.708709716796875,0.424407958984375
1776870102430535700,10.89553564453125,-0.5107879638671875,0.72479248046875,0.400360107421875
1776870102440573000,10.905572998046875,-0.488677978515625,0.731689453125,0.385101318359375
1776870102450610000,10.91560986328125,-0.47760009765625,0.739501953125,0.37762451171875
1776870102460646000,10.92564599609375,-0.4754180908203125,0.74578857421875,0.3681793212890625
1776870102470683000,10.935682861328125,-0.44915771484375,0.744720458984375,0.3701171875
1776870102480720000,10.945719970703125,-0.42242431640625,0.7475128173828125,0.3709869384765625
1776870102490755800,10.955755859375,-0.4275054931640625,0.7635345458984375,0.36419677734375
1776870102500793000,10.96579296875,-0.4181671142578125,0.7675933837890625,0.3609161376953125
1776870102510829800,10.975829833984376,-0.3939971923828125,0.772247314453125,0.3539581298828125
1776870102520865800,10.98586572265625,-0.3957977294921875,0.7973785400390625,0.341217041015625
1776870102530902800,10.99590283203125,-0.3932342529296875,0.82562255859375,0.3319549560546875
1776870102540939800,11.005939697265624,-0.400848388671875,0.847900390625,0.3267974853515625
1776870102550975700,11.015975830078125,-0.394866943359375,0.875152587890625,0.31549072265625
1776870102561013000,11.026012939453125,-0.3836669921875,0.91021728515625,0.302215576171875
1776870102571050000,11.036050048828125,-0.3619384765625,0.9321136474609375,0.2900390625
1776870102581086000,11.0460859375,-0.327667236328125,0.949462890625,0.276336669921875
1776870102591123000,11.056123046875,-0.3191070556640625,0.9721221923828125,0.25146484375
1776870102601160000,11.066159912109375,-0.3308868408203125,0.9895782470703125,0.240966796875
1776870102611196000,11.07619580078125,-0.33209228515625,0.9879608154296875,0.256500244140625
1776870102621232600,11.086232666015626,-0.330474853515625,0.979248046875,0.2641448974609375
1776870102631270000,11.096269775390626,-0.33636474609375,0.9892120361328125,0.2462310791015625
1776870102641305900,11.106305908203124,-0.3301849365234375,0.993255615234375,0.22119140625
1776870102651342800,11.1163427734375,-0.319976806640625,0.9811248779296875,0.2036895751953125
1776870102661379800,11.1263798828125,-0.2932281494140625,0.9568939208984375,0.1980743408203125
1776870102671415800,11.136415771484375,-0.2685394287109375,0.9440765380859375,0.1791229248046875
1776870102681452800,11.146452880859375,-0.2640228271484375,0.9492340087890625,0.1536712646484375
1776870102691490000,11.156489990234375,-0.2495574951171875,0.9454803466796875,0.141937255859375
1776870102701526000,11.166526123046875,-0.2045745849609375,0.9371490478515625,0.1348876953125
1776870102711562800,11.176562744140625,-0.1680450439453125,0.94525146484375,0.1220245361328125
1776870102721599700,11.186599853515625,-0.1381683349609375,0.9510498046875,0.112152099609375
1776870102731635700,11.1966357421875,-0.1266937255859375,0.956268310546875,0.098236083984375
1776870102741672700,11.206672607421876,-0.147491455078125,0.9591217041015625,0.090728759765625
1776870102751710000,11.2167099609375,-0.1569671630859375,0.928070068359375,0.1098480224609375
1776870102761746000,11.226745849609374,-0.1499786376953125,0.88037109375,0.137359619140625
1776870102771783000,11.236782958984374,-0.152740478515625,0.83990478515625,0.139068603515625
1776870102781820000,11.24681982421875,-0.1772918701171875,0.811737060546875,0.1192779541015625
1776870102791855900,11.25685595703125,-0.203338623046875,0.7790985107421875,0.0947113037109375
1776870102801892900,11.266892822265625,-0.2106475830078125,0.7488555908203125,0.07330322265625
1776870102811929900,11.276929931640625,-0.198028564453125,0.7172393798828125,0.0632171630859375
1776870102821960000,11.2869599609375,-0.1745758056640625,0.68621826171875,0.0614776611328125
1776870102831997000,11.296996826171876,-0.1627044677734375,0.6559906005859375,0.0527801513671875
1776870102842034000,11.307033935546874,-0.1693267822265625,0.6343231201171875,0.0327301025390625
1776870102852070000,11.31706982421875,-0.168060302734375,0.6134490966796875,0.008087158203125
1776870102862107000,11.32710693359375,-0.1669464111328125,0.6073150634765625,-0.00628662109375
1776870102872144000,11.337143798828125,-0.152252197265625,0.609161376953125,-0.01898193359375
1776870102882180000,11.34718017578125,-0.1367340087890625,0.6211700439453125,-0.0386505126953125
1776870102892216800,11.357216796875,-0.1164703369140625,0.6357421875,-0.062255859375
1776870102902253800,11.36725390625,-0.0919952392578125,0.6574554443359375,-0.0808563232421875
1776870102912289800,11.377289794921875,-0.0739593505859375,0.6828155517578125,-0.10211181640625
1776870102922326800,11.387326904296875,-0.0623016357421875,0.7165679931640625,-0.122650146484375
1776870102932363800,11.39736376953125,-0.0482940673828125,0.7517852783203125,-0.1427764892578125
1776870102942400000,11.40739990234375,-0.0515289306640625,0.8111572265625,-0.166168212890625
1776870102952437000,11.41743701171875,-0.064361572265625,0.8868408203125,-0.1880035400390625
1776870102962474000,11.427473876953124,-0.0803070068359375,0.9648590087890625,-0.2193450927734375
1776870102972510000,11.437510009765624,-0.092254638671875,1.0433349609375,-0.24603271484375
1776870102982546700,11.447546630859375,-0.1016693115234375,1.105804443359375,-0.2754974365234375
1776870102992583700,11.457583740234375,-0.0902862548828125,1.145172119140625,-0.2926177978515625
1776870103002620000,11.467619873046875,-0.0492706298828125,1.1612396240234375,-0.3186492919921875
1776870103012657000,11.477656982421875,-0.0046844482421875,1.13958740234375,-0.3245391845703125
1776870103022694000,11.48769384765625,0.0339813232421875,1.0848236083984375,-0.320465087890625
1776870103032729900,11.497729736328125,0.067474365234375,1.0281524658203125,-0.299957275390625
1776870103042766800,11.507766845703125,0.0898895263671875,0.973876953125,-0.2624664306640625
1776870103052803800,11.517803955078126,0.10894775390625,0.9087982177734375,-0.2238616943359375
1776870103062840000,11.527840087890626,0.1296844482421875,0.8464508056640625,-0.1860504150390625
1776870103072877000,11.537876953125,0.1472930908203125,0.7952117919921875,-0.15191650390625
1776870103082913800,11.547913818359374,0.1493072509765625,0.7592620849609375,-0.1322021484375
1776870103092949800,11.55794970703125,0.125091552734375,0.7434539794921875,-0.1182098388671875
1776870103102986800,11.56798681640625,0.0662689208984375,0.7570037841796875,-0.1162109375
1776870103113023700,11.578023681640625,-0.01422119140625,0.850616455078125,-0.1299285888671875
1776870103123059700,11.588059814453125,-0.108795166015625,0.99298095703125,-0.1462249755859375
1776870103133097000,11.598096923828125,-0.1814727783203125,1.12542724609375,-0.1536407470703125
1776870103143134000,11.608134033203125,-0.21807861328125,1.250701904296875,-0.1724090576171875
1776870103153170000,11.618169921875,-0.2084197998046875,1.3439483642578125,-0.1806488037109375
1776870103163207000,11.62820703125,-0.1605224609375,1.3854217529296875,-0.1953887939453125
1776870103173243600,11.63824365234375,-0.087127685546875,1.37921142578125,-0.2086334228515625
1776870103183279900,11.64827978515625,-0.035003662109375,1.301727294921875,-0.2261505126953125
1776870103193316900,11.65831689453125,-0.024810791015625,1.1746368408203125,-0.237396240234375
1776870103203353900,11.668353759765624,-0.0453643798828125,1.0638580322265625,-0.2397613525390625
1776870103213389800,11.678389892578124,-0.077056884765625,0.9893798828125,-0.23699951171875
1776870103223426800,11.6884267578125,-0.0994415283203125,0.9372100830078125,-0.2303924560546875
1776870103233463800,11.6984638671875,-0.108123779296875,0.9049072265625,-0.2235870361328125
1776870103243499800,11.708499755859375,-0.098175048828125,0.8928375244140625,-0.2202301025390625
1776870103253537000,11.718537109375,-0.064910888671875,0.9085693359375,-0.2129974365234375
1776870103263573800,11.72857373046875,-0.0242767333984375,0.9332122802734375,-0.2011871337890625
1776870103273610000,11.73860986328125,0.0162506103515625,0.9459686279296875,-0.186859130859375
1776870103283646700,11.748646728515626,0.0694580078125,0.947479248046875,-0.164276123046875
1776870103293683700,11.75868359375,0.1237640380859375,0.94305419921875,-0.1341705322265625
1776870103303719700,11.7687197265625,0.1722564697265625,0.9401397705078125,-0.0999755859375
1776870103313757000,11.7787568359375,0.193878173828125,0.936798095703125,-0.065399169921875
1776870103323794000,11.7887939453125,0.2029571533203125,0.940582275390625,-0.0272064208984375
1776870103333830000,11.798829833984374,0.17138671875,0.94342041015625,-0.000335693359375
1776870103343867000,11.808866943359375,0.1365509033203125,0.9473876953125,0.0203399658203125
1776870103353903900,11.81890380859375,0.099578857421875,0.9561767578125,0.0319671630859375
1776870103363939800,11.82893994140625,0.0347442626953125,0.966888427734375,0.0389556884765625
1776870103373976800,11.838976806640625,-0.0531158447265625,0.9642333984375,0.0260772705078125
1776870103384013800,11.849013916015625,-0.1273040771484375,0.981109619140625,-0.0048675537109375
1776870103394049800,11.8590498046875,-0.16741943359375,1.0203857421875,-0.0513916015625
1776870103404086800,11.869086669921876,-0.1812591552734375,1.0567169189453125,-0.10595703125
1776870103414122800,11.879122802734376,-0.16314697265625,1.0733184814453125,-0.1563873291015625
1776870103424159700,11.88915966796875,-0.1150665283203125,1.0676422119140625,-0.20037841796875
1776870103434197000,11.899197021484374,-0.0543670654296875,1.052215576171875,-0.2350921630859375
1776870103444233000,11.90923291015625,0.0025634765625,1.037322998046875,-0.2620697021484375
1776870103454270000,11.91927001953125,0.0513153076171875,1.0268096923828125,-0.28125
1776870103464307000,11.929306884765625,0.0820770263671875,1.006256103515625,-0.2919921875
1776870103474343000,11.939343017578125,0.097198486328125,0.9719085693359375,-0.285552978515625
1776870103484379600,11.949379638671875,0.09600830078125,0.947845458984375,-0.2623443603515625
1776870103494417000,11.9594169921875,0.081146240234375,0.956390380859375,-0.2306060791015625
1776870103504452900,11.969452880859375,0.0555572509765625,0.97833251953125,-0.1989593505859375
1776870103514489900,11.97948974609375,0.0284423828125,0.9854736328125,-0.1668701171875
1776870103524526800,11.98952685546875,0.0125885009765625,0.97943115234375,-0.1362152099609375
1776870103534562800,11.999562744140626,0.010528564453125,0.969635009765625,-0.10784912109375
1776870103544599800,12.009599853515626,0.0126953125,0.961151123046875,-0.08416748046875
1776870103554637000,12.019636962890624,0.0155029296875,0.961029052734375,-0.067779541015625
1776870103564673000,12.029673095703124,0.016845703125,0.9744415283203125,-0.063690185546875
1776870103574710000,12.0397099609375,0.0191497802734375,0.990203857421875,-0.0700531005859375
1776870103584746800,12.049746826171875,0.0217742919921875,0.9958953857421875,-0.07659912109375
1776870103594782700,12.05978271484375,0.0199432373046875,0.9910736083984375,-0.0794525146484375
1776870103604819700,12.06981982421875,0.0127105712890625,0.9860992431640625,-0.080291748046875
1776870103614857000,12.07985693359375,0.0052947998046875,0.988250732421875,-0.0876617431640625
1776870103624893000,12.089892822265625,-0.0006866455078125,0.9974365234375,-0.10302734375
1776870103634930000,12.099929931640625,-0.0068511962890625,1.0048980712890625,-0.1211395263671875
1776870103644967000,12.109966796875,-0.0095672607421875,1.0076141357421875,-0.1391143798828125
1776870103655003000,12.1200029296875,-0.011444091796875,1.0019683837890625,-0.148773193359375
1776870103665040000,12.130039794921874,-0.01495361328125,0.992523193359375,-0.1515045166015625
1776870103675076900,12.140076904296874,-0.017425537109375,0.986846923828125,-0.151519775390625
1776870103685112800,12.15011279296875,-0.02056884765625,0.98779296875,-0.153106689453125
1776870103695149800,12.16014990234375,-0.0220489501953125,0.9971466064453125,-0.1565093994140625
1776870103705185800,12.170185791015625,-0.024078369140625,1.015472412109375,-0.1651153564453125
1776870103715222800,12.180222900390625,-0.0292510986328125,1.043304443359375,-0.17987060546875
1776870103725259800,12.190259765625,-0.0339813232421875,1.0699310302734375,-0.1987152099609375
1776870103735295700,12.200295654296875,-0.0401763916015625,1.07794189453125,-0.2127532958984375
1776870103745333000,12.2103330078125,-0.0356597900390625,1.052398681640625,-0.217376708984375
1776870103755370000,12.220369873046875,-0.02178955078125,1.00030517578125,-0.207733154296875
1776870103765406000,12.230406005859376,-0.0078125,0.9615631103515625,-0.1858367919921875
1776870103775443000,12.24044287109375,0.0008392333984375,0.953582763671875,-0.1652679443359375
1776870103785479700,12.250479736328124,0.0040283203125,0.97442626953125,-0.150177001953125
1776870103795515600,12.260515625,0.003997802734375,0.9948272705078125,-0.1385650634765625
1776870103805553000,12.270552978515624,0.002471923828125,1.0009002685546875,-0.1291656494140625
1776870103815590000,12.28058984375,-0.000885009765625,0.9963531494140625,-0.122894287109375
1776870103825625300,12.290625244140625,-0.00640869140625,0.987030029296875,-0.11798095703125
1776870103835662600,12.30066259765625,-0.0137939453125,0.9781951904296875,-0.11297607421875
1776870103845699600,12.310699462890625,-0.028594970703125,0.9767303466796875,-0.1136627197265625
1776870103855735600,12.320735595703125,-0.0529022216796875,0.9845123291015625,-0.12176513671875
1776870103865772500,12.3307724609375,-0.0771942138671875,1.0008392333984375,-0.1366119384765625
1776870103875809500,12.3408095703125,-0.09991455078125,1.0220794677734375,-0.1566314697265625
1776870103885845500,12.350845458984375,-0.108612060546875,1.0445709228515625,-0.17901611328125
1776870103895882500,12.360882568359376,-0.1001739501953125,1.056915283203125,-0.200408935546875
1776870103905919500,12.37091943359375,-0.0820159912109375,1.05487060546875,-0.213836669921875
1776870103915955500,12.38095556640625,-0.0573272705078125,1.0427703857421875,-0.2169647216796875
1776870103925992400,12.390992431640624,-0.03057861328125,1.0235443115234375,-0.2137603759765625
1776870103936028400,12.4010283203125,-0.0048675537109375,1.0048828125,-0.2044830322265625
1776870103946065400,12.4110654296875,0.0074462890625,0.9943695068359375,-0.1930084228515625
1776870103956102700,12.4211025390625,0.0093231201171875,0.991607666015625,-0.182464599609375
1776870103966138600,12.431138671875,0.00201416015625,1.002899169921875,-0.1844635009765625
1776870103976175600,12.441175537109375,-0.0250091552734375,1.0239715576171875,-0.2018280029296875
1776870103986212600,12.451212646484375,-0.05438232421875,1.043304443359375,-0.2261810302734375
1776870103996248600,12.46124853515625,-0.0794525146484375,1.0532684326171875,-0.25244140625
1776870104006285300,12.471285400390625,-0.0996551513671875,1.03662109375,-0.2684783935546875
1776870104016322600,12.481322509765626,-0.1094207763671875,0.988067626953125,-0.269439697265625
1776870104026358500,12.491358642578126,-0.1073455810546875,0.93255615234375,-0.261871337890625
1776870104036395500,12.5013955078125,-0.1128692626953125,0.8912811279296875,-0.2519073486328125
1776870104046432500,12.5114326171875,-0.14105224609375,0.8636627197265625,-0.23834228515625
1776870104056468500,12.521468505859374,-0.1743621826171875,0.8422088623046875,-0.2274627685546875
1776870104066505500,12.53150537109375,-0.1678619384765625,0.8203582763671875,-0.2139129638671875
1776870104076542700,12.541542724609375,-0.12115478515625,0.7969207763671875,-0.1941680908203125
1776870104086578700,12.55157861328125,-0.0705413818359375,0.7779998779296875,-0.1806793212890625
1776870104096615700,12.56161572265625,-0.0460357666015625,0.7758636474609375,-0.164642333984375
1776870104106652400,12.57165234375,-0.0454254150390625,0.77935791015625,-0.1510772705078125
1776870104116688400,12.5816884765625,-0.0455169677734375,0.79327392578125,-0.14678955078125
1776870104126725400,12.591725341796876,-0.0648040771484375,0.816650390625,-0.1323394775390625
1776870104136762600,12.6017626953125,-0.0727386474609375,0.817535400390625,-0.1017608642578125
1776870104146798600,12.611798583984376,-0.06610107421875,0.796539306640625,-0.0438995361328125
1776870104156835600,12.621835693359374,-0.0326385498046875,0.764312744140625,0.01702880859375
1776870104166871600,12.63187158203125,-0.0352935791015625,0.739837646484375,0.07855224609375
1776870104176908500,12.641908447265624,-0.0717620849609375,0.716766357421875,0.1327972412109375
1776870104186945500,12.651945556640625,-0.1097869873046875,0.7023468017578125,0.179656982421875
1776870104196981500,12.6619814453125,-0.1652679443359375,0.7189788818359375,0.2055816650390625
1776870104207018500,12.6720185546875,-0.25946044921875,0.744476318359375,0.2282562255859375
1776870104217055500,12.682055419921875,-0.3383941650390625,0.7812042236328125,0.22283935546875
1776870104227091500,12.692091552734375,-0.4310302734375,0.8362884521484375,0.2120208740234375
1776870104237128400,12.70212841796875,-0.5236053466796875,0.8693389892578125,0.1741790771484375
1776870104247165400,12.71216552734375,-0.494110107421875,0.860015869140625,0.0874481201171875
1776870104257201400,12.722201416015626,-0.3293609619140625,0.78741455078125,0.0054168701171875
1776870104267238700,12.73223876953125,-0.1703033447265625,0.6889495849609375,-0.0313720703125
1776870104277275600,12.742275634765624,-0.1181182861328125,0.6295166015625,-0.0423736572265625
1776870104287311600,12.7523115234375,-0.11724853515625,0.6185302734375,-0.0711517333984375
1776870104297348600,12.7623486328125,-0.1114349365234375,0.642333984375,-0.102203369140625
1776870104307385300,12.77238525390625,-0.0391845703125,0.6788787841796875,-0.1086273193359375
1776870104317421300,12.78242138671875,0.0178070068359375,0.73138427734375,-0.0886383056640625
1776870104327458600,12.79245849609375,-0.0185546875,0.812713623046875,-0.056304931640625
1776870104337494500,12.80249462890625,-0.1475677490234375,0.894775390625,-0.017974853515625
1776870104347531500,12.812531494140625,-0.2821502685546875,0.9449462890625,0.039031982421875
1776870104357568500,12.822568603515625,-0.3669891357421875,0.9503326416015625,0.115142822265625
1776870104367604500,12.8326044921875,-0.3916168212890625,0.9378814697265625,0.1920166015625
1776870104377641500,12.842641357421876,-0.3322906494140625,0.9279022216796875,0.24835205078125
1776870104387678700,12.8526787109375,-0.2820281982421875,0.946624755859375,0.296783447265625
1776870104397714700,12.862714599609374,-0.255950927734375,0.9908447265625,0.3279876708984375
1776870104407751700,12.872751708984374,-0.274383544921875,1.0372314453125,0.34075927734375
1776870104417788400,12.882788330078125,-0.3284912109375,1.0721893310546875,0.36273193359375
1776870104427824400,12.892824462890625,-0.3956146240234375,1.10723876953125,0.3840179443359375
1776870104437861400,12.902861328125,-0.410247802734375,1.107025146484375,0.40106201171875
1776870104447898600,12.912898681640625,-0.37908935546875,1.0846405029296875,0.4000396728515625
1776870104457934600,12.9229345703125,-0.3886871337890625,1.00482177734375,0.3462677001953125
1776870104467971600,12.9329716796875,-0.3543701171875,0.9051666259765625,0.2651519775390625
1776870104478008600,12.943008544921875,-0.30377197265625,0.8318328857421875,0.2032470703125
1776870104488044500,12.95304443359375,-0.3166961669921875,0.763916015625,0.17987060546875
1776870104498081500,12.96308154296875,-0.40179443359375,0.71051025390625,0.1915283203125
1776870104508118500,12.973118408203124,-0.45391845703125,0.7091217041015625,0.2333221435546875
1776870104518154500,12.983154541015624,-0.4306182861328125,0.747283935546875,0.2913665771484375
1776870104528191500,12.99319140625,-0.4317474365234375,0.8105926513671875,0.34735107421875
1776870104538228500,13.003228515625,-0.5115509033203125,0.888763427734375,0.3660430908203125
1776870104548264400,13.013264404296875,-0.5487823486328125,0.9399871826171875,0.4092864990234375
1776870104558301400,13.023301513671875,-0.535369873046875,0.9679718017578125,0.4366912841796875
1776870104568338700,13.033338623046875,-0.4834136962890625,0.9707794189453125,0.4598846435546875
1776870104578374700,13.043374755859375,-0.4835205078125,0.9871673583984375,0.479827880859375
1776870104588411600,13.05341162109375,-0.4946441650390625,1.0101318359375,0.515533447265625
1776870104598447600,13.063447509765625,-0.513641357421875,0.9815826416015625,0.522216796875
1776870104608484600,13.073484619140626,-0.5546112060546875,0.9157257080078125,0.4952239990234375
1776870104618521300,13.083521240234376,-0.5664825439453125,0.83489990234375,0.4532012939453125
1776870104628557600,13.0935576171875,-0.546478271484375,0.74078369140625,0.4086456298828125
1776870104638594600,13.103594482421874,-0.5238189697265625,0.6737213134765625,0.3995819091796875
1776870104648631600,13.113631591796874,-0.5742034912109375,0.6336822509765625,0.3709564208984375
1776870104658667500,13.12366748046875,-0.54327392578125,0.587066650390625,0.3768157958984375
1776870104668704500,13.13370458984375,-0.571075439453125,0.556396484375,0.35260009765625
1776870104678741500,13.143741455078125,-0.5848846435546875,0.5418243408203125,0.3371429443359375
1776870104688777500,13.153777587890625,-0.6074981689453125,0.5341033935546875,0.30926513671875
1776870104698814700,13.163814697265625,-0.6020660400390625,0.5294189453125,0.2542572021484375
1776870104708851500,13.1738515625,-0.5458221435546875,0.5407257080078125,0.2186126708984375
1776870104718887700,13.1838876953125,-0.635711669921875,0.5306396484375,0.2262115478515625
1776870104728924400,13.19392431640625,-0.690673828125,0.5045013427734375,0.2813720703125
1776870104738961400,13.20396142578125,-0.6342926025390625,0.57086181640625,0.382110595703125
1776870104748997400,13.213997314453126,-0.6590576171875,0.57086181640625,0.545379638671875
1776870104759034600,13.22403466796875,-0.692047119140625,0.54742431640625,0.688507080078125
1776870104769071600,13.234071533203124,-0.6868438720703125,0.5455322265625,0.7781219482421875
1776870104779107600,13.244107666015625,-0.651031494140625,0.5704803466796875,0.820281982421875
1776870104789144600,13.25414453125,-0.7579193115234375,0.5804595947265625,0.733154296875
