time,seconds_elapsed,z,y,x
1776870091865867800,0.33086767578125,-0.44962358989715573,1.8173111421309411,-0.5837222637414932
1776870091875903700,0.34090380859375,-0.7829442748814821,-1.0232487494509666,0.370776263153553
1776870091885940700,0.350940673828125,2.2990520179092884,-2.5605010603815317,0.6379314083129167
1776870091895976700,0.360976806640625,1.7977958559304474,-1.6966656779691576,0.5196592491537332
1776870091906012700,0.3710126953125,-0.4447270500272512,-0.8893125726919621,-0.014056582403182983
1776870091916050000,0.3810498046875,0.00782441001534462,0.5191390612045302,-0.5050538006961346
1776870091926086000,0.3910859375,-0.1429717161297798,0.9124091514453291,0.32139643843472004
1776870091936123000,0.401122802734375,-0.9221779735267162,1.8665823919087647,-1.3749077127456664
1776870091946158800,0.411158935546875,-3.049124535280466,0.3943871115719899,-5.184014164993167
1776870091956194800,0.42119482421875,-4.180442687371373,1.645987045611441,-4.250023588597775
1776870091966231800,0.431231689453125,-1.202650865420699,2.365402558912337,1.2206477098822592
1776870091976267800,0.441267822265625,0.438039535087347,1.4846343080081046,2.0555670866727827
1776870091986304800,0.4513046875,2.5113527063310146,0.47010636942293493,-0.23071663507819173
1776870091996340700,0.4613408203125,2.2989620015382766,1.2074541009839623,1.5855863529235124
1776870092006377000,0.471376953125,2.0881635343730447,1.2872438962094486,2.7767969559192656
1776870092016414000,0.4814140625,2.1829326528698205,1.1277790181793272,2.2550521326631308
1776870092026450000,0.491449951171875,1.6056640953123569,1.3232280866518615,1.0862941844940186
1776870092036487000,0.50148681640625,1.4313175822317599,1.6135473959080875,-1.0146943446606398
1776870092046523000,0.51152294921875,1.2383745052307844,1.8311108271636067,-2.5857179192245003
1776870092056558800,0.521558837890625,0.863176918503642,1.9391922855675219,-3.1424077991336583
1776870092066595800,0.531595947265625,0.8837129260540008,1.8547329641610384,-2.8378192876368757
1776870092076631800,0.5416318359375,1.0229366878271102,1.638816423329711,-1.752169246265292
1776870092086669000,0.5516689453125,1.5360025300651787,1.1783785939514637,-0.007331073540449142
1776870092096705000,0.561705078125,0.911978651073575,0.8279934499848634,-0.3180336840033531
1776870092106741000,0.571740966796875,0.14104104032814502,2.2554592521592975,-1.7086287952244281
1776870092116778000,0.581778076171875,-0.34923663151860235,4.130091971793771,-3.078454674661159
1776870092126814000,0.59181396484375,0.07866144878268241,5.4506485011488195,-4.594997301974892
1776870092136851000,0.601850830078125,0.6580985825508833,5.32815492490232,-5.311813446432351
1776870092146887000,0.611886962890625,0.6488830104380846,4.654796229377388,-5.0287487844794985
1776870092156923000,0.6219228515625,0.17542437144517897,4.076367980390787,-4.16159302547276
1776870092166959900,0.6319599609375,0.12213467980623245,3.589675765815377,-3.419921256700158
1776870092176995800,0.641995849609375,0.3276490690886974,3.598111585727334,-3.0071406660318374
1776870092187032800,0.65203271484375,0.6802221515536307,3.667465692460537,-2.6904431990683078
1776870092197069000,0.662069091796875,1.2058031919717789,3.1484611078232523,-2.4429443560153246
1776870092207105000,0.67210498046875,1.826838410541415,3.2894811053633686,-2.5033237136542796
1776870092217141800,0.682141845703125,2.6627888839453457,4.28534478508681,-2.834083608239889
1776870092227178000,0.692177978515625,3.08483180847764,5.084370133936405,-2.7656606448769567
1776870092237214700,0.702214599609375,3.200264360296726,5.564179603260755,-2.231500576683879
1776870092247250700,0.712250732421875,3.0824680019557475,5.890448031646013,-1.6246780078619718
1776870092257287000,0.722286865234375,2.3956086043447256,5.761305518904328,-0.7029986315071582
1776870092267324000,0.732323974609375,1.8460121898278592,5.336539891409874,0.5199216994822025
1776870092277359900,0.74235986328125,1.4661749606013297,4.692437100985646,2.2684861992537972
1776870092287395800,0.752395751953125,1.2078136550113558,3.732368665003776,4.277002780938148
1776870092297432800,0.762432861328125,1.383662973870337,3.4094986468851562,5.7823395391047
1776870092307468800,0.77246875,1.3237655545294285,3.284094736149907,6.518246168479323
1776870092317505800,0.782505859375,1.3458259951680898,3.7107097909033295,6.175218328472972
1776870092327541800,0.792541748046875,1.945790368658304,3.62467635204792,6.216728734990954
1776870092337577700,0.80257763671875,2.633728501416743,2.9593717836409805,6.388888551682234
1776870092347614700,0.81261474609375,2.1567963410943745,2.5093045416295525,6.959442121770977
1776870092357650700,0.822650634765625,1.396277833032608,2.1955530649900434,7.847862787124514
1776870092367688000,0.83268798828125,1.04897246183753,1.9979887579292057,8.720920463651419
1776870092377724000,0.842723876953125,1.041646648994088,1.393933315733075,9.359537516140938
1776870092387759900,0.852759765625,1.3077213054403662,0.8025023773103952,9.158585320207477
1776870092397796900,0.862796875,1.5503414365410804,0.46976212256252764,9.084483142164348
1776870092407832800,0.872832763671875,1.8335808705389498,0.3981295495033264,9.040879562759399
1776870092417869800,0.882869873046875,1.7086625513635574,0.33987902058660985,8.987435557341575
1776870092427905800,0.89290576171875,1.1611854670882225,0.25018472113609314,8.814747917383908
1776870092437941800,0.902941650390625,0.6760924313377589,0.2765770534992218,8.313802721050381
1776870092447979000,0.91297900390625,0.2059580413967371,-0.2999298720359802,7.97640674945116
1776870092458015000,0.923014892578125,0.015162461285851895,-0.9195295048445463,7.73177381722331
1776870092468052000,0.933052001953125,-0.018582535395026207,-1.1474714145123959,7.7166791239440435
1776870092478088000,0.943087890625,-0.16653141888286918,-1.2345084774523973,7.6818381121873855
1776870092488124000,0.9531240234375,-0.5934311723291874,-1.3882108464330434,7.750854949790239
1776870092498161000,0.963160888671875,-1.0775463029582053,-1.3382166892081497,7.883680534958839
1776870092508196900,0.97319677734375,-1.2870470584630966,-1.0972077926963566,7.929789959704875
1776870092518233900,0.98323388671875,-1.3085539568722246,-1.0671399866908788,7.982324449062347
1776870092528269800,0.993269775390625,-1.4229310082890092,-1.2361848862320184,7.726703674352168
1776870092538305800,1.003305908203125,-1.9667842029787599,-1.5620067398935555,7.394047590756416
1776870092548343000,1.013343017578125,-3.260904999220371,-1.9390251123070716,6.980210184511542
1776870092558379000,1.02337890625,-4.400775583340227,-1.3625778080046176,6.2098670325279235
1776870092568416000,1.033416015625,-5.16962849676609,-0.6333376507818699,5.358378213730454
1776870092578452000,1.043451904296875,-4.813849896258115,0.11894552837610244,4.691676638007164
1776870092588488000,1.053488037109375,-4.2409333964303135,0.726097183021903,4.02539124186933
1776870092598525000,1.06352490234375,-4.981117264732718,0.8551531865239143,2.2038801638305188
1776870092608561000,1.073560791015625,-6.789222917753458,0.5707441242247819,0.3959545435518026
1776870092618598000,1.083597900390625,-7.7679218199253075,-1.489015153440833,-0.06153495741486549
1776870092628633900,1.0936337890625,-8.845960801771282,-2.9665730933219194,-0.31958558962047096
1776870092638670000,1.103670166015625,-8.426548810264467,-2.639164847251773,-0.6674369042605162
1776870092648706800,1.113706787109375,-7.235353404837847,-1.533447000363469,-0.7993950589448213
1776870092658742800,1.12374267578125,-5.912812423667312,-0.8353916704773903,-0.8472633100569248
1776870092668779800,1.13377978515625,-5.250514635860919,-0.9811743523746729,-0.6392991895347834
1776870092678815700,1.143815673828125,-4.1416590754687785,-1.153957853922248,-0.5324450809687375
1776870092688852700,1.153852783203125,-3.3288571302011607,-1.3588444666951893,-1.2619745765268802
1776870092698888700,1.163888671875,-2.341321133840084,-1.0987433317005633,-2.1398060433268546
1776870092708924700,1.173924560546875,-2.0215572650432585,-0.48596565386652946,-3.0929525710910557
1776870092718962000,1.1839619140625,-1.9702754060953855,-0.2360264319241047,-3.6872289620727297
1776870092728998000,1.193997802734375,-1.3068407232135533,0.011202362015843391,-3.7774756347090004
1776870092739033900,1.204033935546875,-0.9763701669633388,0.186342071300745,-2.921282583743334
1776870092749070800,1.21407080078125,-0.210201085793972,0.265588041973114,-2.5311849495261907
1776870092759106800,1.22410693359375,0.30101708275079725,0.6591226649016142,-2.1553747838586568
1776870092769143800,1.234143798828125,1.1708780090630053,0.11722528045475482,-1.7199784567564724
1776870092779179800,1.2441796875,1.9461501418814062,0.3471551490694284,-1.5909084247291088
1776870092789215700,1.2542158203125,1.9624431050345301,0.2590004802763462,-0.5655354496657848
1776870092799252700,1.264252685546875,1.7689628524169325,0.7673170821607113,-0.4539999052852392
1776870092809289200,1.274289306640625,1.3939607882618903,1.67100779736042,-0.7902735948562621
1776870092819326500,1.284326416015625,0.28077508971095083,2.6159350705727933,-0.4063111023932695
1776870092829362400,1.294362548828125,1.7725909797862172,1.9609484825626013,-0.5306657963365317
1776870092839399400,1.3043994140625,2.5507214246451855,1.5832102714419365,0.019507249024510384
1776870092849435400,1.314435302734375,2.081516351443529,1.0093883472070098,-0.3312047157436609
1776870092859471400,1.324471435546875,2.2557804469376803,1.5123334851861,-0.5837538279235363
1776870092869508400,1.33450830078125,1.28895230756253,1.550479968228936,-0.4858808981925249
1776870092879544300,1.34454443359375,0.13504764513224363,1.2940692121848463,-0.6373796196490525
1776870092889580300,1.354580322265625,-1.3251546708002686,0.14142156407833098,-0.06714052233695983
1776870092899617300,1.3646171875,-0.4212313158884644,-0.8936652880087494,-0.15507073472440241
1776870092909653200,1.3746533203125,0.4908753454789519,-0.11107406434863805,0.6078764617890119
1776870092919690500,1.3846904296875,0.4267310823485255,0.4101563796445727,0.6014455519586801
1776870092929726500,1.3947265625,-0.7456348271846771,0.4593748763218522,0.9429197327822446
1776870092939763200,1.40476318359375,-1.3289277595981954,-0.13478402575999499,0.8931172987371683
1776870092949799400,1.41479931640625,-0.8400538170695304,-0.28874475341588257,0.17985621641278265
1776870092959835400,1.42483544921875,-1.2858511266767978,-0.13725070813447235,0.028557985964417457
1776870092969872100,1.4348720703125,-0.8953107171282172,-0.1363274558097124,-0.4116109623670578
1776870092979908400,1.444908447265625,0.2470657123327255,0.49658027912229297,-0.048014381584525104
1776870092989945000,1.454945068359375,0.5300540941789746,0.32808453789651393,0.5459089581757783
1776870092999981000,1.46498095703125,-0.17547347128391264,0.22500994786918163,0.9006833500772714
1776870093010017300,1.475017333984375,0.8850339455246925,-1.3522089742034673,0.7345218970179558
1776870093020054300,1.48505419921875,-0.04565817384719848,-1.1309651008695363,0.7996668616235256
1776870093030090200,1.49509033203125,-0.3826540402129292,-0.8359937280237674,0.2945189529031515
1776870093040126200,1.505126220703125,-0.47267362609505653,-0.7837281187355518,0.22130700169801712
1776870093050163200,1.5151630859375,-0.3927005101919174,0.04325461983680725,0.03078326079845428
1776870093060199200,1.52519921875,1.0329609459742903,0.34855770934373137,-0.17578560597300527
1776870093070236200,1.535236083984375,1.246739890255034,-0.023629005129635332,-0.13176000176370142
1776870093080272100,1.545272216796875,-0.062672583142668,0.6640794105261564,0.1267640931725502
1776870093090309400,1.555309326171875,0.7889315325975418,0.09960311452448367,-0.060903089252114295
1776870093100345300,1.565345458984375,0.40655981645733114,0.32768910883814095,0.09490531209707259
1776870093110381300,1.57538134765625,0.23650486309081314,0.7325806998223066,0.09807926595807075
1776870093120418300,1.585418212890625,-1.0638124497033654,0.4388853382617235,0.2945540242165327
1776870093130454300,1.595454345703125,-1.4234467027261852,-0.8351134380578994,-0.3714414490640163
1776870093140491300,1.6054912109375,-2.353542609770596,-1.7493018741354345,0.5201695367634296
1776870093150527200,1.61552734375,-1.5781073953449725,-2.765309347221255,1.0306938778251409
1776870093160563200,1.625563232421875,-0.96205858688578,-2.3574098065927624,1.170097087818384
1776870093170600200,1.63560009765625,-0.025358751531690357,-1.1753998704016209,1.3227701137512922
1776870093180636200,1.64563623046875,0.45193961175456643,-0.04285188425481319,1.0875929921329022
1776870093190673400,1.65567333984375,0.025548282754421232,-0.014996201340854167,0.750847593396902
1776870093200709400,1.66570947265625,0.21945625926479695,0.6085723350986838,0.2556622757643461
1776870093210745300,1.675745361328125,-0.5830899571873247,0.604157441265881,-0.3043132016867399
1776870093220782300,1.6857822265625,-0.7803918139196931,0.5906126077771187,-1.061625022661686
1776870093230818300,1.695818359375,-0.33121596779003737,1.145811372345686,-1.9860382078945635
1776870093240855300,1.705855224609375,-0.06648585782051086,1.0929615334287286,-2.390014729860425
1776870093250891300,1.715891357421875,0.5831541084647178,0.7727399839922785,-1.9489041167646646
1776870093260927200,1.72592724609375,0.39889289855863896,0.8250406645938754,-1.3850696257978676
1776870093270964500,1.735964599609375,-0.13520462579224257,0.08374445113539696,-1.2409212671041487
1776870093281000400,1.74600048828125,-0.3015127573132515,0.7062073644205927,-0.4210603432357311
1776870093291037400,1.756037353515625,0.1859679772913456,0.47774917579367754,-0.6085340489149094
1776870093301073400,1.766073486328125,0.32390053021013737,0.5512208008483052,-0.8849035971432924
1776870093311109400,1.776109375,0.2289051652094349,0.3680624741502106,-1.1828414185792206
1776870093321146400,1.786146484375,-0.2170984440922737,-0.26556962953358887,-1.2153542796492576
1776870093331182300,1.796182373046875,-0.68455053614676,-1.5120580292455852,-0.1788964314699173
1776870093341219000,1.806218994140625,-1.719402264303714,-2.917525861558318,0.8141559902250767
1776870093351255300,1.81625537109375,-2.2111516161382196,-2.5955226894021033,1.315049164110422
1776870093361291300,1.826291259765625,-1.3109927283264695,-2.470801500234008,2.514956868302822
1776870093371328300,1.836328369140625,1.1046185073442756,-0.18185659644976257,5.061535201793909
1776870093381364200,1.8463642578125,1.4542228031314908,-1.8228323897704481,5.880154601168632
1776870093391401200,1.856401123046875,1.9727371200338004,-3.2912589286908505,6.013229192662239
1776870093401437200,1.866437255859375,0.7616226699113845,-0.394636665886268,4.504888576504588
1776870093411473200,1.87647314453125,0.16880480717495083,-0.8142094009127467,3.324164296209812
1776870093421510100,1.88651025390625,0.5375403582811356,-0.6229724702425301,1.7166081035405396
1776870093431546000,1.896546142578125,0.7923509856522083,1.2202800456136464,0.5947182895302772
1776870093441583400,1.906583251953125,0.39434272444099183,1.1012206085342913,0.4839712651789188
1776870093451619300,1.916619384765625,-0.14464403325617312,1.5925639368511735,0.582689413562417
1776870093461655300,1.9266552734375,-1.306267745631188,1.099389228388667,0.22850305068194865
1776870093471692300,1.9366923828125,-1.1924638179272413,1.9525871891915798,-1.6567267585515975
1776870093481728300,1.946728271484375,-1.0746773964583873,2.341166235539317,-2.1986475238740444
1776870093491765200,1.95676513671875,-0.4402396754801273,0.7963817024730145,-1.845986763125658
1776870093501801200,1.96680126953125,0.6534574787467717,1.1156327994421125,-1.4430214640289545
1776870093511837200,1.976837158203125,1.799126520012319,0.03281721431147307,0.46952597571909427
1776870093521874200,1.986874267578125,2.076347132112086,0.9609563977975397,0.5460773004800081
1776870093531910100,1.99691015625,2.3014812908828257,2.6511615745157,-0.536204141241312
1776870093541947400,2.006947509765625,2.4307471377432344,3.375024714875221,-1.4782348162293433
1776870093551983400,2.0169833984375,2.193659214067459,2.970350858294964,-3.2658792805016037
1776870093562020400,2.027020263671875,1.3253139530152083,3.1174446227908135,-4.87277613247931
1776870093572056300,2.037056396484375,0.06477028607428073,2.875152992992103,-5.296807600480318
1776870093582092300,2.04709228515625,-0.7481888955816626,3.1267510880574583,-5.487600221449137
1776870093592129300,2.05712939453125,-1.748905568294227,3.216115424901247,-5.812503791221976
1776870093602165200,2.067165283203125,-2.8036817479744554,2.8105072100803254,-6.376093952038884
1776870093612202200,2.0772021484375,-2.8530051663309335,2.571342187869549,-7.06924923492372
1776870093622238500,2.087238525390625,-2.7637968968316913,2.7426296056404706,-7.561874346679448
1776870093632274400,2.0972744140625,-0.21839082199037074,3.7397505919486282,-7.799045856985449
1776870093642311400,2.1073115234375,2.35292856952548,5.617690244174003,-7.635736286225915
1776870093652347400,2.117347412109375,2.270863449779153,7.380685420358181,-4.883496263936162
1776870093662384400,2.12738427734375,2.5913936267733573,6.704570119601487,-1.2258055310368536
1776870093672420400,2.13742041015625,1.5477008589044212,5.855645598334074,3.340886298429966
1776870093682456300,2.147456298828125,3.1693937134757637,4.851997548344731,9.200925747808814
1776870093692493300,2.157493408203125,4.419867237301171,0.16166881781518458,11.210762764441967
1776870093702529300,2.167529296875,3.6133708219185467,-2.3593647400528193,9.950504344183207
1776870093712566300,2.177566162109375,1.041775536070764,-2.86207577701509,8.403715631687641
1776870093722602200,2.187602294921875,1.0203758974283934,-3.0475100858211515,7.363612120482325
1776870093732638500,2.197638427734375,0.0022708675414323805,-2.183458138048649,6.136975983840227
1776870093742675200,2.20767529296875,-1.9978625012010334,0.47500703747868533,4.594596904480457
1776870093752711400,2.21771142578125,-2.8486034242406486,1.3185662323206662,4.545789911213517
1776870093762748200,2.227748046875,-2.381561958813667,0.0569160654425621,4.650089659121632
1776870093772784000,2.2377841796875,-2.1980445895448324,-1.663745697402954,5.477812402406334
1776870093782820400,2.2478203125,-3.109541886842251,-3.8433869075119493,5.880235265189409
1776870093792857000,2.257857177734375,-3.4321062000125644,-3.6275294033914802,3.4345284587234257
1776870093802893300,2.267893310546875,-3.3823686478972435,-1.4412883566260337,1.58079736508131
1776870093812929800,2.2779296875,-3.7155519702374935,-0.20469722768068313,1.0992647252261638
1776870093822965800,2.2879658203125,-3.273898336306214,0.5807102224439382,1.1541565913647414
1776870093833002800,2.298002685546875,-1.9638225766941904,0.06910626945197582,1.2435042693346738
1776870093843038700,2.308038818359375,-0.5131568815223873,-0.7185416530758142,1.5039257223248481
1776870093853074700,2.31807470703125,-0.7470715819895267,-1.7509651311725376,1.832692981788516
1776870093863112000,2.32811181640625,0.6473124001204967,-2.6985931877762077,1.5082885937094688
1776870093873148000,2.33814794921875,-0.5853700309485197,-5.157708341869712,0.19397826526761053
1776870093883185000,2.348184814453125,2.518347095263004,-2.6543694306463004,-0.18505846123099326
1776870093893220900,2.358220947265625,2.607980896697938,-2.3543057030975816,-0.06322013402283191
1776870093903256800,2.3682568359375,0.7551730553805828,-2.8463761035799977,-0.6419698700487614
1776870093913293800,2.3782939453125,1.3557827410370111,-2.6206793424904347,-0.6779030609562993
1776870093923329800,2.388329833984375,0.5703238529860973,-1.4022650907486676,-1.1531862850278616
1776870093933366800,2.39836669921875,-0.06613134529441594,-0.17230185551047325,-0.9482985032111406
1776870093943402800,2.40840283203125,-0.7378944421909749,-0.4890396544843912,-1.510929171346128
1776870093953438700,2.418438720703125,0.38492841488569973,-1.039257708030939,-2.010946439179778
1776870093963476000,2.42847607421875,1.4269455046273767,-1.1624667390704155,-2.0721257150247694
1776870093973512000,2.438511962890625,2.7086908034205437,-0.8831096994638442,-2.1901503291636706
1776870093983549000,2.448548828125,2.379240968520194,-0.260069570812583,-1.7979203590929507
1776870093993585000,2.4585849609375,1.0808850919920951,-0.6462023930519819,-1.8235127732500434
1776870094003620900,2.468620849609375,0.2805588166117668,-1.3394050222098826,-1.8880586029186843
1776870094013657900,2.478657958984375,0.28336222012732176,-1.5452964281111954,-1.4083239523962139
1776870094023693800,2.48869384765625,0.47035073610544204,-1.046505194941163,-0.369974299120903
1776870094033731000,2.49873095703125,0.29491003457996995,-1.4112111982703208,0.5499170247733592
1776870094043767000,2.50876708984375,-1.118070036526397,-2.7452877189338207,1.2139270233251154
1776870094053804000,2.518803955078125,-1.700019956833124,-2.5305939978957173,1.8723989692330358
1776870094063840000,2.528840087890625,-2.4929227311491964,-3.6756162656903264,1.8644965255454182
1776870094073876000,2.5388759765625,-3.2550948516368865,-3.6464807720988985,2.3742973746381697
1776870094083913000,2.548912841796875,-2.8342671481132506,-0.9285895941346883,2.714924437113106
1776870094093949000,2.558948974609375,-4.333284055608511,2.2405314398795366,2.832938529857993
1776870094103985700,2.568985595703125,-3.2595968392312527,6.108667588722706,3.753265322560072
1776870094114022000,2.57902197265625,-1.3490823666155338,7.2261214661121365,2.825629083627462
1776870094124057900,2.589057861328125,1.2354337756037712,7.998778155735135,1.3563180169574915
1776870094134094800,2.5990947265625,3.6197979323565956,8.503577104887366,1.035069754821807
1776870094144131000,2.609131103515625,4.4522997266113755,5.475980510804057,0.9275244491212069
1776870094154167800,2.619167724609375,3.002722849589586,2.9042689051002264,-0.04770984567999839
1776870094164203800,2.629203857421875,0.5917395659804344,1.7016116099387406,-3.301305983191728
1776870094174240000,2.639239990234375,-0.12908815220594405,0.5928197624325752,-5.277385107129812
1776870094184276700,2.64927685546875,1.4858324317514895,0.7324421681344508,-3.1458424497574566
1776870094194312700,2.659312744140625,2.1865619492828845,0.7337877375245094,-1.8789979291066525
1776870094204349700,2.669349609375,1.662442213588953,0.05621931535005569,-1.5565521277494727
1776870094214385700,2.6793857421875,1.6333528972268103,0.07397533679306506,-0.8951106645114719
1776870094224422000,2.689421875,1.4822738624870777,-0.6143582250237465,-0.689812548328191
1776870094234459000,2.699458984375,0.6934311772167682,-1.5097422996491192,-1.1414780193164944
1776870094244494800,2.709494873046875,-1.837487814849615,-2.7630601069897414,-2.7839743002027273
1776870094254531800,2.71953173828125,-1.0765104571044444,-0.9088456137448548,-2.908450574699044
1776870094264567800,2.72956787109375,0.38837738629579543,0.09357727836370468,-1.6531619056768714
1776870094274604800,2.739604736328125,-0.2274117483139038,0.3074503306686878,-1.5392100939348339
1776870094284640800,2.749640869140625,-0.15967731520440429,0.6235813959211111,-1.093000915591046
1776870094294676700,2.7596767578125,-0.21092826755736022,0.8107569954365491,-0.776000374027714
1776870094304714000,2.7697138671875,-0.19465632892595602,0.9639192661911249,-0.5298415474068373
1776870094314750000,2.77975,-0.18793898510336876,0.934194574534893,-0.27676015498116613
1776870094324787000,2.789786865234375,-0.28682134760525074,0.6365297248214483,-0.01484378725811839
1776870094334823000,2.799822998046875,-0.27115269036293027,0.3657651569932699,0.24843919264301656
1776870094344859000,2.80985888671875,-0.08549335889564827,0.08055237709581851,0.47593869230560953
1776870094354896000,2.819895751953125,0.017708675169944763,0.01618599564731121,0.5872904045518488
1776870094364931800,2.829931884765625,-0.016312855163682253,0.14629238498508929,0.489735162467882
1776870094374968800,2.83996875,0.003135375416278839,0.41800329375267026,0.07398914612270892
1776870094385004800,2.8500048828125,-0.13695464779734612,0.4061854301869869,-0.15013605480119585
1776870094395040800,2.860040771484375,-0.0541232198536396,0.36860885598659515,-0.3037655046761036
1776870094405078000,2.870078125,0.07446691970229148,0.3545207094013691,-0.42660804049074647
1776870094415114000,2.880114013671875,0.22438977014422415,0.19074819730520248,-0.516733424834907
1776870094425151000,2.89015087890625,0.4233353024303913,0.0011392331629991531,-0.6159346805602312
1776870094435187000,2.90018701171875,0.3055488809615373,-0.10880056645870208,-0.6694502899095416
1776870094445223000,2.910222900390625,0.012502343265083617,-0.13765958119630814,-0.6661842738509178
1776870094455260000,2.920260009765625,-0.1374245942634996,-0.011095394510030747,-0.6963737334746867
1776870094465296000,2.9302958984375,-0.19135142389535903,0.08563830205798148,-0.6821108148444444
1776870094475332900,2.940332763671875,-0.1455775147140026,0.1301134036004543,-0.7385808900851756
1776870094485369000,2.950369140625,-0.2549269472271204,0.22353929079473017,-0.7780412322055548
1776870094495405800,2.96040576171875,-0.1616500765820965,0.5025953016281127,-0.9268287219420075
1776870094505441800,2.97044189453125,-0.26337968174126,0.5787415527194738,-0.985743267725408
1776870094515478000,2.98047802734375,-0.4775725405851379,0.9982593426883221,-1.148265487499535
1776870094525514800,2.9905146484375,-0.49813010238017885,1.3595581679224966,-1.2214517197415231
1776870094535550700,3.00055078125,-0.9269008373301476,1.5591975276917218,-1.1198062126692383
1776870094545587700,3.010587646484375,-1.2156149764120578,1.603045437246561,-1.1013291104100644
1776870094555623700,3.020623779296875,-1.1894897705525158,1.0023498268723487,-0.9541922374248504
1776870094565659600,3.03065966796875,-1.0181382015042006,0.3733288702458143,-0.7429219149641693
1776870094575697000,3.04069677734375,-0.9416945749014616,-0.03263210353553295,-0.5059980958089232
1776870094585732900,3.05073291015625,-0.850929431349039,-0.4319768740475178,-0.26149865376763043
1776870094595769900,3.060769775390625,-0.8052028684407472,-0.8573626792669296,0.10410795166306197
1776870094605805800,3.070805908203125,-0.6590015227399766,-1.1213041230767964,0.6217093915041536
1776870094615841800,3.080841796875,-0.4730072419635951,-1.249417877292633,1.0171691372763365
1776870094625878800,3.090878662109375,-0.1981790779583156,-1.3068611814796924,1.310252577483654
1776870094635914800,3.100914794921875,0.05546323628574609,-1.251010699442029,1.5244849646203218
1776870094645951700,3.11095166015625,0.26998905341103674,-1.0412684633314608,1.6530223510757087
1776870094655988000,3.120988037109375,0.3636284372255206,-0.8318786939203738,1.713132828645408
1776870094666024000,3.13102392578125,0.5757356489017605,-0.647781771197915,1.7365975831240414
1776870094676061000,3.14106103515625,0.8196126481957733,-0.6460954255461693,1.8185306009232998
1776870094686097000,3.151096923828125,1.0385692873753607,-0.7849708122730255,1.9050553304269908
1776870094696134000,3.1611337890625,1.1750848131030798,-0.9845751007288693,2.0168556632235646
1776870094706169900,3.171169921875,1.1207184321433306,-1.2090320908904075,2.1703600254140794
1776870094716205800,3.181205810546875,0.9997340914160012,-1.3758680822104215,2.283757272013277
1776870094726242800,3.191242919921875,0.7951148974075913,-1.4359469955980777,2.1233982216224074
1776870094736278800,3.20127880859375,0.7913761492706834,-1.3603197999447583,1.8025068101003765
1776870094746316000,3.21131591796875,0.1250838850006461,-1.2962684757947922,1.1592141670152545
1776870094756352000,3.22135205078125,-0.6214629424624145,-1.3795768736004828,0.5087294204689562
1776870094766388000,3.231387939453125,-1.014029743272066,-1.6145926671773194,0.04733238153657875
1776870094776425000,3.241425048828125,-1.3239739365831016,-1.7876725213229656,-0.2558405914733186
1776870094786461000,3.2514609375,-1.679928478179872,-1.7473083622306584,-0.4449203806422651
1776870094796498000,3.261497802734375,-1.9538992947034537,-1.4583119721412658,-0.5168940952893346
1776870094806534000,3.271533935546875,-2.019507200645655,-0.9542454289168119,-0.4462701878160238
1776870094816575000,3.281574951171875,-1.7611273364856839,-0.5137210912764072,-0.22443572817780078
1776870094826611000,3.29161083984375,-1.2997691773921252,-0.3600222294270992,0.035562823225185274
1776870094836647000,3.30164697265625,-0.9607900282546877,-0.17584698077142238,0.21804376211836932
1776870094846684200,3.31168408203125,-0.7427120716057717,0.05180734412670135,0.33060748050287364
1776870094856720100,3.32172021484375,-0.7648679354429244,0.177244572609663,0.3711544853487983
1776870094866757000,3.331757080078125,-0.9057263126805424,0.09298106603622436,0.3756748488500714
1776870094876793000,3.34179296875,-1.209311930745095,-0.23257073851227758,0.3815433390246704
1776870094886829000,3.3518291015625,-1.5143670368403195,-0.6818634890198707,0.34395072700493035
1776870094896866000,3.361865966796875,-1.7965787352256475,-0.9593243396162986,0.2280192857529968
1776870094906902000,3.371902099609375,-1.9456407310545443,-1.0202361966967581,-0.03138137282207608
1776870094916939000,3.38193896484375,-1.9892038323186336,-0.8926175325214862,-0.38766383119896053
1776870094926975000,3.39197509765625,-1.9676509028106928,-0.5614280143469572,-0.7427730080127716
1776870094937011000,3.402010986328125,-1.667104360181093,-0.10504559783935546,-1.0902406570974736
1776870094947048200,3.412048095703125,-1.292343849696964,0.38544308640956876,-1.3339733525499702
1776870094957084200,3.422084228515625,-1.0160695785365998,0.7717261307746172,-1.4706602893218397
1776870094967121200,3.43212109375,-0.8812563266821205,0.959793710693717,-1.5271848712287843
1776870094977157000,3.4421572265625,-1.0322457834422587,0.9849994636207818,-1.5312652724102138
1776870094987193000,3.452193115234375,-1.4929823035061358,0.9401911846011877,-1.5069323567949235
1776870094997230000,3.46222998046875,-1.998579709559679,0.9462439087688922,-1.408410315505415
1776870095007266000,3.47226611328125,-2.242405855449289,1.1492752490639686,-1.3587366224065422
1776870095017303300,3.48230322265625,-2.1124059952259064,1.387426418057084,-1.3491899186432361
1776870095027339300,3.49233935546875,-1.7437047847807405,1.6252286274820564,-1.3111791908092796
1776870095037375200,3.502375244140625,-1.385897308793664,1.6677829900950192,-1.0907451725535093
1776870095047412200,3.512412109375,-0.9877186594516039,1.6110007801651953,-0.7735657672919333
1776870095057448200,3.5224482421875,-0.1542477279037237,1.5634078388631343,-0.36062589440867304
1776870095067485200,3.532485107421875,1.0112233075492083,1.4635118788719177,0.06853610488120467
1776870095077521200,3.542521240234375,1.9784154579311608,1.1409224312603472,0.2985102875616401
1776870095087557000,3.55255712890625,2.4962837320148945,0.3553437162220478,0.30812837606072424
1776870095097594000,3.562593994140625,2.6624410934209823,-0.6585533405810594,0.1973129626482725
1776870095107630000,3.572630126953125,2.5554227342039346,-1.46649118694365,0.06463387327827513
1776870095117667000,3.5826669921875,2.332140194649249,-1.9580366867691277,0.031602760487794875
1776870095127703300,3.592703369140625,2.165376684043556,-2.199490988960862,0.17850443647764622
1776870095137739300,3.6027392578125,2.035942933270335,-2.2237486473828554,0.5542568075433373
1776870095147776000,3.61277587890625,1.9145020809471607,-1.83031690030694,0.9407707380548119
1776870095157812200,3.622812255859375,1.8367635922282932,-1.1209253528922796,1.1889010108791291
1776870095167849000,3.632848876953125,1.716105999237299,-0.3354898457169533,1.3526374287486076
1776870095177885000,3.642885009765625,1.3079789334632455,0.2928933975279331,1.4668930457428098
1776870095187921200,3.652921142578125,0.810403432758525,0.912068082922697,1.582576649713516
1776870095197958100,3.662958251953125,0.2666390123307705,1.5485978077441453,1.6292603672161698
1776870095207994000,3.672994140625,-0.32368791037276384,1.9804940177708863,1.625442270232737
1776870095218031000,3.683031005859375,-0.7352110483258962,2.2046464720278975,1.571954864064604
1776870095228067000,3.693067138671875,-0.9502776212643831,2.1003502312511206,1.4332500115990638
1776870095238103000,3.70310302734375,-0.6387987657319754,1.8196721721738576,1.0570571302242577
1776870095248140000,3.71314013671875,0.05800795233249664,1.29823071577847,0.6107593237489461
1776870095258176000,3.723176025390625,0.6960942589461803,0.6174386553823947,0.3807838258942589
1776870095268213000,3.733212890625,1.1884475680232047,0.019431261178851127,0.2694897986520082
1776870095278249000,3.7432490234375,1.5273440073132514,-0.46122927201688285,0.08455565792042762
1776870095288285000,3.753284912109375,1.6019871603652833,-0.7995277454137801,-0.18689985131397843
1776870095298322200,3.763322265625,1.5085925450921058,-0.9717080203711986,-0.5243563939940185
1776870095308358100,3.773358154296875,1.3109253621786832,-0.9291191709667443,-0.8484186175718903
1776870095318395100,3.78339501953125,1.1494885995537043,-0.7556997096031903,-1.0405229056611656
1776870095328431000,3.79343115234375,1.1680278803288935,-0.533339399459958,-1.1671451061449944
1776870095338467000,3.803467041015625,1.1616204244393855,-0.3606593582868576,-1.1129514514036476
1776870095348504000,3.813504150390625,1.2243149271529168,-0.14189502680897711,-0.8948281943082809
1776870095358540000,3.8235400390625,1.2834516643196343,-0.005458849927783012,-0.5363030350385234
1776870095368577000,3.833576904296875,1.299617640092224,-0.01746609858572483,-0.19772110505774615
1776870095378613200,3.84361328125,1.2581991496413945,-0.04535948316156864,0.05118760479316115
1776870095388649200,3.853649169921875,1.1704137525521219,-0.11966449030041694,0.22647728047538548
1776870095398686200,3.863686279296875,1.02664840182662,-0.25040040971338745,0.3928765243459493
1776870095408722200,3.87372216796875,0.9053723846763372,-0.35392391255199906,0.5158289137432351
1776870095418759200,3.88375927734375,0.9142040720380842,-0.46613165710568427,0.5394653715269639
1776870095428795100,3.893795166015625,0.971385510418564,-0.536783986955881,0.5083469239573926
1776870095438831000,3.9038310546875,1.1655467310376464,-0.6973188323050737,0.4540427215136587
1776870095448868000,3.9138681640625,1.2719191935665906,-0.9851561154872178,0.4381806240584701
1776870095458904000,3.923904052734375,1.0316226831078528,-1.3278987088114023,0.3858066224923357
1776870095468941300,3.93394140625,0.5011129541158675,-1.6634353162795303,0.31744470513425765
1776870095478977300,3.943977294921875,-0.13537044734582304,-1.993443515715003,0.26330201339516784
1776870095489013200,3.95401318359375,-0.5426020255848765,-2.2422306450128553,0.18639634050494058
1776870095499050200,3.96405029296875,-0.7409890472054481,-2.303348838320374,-0.034067123041022565
1776870095509086200,3.974086181640625,-0.7228196226559579,-2.138895358222723,-0.3705244438169524
1776870095519123200,3.984123291015625,0.059848904024064536,-1.8307815952092408,-0.733982017987594
1776870095529159200,3.9941591796875,1.4520686938375233,-1.3137480183839798,-1.1009097159542143
1776870095539195100,4.004195068359375,2.611791979418695,-0.4832406128168106,-1.1461348321463911
1776870095549232000,4.014232177734375,3.4085435381174087,0.0848398451566696,-0.9746426125183701
1776870095559268000,4.02426806640625,3.218239285187423,-0.7099474277317523,-1.7068401582419872
1776870095569305000,4.03430517578125,2.841219159208238,-1.264151336044073,-2.022375303427875
1776870095579341000,4.044341064453125,2.09108205216825,-1.5379074869036673,-2.1821581613659857
1776870095589377300,4.054377197265625,1.8083271868169306,-1.5331576620280742,-1.8608032239854335
1776870095599414000,4.0644140625,1.5940627971068024,-1.4974965660601853,-1.6855287824049592
1776870095609450000,4.074449951171875,1.2641238635152579,-1.4278326627254485,-1.7093895504638552
1776870095619487000,4.084487060546875,0.7222337855920196,-1.006172600030899,-2.001999308744818
1776870095629523000,4.09452294921875,-0.1466886908262968,-0.21736381703019142,-2.1706664610147475
1776870095639559000,4.104558837890625,-0.193296712744236,0.07374211255908011,-1.873358608045429
1776870095649596200,4.11459619140625,0.6236886556878686,-0.16586977663636207,-1.2307657837927342
1776870095659632000,4.124632080078125,1.1188029539108275,-0.4654635485857725,-0.6237035609960556
1776870095669669000,4.134669189453125,0.8070517111778259,-0.5209229854792357,-0.25918204738833006
1776870095679705000,4.144705078125,0.3320581177026033,-0.4725654895454645,-0.2858062888111919
1776870095689741000,4.154740966796875,0.292434840105474,-0.4308849871575832,-0.36097733819484706
1776870095699778000,4.164778076171875,0.835380856822431,-0.4533078313678503,-0.259235750336945
1776870095709814000,4.17481396484375,1.1634987124666571,-0.6157973179161548,0.02430164369419217
1776870095719851000,4.18485107421875,0.518479099458456,-0.9572317512512206,0.2243717960961163
1776870095729887000,4.194886962890625,-0.47324704206883905,-1.1240864472717047,0.27196064574494955
1776870095739923000,4.2049228515625,-0.23164748618751763,-1.2929372855454682,0.21800328397750854
1776870095749960200,4.214960205078125,0.909408508324623,-1.3759072451770304,-0.007409253343194723
1776870095759996200,4.22499609375,1.7520172705739736,-1.2751385940045117,-0.26065993792116643
1776870095770033200,4.235033203125,1.0926038060322403,-1.1007546715229748,-0.21366934642642735
1776870095780069000,4.245069091796875,-0.15563713643550872,-0.9932377151340246,0.18185118962228297
1776870095790105000,4.25510498046875,-0.26462854929119345,-0.8977776917636394,0.8144280851647258
1776870095800142000,4.26514208984375,0.7110247015744448,-0.5096691855370998,1.5917442910313606
1776870095810174200,4.27517431640625,1.3070078964740037,0.320857509252429,2.4242528072878717
1776870095820211200,4.285211181640625,0.5362561636894941,1.4022206670850514,3.303281959439814
1776870095830247200,4.2952470703125,-0.415247273042798,2.1611679803073405,3.7041134613782165
1776870095840283100,4.305283203125,-0.6165525201976298,2.0060797099262473,3.6271766444310543
1776870095850320400,4.3153203125,-0.27105039903223516,1.0474801774531601,3.336124198594689
1776870095860356400,4.3253564453125,0.28260113609433174,-0.03396013726890087,2.9817256542682644
1776870095870393300,4.335393310546875,0.6068962185800075,-0.6661006872206926,2.3752146356135606
1776870095880429300,4.34542919921875,0.35605917101502416,-0.5222808298289775,1.0768173310965299
1776870095890465300,4.35546533203125,-0.3439560607671737,-0.38729952793121336,0.11387830811440944
1776870095900502300,4.365502197265625,-0.7217606151223183,-0.8533487674504519,-0.6784203628286719
1776870095910538200,4.375538330078125,-0.11456512133479117,-1.3917477883875369,-1.3647463842153549
1776870095920575200,4.3855751953125,0.4947352357774973,-1.6467226664096115,-1.7200792867824435
1776870095930611200,4.395611083984375,0.296949979442358,-1.5412375081092118,-1.8733739517450332
1776870095940647200,4.405647216796875,0.03371756068468094,-1.1907903317570685,-1.7795435754030942
1776870095950684400,4.415684326171875,0.07518237449526786,-0.514801287728548,-1.1764321360588073
1776870095960720400,4.425720458984375,-0.40208793174028395,-0.08937281241118908,-0.30098785665631295
1776870095970757000,4.435757080078125,-0.7535890010595321,0.18235037131607532,0.3202852623224258
1776870095980793300,4.44579345703125,-0.4762801261544227,0.38911972909569736,0.7287184714362025
1776870095990829300,4.455829345703125,-0.3034340807646513,0.3376514076650142,0.7796627689927816
1776870096000866000,4.465865966796875,-0.35001930632889267,0.17791794182658194,0.7873989162027836
1776870096010902300,4.47590234375,-0.5389443798601627,0.1466623873412609,0.3585276069551706
1776870096020939300,4.485939208984375,-0.2538029116332531,0.4044154979050159,-0.11782499991357326
1776870096030975200,4.495975341796875,-0.5104249723404646,0.49694882017374037,-0.6002268238186836
1776870096041011500,4.506011474609375,-0.35476503955125804,0.494924036347866,-1.042409450060129
1776870096051048200,4.516048095703125,-0.23260347173810003,0.3227332399964332,-1.2751973384544253
1776870096061084200,4.526084228515625,-0.7355588388502597,0.3389864556610584,-1.0705918807104229
1776870096071121200,4.53612109375,-1.0204700054526328,0.5567798962801694,-0.4961132461324334
1776870096081157000,4.5461572265625,-0.8304752568632364,0.5773375311404466,0.3738414959430694
1776870096091194000,4.556194091796875,-0.31527707877159117,0.5076701206743717,1.1360539484411478
1776870096101230000,4.56622998046875,0.026734862190484997,0.48214726462215185,1.3651616870179772
1776870096111266000,4.57626611328125,-0.11868541613519192,0.6970438147559762,0.961155062174797
1776870096121303300,4.58630322265625,-0.8784329398244619,0.6976859120517969,0.5847364092200994
1776870096131339300,4.59633935546875,-1.2610130380183457,0.663613838841021,0.24910861633718012
1776870096141376300,4.606376220703125,-1.2969056046545504,0.420044151930511,-0.3330997357100248
1776870096151412200,4.616412109375,-1.0379045398563147,-0.1117035944238305,-0.6774567784935236
1776870096161448200,4.6264482421875,-0.7020493679583072,-0.5152502005398273,-0.7848708590298891
1776870096171485200,4.636485107421875,-0.007708674681186675,-0.4870300682276487,-0.4885153383493423
1776870096181521200,4.646521240234375,-0.3395610406786203,0.03801642692238092,0.22926000652909279
1776870096191558100,4.65655810546875,-0.5794084921956062,0.14449030399918555,1.2707248692154884
1776870096201594400,4.666594482421875,-0.7490279767543077,0.8150313117548823,0.8345084579020738
1776870096211630300,4.67663037109375,-0.07042553535699844,1.2440087117254732,0.148514152687788
1776870096221667300,4.686667236328125,-0.07898410486578941,0.8430030222639441,-0.22739362813532352
1776870096231703300,4.696703369140625,-0.9555015664577483,0.5491264589175582,-0.511485295048356
1776870096241740300,4.706740234375,-1.1408955432534218,-0.03382978888750076,-0.48317163923382755
1776870096251776300,4.7167763671875,-0.47814416646063324,-0.5616629921466112,-0.3957651584595442
1776870096261812200,4.726812255859375,0.1541524508357048,-0.5402198066234588,-0.11651041018366813
1776870096271849200,4.73684912109375,-0.48948096851110456,-0.007327858670055865,0.021675240713357923
1776870096281885200,4.74688525390625,-0.2620101834863424,0.44336423724144697,0.21995500256717204
1776870096291922400,4.75692236328125,-0.610561755350232,0.7487225640669465,0.13089958554208278
1776870096301958400,4.76695849609375,-0.7798591683477163,1.024817094746232,0.26528058345913885
1776870096311995400,4.776995361328125,-0.5994155074357986,0.7720797665178776,0.7335714644253254
1776870096322031400,4.78703125,-0.653152942842245,0.44975890671461816,0.7380389652281999
1776870096332067300,4.7970673828125,-0.9395113856434821,0.23226824843436478,0.3493710715532303
1776870096342104300,4.807104248046875,-1.0514777226567267,-0.13334230251908302,0.16180150428414344
1776870096352140300,4.817140380859375,-0.6640507689535617,-0.453388495388627,0.009251812469959259
1776870096362177000,4.827177001953125,-0.008109656697511673,-0.20722499259263275,0.2614619019538164
1776870096372213200,4.837213134765625,-0.7469324657797813,0.35070962668061256,0.5820785881876945
1776870096382250200,4.847250244140625,-1.165714342689514,0.795717831736803,1.1973591887533663
1776870096392286200,4.8572861328125,-1.4937404283970594,0.9872583484634756,1.4528279877722263
1776870096402322200,4.867322265625,-1.5416490115195511,1.076596966344118,1.3855553634881972
1776870096412359200,4.877359130859375,-1.9569535677075385,1.1025832021243869,1.864584496089816
1776870096422395100,4.88739501953125,-1.9677496870100497,0.8635217864185571,2.061361452165246
1776870096432432000,4.89743212890625,-1.6880284902662037,0.9090563338860869,1.3091478311121463
1776870096442468000,4.907468017578125,-2.3615724792301656,0.6728155285589397,0.8183470121741294
1776870096452504000,4.917504150390625,-2.4525486351847645,0.2979563800059259,1.071785182148218
1776870096462541300,4.927541259765625,-1.787908668166399,0.2899398084193468,1.6186556788325308
1776870096472577300,4.937577392578125,-2.383842763227224,0.6045198448374867,2.1163222918868065
1776870096482614300,4.9476142578125,-3.346652022349834,1.1677530089102686,1.4898703089654444
1776870096492650200,4.957650146484375,-2.3693980582892893,1.5066994248218835,1.5440198323041199
1776870096502687200,4.967687255859375,-2.2720798398315907,1.182724368070811,2.3552046977639196
1776870096512723200,4.97772314453125,-2.8454215793341398,1.0907150696761905,2.149921194627881
1776870096522759200,4.98775927734375,-2.776376100158691,0.9326968833230436,1.5575684651851653
1776870096532796200,4.997796142578125,-2.1171856307178736,0.5811167574182152,1.3275889122098683
1776870096542832000,5.00783203125,-1.5725626206994057,0.5893357197090983,1.956107764533162
1776870096552869400,5.017869384765625,-1.9893267280459404,0.6776622379377484,2.0813041699975727
1776870096562905300,5.0279052734375,-1.7624106542944906,0.8091586203292012,1.9368074362576007
1776870096572942300,5.0379423828125,-1.6145961743086577,0.8243497597202658,1.7138965064942835
1776870096582978300,5.047978271484375,-1.5350556046038866,0.9933666022107005,1.3429653450399637
1776870096593014300,5.05801416015625,-1.661063910973072,0.912403890748322,1.0880354752033947
1776870096603051300,5.06805126953125,-1.1885206332594156,0.6831728180527686,1.0222703328728675
1776870096613087200,5.078087158203125,-0.8411889585793018,0.6936839829340576,1.1030775615125894
1776870096623124200,5.088124267578125,-0.7897574620276689,0.8620558055192231,1.243363984081149
1776870096633160400,5.098160400390625,-0.9429840301901101,0.9641779171273112,1.0218547378093004
1776870096643197200,5.108197265625,-0.6575257510989904,0.8647022283747792,0.504530653604865
1776870096653233400,5.1182333984375,-0.36949265308380125,0.9304992271482944,0.13866846597790716
1776870096663269400,5.128269287109375,-0.9454366840392351,0.7829892830669879,-0.04154840044081211
1776870096673306000,5.13830615234375,-0.7640899368077516,0.28901071087568997,-0.009943301865458488
1776870096683342300,5.14834228515625,-0.29976211425364013,-0.11628390795141458,0.06347615461051463
1776870096693379000,5.158379150390625,-0.588685439106822,-0.3382137177228927,0.3074228581398725
1776870096703415000,5.1684150390625,-0.7939724493741989,-0.6325087987422943,0.7094634436070919
1776870096713452300,5.178452392578125,-0.4717202708929777,-1.0324214322701095,1.1101567061185835
1776870096723488300,5.18848828125,-0.2946183216243982,-1.2805863380163907,1.3406266729593277
1776870096733524200,5.198524169921875,-0.5787976668208837,-1.4897916907712816,1.5718968502670525
1776870096743561200,5.208561279296875,-0.7588719098985195,-1.7298671058252453,1.7578671656459568
1776870096753597200,5.21859716796875,-0.4665262093812227,-1.9898557203561067,1.9010364501744508
1776870096763634200,5.22863427734375,-0.1262362699061632,-1.988928084117174,1.9414415257990358
1776870096773670100,5.238670166015625,-0.19942308667004108,-1.7203402758061885,1.752889377233386
1776870096783707100,5.24870703125,-0.27397242395877835,-1.466239842531085,1.4789274746686218
1776870096793743000,5.2587431640625,-0.3611252222329378,-1.240279462069273,1.2036463061988354
1776870096803780400,5.2687802734375,-0.10388765997588634,-1.155195871284604,0.9413315868079661
1776870096813816600,5.278816650390625,-0.09759177470207214,-1.0658932015001774,0.7404875274240971
1776870096823852500,5.2888525390625,-0.10079144752621651,-1.0472247413873672,0.5915402440160512
1776870096833889500,5.2988896484375,-0.17690204278230667,-1.0975713653117418,0.42800972398221493
1776870096843925500,5.308925537109375,-0.4277291534751653,-1.0979477974087,0.3361760744154453
1776870096853962500,5.31896240234375,0.12820260154306887,-1.3367220667362212,0.08178659506589174
1776870096863998500,5.32899853515625,0.3645183718025684,-1.5069102910935879,-0.038703532403707504
1776870096874035700,5.33903564453125,0.26280747134387494,-1.5113509038895367,-0.005068681566417217
1776870096884071700,5.34907177734375,0.19475451033711433,-1.5632026716798544,-0.025358313140273092
1776870096894107600,5.359107666015625,-0.006653028148412704,-1.4880559530198574,-0.004760346269607543
1776870096904144600,5.36914453125,0.12175824770927428,-1.4653788417875766,-0.03088964378237724
1776870096914180600,5.3791806640625,0.2663718858271837,-1.2933937971413134,-0.19875000971406698
1776870096924217300,5.38921728515625,-0.012818565040826797,-0.9806921218156814,-0.2450444356381893
1776870096934253600,5.399253662109375,-0.19329846630990505,-0.8109966494113207,-0.18395166903287172
1776870096944290300,5.409290283203125,-0.20649580153524874,-0.8239724508404731,-0.11012567758262157
1776870096954326300,5.419326171875,-0.12722352737784384,-0.8470628190487622,-0.06755962453186512
1776870096964363500,5.429363525390625,-0.0868967776864767,-0.8060176919549703,0.03256108412593603
1776870096974399500,5.4393994140625,-0.32265754441171884,-0.6926876653730869,0.05859539683163166
1776870096984435500,5.449435546875,-0.35878976502269505,-0.5930658461481333,0.1543751536756754
1776870096994472400,5.459472412109375,-0.4113111026376486,-0.43230362178385257,0.22947072667032478
1776870097004508400,5.46950830078125,-0.4754696865543723,-0.22384148861169814,0.28568156645298004
1776870097014545400,5.47954541015625,-0.3528048453941941,-0.08667290580272674,0.3803030931726098
1776870097024581400,5.489581298828125,-0.2716173852652311,0.11234101554453373,0.5150058703899383
1776870097034618400,5.499618408203125,-0.41600832054316994,0.28130583558678623,0.6384823201939464
1776870097044654600,5.509654541015625,-0.35361996116936206,0.25388649826347826,0.7980755007788538
1776870097054691600,5.519691650390625,-0.175845811727643,0.2020838303118944,0.9104775988608598
1776870097064727600,5.5297275390625,0.015231179140508174,0.1294441260367632,0.9531573414191603
1776870097074764500,5.5397646484375,0.22509587258696553,0.2176250983148813,1.0306512077271939
1776870097084800500,5.549800537109375,-0.042646717071533204,0.2865028197079897,1.1960846387729047
1776870097094836500,5.55983642578125,-0.36481297083497044,0.420812505954504,1.280337623952329
1776870097104873500,5.56987353515625,-0.5538587481364607,0.4380798670977354,1.214241934493184
1776870097114909400,5.579909423828125,-0.5256424152165651,0.3340414004743099,1.1879010400563477
1776870097124946700,5.58994677734375,-0.5012938636407256,0.17148820104002951,1.2380500955820082
1776870097134982700,5.599982666015625,-0.27899434377402066,0.1242459728717804,0.9577788637399672
1776870097145019600,5.61001953125,0.018479367281496524,-0.1476250948935747,0.8576502640366553
1776870097155055600,5.6200556640625,0.5390446253642439,-0.5230675962924957,0.7406015091925859
1776870097165092400,5.63009228515625,1.0671648288711906,-0.8019903361350298,0.5287596704542636
1776870097175128600,5.640128662109375,1.2378989966735243,-0.8588707457423209,0.18174480663836
1776870097185165300,5.650165283203125,1.165505376113951,-0.9194985251843929,-0.14200579370707272
1776870097195201300,5.660201171875,1.1585317377090454,-1.0548375544786452,-0.26203561018854377
1776870097205238500,5.670238525390625,1.2634233140304685,-1.3184084114104508,-0.22137283347584305
1776870097215274500,5.6802744140625,1.1837114794120192,-1.5446137065440415,-0.1449455734860152
1776870097225310500,5.690310546875,1.1361661766439675,-1.7186615289390086,0.02558898009099066
1776870097235347500,5.700347412109375,1.1025096984967588,-1.7544786922514437,0.09568287234082817
1776870097245383400,5.710383544921875,0.9870411985814571,-1.6733137362152337,0.04183912701569498
1776870097255420400,5.72042041015625,0.8476157767564058,-1.5641630411446095,0.02846943089812994
1776870097265456400,5.730456298828125,0.7970143012881279,-1.4025158506393431,0.017485424340702594
1776870097275493400,5.740493408203125,0.6777043235138058,-1.3233978902608154,-0.010955894707795231
1776870097285529300,5.750529296875,0.5373335836626589,-1.3964017516732214,0.049823778227204456
1776870097295566600,5.760566650390625,0.5288130080766975,-1.46598791359663,0.14682424510577693
1776870097305602600,5.7706025390625,0.619642595167458,-1.5475199493795633,0.2748143546756357
1776870097315639600,5.7806396484375,0.6746237470246851,-1.6222481503665447,0.26599976457916197
1776870097325675500,5.790675537109375,0.447664857044816,-1.8295529301971196,0.255833084020298
1776870097335712500,5.80071240234375,0.05941650395616889,-2.1001164224952458,0.11099288887120783
1776870097345748500,5.81074853515625,-0.1627821858845651,-2.333527118963003,0.15689301824811844
1776870097355785700,5.82078564453125,-0.30622108113467694,-2.442493689638376,0.2583840654110536
1776870097365821700,5.83082177734375,-0.5093338161028921,-2.598536484265327,0.30031138216685505
1776870097375857700,5.840857666015625,-0.688268241495639,-2.7442922781556844,0.35612978856582195
1776870097385894700,5.850894775390625,-0.751267280113697,-2.717072847318649,0.2989272708646953
1776870097395930600,5.8609306640625,-0.6122556997865438,-2.6300457212507724,0.21485256486162543
1776870097405967400,5.87096728515625,-0.47188495993539686,-2.421745500642061,0.20145444636717438
1776870097416003600,5.881003662109375,-0.36553996993526816,-2.1493045240342616,0.17365940759927034
1776870097426040300,5.891040283203125,-0.10384732796549796,-1.8063894967526197,0.09644150868840515
1776870097436076300,5.901076171875,0.17994784021899102,-1.4123638754367827,0.008580123753473163
1776870097446113500,5.911113525390625,0.31482940806932747,-0.8889794682800769,-0.09701068687848746
1776870097456149500,5.9211494140625,0.2243827558815479,-0.337068054819107,-0.1581545991491526
1776870097466186500,5.9311865234375,0.08235394662506879,0.10500994200408457,-0.20794000899419188
1776870097476222500,5.941222412109375,-0.13425532571077345,0.31138240942060946,-0.18614976359903812
1776870097486259500,5.951259521484375,-0.3810573456060141,0.3699585170298815,-0.22760975510403514
1776870097496295400,5.96129541015625,-0.6205248578947037,0.36045594466924663,-0.3196495947673917
1776870097506332400,5.97133251953125,-0.7167296352177858,0.5651216081678867,-0.3569621842693537
1776870097516368400,5.981368408203125,-0.6417856725882738,0.854361159363389,-0.3926851664923131
1776870097526405600,5.991405517578125,-0.3315793212097138,0.9412707965314387,-0.3625065935887396
1776870097536441600,6.001441650390625,-0.005786109120771288,0.7207493922531605,-0.3743514182265848
1776870097546478600,6.011478515625,0.3435211764812469,0.26432547469139095,-0.3199079534426331
1776870097556514600,6.0215146484375,0.6671626904290169,-0.13800269554555417,-0.23845592409335076
1776870097566551600,6.031551513671875,0.9282844006430357,-0.4553776233792305,-0.15607223991714417
1776870097576587500,6.04158740234375,1.0764321311712264,-0.6856172885954379,0.019253566524386406
1776870097586624300,6.051624267578125,1.0696913516741244,-0.8679191445946693,0.22181575493775307
1776870097596660500,6.061660400390625,0.9347592226803302,-0.98214933488667,0.41442609285302456
1776870097606697500,6.071697509765625,0.6118594304779544,-0.9001070114940405,0.5361203354153782
1776870097616733400,6.0817333984375,0.23590254981610922,-0.6589449702471494,0.582095393192023
1776870097626770400,6.0917705078125,-0.22927863816432653,-0.3449240290164947,0.5728768984697759
1776870097636806400,6.101806396484375,-0.7097136189758777,-0.12555062572956086,0.4992093124516308
1776870097646843400,6.111843505859375,-1.084309148156643,-0.09640577978789806,0.3594788432653993
1776870097656879400,6.12187939453125,-1.2510522004961966,-0.13561024745106695,0.22962993582002816
1776870097666915300,6.131915283203125,-1.2486036383002996,-0.21618132924735545,0.037051015956327316
1776870097676952600,6.14195263671875,-1.0913707571059466,-0.20852993771135805,-0.11970832944214344
1776870097686988500,6.151988525390625,-0.9084095604151486,-0.0017056348741054533,-0.2872035883884877
1776870097697025500,6.162025634765625,-0.6674357352167367,0.3308440657377243,-0.4454463042125106
1776870097707061500,6.1720615234375,-0.2978477867986075,0.6533680468976497,-0.5890791145995259
1776870097717098500,6.182098388671875,-0.05554067630297504,0.835763426399231,-0.695547950175032
1776870097727134500,6.192134521484375,0.14469429300553163,1.0263502956628798,-0.8373645049203187
1776870097737171500,6.20217138671875,0.12226035201251506,1.2359557536512613,-0.9719478204764426
1776870097747207400,6.21220751953125,0.01249531530267559,1.2753554516255854,-1.075849362847209
1776870097757244700,6.22224462890625,0.10711772793829441,1.2295698520064353,-1.0961147367626427
1776870097767280600,6.23228076171875,-0.15403613097965715,0.6650719286948442,-1.0441718566227705
1776870097777317600,6.242317626953125,-0.3563070082962513,0.046235096952319144,-0.9459364502549171
1776870097787353600,6.252353515625,-0.5374596942603588,-0.005016951379179954,-0.7904998048275709
1776870097797390300,6.262390380859375,-0.6812824742615222,0.3670078505307436,-0.5081451908402145
1776870097807426600,6.272426513671875,-0.7739572508275508,0.5676169321149588,-0.23583938491940498
1776870097817463000,6.282463134765625,-0.6012883155703544,0.4062029658436775,-0.07074037345983088
1776870097827499300,6.292499267578125,-0.16074938314901663,0.03255553116798401,-0.03175970461517572
1776870097837536000,6.302535888671875,0.37324995979070663,-0.34608547401130196,-0.03312902020700276
1776870097847572000,6.312572021484375,0.8452712594568729,-0.5506605366170406,0.03416530445218086
1776870097857609000,6.32260888671875,1.0603589482486246,-0.7136503739029169,0.11692622444294393
1776870097867645000,6.33264501953125,1.098649223676324,-0.8214099068760872,0.1934250883642584
1776870097877682200,6.34268212890625,0.9192951115667819,-0.811163822671771,0.24538725772649048
1776870097887718100,6.35271826171875,0.7208668811529875,-0.6731950293958187,0.30609694329835474
1776870097897755100,6.362755126953125,0.397589451277256,-0.4070587058901787,0.32475597799569367
1776870097907792100,6.372792236328125,0.0395358915746212,-0.06200900466740131,0.31663411940373476
1776870097917828000,6.382828125,-0.31501638200879095,0.262525731793046,0.2354305849228054
1776870097927865000,6.392864990234375,-0.5571078130602837,0.4213075959950685,0.10200213849022984
1776870097937902300,6.40290234375,-0.6459650771647691,0.40839258484244345,-0.07417517021410167
1776870097947938300,6.412938232421875,-0.6116489660650491,0.3253980752915144,-0.2328489709317684
1776870097957974300,6.422974365234375,-0.4904974155446514,0.21432021155059336,-0.35564744840897616
1776870097968011300,6.43301123046875,-0.3183861507028341,0.08203998530507087,-0.3842524883855134
1776870097978048000,6.443048095703125,-0.11137125719692557,-0.08420330081880092,-0.38159547107070685
1776870097988084000,6.453083984375,0.13378653915524483,-0.14906886396110056,-0.3111434860982001
1776870097998121000,6.463120849609375,0.35119653341472146,-0.0305254866451025,-0.2204948815975338
1776870098008157000,6.473156982421875,0.40337216286454347,0.2594265967339277,-0.18557817425616085
1776870098018194200,6.483194091796875,0.2951549127191305,0.5097282222479581,-0.19036109768375753
1776870098028230100,6.493230224609375,0.08436751493718475,0.7382143217951059,-0.2917956654191017
1776870098038267100,6.50326708984375,-0.20287406737413255,0.8341179972797632,-0.42935631628558035
1776870098048303000,6.51330322265625,-0.44869474808182563,0.7009574810683726,-0.521754906258732
1776870098058340000,6.523340087890625,-0.69234630458951,0.49415480554103847,-0.5750424790058285
1776870098068376000,6.5333759765625,-0.780577545750141,0.3305255013078451,-0.6452530564378947
1776870098078413000,6.5434130859375,-0.7059744324475526,0.23813129524886606,-0.697882457537204
1776870098088449000,6.553448974609375,-0.5375257452338934,0.18061141869425773,-0.7551797773823141
1776870098098486300,6.563486328125,-0.36239947995245453,0.1829997751355171,-0.7716665095418691
1776870098108522200,6.573522216796875,-0.25049214311745016,0.2887193267136812,-0.7849627020318061
1776870098118559200,6.583559326171875,-0.21671390175409613,0.4563999521642923,-0.8113174057982862
1776870098128595200,6.59359521484375,-0.2487877868849784,0.560699115550518,-0.873374048999697
1776870098138632000,6.6036318359375,-0.3915028248399496,0.5679606309860944,-0.9392734121691435
1776870098148668200,6.613668212890625,-0.4955003018658608,0.3957312561899423,-0.9848207460530102
1776870098158705200,6.623705078125,-0.49924182648174464,-0.030289924323558804,-0.8684460910782218
1776870098168741000,6.6337412109375,-0.43171427758857606,-0.6116033733576536,-0.7043607136406004
1776870098178778000,6.643778076171875,-0.36152386616170407,-1.2011200025916098,-0.5472183602739125
1776870098188814000,6.65381396484375,-0.10942089031413196,-1.7084382410883903,-0.4550765946060419
1776870098198851000,6.66385107421875,0.44850028495565053,-2.025820183184743,-0.3717120461663231
1776870098208887000,6.673886962890625,1.152442334792763,-2.2294939130365847,-0.29315818594396115
1776870098218924000,6.683924072265625,1.6599544884264468,-2.388360532912612,-0.2604660958494991
1776870098228960000,6.6939599609375,1.816930618380755,-2.422243513292074,-0.26014369549471883
1776870098238997200,6.703997314453125,1.6624666173778473,-2.2808681264430284,-0.3089347240075469
1776870098249033200,6.714033203125,1.3145628418982027,-1.9574626862734554,-0.41423674429338425
1776870098259070200,6.7240703125,0.801615073081851,-1.3921587072759867,-0.5481583810703828
1776870098269106200,6.734106201171875,-0.10973989313542842,-0.6388719040334224,-0.6660099401973187
1776870098279143200,6.74414306640625,-1.2013171325989067,-0.009932195949554443,-0.6683445936899631
1776870098289179100,6.75417919921875,-1.6648264783769846,0.09841653508841991,-0.38995073655974116
1776870098299216100,6.764216064453125,-1.2139257081508636,-0.19914193164110183,0.08525200615413486
1776870098309252000,6.774252197265625,-0.2927623184941709,-0.7065560317277908,0.6124680638955906
1776870098319289000,6.7842890625,0.6832097890622914,-1.5433452940434216,1.1597756002902984
1776870098329325300,6.7943251953125,1.7703537222534418,-2.5600807891428468,1.5155828423708677
1776870098339362000,6.804362060546875,2.6014757525876164,-3.523410857269168,1.7240097580991685
1776870098349399000,6.81439892578125,2.8164450756967065,-4.174455429655313,1.8276672625809907
1776870098359435000,6.82443505859375,2.8327006294488903,-4.5238878760069605,1.7525195210076867
1776870098369472000,6.834471923828125,2.7908026849180456,-4.491703516238927,1.5170735193200409
1776870098379508000,6.844508056640625,1.066469101691991,-3.734870418691635,1.484698313155025
1776870098389545200,6.854545166015625,-2.011118288615346,-2.1631465869039297,0.9711642688833176
1776870098399581200,6.864581298828125,-4.080169126239419,-0.9063169720500707,0.3224261468086391
1776870098409618200,6.8746181640625,-3.8495226337879895,-0.5108931743741035,-0.17365568127222358
1776870098419654100,6.884654052734375,-2.665025849217176,-0.8243629114627837,-0.4205340543393045
1776870098429691100,6.894691162109375,-0.9110375708311795,-1.2524199817180632,-0.9307461876466869
1776870098439727000,6.90472705078125,1.172954815337062,-1.498377440547943,-1.6450708075493574
1776870098449764000,6.91476416015625,2.07965844861716,-1.3426912042737007,-2.4875676338568327
1776870098459800000,6.924800048828125,2.009668382067978,-1.2773673759698867,-3.388497652171552
1776870098469837300,6.93483740234375,1.7216162870913743,-1.5012994654744862,-3.6561271368443964
1776870098479873300,6.944873291015625,1.6671555058464407,-1.7827414946615694,-3.5561475902229547
1776870098489910000,6.954909912109375,2.1348148109108207,-2.350692188775539,-2.956868276387453
1776870098499946200,6.9649462890625,2.0881082970544695,-2.761576005911827,-1.9899245478086172
1776870098509983000,6.97498291015625,1.0102353194251656,-2.7291046458959576,-0.9827696587421
1776870098520019000,6.98501904296875,-0.34292847128510473,-2.3150609034240244,-0.17568273012042043
1776870098530056000,6.995055908203125,-1.2611276043087243,-1.6659131045699118,0.3997410763531923
1776870098540092200,7.005092041015625,-1.2497484244212507,-0.8715157077819109,0.751144238255918
1776870098550129200,7.015129150390625,-0.6672063103750348,0.06665303108096123,0.8138342109248041
1776870098560165000,7.0251650390625,-0.1853922232300043,0.8988310002088546,0.8485270463824272
1776870098570202000,7.0352021484375,0.2405772270962596,1.5058143125504255,1.0555626538828016
1776870098580239000,7.045239013671875,0.6648071402788162,1.8818197085291146,1.3688456362277268
1776870098590275000,7.055275146484375,1.0032438531026244,1.9953993259578942,1.7884487663924693
1776870098600312300,7.065312255859375,1.007536289599538,1.9340408941537142,2.323008647558093
1776870098610348300,7.075348388671875,1.2839976077646016,1.506419292706251,2.8044851733118294
1776870098620385300,7.08538525390625,1.5950114761337637,1.062629815790057,3.0780539849057793
1776870098630421200,7.095421142578125,1.8784420487895608,0.4488321472585201,2.917925090008974
1776870098640458000,7.1054580078125,1.81466924932003,-0.554995935472846,1.9295935593560336
1776870098650494200,7.115494140625,0.7216571547478438,-1.3514946884542702,0.5618175981864333
1776870098660531000,7.125531005859375,0.5108785613268614,-1.4245301140487194,-0.2832698291361332
1776870098670567000,7.13556689453125,0.3871221255376935,-1.2980232105076313,-0.6860095027834177
1776870098680604200,7.145604248046875,0.5815054644748568,-1.0428519331306219,-0.6753542532563209
1776870098690640100,7.15564013671875,0.8190078141704201,-0.36987083874642845,-0.592333147959411
1776870098700677000,7.165677001953125,0.7264028879702091,0.7373200033038854,-0.4598422015726566
1776870098710713000,7.175713134765625,0.5238058474391698,1.628409595605731,-0.18385609970390795
1776870098720750000,7.18575,-0.4191983487561345,2.089357128071785,0.291638429030776
1776870098730786000,7.1957861328125,-1.751244532635808,2.1169161661267277,0.47861529110372064
1776870098740823000,7.205822998046875,-2.1898463777810333,1.7424983316004274,0.41661330069899555
1776870098750860300,7.2158603515625,-1.7271435260802506,1.134037347921729,0.30079262634515763
1776870098760896300,7.225896240234375,-0.9233715672254562,0.7602724243462086,-0.04455985721647739
1776870098770933200,7.235933349609375,0.021714988201856612,0.5946838027387857,-0.4535375484704971
1776870098780969200,7.24596923828125,0.2879039186775684,0.09945639953017234,-0.6029740767002105
1776870098791006200,7.256006103515625,0.023875381106138228,-0.41042321388721464,-0.5512082336276769
1776870098801042200,7.266042236328125,-0.36743045985698697,-0.5782838720798492,-0.45868601727485653
1776870098811079000,7.276078857421875,-0.6548012945711612,-0.6805939074754714,-0.12411387092471123
1776870098821115100,7.286115234375,-0.46370939839482306,-1.006426282531023,-0.07162672784030437
1776870098831152000,7.296152099609375,0.9528840774357318,-1.035221584382653,-0.13963234257400034
1776870098841188000,7.30618798828125,1.1962637947320938,-0.8130728711634874,0.6595657324939965
1776870098851225000,7.31622509765625,-0.16624094803631304,-0.3301081526786089,1.230413317093253
1776870098861261000,7.326260986328125,-1.0784779577851296,0.1834574557751417,0.994417280307412
1776870098871298000,7.336298095703125,-0.57033729698956,0.5397632950276136,0.5113648835390806
1776870098881334000,7.346333984375,0.4855798694193363,0.8388955869451165,0.2187105554640293
1776870098891371000,7.35637109375,-0.3569014670580625,0.7377727155074477,0.08508592887222767
1776870098901408300,7.366408203125,-0.11778232981562614,0.24318477924615142,0.41971126671433445
1776870098911444200,7.3764443359375,0.9759773682534694,-0.1469479262843728,1.047993387672305
1776870098921481200,7.386481201171875,0.9983633875846862,-0.8338450255572796,2.3553490746706722
1776870098931517200,7.39651708984375,-0.10233166270554066,-0.9257818432375788,3.6454011601686473
1776870098941554200,7.40655419921875,-1.207393676033616,0.005987257716059685,3.2372914839208122
1776870098951590100,7.416590087890625,-1.5791729787498712,1.3185636019721627,1.8363064961105584
1776870098961627000,7.426626953125,-1.5501736787587403,2.052676041406393,0.4537696036607027
1776870098971663000,7.4366630859375,-1.0146318008184432,1.721701042765379,-0.1980278329193592
1776870098981700000,7.4467001953125,-0.5256546901762486,0.9288871157765388,-0.32059388988018034
1776870098991736000,7.456736083984375,-0.6324263811558485,-0.2669908945083618,0.5258242015242577
1776870099001773000,7.46677294921875,-0.9459434645175934,-1.282754914227128,2.1544781272798774
1776870099011809000,7.47680908203125,-1.931028852856159,-0.5204480614438652,2.768301514774561
1776870099021846000,7.486845947265625,-2.3133377328932285,0.9051964435875415,2.6123668566972014
1776870099031883000,7.496883056640625,-2.7241186741769314,2.001839295877516,2.136542073094845
1776870099041919200,7.506919189453125,-2.940129907554388,2.8514605672374365,1.0445733500957488
1776870099051956200,7.516956298828125,-2.835720854052901,2.575925424006581,0.7504986338287591
1776870099061992200,7.5269921875,-2.9652263548880815,1.5716262166321278,1.4187778341323136
1776870099072029200,7.537029296875,-3.323528920915723,0.8562418585434556,2.2598206622391936
1776870099082065200,7.547065185546875,-3.2367583999574183,0.6938640156760811,2.9921646306961773
1776870099092102100,7.55710205078125,-3.436277348217368,1.11014501568079,3.1451147200047966
1776870099102138000,7.56713818359375,-3.877953193980455,2.1555822891294953,2.6445459557682276
1776870099112175000,7.577175048828125,-4.039090096876025,2.7757883633986116,2.269250169363618
1776870099122211300,7.58721142578125,-3.5621997298687695,2.6956676557183266,2.470899699911475
1776870099132248000,7.597248046875,-3.264689193934202,2.3947689386501905,2.7357208491653204
1776870099142284000,7.607283935546875,-3.5298365064024924,2.254861578527093,2.4052175596892833
1776870099152321000,7.617321044921875,-3.148025639015436,1.9398834827020763,2.0726830566465853
1776870099162358000,7.62735791015625,-2.332628124296665,1.3994047328814863,1.8365432274758815
1776870099172394000,7.63739404296875,-2.1179560305684806,1.181990646968782,1.3670347874134778
1776870099182431200,7.64743115234375,-1.9189578913122414,1.0576868064299225,1.3589035034060477
1776870099192467200,7.65746728515625,-1.8551129033893345,1.3466674144282935,1.5352362218677997
1776870099202504200,7.667504150390625,-1.8553648323237895,1.6016422924503684,1.5497475623011587
1776870099212540200,7.6775400390625,-1.3258312548875808,1.7025605812266469,1.4630863469362259
1776870099222577200,7.6875771484375,-1.1837369061142204,1.8793541951984165,1.3527321212947367
1776870099232613000,7.697613037109375,-1.33802964220345,1.534940746052563,1.2228811680227518
1776870099242650000,7.707650146484375,-0.8005775467276572,1.0331211049720643,1.1187959396481513
1776870099252686000,7.71768603515625,-0.704125589710474,0.5381868394911289,0.7721089926123619
1776870099262723300,7.727723388671875,-0.5189858799368143,-0.12518763763606547,0.6840735662847757
1776870099272760000,7.737760009765625,-0.2033615951627493,-0.28091420592069627,0.7248083122551441
1776870099282796000,7.747796142578125,-0.368262234506011,-0.27578210372924805,0.7085469132840633
1776870099292833000,7.7578330078125,-0.21158289554119108,-0.2785714421868324,0.8463152155518532
1776870099302869000,7.767868896484375,-0.277024212744832,-0.08313421028256415,0.6961328373908996
1776870099312906000,7.777906005859375,-0.6788578774631023,-0.03340425695180893,0.5231418305724859
1776870099322942000,7.78794189453125,-0.8577414494514465,-0.1875233900398016,0.5528817197978496
1776870099332979200,7.797979248046875,-0.9217015881866216,-0.3099561760097742,0.43734395403862
1776870099343015200,7.80801513671875,-0.5871767881095409,-0.4442886586099863,0.4567793068706989
1776870099353052200,7.81805224609375,-0.463649777162075,-0.5624322229534388,0.4860451488435268
1776870099363089200,7.828089111328125,-0.5417518384963274,-0.7671300351560115,0.558379148170352
1776870099373125000,7.838125,-0.48045770410001276,-1.0163128857731818,0.5928109946042299
1776870099383162000,7.848162109375,-0.24440906034409998,-1.158552780497074,0.6003554186344147
1776870099393198000,7.858197998046875,-0.250485165387392,-1.0732879879266024,0.4936211370557546
1776870099403235000,7.868235107421875,-0.21637655955851076,-0.9890835180640221,0.4103507331728935
1776870099413271300,7.878271240234375,-0.16742957329899072,-0.9878946005403995,0.3353992448240518
1776870099423308000,7.88830810546875,0.0004871989950537681,-1.0891980892419815,0.2671501767233014
1776870099433344000,7.898343994140625,0.2720993235632777,-1.3058803537487982,0.362279360704124
1776870099443381000,7.908381103515625,0.3057373892709613,-1.320644207638502,0.39152299084514375
1776870099453418000,7.91841796875,0.29994565412700175,-1.3220160805135965,0.466622655493021
1776870099463454000,7.928453857421875,0.4866776015281677,-1.2575626053035258,0.41833676349073645
1776870099473491200,7.9384912109375,0.4182119680672884,-1.0963619895219803,0.3502934470951557
1776870099483527200,7.948527099609375,0.40395606369972226,-1.0275246001392602,0.3890089621976018
1776870099493564200,7.958564208984375,0.354690513010323,-0.9214221867233514,0.49778234838843344
1776870099503600000,7.96860009765625,0.34368659617602826,-0.779790779286623,0.5767050784558058
1776870099513637000,7.97863720703125,0.4348915924504399,-0.5621159966111183,0.5229293568655848
1776870099523673000,7.988673095703125,0.5506228349551558,-0.25914602622687816,0.4046557364016771
1776870099533710000,7.9987099609375,0.6869324628472327,-0.06935936743021011,0.37163667937517164
1776870099543746300,8.008746337890624,0.702930242446065,0.11459785456061362,0.4728159571751952
1776870099553783300,8.018783203125,0.44724867745935915,0.22203356240689753,0.5996878946363926
1776870099563819300,8.0288193359375,0.2365261981397867,0.1704687948644161,0.8981725363001227
1776870099573856000,8.03885595703125,-0.031840076375007624,0.11839549327790737,1.0797311727166174
1776870099583892200,8.048892333984375,-0.2484793785229325,0.11892039393484592,1.1362708060622215
1776870099593929000,8.058928955078125,-0.24134236624985933,0.22824995270371437,1.1694991219252346
1776870099603965000,8.06896484375,-0.24226386500895022,0.3374497476130724,1.0400608411073684
1776870099614002200,8.079002197265625,-0.26957535804361105,0.4962643450409174,0.9029863663226365
1776870099624038100,8.0890380859375,-0.27227175752073524,0.5311988802999258,0.9305351752445101
1776870099634075100,8.0990751953125,-0.31852965082675216,0.5320926142692566,0.9342153250619769
1776870099644112100,8.109112060546876,-0.4734425646409392,0.5646352859556675,0.9711237907424568
1776870099654148000,8.119148193359376,-0.640931759172678,0.5506400783509016,0.8263587614551187
1776870099664185000,8.12918505859375,-0.6828554226666689,0.528065258449316,0.6481789538219571
1776870099674221000,8.139220947265626,-0.4785746668323874,0.38590193609297274,0.6555171877555549
1776870099684258300,8.14925830078125,-0.0581622661113739,0.2464823594868183,0.5682122676596045
1776870099694295000,8.159294921875,0.25483576181232925,0.2036000800937414,0.4662361403934657
1776870099704331300,8.169331298828125,0.3662865505188703,0.18108605046868323,0.3631011984810233
1776870099714368000,8.179367919921875,0.3327624665796757,0.15461656121611594,0.1661724128447473
1776870099724404200,8.189404296875,0.06600918021947146,0.1254442427456379,-0.10673939614519476
1776870099734441000,8.19944091796875,-0.024013620533049104,0.007845452803373336,-0.2366205984249711
1776870099744477000,8.209476806640625,0.22405162423104047,-0.21392858188450334,-0.19572218632549046
1776870099754514200,8.21951416015625,0.6390551516458391,-0.45171676278412337,-0.16350735835395752
1776870099764550100,8.229550048828125,1.0058180875048042,-0.7982213389903307,-0.013384163034334777
1776870099774587100,8.239587158203125,1.251507689178735,-1.1799959660202264,0.14060600991174577
1776870099784624000,8.2496240234375,1.3234440674901007,-1.44606974568367,0.22214264880456028
1776870099794660000,8.25966015625,1.2973688382521271,-1.6549848833203316,0.2078077974492684
1776870099804697000,8.269697021484374,1.197054798979312,-1.7957096973061561,0.14019362971857188
1776870099814733600,8.279733642578124,1.171926202941686,-1.964369981443882,0.04097061881916597
1776870099824770600,8.2897705078125,1.0658896943688392,-2.1158003138393164,-0.008791177254845389
1776870099834807300,8.299807373046875,1.0065648142188788,-2.3070295726597307,0.10194732129676266
1776870099844843300,8.30984326171875,1.1343752015739679,-2.535021751210093,0.28567773052807893
1776870099854880500,8.319880615234375,1.1328893469303847,-2.8123645283848044,0.42914303886108096
1776870099864916500,8.32991650390625,0.8196054878026247,-3.100959936457872,0.4731558566540479
1776870099874953500,8.339953369140625,0.22529753263890742,-3.3541935237705705,0.5054616143120453
1776870099884989400,8.349989501953125,-0.4238736470907926,-3.6637720986396074,0.5897297605279833
1776870099895026400,8.3600263671875,-0.7279838735513389,-3.789414494305849,0.5748075742714107
1776870099905063400,8.3700634765625,-0.6705962450742721,-3.842305542016029,0.6483466385390609
1776870099915099400,8.380099365234376,-0.5947985151596367,-3.8292332944750784,0.6512468169599771
1776870099925136600,8.39013671875,-0.4082522995889187,-4.006520537182689,0.7192739859383552
1776870099935172600,8.400172607421876,-0.3745738288056105,-4.082109154391288,0.6953576152347027
1776870099945209600,8.410209716796874,-0.5505382984768599,-4.05314258762598,0.5972250847194344
1776870099955245600,8.42024560546875,-0.6022053573500364,-4.029326243230701,0.4759592236369848
1776870099965282600,8.430282470703125,-0.5082522314112633,-3.687879534935951,0.48153724296502765
1776870099975319300,8.4403193359375,-0.40472288335375484,-3.1331711842328307,0.3946038595952093
1776870099985355300,8.450355224609375,-0.2826752973090857,-2.5278321319669486,0.17247867338210343
1776870099995392500,8.460392578125,-0.29564002935495226,-1.7668179493427276,-0.09491707560010254
1776870100005428500,8.470428466796875,-0.4406546860218048,-0.9717343238562345,-0.3556253096424043
1776870100015465500,8.480465576171875,-0.6281921045869588,-0.18799860633611679,-0.550020192886889
1776870100025501400,8.49050146484375,-0.8054460295468568,0.6456283925563097,-0.6875157426279038
1776870100035538400,8.500538330078125,-0.8494231184393167,1.3330775727540254,-0.7823642830364406
1776870100045575400,8.510575439453126,-0.551342052607797,1.850936494487524,-0.9419504493586719
1776870100055611400,8.520611328125,-0.04835048167109489,2.237743854987621,-0.9708095371615141
1776870100065648600,8.530648681640624,0.4422779398420825,2.1998931400209663,-1.0368638716969638
1776870100075684600,8.5406845703125,1.015113446855545,1.7091016734331845,-1.0101895805872976
1776870100085721600,8.5507216796875,1.5405162080973387,0.9726531922668218,-0.7316289520554244
1776870100095758300,8.56075830078125,1.7604010680377482,0.20628829626441,-0.33154052356928587
1776870100105794300,8.570794189453125,1.7780062828332184,-0.5624345610409974,0.10086597406715155
1776870100115831300,8.580831298828125,1.4341250408679247,-1.0644055932909249,0.45594168700277804
1776870100125867500,8.590867431640625,0.9121522540748119,-1.3431833717048167,0.6523254059769212
1776870100135904500,8.600904541015625,0.3168219701260328,-1.4283908811300992,0.690800974843651
1776870100145941500,8.61094140625,-0.34985797828733917,-1.201377192223072,0.6198154675163329
1776870100155977500,8.6209775390625,-0.9508587090879678,-0.7009241633206605,0.43565410125553605
1776870100166014500,8.631014404296875,-1.4993044922649859,-0.028189737173914906,0.2006533591173589
1776870100176050400,8.641050537109376,-2.0376690264105797,0.6301385624796152,-0.07306231360137462
1776870100186087700,8.651087646484376,-2.3582874662101267,1.2727823862671852,-0.3578384556472301
1776870100196123600,8.66112353515625,-2.345067919152975,1.8327064257919787,-0.6611651305146515
1776870100206160600,8.67116064453125,-2.099043824827671,2.2021675146937367,-0.9472310201101004
1776870100216197400,8.681197265625,-1.5265046338796615,2.2162655981510877,-1.1859780361045151
1776870100226233600,8.691233642578124,-0.7532371188819408,1.8439093723297117,-1.2976941246837377
1776870100236270300,8.701270263671875,-0.13989771551191807,1.1798211939752101,-1.1964722498510032
1776870100246306300,8.711306396484375,0.1091670708166901,0.5065472541242838,-0.8527757898680866
1776870100256343600,8.721343505859375,0.2571148126602173,-0.041944706282019614,-0.4785173106219619
1776870100266380500,8.731380615234375,0.3880021232426166,-0.5007371065407991,-0.18063845283165572
1776870100276416500,8.74141650390625,0.5022738145887852,-0.8035726368904114,0.034549700659886
1776870100286453500,8.75145361328125,0.6552279955506325,-0.8607306943953037,0.21774076058380304
1776870100296489500,8.761489501953125,0.6591255875110625,-0.7137982579410076,0.3930876828785985
1776870100306526500,8.7715263671875,0.607773585936427,-0.46909050691127774,0.52068398909159
1776870100316563700,8.781563720703126,0.42430794685482975,-0.2232850237727165,0.5431847939088941
1776870100326599700,8.791599609375,0.23444707204448056,0.042185529300570485,0.4094230238687247
1776870100336636400,8.801636474609374,0.06215396609604358,0.2670516847848892,0.1799167144283652
1776870100346672600,8.811672607421874,-0.07042261274755,0.2658241888165474,-0.015497355796024202
1776870100356709400,8.82170947265625,-0.13917115480303763,-0.027925533279776572,-0.05005319393575191
1776870100366746400,8.831746337890625,-0.1797013181120157,-0.38279461772739887,0.05502221451997757
1776870100376782300,8.8417822265625,-0.17077391529083252,-0.5777607249885797,0.18861038155891
1776870100386819600,8.851819580078125,-0.06724806523150764,-0.5682686740219592,0.30017369072921574
1776870100396855600,8.86185546875,0.03673018650412559,-0.42381636394560335,0.31236279876008627
1776870100406892500,8.871892578125,0.19437047945559024,-0.17544658327698706,0.3317642493225634
1776870100416929500,8.881929443359375,0.11299508640593849,0.04390928435325622,0.3054810764223337
1776870100426965500,8.891965576171875,0.010791443127393722,0.22520342461466789,0.26286570433713496
1776870100437002500,8.90200244140625,-0.2191068613052368,0.3540057456165552,0.1915941466100514
1776870100447038500,8.91203857421875,-0.5148007032066584,0.40309857008755207,0.11489208826683461
1776870100457075700,8.92207568359375,-0.8257903139173984,0.37499417310953137,0.035137948876619335
1776870100467112400,8.932112548828124,-1.0879594873577356,0.3055512190490961,-0.003483165940642357
1776870100477148400,8.9421484375,-1.1997311785817146,0.2705044555872679,-0.05054382699690759
1776870100487185400,8.952185302734375,-1.129893087723851,0.3342582580953836,-0.08857114063948392
1776870100497221400,8.962221435546875,-0.8678881649345159,0.436484122338891,-0.11763261914663016
1776870100507258400,8.97225830078125,-0.4974310507327318,0.4873527243107557,-0.12209851251430809
1776870100517295600,8.982295654296875,-0.1190823064982891,0.4077794213801622,-0.09893179113417863
1776870100527331600,8.99233154296875,0.202248665484786,0.18968729007542132,-0.02089884951338172
1776870100537368600,9.00236865234375,0.44617491074800486,-0.07204524551331996,0.0656381549499929
1776870100547404500,9.012404541015625,0.6224556067615747,-0.2661620424687862,0.15379757298342883
1776870100557441500,9.022441650390626,0.6881161196738481,-0.36655601511001584,0.23165771532058715
1776870100567478500,9.032478515625,0.6323720206201077,-0.357452671200037,0.31072869475223125
1776870100577514500,9.042514404296876,0.4681067565709352,-0.24633681353628634,0.35774339777491987
1776870100587551500,9.052551513671874,0.2906658028726466,0.03268704859316349,0.35919944180212915
1776870100597588500,9.06258837890625,0.11802490639984607,0.30885084511637684,0.2869000023320317
1776870100607624400,9.07262451171875,-0.012372593105304985,0.39128655174076554,0.21078926094546913
1776870100617661400,9.082661376953125,-0.16377075853049755,0.24618366880118844,0.16512224620468913
1776870100627697400,9.092697509765625,-0.2923883706152439,-0.017646131327748296,0.12570537789985536
1776870100637734400,9.102734375,-0.34649990003108977,-0.19199381345212457,0.03983377854265272
1776870100647771600,9.112771728515625,-0.3560018878698349,-0.22245909434258937,-0.031932503898814316
1776870100657807600,9.1228076171875,-0.3390934231668711,-0.11530395700335502,-0.08666136149540543
1776870100667844600,9.1328447265625,-0.3139543057352304,0.05947860940694809,-0.1037152260184288
1776870100677880600,9.142880615234375,-0.30428514463603495,0.18459318180680273,-0.10844714991115033
1776870100687917600,9.15291748046875,-0.2812456298321485,0.2845136917173862,-0.10428257757760584
1776870100697954300,9.162954345703126,-0.273880106032826,0.43975043065845965,-0.11836655944436787
1776870100707990500,9.172990478515626,-0.2283657245704904,0.5781827497929334,-0.16219737173393367
1776870100718027500,9.183027587890624,-0.14029522692952304,0.6293728388041258,-0.2417911329306662
1776870100728063500,9.1930634765625,-0.046212866854202,0.5382330167204141,-0.3373268518857658
1776870100738100500,9.2031005859375,0.03843461580183357,0.2974514992237091,-0.45095381558761
1776870100748137500,9.213137451171875,0.05648936446309089,-0.014699556481838225,-0.566380449122563
1776870100758173400,9.22317333984375,-0.08038578835725783,-0.29222587352991103,-0.6641623395692556
1776870100768210400,9.23321044921875,-0.23659696182105688,-0.3966916256546974,-0.7128591504599898
1776870100778246400,9.243246337890625,-0.2758195496628061,-0.25363047767579555,-0.7584965007148683
1776870100788283600,9.25328369140625,-0.25317166452500967,0.09572247369885444,-0.8118710210930555
1776870100798320600,9.263320556640625,-0.18516542873680591,0.506731378519535,-0.8542784495159983
1776870100808356600,9.273356689453125,-0.04265606942176819,0.795550073954463,-0.9152500739596784
1776870100818397200,9.283397216796875,0.12625263651907442,0.819908854663372,-0.9734337481852621
1776870100828434400,9.293434326171875,0.1594323640000075,0.5651970114916562,-0.9849054286617785
1776870100838470400,9.303470458984375,0.0330834274996072,0.1742126575678587,-0.939754619814828
1776870100848507400,9.31350732421875,-0.1436311298865825,-0.143965403342247,-0.8409416327547281
1776870100858543400,9.32354345703125,-0.31907877260949463,-0.3072451634854078,-0.764267850657925
1776870100868580400,9.333580322265625,-0.5208971934508532,-0.3161263890773058,-0.7399925835140049
1776870100878617300,9.343617431640626,-0.562314149531722,-0.1876613372057676,-0.7692788106877356
1776870100888653300,9.3536533203125,-0.4529419937301427,-0.04563596201539039,-0.7929767163351178
1776870100898690600,9.363690673828126,-0.2678326790947467,-0.013321838387846946,-0.7778034048616885
1776870100908727300,9.373727294921874,-0.13586444140784443,-0.1688485001862049,-0.6934708516400307
1776870100918763500,9.383763427734374,0.050199762799590826,-0.4484843567341566,-0.5921276154499501
1776870100928800300,9.39380029296875,0.2082481981605291,-0.7854775927513837,-0.4807585136774927
1776870100938836200,9.403836181640624,0.34278409437835217,-1.1095131475180386,-0.3477010925143957
1776870100948873200,9.413873291015625,0.5473527272433042,-1.4012375012665985,-0.20218487953357397
1776870100958910500,9.423910400390625,0.6421938149977475,-1.59638890196681,-0.058461979710310696
1776870100968946400,9.433946533203125,0.6221319277651608,-1.7027011587411165,-0.007638312858715653
1776870100978983400,9.4439833984375,0.6658816376425325,-1.5831448049902914,-0.10321845547743141
1776870100989020400,9.4540205078125,0.8222095328211784,-1.2716554280638694,-0.3061325260683894
1776870100999056400,9.464056396484375,0.9852350259423255,-0.9276122735351323,-0.48720330590270455
1776870101009093400,9.47409326171875,0.976132851076126,-0.6172814189940691,-0.6175950149878859
1776870101019129300,9.48412939453125,0.7328519179791212,-0.37587680116295813,-0.6764765352845191
1776870101029166300,9.494166259765626,0.05492883714810014,-0.18764672415852546,-0.657791416297853
1776870101039203300,9.504203369140624,-0.4824649522691965,-0.21325287458002565,-0.45522206749133765
1776870101049239300,9.5142392578125,-0.6803897632054984,-0.3641758419752121,-0.19273206459879874
1776870101059276300,9.5242763671875,-0.7276787531249225,-0.5789712698221207,0.06623115240707993
1776870101069313300,9.534313232421875,-0.6929734965771436,-0.8690157076597214,0.3018064064975828
1776870101079349200,9.544349365234375,-0.3581422608993947,-1.1459773765623569,0.540354685049504
1776870101089386500,9.554386474609375,0.2689098798722029,-1.4990952334284782,0.7222031712580472
1776870101099422500,9.56442236328125,0.9912878962405025,-1.9300766666978597,0.840044318588823
1776870101109459500,9.57445947265625,1.2299475992776452,-2.330745963811874,1.0346935419205576
1776870101119496400,9.584496337890625,0.9749006789326667,-2.5646546729296444,1.0341507402807473
1776870101129532400,9.594532470703125,0.29368542468845843,-2.4815409209132193,0.8521186411336064
1776870101139569400,9.6045693359375,-0.7001303825944661,-2.104126242658496,0.48058523946981874
1776870101149606400,9.6146064453125,-1.4822627565711737,-1.6467098069280386,0.024542978169396518
1776870101159642400,9.624642333984376,-1.3547627503395079,-1.5054706136792897,-0.2937100294067524
1776870101169679400,9.634679443359374,-0.22066724248975514,-1.6595517528444528,-0.5852764709135517
1776870101179716400,9.64471630859375,0.9292778686597942,-1.9519535674631594,-0.8478823187381028
1776870101189752300,9.65475244140625,1.5534785655230283,-2.294440724721551,-1.0124055030710994
1776870101199789300,9.664789306640625,1.2913912251472472,-2.416204233127832,-0.9537798572316766
1776870101209825300,9.6748251953125,0.75292147706151,-2.3905881458342075,-0.8479143213115632
1776870101219862500,9.684862548828125,0.5984826104998588,-2.2066765165507793,-0.8749969740264117
1776870101229899500,9.6948994140625,1.2161223414123057,-1.833755642583966,-0.8663872588522732
1776870101239935500,9.704935546875,1.970531718944013,-1.3630524397790431,-0.7412256324402987
1776870101249972200,9.71497216796875,2.358273729945719,-0.8408727322369813,-0.4941177614662796
1776870101260009200,9.72500927734375,2.025886818680167,-0.44969022539258,-0.06276121127419174
1776870101270045200,9.735045166015626,1.1177104824990034,-0.15091186147928237,0.5756758815385401
1776870101280082400,9.74508251953125,0.14881693502664564,-0.018276245924830434,1.2762402716360985
1776870101290119400,9.755119384765624,-0.35094577352404593,0.017142273458838463,1.7185202207721768
1776870101300155400,9.7651552734375,-0.45053281369656323,0.04940612820386886,1.7932918225094674
1776870101310192400,9.7751923828125,-0.09574848492294549,0.17138123353421686,1.7055873817019163
1776870101320228400,9.785228271484375,0.7154027705281972,0.3929658831298351,1.4230240933999418
1776870101330265300,9.795265380859375,1.3815794455945491,0.5546779555648566,1.0935305654883385
1776870101340302600,9.805302490234375,1.5692074650526047,0.6570207241863012,0.8665167304508388
1776870101350338600,9.815338623046875,1.5023080579951404,0.5726689548075199,0.7978202108435333
1776870101360375300,9.825375244140625,0.9854884161815046,0.35366321578919885,0.6155754918590187
1776870101370412300,9.835412353515625,0.0032753684088587757,-0.060845806106925006,0.16059066718965767
1776870101380448300,9.8454482421875,-0.5651201468631625,-0.4728793778002262,-0.19739713380038737
1776870101390485200,9.8554853515625,-0.2961924390733242,-0.6825310130178928,-0.546226645822823
1776870101400522500,9.8655224609375,0.2580386495068669,-0.8272025188028812,-0.8944275045529008
1776870101410558500,9.875558349609374,0.6206251764640212,-0.8779378497838973,-1.0261191172555089
1776870101420595500,9.885595458984374,0.6998457204341888,-0.773354608759284,-0.9048656041979789
1776870101430632400,9.895632568359375,0.5372480973362922,-0.4834656537443399,-0.5890402438938618
1776870101440668400,9.90566845703125,0.1955684570685029,-0.07845803516507148,-0.3361471405819058
1776870101450705400,9.915705322265625,-0.46294601280689235,0.4032710040450096,-0.08261690841019154
1776870101460741400,9.925741455078125,-0.7142538927540183,0.7820388504743575,0.2246060432434082
1776870101470778400,9.9357783203125,-0.38783027380704876,0.8410013270527124,0.5158817764416337
1776870101480815400,9.9458154296875,0.24321371307969092,0.6984814463436603,0.7221940381035208
1776870101490851300,9.955851318359375,0.8461217388063669,0.6099906774640083,0.8502528472617268
1776870101500888300,9.965888427734376,1.0391744136616587,0.47216684561669825,0.9332152081087232
1776870101510925300,9.97592529296875,0.9169777745351195,0.32272038051486013,1.1532792240083216
1776870101520961300,9.985961181640626,-0.08093173180222511,0.12536883942186833,0.9952157372087239
1776870101530998500,9.99599853515625,-0.578267505466938,0.21054946084022522,0.7686126749292016
1776870101541035500,10.006035400390624,-0.4791524667203426,0.10085282232463359,0.3414376482054591
1776870101551071500,10.016071533203124,0.2534609663277864,-0.0333095644056797,-0.2345429153680801
1776870101561108200,10.026108154296875,1.0881184773117303,0.012474866169691085,-0.8802303446352482
1776870101571145200,10.036145263671875,1.4607511819869279,0.3143658091455698,-1.5090890964373946
1776870101581181200,10.04618115234375,1.043789506241679,0.6181342364311218,-1.8934335739552974
1776870101591218400,10.056218505859375,0.22886136260032652,0.7137456509709358,-2.0172636595025657
1776870101601255400,10.06625537109375,-0.28445290144085883,0.6067687928080558,-1.827614363349974
1776870101611291400,10.07629150390625,-0.36209026787281035,0.3564490471154451,-1.5091560241937636
1776870101621328400,10.086328369140626,-0.8975374532669782,0.06199556066393852,-1.103098896561563
1776870101631365400,10.096365478515626,-0.45984103252887726,-0.3772632870852947,-0.7457900177463889
1776870101641401300,10.1064013671875,0.2846510543614626,-0.3642261108577251,-0.5699708017647266
1776870101651438600,10.1164384765625,0.3547451658070087,0.11041676948368549,0.2986842558890581
1776870101661474600,10.126474609375,0.0695119276434183,0.6967167747586965,1.4101836087882518
1776870101671511300,10.13651123046875,-0.8968705137908458,1.2775573455840348,2.4651316379040478
1776870101681548300,10.14654833984375,-1.6521552128523587,1.3066653666466475,2.1733926711082456
1776870101691584300,10.156584228515625,-1.3895944097459316,1.2360820103794337,0.9279735080629586
1776870101701621200,10.166621337890625,-1.0495745193839072,1.1135866805672645,-0.5097802446961403
1776870101711658500,10.176658447265625,-0.6198451320022345,0.5924421612918377,-1.2288947292238472
1776870101721694500,10.186694580078125,-0.20266426054835318,0.006245031869411468,-1.1524193923085928
1776870101731731500,10.1967314453125,0.5751181015253066,-0.23249708875417707,-0.759993607404828
1776870101741768400,10.2067685546875,0.794298612588644,-0.25920038676261903,0.36640228585302825
1776870101751804400,10.216804443359376,-0.3256879981487989,-0.17549655989855528,1.5865490604758261
1776870101761841400,10.22684130859375,-1.1455553517580033,0.44439065767973657,1.381676476228237
1776870101771878400,10.23687841796875,-0.7978834853380918,1.0342179602980612,0.7268178985118866
1776870101781914400,10.246914306640624,-1.2312030061662196,1.0271551823049783,0.2700409297287464
1776870101791951400,10.256951416015625,-0.8711632410824298,0.7910118460029363,0.2315291205048561
1776870101801988400,10.26698828125,0.02924187657535076,0.41066199107915163,0.39415655421912665
1776870101812024300,10.2770244140625,-0.2561936061620712,-0.4489239171952009,0.9686480482786893
1776870101822063900,10.28706396484375,-1.0733809269070624,-0.09062690412551164,0.9114847300767898
1776870101832099800,10.297099853515626,-0.9307727833926677,0.05629354963004589,1.5667285077184439
1776870101842136800,10.30713671875,-0.5464098934352397,-0.04281242902725935,2.1937065603405235
1776870101852173800,10.317173828125,-0.7214841362684965,0.07326485043615102,2.5262024849385023
1776870101862209800,10.327209716796874,-1.033054761737585,0.030005554424226283,0.9394394894510507
1776870101872247000,10.3372470703125,-0.6603302871257066,-0.04092003940939903,-0.5467980159699917
1776870101882284000,10.347283935546875,-0.806930130624771,-0.3137850866481662,-0.5484183106482029
1776870101892320000,10.357320068359375,-1.0492588775634766,-0.5219456065252422,0.11624679081141948
1776870101902356700,10.367356689453125,-1.2439637035399675,-0.4986462717413902,1.047915061739087
1776870101912393700,10.377393798828125,-1.6905658997893331,-0.21068565444052217,1.6279092448681591
1776870101922429700,10.3874296875,-2.009262431615591,0.38100101230889555,2.210541375285387
1776870101932467000,10.397467041015625,-2.0297312191486356,0.829705733795464,1.9904326434612274
1776870101942504000,10.40750390625,-2.326659571281075,1.0357231041640043,1.648349975350499
1776870101952540000,10.417539794921876,-2.238680843576789,0.9522133385673165,1.392583070167899
1776870101962577000,10.427576904296876,-2.3485241970866917,0.7951014534041285,1.7782810081213711
1776870101972614000,10.43761376953125,-2.740025852882862,0.836690185855329,2.0501175890952346
1776870101982649900,10.44764990234375,-2.421238135641813,1.0074167548730968,1.8969325219869613
1776870101992686800,10.457686767578124,-2.729387554490566,0.9421502097144723,1.8177099321901797
1776870102002723800,10.467723876953125,-2.6504689160764214,1.2154469263687728,1.5402181019335985
1776870102012759800,10.477759765625,-2.5761194852739573,1.2551157966732978,1.3542448639452456
1776870102022796800,10.487796875,-2.2116765167951584,0.8373381283700466,1.0904483815640211
1776870102032833800,10.497833740234375,-2.107626944255829,0.9380445279613137,1.0342986243188381
1776870102042869800,10.507869873046875,-2.5975720231473445,1.1984858546957373,1.373084588971734
1776870102052906800,10.51790673828125,-2.5959365309000013,1.1391709114179014,1.3958698367536067
1776870102062944000,10.527944091796876,-1.8316104472488164,1.3668316660568118,1.4834113420844077
1776870102072980000,10.53797998046875,-1.7846850299447774,1.5589593350216746,1.8086533500313757
1776870102083017000,10.548016845703126,-2.263175817885995,1.7087959684848784,1.6047972493499516
1776870102093053700,10.5580537109375,-1.9627935259073972,1.1056371828675269,0.9203945972412824
1776870102103090000,10.56808984375,-0.9851567000091075,0.6008651217222213,0.685882077011466
1776870102113126700,10.578126708984374,-1.258687225419283,0.41793490469157696,1.0912211195021868
1776870102123164000,10.588163818359375,-1.5086808078974485,0.4489800312966108,1.5604630175828933
1776870102133200000,10.598199951171875,-1.3112497718274592,0.7305830962643027,1.6755524550527334
1776870102143236900,10.60823681640625,-1.136797460284829,0.7788698650494218,1.588708868858218
1776870102153273900,10.61827392578125,-0.6802782656550407,0.7083078438311815,1.4451117143064736
1776870102163310800,10.628310791015625,-0.7644201916754245,0.630066081765294,1.1804174063026904
1776870102173346800,10.638346923828125,-0.7316729373276233,0.18815087428838015,1.057786467412114
1776870102183384000,10.648384033203126,-0.3032248219281435,-0.10657850649505853,1.2123147658228874
1776870102193420800,10.6584208984375,-0.4154483485728502,-0.17274550762474536,1.4037573751330374
1776870102203456800,10.668456787109376,-0.7545137146890163,-0.20642039821147917,1.2484767970502375
1776870102213493800,10.67849365234375,-0.1838151831716299,-0.23387071519494054,0.9983242246180772
1776870102223530800,10.68853076171875,0.0428384402513504,-0.12670447193980217,0.7820493718683719
1776870102233566700,10.698566650390624,-0.3370668857753277,-0.17120763053297997,0.512548540365696
1776870102243604000,10.70860400390625,-0.0775683928489685,-0.30103111127614973,0.5053291105061769
1776870102253641000,10.718640869140625,-0.2447527592152357,-0.3140226947963238,0.6291676716208457
1776870102263677000,10.728677001953125,-0.59174774928689,-0.48328152934908863,0.7958513949885964
1776870102273714000,10.7387138671875,-0.05783493385314941,-0.6254021816074847,0.8460849139273167
1776870102283750700,10.748750732421875,0.3370575334250927,-0.5992611936569213,0.6951075859963893
1776870102293787000,10.758786865234375,0.3655862932950258,-0.6512754585325717,0.6693304629221558
1776870102303824000,10.768823974609376,0.270625451618433,-0.6722866823792457,0.6387593835696578
1776870102313860900,10.77886083984375,0.013210779228806495,-0.6601625293433666,0.5219599273115396
1776870102323896800,10.788896728515626,-0.10929156484603882,-0.8213590534716844,0.4444891496181488
1776870102333933800,10.798933837890624,0.0679834029018879,-0.8654834418803453,0.24994185229092836
1776870102343970800,10.808970703125,0.23670856896936893,-0.7746849805802106,-0.04800619827806949
1776870102354006800,10.8190068359375,0.25513328345417974,-0.7043517996817826,-0.15819237387627363
1776870102364044000,10.8290439453125,0.2793459336906671,-0.8456897771298885,-0.025644144344329833
1776870102374081000,10.8390810546875,0.36410569934844966,-1.0230682052522897,0.2143266412913799
1776870102384117000,10.849116943359375,0.14039163650870323,-1.0674538749456406,0.4186462678313255
1776870102394153700,10.85915380859375,0.18198153800368308,-1.043032550394535,0.5267752186387777
1776870102404190700,10.869190673828125,0.3442886537224054,-0.9976192912191152,0.5305474306538701
1776870102414226700,10.879226806640625,0.03764437873959541,-0.7731354130506515,0.5130205417916178
1776870102424264000,10.889263916015626,-0.15090484721660613,-0.668147682878375,0.5384606879964471
1776870102434301000,10.899301025390624,-0.1325152040451765,-0.6216250011563301,0.4100628561422229
1776870102444337000,10.9093369140625,-0.0411783980846405,-0.6012018063306808,0.28245003718584777
1776870102454374000,10.919373779296874,0.0470604418605566,-0.6408277142763138,0.2774897844299674
1776870102464411000,10.929410888671875,-0.05088759893327951,-0.642878801587224,0.2517567927584052
1776870102474446800,10.93944677734375,0.01923427730202675,-0.7234095513731241,0.2861512297913432
1776870102484483800,10.94948388671875,0.2154579834088683,-0.8193196565985679,0.3898801920741796
1776870102494520800,10.959520751953125,0.1773234830647707,-0.7712281181246042,0.3989063790947199
1776870102504556800,10.969556884765625,0.02284574579745531,-0.7539560808062553,0.4204015870660543
1776870102514593800,10.97959375,0.17862521331310272,-0.8333335689038037,0.4459130449414253
1776870102524630800,10.989630859375,0.1375344935119152,-0.7253934186667204,0.4168003477036953
1776870102534666800,10.999666748046875,0.04279430884867906,-0.5156558587312698,0.3624789749294519
1776870102544704000,11.0097041015625,-0.08917553627341986,-0.33892508086264134,0.3987169940024614
1776870102554741000,11.019740966796874,-0.19605857867300508,-0.1844376989841461,0.3870777018740773
1776870102564777000,11.02977685546875,-0.17947277005314827,0.09336509691774844,0.34778584818840025
1776870102574814000,11.03981396484375,-0.12839607828855515,0.29702655180990695,0.30363661759942767
1776870102584850700,11.0498505859375,0.124332482111454,0.40420565454661844,0.29305706365704537
1776870102594886700,11.05988671875,0.22711422667205333,0.5430015462964772,0.17423253131210803
1776870102604924000,11.069923828125,0.06601473317742347,0.6976835739642381,0.07158654196038841
1776870102614961000,11.0799609375,-0.09666004680991172,0.7093453701853751,0.25395123406276104
1776870102624996900,11.089996826171875,-0.14462386725097895,0.5413865123152732,0.49522374994680285
1776870102635033900,11.100033935546875,-0.2840691628202796,0.5316635752022266,0.5175644688315689
1776870102645070800,11.11007080078125,-0.3392208489388227,0.5735059901535511,0.40012759145274757
1776870102655106800,11.12010693359375,-0.34150399143993854,0.4583908337205648,0.30741482096388933
1776870102665144000,11.13014404296875,-0.21450375142395495,0.21685352942049502,0.3538689674943685
1776870102675180800,11.140180908203124,-0.006177811852097511,-0.04567454046010971,0.362507762632519
1776870102685217000,11.150217041015624,0.025415596285462378,-0.06254384219646454,0.23992913845106958
1776870102695253800,11.160253662109374,0.008020809370279311,-0.08657353708148002,0.18707601159848272
1776870102705290800,11.170290771484375,0.2893435960918665,-0.22019231845438478,0.271840526496619
1776870102715326700,11.18032666015625,0.6201733410432935,-0.23929040215611455,0.28716347557380795
1776870102725364000,11.190364013671875,0.8476157767564058,-0.1768313156336546,0.3242591343894601
1776870102735401000,11.20040087890625,1.0205845717430113,-0.18005378481149673,0.37895211695507164
1776870102745437000,11.21043701171875,0.8108779914677142,-0.12016542555987834,0.3975909856472164
1776870102755474000,11.220473876953125,0.5687386296212673,-0.3244698545306921,0.6448048012137413
1776870102765511000,11.230510986328126,0.5295546202242374,-0.7846616001933813,1.0965969673216343
1776870102775547000,11.240546875,0.47794279866963624,-1.2419663922429085,1.391563810122758
1776870102785583900,11.250583984375,0.24247677710726856,-1.56164375180006,1.396331901307404
1776870102795620900,11.260620849609374,-0.13880173696875572,-1.8815736248135566,1.334516081124544
1776870102805656800,11.27065673828125,-0.3610749533504247,-2.1918355057716368,1.2334179057367145
1776870102815688000,11.28068798828125,-0.3736421739786863,-2.500232761901617,1.2199381003081797
1776870102825725000,11.290724853515625,-0.2518161217302084,-2.8173703738480804,1.3121272853143513
1776870102835761000,11.300760986328125,-0.11814005721211433,-3.1206641693592068,1.3672539831221102
1776870102845798000,11.3107978515625,-0.2267056458711624,-3.3689661454886197,1.2981577966727316
1776870102855835000,11.3208349609375,-0.32843042872473593,-3.5847815640330314,1.1400152532875538
1776870102865870800,11.330870849609376,-0.38478666832745073,-3.701859544971585,1.015014735721424
1776870102875907800,11.340907958984374,-0.37799956547059116,-3.72249609028697,0.9553257714994251
1776870102885944800,11.35094482421875,-0.2846849566310644,-3.6317905679672955,0.8313210600376129
1776870102895980800,11.360980712890624,-0.18124577107504009,-3.5128976465612647,0.6347495634064078
1776870102906017800,11.371017822265625,-0.0023242051638662814,-3.3208050489097833,0.4538259369578212
1776870102916055000,11.381054931640625,0.15211597657203674,-3.099553576791286,0.28621428509019314
1776870102926091000,11.391091064453125,0.2283832236945629,-2.7852567412286997,0.08279913310930133
1776870102936128000,11.4011279296875,0.31756891603581605,-2.46798118211627,-0.10554149159751831
1776870102946164700,11.411164794921875,0.31490824545919893,-1.994340756815672,-0.3178615423068404
1776870102956201000,11.421200927734375,0.15655476273708044,-1.2848627001613377,-0.5307874499548226
1776870102966237700,11.43123779296875,-0.0507950252790004,-0.5311246460199356,-0.827582677226886
1776870102976275000,11.44127490234375,-0.24820903714895248,0.2411667174220085,-1.1006409089501947
1776870102986311000,11.451310791015626,-0.4059142120301723,0.9202180716305971,-1.3846931937009095
1776870102996348000,11.461347900390624,-0.46736441377103327,1.3990069657355546,-1.5812857331201433
1776870103006385000,11.471385009765624,-0.21135840260293334,1.6452759747326373,-1.7965474633045493
1776870103016420900,11.4814208984375,0.25001053361296655,1.5896902811110019,-1.9174739363647997
1776870103026457900,11.491457763671875,0.5897083158811554,1.1405454146414995,-1.8961792194016276
1776870103036494800,11.501494873046875,0.9723661920189857,0.5722627120941877,-1.7532796917252242
1776870103046531000,11.511531005859375,1.2074001057744026,0.04805705168247223,-1.4017426743097603
1776870103056567800,11.52156787109375,1.4016671248555184,-0.5378419715762138,-0.9984894981823861
1776870103066604800,11.531604736328125,1.5683219143897293,-1.1947218259871006,-0.5987099895149469
1776870103076640800,11.541640869140625,1.7393506812244652,-1.7221347580075264,-0.21503610473498702
1776870103086677800,11.551677734375,1.7687106312215328,-2.1529794131547213,0.04349427381157875
1776870103096715000,11.561715087890626,1.592837931486964,-2.377189150556922,0.21559797640144823
1776870103106751000,11.5717509765625,1.0591846437722443,-2.3857559033721683,0.2923258267730474
1776870103116788000,11.5817880859375,0.22469898222386836,-1.8146540517508982,0.22091946368515492
1776870103126825000,11.591824951171875,-0.7936872026920319,-0.482685901543498,0.03974821915104985
1776870103136861000,11.60186083984375,-1.751503475832939,0.8583066821187734,-0.05329334490075707
1776870103146898000,11.61189794921875,-2.39278361005187,2.116201295855641,-0.20344240531399846
1776870103156935000,11.621934814453125,-2.5275065532743928,3.2169325865030287,-0.34621202300041914
1776870103166971000,11.631970947265625,-2.3105448873043057,3.7707425270617008,-0.43591874354109167
1776870103177007900,11.6420078125,-1.5669944651782513,3.949780997350812,-0.5458598583370446
1776870103187044900,11.652044921875,-0.9354512965977191,3.433623618838191,-0.7242766895964742
1776870103197080800,11.662080810546875,-0.5745674819052219,2.3180150770545005,-0.8715108854763209
1776870103207117800,11.672117919921876,-0.6163643041491508,1.0742553716540335,-0.9479184178523719
1776870103217155000,11.682155029296876,-0.8366986614227294,0.2590302908927202,-0.9687425946943461
1776870103227191000,11.69219091796875,-1.0812567748486994,-0.36673370976448055,-0.9248796337008476
1776870103237228000,11.70222802734375,-1.1668003843605517,-0.7406155377179384,-0.8811474594801664
1776870103247264800,11.7122646484375,-1.1228244645118712,-0.9449906938374042,-0.8424918578714132
1776870103257300700,11.72230078125,-0.841011263924837,-0.8905436488568782,-0.7951346250213682
1776870103267337700,11.732337646484375,-0.4375263248682022,-0.650997226113081,-0.692809684317559
1776870103277375000,11.742375,-0.024350010597275103,-0.46692602235376834,-0.5375671001575887
1776870103287411000,11.752410888671875,0.4593243151783943,-0.41506256412565706,-0.3362960475333035
1776870103297448000,11.762447998046875,1.0009808766067028,-0.4416214852273464,-0.04275441522970795
1776870103307485000,11.77248486328125,1.5227543414354323,-0.4770061023414135,0.3045642538383603
1776870103317521000,11.78252099609375,1.8358815486967563,-0.5064940626323223,0.6647979340590536
1776870103327558000,11.792557861328126,1.9436019187033176,-0.4936830963760614,1.0393830879762769
1776870103337594600,11.8025947265625,1.8278011180937288,-0.4452022663235664,1.388718795955181
1776870103347631000,11.812631103515624,1.388192726254463,-0.42671325443089003,1.5919763462215661
1776870103357667800,11.822667724609374,1.070265425235033,-0.36234979559183117,1.7627151901990175
1776870103367704800,11.832704833984375,0.5453074851512909,-0.23408932638168334,1.838894905168563
1776870103377740800,11.84274072265625,-0.3042845601141453,-0.23477847768962382,1.7808698555707931
1776870103387777800,11.85277783203125,-1.125523786598444,-0.17713760510385035,1.515414500066638
1776870103397814800,11.862814697265625,-1.6681506543636322,0.14856968226730824,1.0848341949440539
1776870103407851000,11.87285107421875,-1.9021219073235986,0.5369271948188543,0.5376080166898668
1776870103417888000,11.882887939453125,-1.8619056322693823,0.7827297553479671,0.00628331805318594
1776870103427925000,11.892925048828126,-1.4794506217598915,0.7977741797447204,-0.465989472156018
1776870103437961000,11.9029609375,-0.9041758683681488,0.666866410896182,-0.849080442481488
1776870103447997700,11.912997802734376,-0.3018459530566819,0.5046639245957136,-1.1411711453244089
1776870103458034000,11.923033935546876,0.21376785663114858,0.39688510240018365,-1.360504070470482
1776870103468071000,11.93307080078125,0.6066986501812934,0.24782617531120776,-1.4950987111382186
1776870103478108000,11.94310791015625,0.8087561770081519,-0.053013212785124775,-1.5004557081267236
1776870103488144000,11.953143798828124,0.8792834191739559,-0.3562807048112154,-1.3116368714489042
1776870103498180900,11.963180908203125,0.7721896566331387,-0.40003216825425625,-1.016492772384733
1776870103508217900,11.9732177734375,0.556679943037033,-0.18417817126512526,-0.6880043298624455
1776870103518253800,11.98325390625,0.278119022244215,-0.04840542672872543,-0.360182972946763
1776870103528290800,11.993290771484375,0.06717208651900292,-0.06752689130604267,-0.033980011013150214
1776870103538327800,12.003327880859375,0.00894201586842537,-0.15840309401750563,0.2690112944200635
1776870103548364000,12.013364013671875,0.02465162617564201,-0.24805355432629583,0.5323771302990615
1776870103558400000,12.02339990234375,0.05320434230989776,-0.29006898775696754,0.7406494399875402
1776870103568436700,12.033436767578126,0.07251462572389282,-0.2014648216307163,0.8350381808646022
1776870103578473700,12.0434736328125,0.08563596397042274,-0.03336801659464836,0.8087649448364973
1776870103588509700,12.053509765625,0.110787950016791,0.06291793620586394,0.73755381205976
1776870103598547000,12.063546875,0.1149135055141989,0.04886602997779846,0.6918408392854034
1776870103608584000,12.073583984375,0.059448214268684386,-0.013872458007931708,0.682697455625981
1776870103618620000,12.083619873046874,-0.0172235220015049,-0.023602409383654592,0.633591041021049
1776870103628657000,12.093656982421875,-0.07506312289661728,0.04639233334064483,0.4994340611182153
1776870103638694000,12.10369384765625,-0.14234626857466062,0.13294599667787552,0.32046763315200805
1776870103648729900,12.113729736328125,-0.17566168733239174,0.17759470122158527,0.1241271687977016
1776870103658766800,12.123766845703125,-0.1887339348733425,0.15342998178005218,-0.006936229003965854
1776870103668803800,12.133803955078125,-0.21333295407891273,0.064758595636487,-0.0689293054498732
1776870103678839800,12.14383984375,-0.2310498125553131,-0.014113281026482582,-0.07999342803880571
1776870103688876800,12.153876708984376,-0.2571744338929653,-0.03281155175566673,-0.10042363712713122
1776870103698913800,12.163913818359376,-0.2647568518459797,0.02722410701215267,-0.13277341658994554
1776870103708949800,12.17394970703125,-0.2708838102936745,0.16740473111867904,-0.2071484202250838
1776870103718986800,12.18398681640625,-0.31051556345820425,0.4125245700806379,-0.3422529101110995
1776870103729024000,12.19402392578125,-0.34655835222005843,0.6923831294685602,-0.5240709281161428
1776870103739060000,12.20406005859375,-0.4053834661543369,0.8608639653861522,-0.6905646818697452
1776870103749097000,12.214096923828125,-0.3833540051758289,0.7431815888136625,-0.7788736644417047
1776870103759133700,12.2241337890625,-0.25920155580639836,0.29359833092689513,-0.7438643103808165
1776870103769170000,12.234169921875,-0.08103519217669963,-0.17284195373654365,-0.5611506587103009
1776870103779206700,12.24420654296875,0.046458968836069106,-0.37143969549834727,-0.3482264315627515
1776870103789243000,12.254242919921875,0.11953940261602401,-0.2520598673582077,-0.18089841894209382
1776870103799279900,12.26427978515625,0.13822190952049568,-0.018456278666853905,-0.05995514087751507
1776870103809316900,12.27431689453125,0.1441320012139622,0.0919248349815607,0.0406990901350975
1776870103819352600,12.2843525390625,0.12199848620593547,0.07991524823606014,0.11520926445722579
1776870103829389600,12.2943896484375,0.09227730168104172,0.002546177351474762,0.16162322510778904
1776870103839426600,12.304426513671874,0.023063480201363562,-0.09516893146932125,0.21482553072422741
1776870103849462500,12.314462646484374,-0.07092004087567329,-0.13849194036722182,0.22539704749062656
1776870103859499500,12.32449951171875,-0.28346447492539883,-0.10246434917449951,0.1662893172226846
1776870103869536500,12.33453662109375,-0.518203205126524,0.03172960173785686,0.03049903702959418
1776870103879572700,12.34457275390625,-0.7436246564060449,0.22017828992903232,-0.16051000316888092
1776870103889609500,12.354609375,-0.8815092785298824,0.4452303233742714,-0.3814176302857697
1776870103899646500,12.364646484375,-0.8400929800361394,0.6156172851741314,-0.6191656253054738
1776870103909682400,12.374682373046875,-0.6721060651153326,0.6404407607853412,-0.7910147686123847
1776870103919719400,12.384719482421875,-0.41083647086322306,0.5672603737622499,-0.8604889945939183
1776870103929756700,12.394756591796876,-0.13786416385769842,0.3860048119455576,-0.8782550990395247
1776870103939792600,12.404792724609376,0.1830132191389799,0.19495032517015934,-0.8064006999231874
1776870103949829600,12.41482958984375,0.40599429152905936,0.05267711269855499,-0.7166001636192202
1776870103959866600,12.42486669921875,0.5042419728565961,0.004224339696764946,-0.6177240481950342
1776870103969902600,12.434902587890624,0.5307446337264031,0.04866904610097408,-0.6000021482173353
1776870103979939600,12.444939697265625,0.377937131226249,0.2410492285221815,-0.7408101104419678
1776870103989975600,12.4549755859375,0.12497078001499175,0.4393172999382019,-0.9752245040595531
1776870104000012500,12.465012451171875,-0.0890840585976839,0.5903343753576278,-1.2516828996151685
1776870104010049500,12.475049560546875,-0.2655968098014593,0.5487842213511467,-1.4899471735939382
1776870104020085500,12.48508544921875,-0.3458779687404632,0.17343816606402396,-1.5521297812625765
1776870104030122500,12.49512255859375,-0.29643669615797696,-0.3802309047192335,-1.5344647991038858
1776870104040159500,12.505159423828125,-0.20229075106084346,-0.8328139289438724,-1.4511846044793724
1776870104050195500,12.515195556640625,-0.3135059774458408,-1.1503460931658744,-1.3454390416771174
1776870104060232700,12.525232666015626,-0.5686486132502555,-1.3594921169489622,-1.238397301584482
1776870104070269700,12.535269775390624,-0.6124024147808551,-1.5570166765213012,-1.1295098605599254
1776870104080305700,12.5453056640625,-0.17583171013705431,-1.7805255721777677,-0.9434870112761855
1776870104090342400,12.55534228515625,0.4112923979371786,-1.9823995591312646,-0.771860205483064
1776870104100379400,12.56537939453125,0.852437351693958,-2.053326614269614,-0.6147890176564454
1776870104110415400,12.575415283203125,0.9490613042771816,-2.016881089925766,-0.40871524092555045
1776870104120452600,12.58545263671875,1.0744921030193566,-1.9217156655877827,-0.32568295664750035
1776870104130489600,12.595489501953125,0.9987287137657404,-1.6788234395474195,-0.19999423762150106
1776870104140525600,12.605525634765625,0.9654787705928086,-1.5389707322210073,0.05728204921074211
1776870104150562600,12.6155625,1.1022218214660882,-1.6606828027009963,0.5305588288307189
1776870104160599600,12.625599609375,1.4242268933184443,-1.936780548250675,1.1203508409399539
1776870104170635500,12.635635498046875,1.7089584655702112,-2.2085446485102174,1.6800895139604806
1776870104180672800,12.6456728515625,1.4641567526467143,-2.41257201410532,2.168161200195551
1776870104190709500,12.65570947265625,1.1779549617119134,-2.625373053264618,2.5618705951690672
1776870104200745500,12.665745361328124,0.7994137636452913,-2.567854345753789,2.7176462632924316
1776870104210782500,12.675782470703124,0.07023439669907093,-2.3123113124549386,2.7614737145811317
1776870104220818400,12.685818359375,-0.7310023445896804,-2.0332009410858154,2.6524235572755335
1776870104230855400,12.69585546875,-1.4508733465731143,-1.4977736294358968,2.3465908909365534
1776870104240892700,12.705892578125,-2.4334217637799678,-1.0570289270430802,2.037759773433953
1776870104250928600,12.7159287109375,-2.6223975445851684,-0.9454238245576619,1.2346329806149006
1776870104260965600,12.725965576171875,-1.3751909136012195,-1.4096756592661142,0.274153552679345
1776870104271002600,12.736002685546875,0.511114123648405,-2.3489807086825367,-0.34422979967463757
1776870104281038600,12.74603857421875,1.4466606973141432,-3.0871640508174893,-0.5641460411339998
1776870104291075600,12.75607568359375,1.6925018362879751,-3.339466494759917,-0.8729057008355855
1776870104301112300,12.7661123046875,1.6979317523822188,-3.170917269781232,-1.3395425309844313
1776870104311148500,12.7761484375,2.258337145683169,-2.8219226303249596,-1.6421484903618693
1776870104321185500,12.786185546875,3.0697301009356974,-2.35531634144485,-1.6851313075199723
1776870104331222500,12.796222412109374,3.1602912463486192,-1.6154466536581515,-1.5925162983171641
1776870104341258500,12.806258544921874,2.2221944036781784,-0.7346838095813989,-1.4176587669745087
1776870104351295500,12.81629541015625,0.8716042628481984,-0.0419540586322546,-1.1479714729890227
1776870104361332500,12.82633251953125,-0.11840133849680423,0.1935398738503456,-0.6309133462443948
1776870104371368700,12.83636865234375,-0.5961234801530838,0.14472703536450862,-0.025529870314896105
1776870104381405700,12.84640576171875,-0.25519553503543135,0.0473088636636734,0.43006914073005315
1776870104391442400,12.8564423828125,0.4042167604625225,0.16404197668731213,0.7687555905312299
