time,seconds_elapsed,z,y,x
1776870091865867800,0.33086767578125,-7.426251824268698,-1.067776384898275,6.315141762948036
1776870091875903700,0.34090380859375,-7.288059159108996,-0.9709715958554297,6.4893596812129015
1776870091885940700,0.350940673828125,-7.195942600947618,-0.8540792736820876,6.607521365734934
1776870091895976700,0.360976806640625,-7.194026538193225,-0.718784521920979,6.625685383456945
1776870091906012700,0.3710126953125,-7.271186350241303,-0.5693548618234694,6.555614068365097
1776870091916050000,0.3810498046875,-7.318370126220583,-0.42307175612337883,6.514051054877043
1776870091926086000,0.3910859375,-7.321849785029888,-0.29515412726784124,6.5171916909903285
1776870091936123000,0.401122802734375,-7.2929264728844165,-0.1957289996587671,6.553266628456115
1776870091946158800,0.411158935546875,-7.265844989213347,-0.1292293325086124,6.584921411392092
1776870091956194800,0.42119482421875,-7.273567692419886,-0.07883245796803384,6.577187017747759
1776870091966231800,0.431231689453125,-7.2916773496061555,-0.0288112757388968,6.557514933550357
1776870091976267800,0.441267822265625,-7.271839261192083,-0.0020248508974778814,6.579570113492012
1776870091986304800,0.4513046875,-7.221794835084676,0.006190038862719666,6.634457887977361
1776870091996340700,0.4613408203125,-7.1594906468629835,0.007603236978757194,6.701643418499827
1776870092006377000,0.471376953125,-7.086807687968015,0.0020337490159807203,6.778461869764327
1776870092016414000,0.4814140625,-7.011887179279327,-0.003551782759776688,6.855932647457719
1776870092026450000,0.491449951171875,-6.935905178838968,0.00974379609634052,6.932785000991821
1776870092036487000,0.50148681640625,-6.854931945982575,0.05895226114501711,7.012618416163325
1776870092046523000,0.51152294921875,-6.773318661656975,0.14410549679952672,7.090258705204725
1776870092056558800,0.521558837890625,-6.696798901078105,0.2524000408316962,7.159578909668326
1776870092066595800,0.531595947265625,-6.632191112089156,0.37247316673193126,7.214270284798741
1776870092076631800,0.5416318359375,-6.574491787314415,0.4860375135263428,7.260179803058505
1776870092086669000,0.5516689453125,-6.524321104478836,0.5913853457152843,7.2975249065905805
1776870092096705000,0.561705078125,-6.477599685314297,0.6906785905729979,7.33035107139349
1776870092106741000,0.571740966796875,-6.427616049483418,0.7961004013136028,7.363583478909731
1776870092116778000,0.581778076171875,-6.369491192772984,0.9333453372944146,7.3978937447905535
1776870092126814000,0.59181396484375,-6.301640476340055,1.1150006390184164,7.430779530826211
1776870092136851000,0.601850830078125,-6.223569979187846,1.3313171389527618,7.460908711630106
1776870092146887000,0.611886962890625,-6.144174370911717,1.5629453359179197,7.481758022913336
1776870092156923000,0.6219228515625,-6.073091248428821,1.7924188390672207,7.488336232259869
1776870092166959900,0.6319599609375,-6.015462066280842,2.013953365910798,7.478541983476281
1776870092176995800,0.641995849609375,-5.972128535988927,2.22982431403473,7.4519760481119155
1776870092187032800,0.65203271484375,-5.937739359652996,2.439693829786777,7.41360452414155
1776870092197069000,0.662069091796875,-5.898588668003678,2.6461054601699114,7.37395231271088
1776870092207105000,0.67210498046875,-5.834731989642977,2.858828757917881,7.345297296112776
1776870092217141800,0.682141845703125,-5.733053237888217,3.0899934290245175,7.331741064447164
1776870092227178000,0.692177978515625,-5.589764710894227,3.3527962241932747,7.326914082682133
1776870092237214700,0.702214599609375,-5.405473142382502,3.6591830172836777,7.318579969578981
1776870092247250700,0.712250732421875,-5.189814375704526,4.012119964624941,7.289658410999179
1776870092257287000,0.722286865234375,-4.958002931126952,4.3983395883649585,7.227946343451738
1776870092267324000,0.732323974609375,-4.72459077335447,4.7952726215600965,7.131198033836483
1776870092277359900,0.74235986328125,-4.499628464019298,5.178407431027293,7.0076984954178325
1776870092287395800,0.752395751953125,-4.283763945636153,5.531994074448943,6.8714470274537796
1776870092297432800,0.762432861328125,-4.07594274071604,5.853666991737485,6.729907974475622
1776870092307468800,0.77246875,-3.879126621674001,6.151454006525873,6.578934738197923
1776870092317505800,0.782505859375,-3.6851109470054504,6.43457010640502,6.417683853533863
1776870092327541800,0.792541748046875,-3.4732913200989364,6.708398737978935,6.253320974329114
1776870092337577700,0.80257763671875,-3.2409578974738715,6.9780620665669435,6.080563191744685
1776870092347614700,0.81261474609375,-2.998059241692722,7.240782444149255,5.895176229211688
1776870092357650700,0.822650634765625,-2.7572318392276762,7.488394099926948,5.700176219680905
1776870092367688000,0.83268798828125,-2.5269430741727352,7.713940638890862,5.502732324129343
1776870092377724000,0.842723876953125,-2.307580338410288,7.916817665407061,5.307491491580009
1776870092387759900,0.852759765625,-2.0924203150346874,8.099437501314283,5.117739319574833
1776870092397796900,0.862796875,-1.8683217829219996,8.262938795253634,4.940001995012164
1776870092407832800,0.872832763671875,-1.6294747406192123,8.407744156551361,4.7775548863008614
1776870092417869800,0.882869873046875,-1.3793098932273684,8.53303350099623,4.631981170979142
1776870092427905800,0.89290576171875,-1.1228783135909586,8.639635680627823,4.501801716405153
1776870092437941800,0.902941650390625,-0.8655338568933307,8.728615109807253,4.385492381751537
1776870092447979000,0.91297900390625,-0.6048920026181266,8.799944316005707,4.285496760778129
1776870092458015000,0.923014892578125,-0.33389073995724317,8.853017150023579,4.2051176944226025
1776870092468052000,0.933052001953125,-0.050699670579168014,8.88852393221259,4.1426995244324205
1776870092478088000,0.943087890625,0.24164998916061595,8.905980678448081,4.0982334829792375
1776870092488124000,0.9531240234375,0.540909177127108,8.903011307248473,4.076052338570356
1776870092498161000,0.963160888671875,0.8442612786967307,8.877706770122051,4.079696248030662
1776870092508196900,0.97319677734375,1.154468068466708,8.827187127718329,4.113193736223876
1776870092518233900,0.98323388671875,1.4774949576474725,8.748038187679647,4.17842462554723
1776870092528269800,0.993269775390625,1.8155800805546343,8.638158009290695,4.272735771143436
1776870092538305800,1.003305908203125,2.1611638886541127,8.495015612769127,4.397096310305595
1776870092548343000,1.013343017578125,2.498201840595901,8.323313476717471,4.544429144254327
1776870092558379000,1.02337890625,2.8117738690152763,8.133080243197083,4.702904134464264
1776870092568416000,1.033416015625,3.0999910914257165,7.934307144868374,4.858728317904472
1776870092578452000,1.043451904296875,3.3729891173943876,7.737028669011592,4.993168352532386
1776870092588488000,1.053488037109375,3.6323572619393465,7.559635627841949,5.082151288843154
1776870092598525000,1.06352490234375,3.858983997355401,7.42878338857293,5.1080105372428894
1776870092608561000,1.073560791015625,4.037387384611368,7.342091778069734,5.0954456547021865
1776870092618598000,1.083597900390625,4.158065143607557,7.278795071679354,5.08920997518301
1776870092628633900,1.0936337890625,4.2287423156380655,7.219422845256328,5.1154702055990695
1776870092638670000,1.103670166015625,4.260488283988833,7.151487373149394,5.1840989206671715
1776870092648706800,1.113706787109375,4.266842329190672,7.0689908762484785,5.290917373397946
1776870092658742800,1.12374267578125,4.256024874839186,6.966493793848157,5.433656449815631
1776870092668779800,1.13377978515625,4.233727118313312,6.8397858147770165,5.6092129232078785
1776870092678815700,1.143815673828125,4.2131855578050015,6.690848468241096,5.801035471746325
1776870092688852700,1.153852783203125,4.204984423431754,6.525381427186727,5.992317922058701
1776870092698888700,1.163888671875,4.208499153554439,6.353866338139772,6.17149200142622
1776870092708924700,1.173924560546875,4.209259324271977,6.182519591397047,6.342632411941886
1776870092718962000,1.1839619140625,4.201671645621955,6.010542145535349,6.510741491937637
1776870092728998000,1.193997802734375,4.179135111904144,5.833942300570011,6.683588121849298
1776870092739033900,1.204033935546875,4.144048893214762,5.651469764178991,6.859893952304124
1776870092749070800,1.21407080078125,4.095093139126897,5.474360800647736,7.030787694582343
1776870092759106800,1.22410693359375,4.041166318628192,5.3063300465852015,7.1890341367334125
1776870092769143800,1.234143798828125,3.990422512079775,5.149719096681475,7.329892221710085
1776870092779179800,1.2441796875,3.948074485693872,5.001191499990225,7.4546069811373945
1776870092789215700,1.2542158203125,3.917566242444515,4.860401219552755,7.563038129761814
1776870092799252700,1.264252685546875,3.887188639837503,4.737850067900121,7.6559075521171085
1776870092809289200,1.274289306640625,3.8219574582532045,4.644746544528007,7.745279780006408
1776870092819326500,1.284326416015625,3.739239427556097,4.568166285933554,7.8307304505378
1776870092829362400,1.294362548828125,3.674367726933956,4.490228475250303,7.906154817095398
1776870092839399400,1.3043994140625,3.628413492749631,4.412020323193073,7.971140791746974
1776870092849435400,1.314435302734375,3.6068072256192565,4.332524469412863,8.024373200240731
1776870092859471400,1.324471435546875,3.614202888828516,4.247516281951964,8.066381034886836
1776870092869508400,1.33450830078125,3.644749418261647,4.1558012903288,8.100341756677627
1776870092879544300,1.34454443359375,3.6368674328401682,4.071635691171885,8.146493266999721
1776870092889580300,1.354580322265625,3.587076396971941,4.0021930293723935,8.202786816629766
1776870092899617300,1.3646171875,3.529053831592202,3.9461221825823185,8.254953057196737
1776870092909653200,1.3746533203125,3.4960680923134086,3.8963063045337796,8.292567625319958
1776870092919690500,1.3846904296875,3.4632480649903417,3.8519709037229415,8.326979598009586
1776870092929726500,1.3947265625,3.4163670713499186,3.804698280416429,8.367980885961652
1776870092939763200,1.40476318359375,3.3660940971836446,3.750178462460637,8.412846448126436
1776870092949799400,1.41479931640625,3.3039863083168863,3.6930002389505505,8.46261322633624
1776870092959835400,1.42483544921875,3.2265006253153086,3.6396684617355466,8.515449913510679
1776870092969872100,1.4348720703125,3.148404409199953,3.593106032525003,8.564317697054147
1776870092979908400,1.444908447265625,3.0777324978664518,3.5539597247898578,8.6062378534168
1776870092989945000,1.454945068359375,3.0009444417402147,3.5265801349550485,8.644534558585285
1776870092999981000,1.46498095703125,2.9311992898628114,3.4979736336737868,8.680013868245481
1776870093010017300,1.475017333984375,2.8587492629408833,3.461949549612403,8.718534445297717
1776870093020054300,1.48505419921875,2.78058436550349,3.4208693512052295,8.7599314545691
1776870093030090200,1.49509033203125,2.6966502370148895,3.376839655342698,8.803146911439299
1776870093040126200,1.505126220703125,2.6081515770897266,3.3408851293861863,8.843440343382953
1776870093050163200,1.5151630859375,2.5356609258964657,3.315960239227116,8.873851263737677
1776870093060199200,1.52519921875,2.482324764767289,3.2951176499456167,8.896665153092146
1776870093070236200,1.535236083984375,2.4301561861127614,3.276601165524125,8.917882713165879
1776870093080272100,1.545272216796875,2.389238192529976,3.255527690096199,8.936635344430803
1776870093090309400,1.555309326171875,2.35929357451275,3.2328263212054966,8.952818417468666
1776870093100345300,1.565345458984375,2.3345018092140553,3.212287975567579,8.966700227826832
1776870093110381300,1.57538134765625,2.2931198513813316,3.1961548791512846,8.983128800058365
1776870093120418300,1.585418212890625,2.228741341103613,3.183990394105017,9.003626813685894
1776870093130454300,1.595454345703125,2.130035613810271,3.1685619388267394,9.03291369844675
1776870093140491300,1.6054912109375,2.0111713339768347,3.143325498500466,9.068906218326092
1776870093150527200,1.61552734375,1.8824695507399736,3.1054356205672025,9.109498340955376
1776870093160563200,1.625563232421875,1.766360268703103,3.0556191579967735,9.149511786913871
1776870093170600200,1.63560009765625,1.6649379759274423,2.9994822602331634,9.187028155359625
1776870093180636200,1.64563623046875,1.5683175304755568,2.936245175075531,9.224384364807605
1776870093190673400,1.65567333984375,1.4796559350736438,2.8667896537944673,9.260805923753976
1776870093200709400,1.66570947265625,1.386304282159358,2.7967303214013577,9.296603213322163
1776870093210745300,1.675745361328125,1.2847402428254484,2.7302169910520315,9.330901204243302
1776870093220782300,1.6857822265625,1.1681028452612459,2.6734321507737038,9.362620284587145
1776870093230818300,1.695818359375,1.0208951720621435,2.621015734837949,9.39459480099678
1776870093240855300,1.705855224609375,0.8571712483480572,2.5598420119509098,9.42777050988972
1776870093250891300,1.715891357421875,0.6809847334239632,2.4823268105939027,9.462806751957535
1776870093260927200,1.72592724609375,0.4971367804938927,2.3911200607538223,9.497671729111671
1776870093270964500,1.735964599609375,0.31866036453433333,2.293548013665527,9.529347554835677
1776870093281000400,1.74600048828125,0.1524733112428803,2.1925721494831145,9.557184825310111
1776870093291037400,1.756037353515625,-0.00730052884678007,2.0979627515926955,9.579606500476599
1776870093301073400,1.766073486328125,-0.17845314468182621,2.0092280909545717,9.596953941118716
1776870093311109400,1.776109375,-0.3765977723812684,1.9182506198257208,9.60983329643607
1776870093321146400,1.786146484375,-0.6080034126369283,1.8122239019945263,9.618553193986415
1776870093331182300,1.796182373046875,-0.8628519973982125,1.686535475229472,9.621927054333685
1776870093341219000,1.806218994140625,-1.12071960118711,1.5640538816817104,9.616035073685646
1776870093351255300,1.81625537109375,-1.351270670440048,1.45962349313125,9.602809681409596
1776870093361291300,1.826291259765625,-1.52553783467412,1.3736587355978787,9.589379706472158
1776870093371328300,1.836328369140625,-1.6531895243361592,1.3005470298968256,9.57840881512463
1776870093381364200,1.8463642578125,-1.7665163360476492,1.2168000945433974,9.569179214486478
1776870093391401200,1.856401123046875,-1.8539245703876017,1.0951774559125305,9.567336216968297
1776870093401437200,1.866437255859375,-1.9439093772172926,0.9369232688464224,9.566283493044972
1776870093411473200,1.87647314453125,-2.044212456704676,0.7648290647372603,9.560680266210436
1776870093421510100,1.88651025390625,-2.139111339060962,0.6114503747530281,9.550953821966052
1776870093431546000,1.896546142578125,-2.2287223441421986,0.4824463206339627,9.537842411458492
1776870093441583400,1.906583251953125,-2.309554707223177,0.3695672892225906,9.523643205714226
1776870093451619300,1.916619384765625,-2.38318415318802,0.2523180616366677,9.509319496807455
1776870093461655300,1.9266552734375,-2.4339241603441537,0.1358691449824255,9.498838434803485
1776870093471692300,1.9366923828125,-2.4844310893967747,0.034600028907903466,9.486664012885093
1776870093481728300,1.946728271484375,-2.5396689924940463,-0.0544043063839199,9.471932892221211
1776870093491765200,1.95676513671875,-2.5860315152183175,-0.11807462729308754,9.458799854403734
1776870093501801200,1.96680126953125,-2.620294142565131,-0.1579522267111577,9.448782902780176
1776870093511837200,1.976837158203125,-2.649367676836252,-0.18275405674614012,9.440225502315164
1776870093521874200,1.986874267578125,-2.6699589217051862,-0.19615873284554108,9.43415173535943
1776870093531910100,1.99691015625,-2.6896412350356576,-0.1957583170847967,9.428568382269143
1776870093541947400,2.006947509765625,-2.719996918071806,-0.16754273308357223,9.420400273382663
1776870093551983400,2.0169833984375,-2.7720085525989533,-0.09311882140594534,9.406258350783586
1776870093562020400,2.027020263671875,-2.8535625079527493,0.02943434867383912,9.382254959383607
1776870093572056300,2.037056396484375,-2.9638495135769247,0.2025933142039925,9.345851520615815
1776870093582092300,2.04709228515625,-3.1046801260247823,0.43626993159893895,9.291987828481197
1776870093592129300,2.05712939453125,-3.2808632068827746,0.7275837683178484,9.212868114537
1776870093602165200,2.067165283203125,-3.483042314262688,1.0727382450893521,9.10428615926504
1776870093612202200,2.0772021484375,-3.7089030337423083,1.4872782466456294,8.955580867919325
1776870093622238500,2.087238525390625,-3.9184196444034574,2.0005830122061075,8.764361545971035
1776870093632274400,2.0972744140625,-4.053912110693752,2.642442846009135,8.529576638540625
1776870093642311400,2.1073115234375,-4.094560347424447,3.409347840237617,8.23293996283114
1776870093652347400,2.117347412109375,-4.020426605199277,4.24480965334177,7.873255587056279
1776870093662384400,2.12738427734375,-3.868850142331421,5.049463655728101,7.463598681366443
1776870093672420400,2.13742041015625,-3.66477338463664,5.746954337468743,7.050696510145068
1776870093682456300,2.147456298828125,-3.4306606773793695,6.282087050086259,6.703456020879745
1776870093692493300,2.157493408203125,-3.18820012075454,6.6653966315984725,6.448119323807955
1776870093702529300,2.167529296875,-2.9519720287784934,6.94321287150383,6.264824365118145
1776870093712566300,2.177566162109375,-2.7177161136582493,7.136922256702184,6.15213205191791
1776870093722602200,2.187602294921875,-2.4836820245951414,7.255319503545761,6.112451198914647
1776870093732638500,2.197638427734375,-2.277660124181956,7.3230609143853185,6.111909347122907
1776870093742675200,2.20767529296875,-2.1215110927015544,7.36764941317439,6.114517483794689
1776870093752711400,2.21771142578125,-2.0111770330652594,7.402464121446013,6.109754799437522
1776870093762748200,2.227748046875,-1.9375776899777353,7.4355883924126625,6.0932917404145
1776870093772784000,2.2377841796875,-1.9044202473938463,7.466543502646684,6.065831486558914
1776870093782820400,2.2478203125,-1.9093030509993434,7.493048063212632,6.031516544502973
1776870093792857000,2.257857177734375,-1.9487123935848474,7.520501302805543,5.98456014753878
1776870093802893300,2.267893310546875,-2.0199980529025194,7.557575188180804,5.913801434704661
1776870093812929800,2.2779296875,-2.1132814628861842,7.611160063374042,5.811598366814851
1776870093822965800,2.2879658203125,-2.211816071396321,7.680781881132721,5.681887698796391
1776870093833002800,2.298002685546875,-2.2986045664027333,7.7591861402839415,5.539119980806112
1776870093843038700,2.308038818359375,-2.36931242583245,7.83979463148117,5.393918313667178
1776870093853074700,2.31807470703125,-2.419260259697586,7.915286218056083,5.259830161216855
1776870093863112000,2.32811181640625,-2.4121381527327,7.985289728608727,5.156271002542972
1776870093873148000,2.33814794921875,-2.4133672561362385,8.032994898113607,5.081045957949757
1776870093883185000,2.348184814453125,-2.425571927062422,8.06855720988214,5.0185027002751825
1776870093893220900,2.358220947265625,-2.4100104930542408,8.112060251522063,4.955471366822719
1776870093903256800,2.3682568359375,-2.390861555948108,8.155518284976482,4.8930245552599425
1776870093913293800,2.3782939453125,-2.3779570661894978,8.200515949088334,4.823612873120606
1776870093923329800,2.388329833984375,-2.372858427876234,8.251627127644419,4.738204288165271
1776870093933366800,2.39836669921875,-2.343782555517554,8.310643380236625,4.6486873911082744
1776870093943402800,2.40840283203125,-2.274459866835922,8.378382452988625,4.560692881312966
1776870093953438700,2.418438720703125,-2.1521490998104214,8.457393445861339,4.473383431172371
1776870093963476000,2.42847607421875,-1.973422471949458,8.554114867469668,4.370708654117584
1776870093973512000,2.438511962890625,-1.740535214833915,8.678928411096335,4.22103130286932
1776870093983549000,2.448548828125,-1.4564254277423023,8.830413104027508,4.009114937590063
1776870093993585000,2.4585849609375,-1.1269729624934495,8.994933219620584,3.740519530494511
1776870094003620900,2.468620849609375,-0.7552090034767985,9.159316557091474,3.4215447662487626
1776870094013657900,2.478657958984375,-0.3551880872689187,9.315677331626414,3.0434137564182278
1776870094023693800,2.48869384765625,0.03003726702003041,9.451648813605308,2.6145380632564423
1776870094033731000,2.49873095703125,0.33940387735553085,9.559279167240858,2.162264835633337
1776870094043767000,2.50876708984375,0.5700969123624264,9.645974284875392,1.6734800326928496
1776870094053804000,2.518803955078125,0.7245330024451017,9.710505501496792,1.1625509832877665
1776870094063840000,2.528840087890625,0.8151856985989958,9.75030442792177,0.661386079788953
1776870094073876000,2.5388759765625,0.8845352752875536,9.764864283671974,0.18824671761197967
1776870094083913000,2.548912841796875,0.9473366724416613,9.757658297815919,-0.24710116723859682
1776870094093949000,2.558948974609375,1.008186862462759,9.733770057228208,-0.6385033629819751
1776870094103985700,2.568985595703125,1.0410693605627863,9.70204279357791,-0.978236180030927
1776870094114022000,2.57902197265625,0.99878059008345,9.673949502515793,-1.259970981619507
1776870094124057900,2.589057861328125,0.8762517233278602,9.651725395748018,-1.4989225072100758
1776870094134094800,2.5990947265625,0.6761477417215704,9.63743734267652,-1.683149924444407
1776870094144131000,2.609131103515625,0.4450402076296508,9.631730655467509,-1.7894369006469846
1776870094154167800,2.619167724609375,0.2626689761886373,9.639102645540238,-1.7857995670579372
1776870094164203800,2.629203857421875,0.17814641682021318,9.658575407773256,-1.6883599141776562
1776870094174240000,2.639239990234375,0.1828082894177176,9.680699561297892,-1.5559659984245895
1776870094184276700,2.64927685546875,0.24203378258012234,9.698046417418121,-1.4351627133525908
1776870094194312700,2.659312744140625,0.32420660048462446,9.708822078454494,-1.343148738782853
1776870094204349700,2.669349609375,0.3920822321631014,9.71421780001819,-1.2847665463104843
1776870094214385700,2.6793857421875,0.41758002683930096,9.718159815642236,-1.2463530828945337
1776870094224422000,2.689421875,0.398670414914377,9.723548522943258,-1.2099866151362657
1776870094234459000,2.699458984375,0.35956885963641105,9.729337043216823,-1.1752115082226693
1776870094244494800,2.709494873046875,0.335276604825072,9.732133395937085,-1.1591264156665653
1776870094254531800,2.71953173828125,0.3165012502716854,9.733274382665753,-1.1548088447283953
1776870094264567800,2.72956787109375,0.3101316056419164,9.733872348558902,-1.1514957015924154
1776870094274604800,2.739604736328125,0.3109099330706522,9.734579620045423,-1.145288444450125
1776870094284640800,2.749640869140625,0.31275691264420746,9.735382168599962,-1.1379461188632993
1776870094294676700,2.7596767578125,0.3102878191169351,9.736149061319232,-1.1320284923173487
1776870094304714000,2.7697138671875,0.30194596109874544,9.736515556544065,-1.1311357812613247
1776870094314750000,2.77975,0.28894489736417306,9.736313311970234,-1.136267591191828
1776870094324787000,2.789786865234375,0.27110967320511115,9.735452311226725,-1.1479900315590201
1776870094334823000,2.799822998046875,0.24915590781131758,9.73432418397963,-1.1624257494729011
1776870094344859000,2.80985888671875,0.22540488373721018,9.73327905884087,-1.1759431834980845
1776870094354896000,2.819895751953125,0.20330560892550273,9.73225497649014,-1.188384585789591
1776870094364931800,2.829931884765625,0.1839069896409288,9.73098597946763,-1.201860299564898
1776870094374968800,2.83996875,0.16655432483442126,9.729520583090185,-1.2161728294905274
1776870094385004800,2.8500048828125,0.1474288234028034,9.7281709220469,-1.229372868129611
1776870094395040800,2.860040771484375,0.12385398701266385,9.726991356873512,-1.2412427541434765
1776870094405078000,2.870078125,0.09612074316828512,9.726115743082762,-1.2505302224487065
1776870094415114000,2.880114013671875,0.06605749004033859,9.725735803854464,-1.2554245703615248
1776870094425151000,2.89015087890625,0.034107473317719995,9.726054368284345,-1.254236237359792
1776870094435187000,2.90018701171875,-0.0007368820297284401,9.727356098532676,-1.244564153651148
1776870094445223000,2.910222900390625,-0.03913789609982632,9.729579035279155,-1.2264321385025978
1776870094455260000,2.920260009765625,-0.08104643508992157,9.732451375845073,-1.2013301382109522
1776870094465296000,2.9302958984375,-0.12647889215615576,9.735825820714235,-1.1696545316826552
1776870094475332900,2.940332763671875,-0.17614346123365685,9.739534027582406,-1.1317395193081348
1776870094485369000,2.950369140625,-0.23184395860768853,9.743073307624458,-1.0904834528774023
1776870094495405800,2.96040576171875,-0.29654052185863256,9.746083010834456,-1.0470406900573521
1776870094505441800,2.97044189453125,-0.3688394864046946,9.747898535823822,-1.0063820780631154
1776870094515478000,2.98047802734375,-0.44554187354147434,9.747966340363025,-0.9741942111637443
1776870094525514800,2.9905146484375,-0.5277854916598648,9.745945648190379,-0.9530818650301546
1776870094535550700,3.00055078125,-0.61571314676404,9.741583361327647,-0.9448932978775352
1776870094545587700,3.010587646484375,-0.7139621432658284,9.735145437234639,-0.9421218604028224
1776870094555623700,3.020623779296875,-0.8268767939798534,9.726965637910366,-0.9342344681538641
1776870094565659600,3.03065966796875,-0.9552827360752969,9.717033441960812,-0.914913097090274
1776870094575697000,3.04069677734375,-1.0984647339548914,9.705206810566782,-0.8790474915262311
1776870094585732900,3.05073291015625,-1.2520773057602346,9.691401572576165,-0.8242718721784651
1776870094595769900,3.060769775390625,-1.4080867826394736,9.675805944037437,-0.7526373263578862
1776870094605805800,3.070805908203125,-1.5590766777910292,9.658876436546445,-0.6676480627931654
1776870094615841800,3.080841796875,-1.6970371416300534,9.641692077511548,-0.5728949821157381
1776870094625878800,3.090878662109375,-1.8177388660237193,9.625064767837523,-0.4736288444606587
1776870094635914800,3.100914794921875,-1.9202472004704176,9.609468554776907,-0.3757171536218375
1776870094645951700,3.11095166015625,-2.0062340237051246,9.595002222529054,-0.2851850699066184
1776870094655988000,3.120988037109375,-2.079821676354855,9.58133785431385,-0.20658147052470593
1776870094666024000,3.13102392578125,-2.1416933183781803,9.568877601191401,-0.14190953939151948
1776870094676061000,3.14106103515625,-2.190143314900994,9.55851052095592,-0.09231109435278921
1776870094686097000,3.151096923828125,-2.222351932327449,9.551339606413245,-0.0586768554368522
1776870094696134000,3.1611337890625,-2.2369135416433212,9.548035888692736,-0.04014299518887419
1776870094706169900,3.171169921875,-2.235069667342305,9.548485386025906,-0.03592911295404192
1776870094716205800,3.181205810546875,-2.2215254183754323,9.551617838832735,-0.04248537076367065
1776870094726242800,3.191242919921875,-2.2029051813185214,9.55588075697422,-0.052114574311813336
1776870094736278800,3.20127880859375,-2.1833048471830785,9.560310263854264,-0.06341873903458473
1776870094746316000,3.21131591796875,-2.163746890884638,9.56464507818818,-0.07853124653175472
1776870094756352000,3.22135205078125,-2.1438401211485267,9.568943652164936,-0.09827355555430986
1776870094766388000,3.231387939453125,-2.122075302455574,9.573517535951733,-0.12230075708813964
1776870094776425000,3.241425048828125,-2.096741246973723,9.578702829635143,-0.14997663558893837
1776870094786461000,3.2514609375,-2.067296102911234,9.584576690104603,-0.18041532986657693
1776870094796498000,3.261497802734375,-2.0343920505665243,9.590965514358878,-0.21214031022824345
1776870094806534000,3.271533935546875,-1.9994591227427123,9.597612112766504,-0.2416139314665459
1776870094816575000,3.281574951171875,-1.967393128657341,9.603608138310909,-0.2654776404011994
1776870094826611000,3.29161083984375,-1.939884797876328,9.608673605006933,-0.28396117240116
1776870094836647000,3.30164697265625,-1.9156942133411763,9.613042906132339,-0.29989547657603394
1776870094846684200,3.31168408203125,-1.893004388757795,9.617025838288665,-0.3157933211980387
1776870094856720100,3.32172021484375,-1.869801792346686,9.62102572157979,-0.33179983209259806
1776870094866757000,3.331757080078125,-1.8452112487085162,9.625231941097974,-0.34709392040148374
1776870094876793000,3.34179296875,-1.8211491128586232,9.629362172770499,-0.3593969736682251
1776870094886829000,3.3518291015625,-1.7984600189276039,9.63333458353281,-0.36714455558769404
1776870094896866000,3.361865966796875,-1.7749715913124382,9.637556585142017,-0.37062403173390773
1776870094906902000,3.371902099609375,-1.7471160545289515,9.642654200541973,-0.3703957028707489
1776870094916939000,3.38193896484375,-1.7119322206839918,9.649110244813562,-0.3665097282828763
1776870094926975000,3.39197509765625,-1.6683929386869072,9.65700012128055,-0.35945736208595336
1776870094937011000,3.402010986328125,-1.6175906799495219,9.665990652465819,-0.3498716780191287
1776870094947048200,3.412048095703125,-1.563040759116411,9.675290395730734,-0.34062103459294885
1776870094957084200,3.422084228515625,-1.5102619396090506,9.683901572209596,-0.3339692850861698
1776870094967121200,3.43212109375,-1.4649121010586619,9.6909631811589,-0.33116442026589066
1776870094977157000,3.4421572265625,-1.4297418573476373,9.696132692751288,-0.33351854564398525
1776870094987193000,3.452193115234375,-1.4038517754182218,9.699640993133187,-0.34139139791093764
1776870094997230000,3.46222998046875,-1.3862228874862192,9.70166869956851,-0.3555178672125563
1776870095007266000,3.47226611328125,-1.3747836479745805,9.702592828676105,-0.37421628407221286
1776870095017303300,3.48230322265625,-1.3678653930187226,9.702814946994184,-0.393339794476144
1776870095027339300,3.49233935546875,-1.3641186077058314,9.70278688994348,-0.40681013795658943
1776870095037375200,3.502375244140625,-1.3610001834243535,9.70302888200581,-0.4114666950581595
1776870095047412200,3.512412109375,-1.3571027375943958,9.703696990525723,-0.4085713754754513
1776870095057448200,3.5224482421875,-1.355595547901839,9.704154086643458,-0.40267548583727325
1776870095067485200,3.532485107421875,-1.3592803738944232,9.70379402115941,-0.39893597051538526
1776870095077521200,3.542521240234375,-1.3641532406277954,9.703165075606107,-0.3975704908484593
1776870095087557000,3.55255712890625,-1.3632279424764215,9.703446815156935,-0.39387054035197944
1776870095097594000,3.562593994140625,-1.3513167015388607,9.70549322629273,-0.3843598942827433
1776870095107630000,3.572630126953125,-1.3277961252197623,9.709278590050339,-0.3704932084284723
1776870095117667000,3.5826669921875,-1.2953012381978333,9.714201433405279,-0.3561666865101084
1776870095127703300,3.592703369140625,-1.256777007883787,9.719677818989753,-0.34460210358574983
1776870095137739300,3.6027392578125,-1.2138341574098914,9.725380999067426,-0.337581666897051
1776870095147776000,3.61277587890625,-1.16706246936284,9.731182378822565,-0.3353369567101821
1776870095157812200,3.622812255859375,-1.1179044707011432,9.736908939775825,-0.33656540252659467
1776870095167849000,3.632848876953125,-1.0689237283024937,9.74230758394897,-0.3394412136912346
1776870095177885000,3.642885009765625,-1.0250143708840012,9.746890820086001,-0.34326416951287536
1776870095187921200,3.652921142578125,-0.9890704393867402,9.750358788457513,-0.3501613451480865
1776870095197958100,3.662958251953125,-0.9626033612869679,9.752632578608393,-0.3604831249371171
1776870095207994000,3.672994140625,-0.9434433182649313,9.753938400509952,-0.37551936602741476
1776870095218031000,3.683031005859375,-0.9281604820024222,9.75454045805633,-0.39729960148520765
1776870095228067000,3.693067138671875,-0.9154040224123745,9.754538704490662,-0.425889772686176
1776870095238103000,3.70310302734375,-0.906509060556069,9.753897483977674,-0.4583570045161992
1776870095248140000,3.71314013671875,-0.9021139674022793,9.75280559708774,-0.48925344336554405
1776870095258176000,3.723176025390625,-0.9016963995773345,9.751549459546803,-0.5144102425843476
1776870095268213000,3.733212890625,-0.9018913376275449,9.750557525900005,-0.5325525964638218
1776870095278249000,3.7432490234375,-0.9006614305064081,9.749984694448113,-0.5449905646892265
1776870095288285000,3.753284912109375,-0.8964460778336971,9.74995371478796,-0.5524596584608779
1776870095298322200,3.763322265625,-0.8895417052727193,9.750347682541609,-0.5566256555665284
1776870095308358100,3.773358154296875,-0.8816151500571519,9.751005269667505,-0.5577259449586272
1776870095318395100,3.78339501953125,-0.875502366265282,9.75161317243278,-0.5567087672727182
1776870095328431000,3.79343115234375,-0.8748873031068592,9.75176397908032,-0.5550339659282937
1776870095338467000,3.803467041015625,-0.8814989032663404,9.751166597709059,-0.5550589542390778
1776870095348504000,3.813504150390625,-0.8937652412518858,9.749977095663548,-0.5563572138886899
1776870095358540000,3.8235400390625,-0.9099562053352593,9.748514037373662,-0.5557522337328642
1776870095368577000,3.833576904296875,-0.932257615122944,9.746604988881945,-0.5522626745840534
1776870095378613200,3.84361328125,-0.9646098788037896,9.743671858039498,-0.5484332890216261
1776870095388649200,3.853649169921875,-1.007757823395729,9.739417707726359,-0.5464025138463825
1776870095398686200,3.863686279296875,-1.0589701242387295,9.733982823196053,-0.5464045596729964
1776870095408722200,3.87372216796875,-1.1157623441059141,9.727672324874996,-0.5457563248973339
1776870095418759200,3.88375927734375,-1.178463934147358,9.72061773018837,-0.5396150456633418
1776870095428795100,3.893795166015625,-1.2488136277891695,9.712561264982819,-0.5263035094738007
1776870095438831000,3.9038310546875,-1.32610758761093,9.703407067668437,-0.5056676582781597
1776870095448868000,3.9138681640625,-1.4100345557063818,9.69301602203548,-0.47708632797077294
1776870095458904000,3.923904052734375,-1.5040287443079055,9.680669750681519,-0.43922721050195396
1776870095468941300,3.93394140625,-1.6109749150715766,9.665455814936756,-0.3925628918195143
1776870095478977300,3.943977294921875,-1.7280660477526484,9.647107088297606,-0.3427595809916034
1776870095489013200,3.95401318359375,-1.8508517388135193,9.625797758287192,-0.2978764283712022
1776870095499050200,3.96405029296875,-1.97179150974676,9.602671149721742,-0.2667044057171792
1776870095509086200,3.974086181640625,-2.0782462437316775,9.580522446277737,-0.2546614464250393
1776870095519123200,3.984123291015625,-2.1665964350968596,9.560759761187434,-0.2609583911447786
1776870095529159200,3.9941591796875,-2.2443998057454824,9.542319849133492,-0.2778511650882661
1776870095539195100,4.004195068359375,-2.320896623840183,9.52359761300683,-0.2914336637062952
1776870095549232000,4.014232177734375,-2.4034278997935354,9.503039978146553,-0.2935359332151711
1776870095559268000,4.02426806640625,-2.493694300043583,9.480358190739155,-0.2733141244468279
1776870095569305000,4.03430517578125,-2.577857268851995,9.459056459513306,-0.2265281704124063
1776870095579341000,4.044341064453125,-2.646985750135779,9.441316804683208,-0.15937108053313567
1776870095589377300,4.054377197265625,-2.7073499102056027,9.425194521921872,-0.07969724897067063
1776870095599414000,4.0644140625,-2.771411755749583,9.406892557033895,0.007343069938919506
1776870095609450000,4.074449951171875,-2.854322678670287,9.38152021536827,0.10153341586678288
1776870095619487000,4.084487060546875,-2.969191751387715,9.344128934606909,0.20380413303216918
1776870095629523000,4.09452294921875,-3.110622667816281,9.294829773908853,0.3171055728403851
1776870095639559000,4.104558837890625,-3.2506130300477145,9.241497996693848,0.44566623057350513
1776870095649596200,4.11459619140625,-3.366695277947187,9.191560538092254,0.5924117296209559
1776870095659632000,4.124632080078125,-3.460930727958679,9.144294929048419,0.7577788539648056
1776870095669669000,4.134669189453125,-3.550058917959034,9.093511667272448,0.9356936539862304
1776870095679705000,4.144705078125,-3.6450343726828693,9.035577364698051,1.1146488299060613
1776870095689741000,4.154740966796875,-3.748314714415371,8.970104483312367,1.2875332345448434
1776870095699778000,4.164778076171875,-3.8607533451154827,8.896758676594494,1.4534934659436345
1776870095709814000,4.17481396484375,-3.9876089159637687,8.813243942561746,1.6112370731391013
1776870095719851000,4.18485107421875,-4.1292344781816,8.719981721496582,1.7554831931188701
1776870095729887000,4.194886962890625,-4.274305796939134,8.622876853528618,1.8832703457288442
1776870095739923000,4.2049228515625,-4.409212864556908,8.527914842808245,2.000972449915111
1776870095749960200,4.214960205078125,-4.527196854424476,8.43745540420413,2.1175987415634094
1776870095759996200,4.22499609375,-4.633139401103556,8.348807398936152,2.2364748579651117
1776870095770033200,4.235033203125,-4.733436050850153,8.258968138056993,2.3567788152128455
1776870095780069000,4.245069091796875,-4.822805940651893,8.170605379471182,2.480351418867707
1776870095790105000,4.25510498046875,-4.89502537368834,8.08576904144585,2.61332021189928
1776870095800142000,4.26514208984375,-4.958338446691632,7.9982830656945705,2.7591183836266397
1776870095810174200,4.27517431640625,-5.035079156544804,7.896041419360041,2.9104771120905872
1776870095820211200,4.285211181640625,-5.137013928887248,7.776399725413322,3.0510791764795777
1776870095830247200,4.2952470703125,-5.255868271848559,7.651167664113641,3.163205380229652
1776870095840283100,4.305283203125,-5.3722436574757095,7.536010422104597,3.243134656991064
1776870095850320400,4.3153203125,-5.475781773361564,7.435474995166063,3.301500921241939
1776870095860356400,4.3253564453125,-5.57573209388852,7.339267952820658,3.3491420855998992
1776870095870393300,4.335393310546875,-5.688140329450369,7.235790042689442,3.3850852133795617
1776870095880429300,4.34542919921875,-5.8193280842840664,7.118006543830036,3.4117122312813994
1776870095890465300,4.35546533203125,-5.955637419915199,6.994248646736144,3.432383263388276
1776870095900502300,4.365502197265625,-6.077024496224523,6.878656520441174,3.4531504493460057
1776870095910538200,4.375538330078125,-6.176499015933275,6.774511670833825,3.482417752623558
1776870095920575200,4.3855751953125,-6.262217397490144,6.67200231347382,3.5269533521816134
1776870095930611200,4.395611083984375,-6.3408133798211805,6.563823678305745,3.588969078850746
1776870095940647200,4.405647216796875,-6.411421870529651,6.452796667969227,3.6640795571535825
1776870095950684400,4.415684326171875,-6.475781822237372,6.343335591775179,3.74122066450119
1776870095960720400,4.425720458984375,-6.536907029807567,6.235737386843562,3.815077343350649
1776870095970757000,4.435757080078125,-6.5934677059412,6.129512808352708,3.8891701690435405
1776870095980793300,4.44579345703125,-6.643477645257115,6.025096156066656,3.966460621733963
1776870095990829300,4.455829345703125,-6.687933457577228,5.921838610687852,4.046448935206234
1776870096000866000,4.465865966796875,-6.729933693438768,5.819556632342934,4.124454842689633
1776870096010902300,4.47590234375,-6.770104375785589,5.718683351752162,4.199134528359771
1776870096020939300,4.485939208984375,-6.809840173846482,5.617600227802992,4.270717417058348
1776870096030975200,4.495975341796875,-6.846807091715932,5.51683683732748,4.342364018642902
1776870096041011500,4.506011474609375,-6.877519625365734,5.417257103678584,4.418533358348906
1776870096051048200,4.516048095703125,-6.899872911471128,5.3186044217467305,4.50273081394881
1776870096061084200,4.526084228515625,-6.913766412267089,5.224689289730787,4.590517233951389
1776870096071121200,4.53612109375,-6.923640740549564,5.137679114797711,4.673097317482531
1776870096081157000,4.5461572265625,-6.932723041671514,5.057415491515398,4.746607374851405
1776870096091194000,4.556194091796875,-6.952321476110815,4.972807117027044,4.806953122481703
1776870096101230000,4.56622998046875,-6.9814417721331115,4.878470252467691,4.8611093678221104
1776870096111266000,4.57626611328125,-7.009601114168762,4.780739653816819,4.917357617005705
1776870096121303300,4.58630322265625,-7.032757533350586,4.686424416567385,4.974748898744583
1776870096131339300,4.59633935546875,-7.050308387610316,4.596896121333539,5.033098796382546
1776870096141376300,4.606376220703125,-7.05960637730956,4.50841996550113,5.099655965873599
1776870096151412200,4.616412109375,-7.062128589263558,4.419321293856203,5.173617858663201
1776870096161448200,4.6264482421875,-7.061448790305852,4.331159026278555,5.248560579183698
1776870096171485200,4.636485107421875,-7.066858540394902,4.246824208034575,5.309838931488991
1776870096181521200,4.646521240234375,-7.082015192994475,4.161862197802961,5.3567117418229575
1776870096191558100,4.65655810546875,-7.104481876346468,4.069753530687094,5.397575667130947
1776870096201594400,4.666594482421875,-7.127596209952235,3.978908307635784,5.434708004695176
1776870096211630300,4.67663037109375,-7.1468953691840165,3.8884111673697825,5.474717359000444
1776870096221667300,4.686667236328125,-7.157490412956475,3.7956130566850304,5.525761902061104
1776870096231703300,4.696703369140625,-7.164433363962173,3.7035742399349805,5.578962746372818
1776870096241740300,4.706740234375,-7.168330955922603,3.608073592293262,5.636241799908876
1776870096251776300,4.7167763671875,-7.1671402848333114,3.5123666084244847,5.6978737879574295
1776870096261812200,4.726812255859375,-7.171556932231783,3.4232872260019183,5.74632539191544
1776870096271849200,4.73684912109375,-7.18169078823328,3.33706381753236,5.784263785165548
1776870096281885200,4.74688525390625,-7.1935332017183296,3.2508886321187016,5.81852027503252
1776870096291922400,4.75692236328125,-7.203065000173449,3.169089177571237,5.851761450377106
1776870096301958400,4.76695849609375,-7.207347207537293,3.086775051499903,5.8903609378844495
1776870096311995400,4.776995361328125,-7.207776246604323,3.001331687492132,5.933831246298551
1776870096322031400,4.78703125,-7.205214871683716,2.9137948583364484,5.980390168377757
1776870096332067300,4.7970673828125,-7.200325346076488,2.8276711108490824,6.027435412669181
1776870096342104300,4.807104248046875,-7.1929551095694295,2.7478105154097077,6.07299947849214
1776870096352140300,4.817140380859375,-7.179353869718312,2.6729630719572306,6.122298639190197
1776870096362177000,4.827177001953125,-7.167911269205808,2.6063646936729548,6.164276078698038
1776870096372213200,4.837213134765625,-7.157374677622318,2.547920395749807,6.200844352638721
1776870096382250200,4.847250244140625,-7.149646713718772,2.4915207553967833,6.232596166208386
1776870096392286200,4.8572861328125,-7.14438952384293,2.438993864823878,6.259344472402334
1776870096402322200,4.867322265625,-7.137182368943095,2.3905061666391787,6.286214359149336
1776870096412359200,4.877359130859375,-7.12904173258543,2.3450671885006127,6.312511998966336
1776870096422395100,4.88739501953125,-7.12363256701827,2.3071493996471166,6.332559930738807
1776870096432432000,4.89743212890625,-7.117845215788483,2.276728250159323,6.350052917331457
1776870096442468000,4.907468017578125,-7.109889872869849,2.2572382445305585,6.365903981935977
1776870096452504000,4.917504150390625,-7.096724101826548,2.2499230992116033,6.383160237163305
1776870096462541300,4.927541259765625,-7.08051297173798,2.2519540205173194,6.400422922131419
1776870096472577300,4.937577392578125,-7.073553069597482,2.262237367992103,6.404491779005527
1776870096482614300,4.9476142578125,-7.067227373707294,2.280047019318491,6.40515930300355
1776870096492650200,4.957650146484375,-7.057920616179704,2.3053185309581457,6.406375693055987
1776870096502687200,4.967687255859375,-7.051390337628126,2.3395950406998396,6.401138961446285
1776870096512723200,4.97772314453125,-7.049514606884122,2.381326250361651,6.387801925489306
1776870096522759200,4.98775927734375,-7.046434176525473,2.4298097107626497,6.372925258874893
1776870096532796200,4.997796142578125,-7.038391155323386,2.4866040495216843,6.35989334334433
1776870096542832000,5.00783203125,-7.033993212625384,2.55290432164222,6.3384536649525165
1776870096552869400,5.017869384765625,-7.03172643673718,2.6261864154741166,6.310971199265122
1776870096562905300,5.0279052734375,-7.031641681063175,2.70463188341856,6.277848097342252
1776870096572942300,5.0379423828125,-7.031164711201191,2.7871538070216775,6.242184663286805
1776870096582978300,5.047978271484375,-7.030949022623896,2.87521436779052,6.202361186942458
1776870096593014300,5.05801416015625,-7.029139927375316,2.9676991747424006,6.160709326127171
1776870096603051300,5.06805126953125,-7.022244322642684,3.0631542296767234,6.1217281458258626
1776870096613087200,5.078087158203125,-7.0110437141925095,3.162626995819807,6.083866909465193
1776870096623124200,5.088124267578125,-7.002321478554606,3.268091695854068,6.0380018148690455
1776870096633160400,5.098160400390625,-6.997535413321852,3.3787542567923663,5.982382218977809
1776870096643197200,5.108197265625,-6.987758700194955,3.491996605090797,5.928539569631218
1776870096653233400,5.1182333984375,-6.973074341282248,3.609655308526754,5.875116607001424
1776870096663269400,5.128269287109375,-6.953782780835032,3.732923668538034,5.820701710724831
1776870096673306000,5.13830615234375,-6.925786520406604,3.8599908363103865,5.770991046616435
1776870096683342300,5.14834228515625,-6.888678732761741,3.98815690523535,5.728097661307454
1776870096693379000,5.158379150390625,-6.848453105357289,4.11686219560355,5.685113675105572
1776870096703415000,5.1684150390625,-6.807617237100005,4.24550844926089,5.639360224190354
1776870096713452300,5.178452392578125,-6.765651488029956,4.37412810717225,5.59136279374063
1776870096723488300,5.18848828125,-6.721440005859733,4.503630685397982,5.541655636763572
1776870096733524200,5.198524169921875,-6.674735537829995,4.636819843181968,5.488004710596799
1776870096743561200,5.208561279296875,-6.623948184400796,4.774693067128956,5.431022594180702
1776870096753597200,5.21859716796875,-6.566290945202112,4.914073188507556,5.376438186556101
1776870096763634200,5.22863427734375,-6.502709576651454,5.053506209117174,5.324212324756384
1776870096773670100,5.238670166015625,-6.436106814453005,5.192231958240271,5.271399018457531
1776870096783707100,5.24870703125,-6.368589860019087,5.330630959627032,5.214961091920733
1776870096793743000,5.2587431640625,-6.29909488351047,5.470085607546568,5.1546051151573655
1776870096803780400,5.2687802734375,-6.225932032144069,5.608859287464618,5.094001301112771
1776870096813816600,5.278816650390625,-6.147384565129876,5.748053823143244,5.033877964061499
1776870096823852500,5.2888525390625,-6.062931088942289,5.887851585412025,4.97438006543219
1776870096833889500,5.2988896484375,-5.972454699203372,6.028429099881649,4.915099608945846
1776870096843925500,5.308925537109375,-5.87605418011248,6.17380437002182,4.850412909501791
1776870096853962500,5.31896240234375,-5.773430256462097,6.319354412207007,4.785774725374579
1776870096863998500,5.32899853515625,-5.665131794306635,6.4591667875230305,4.728196688891947
1776870096874035700,5.33903564453125,-5.553244367748499,6.593043343049287,4.675856260801852
1776870096884071700,5.34907177734375,-5.4371577359348535,6.7222577519834035,4.6280610749259585
1776870096894107600,5.359107666015625,-5.3146097991526124,6.84927202052474,4.583970296525955
1776870096904144600,5.36914453125,-5.1848962085247035,6.977429613882303,4.539021732252836
1776870096914180600,5.3791806640625,-5.05058476871252,7.103971004214882,4.493947495773434
1776870096924217300,5.38921728515625,-4.915945412120223,7.2271642531633375,4.446569074004889
1776870096934253600,5.399253662109375,-4.783947217686474,7.347616094449162,4.392808549983799
1776870096944290300,5.409290283203125,-4.657324871072173,7.465188580906391,4.330205378815531
1776870096954326300,5.419326171875,-4.534735725496709,7.579857162615657,4.260554919484258
1776870096964363500,5.429363525390625,-4.414650963957608,7.690394928130507,4.187967529918253
1776870096974399500,5.4393994140625,-4.294709994803369,7.7977797825723885,4.113450341333449
1776870096984435500,5.449435546875,-4.174480856357515,7.9024132924795145,4.036824197770655
1776870096994472400,5.459472412109375,-4.056119557610154,8.002769271197915,3.9590354401692744
1776870097004508400,5.46950830078125,-3.942131651641428,8.097621976324916,3.880528597426414
1776870097014545400,5.47954541015625,-3.833605810470879,8.187154363211988,3.8005715558752415
1776870097024581400,5.489581298828125,-3.728644968305528,8.273052192988992,3.7180928868919607
1776870097034618400,5.499618408203125,-3.624506548438966,8.356226150760055,3.634120179958641
1776870097044654600,5.509654541015625,-3.52319136929959,8.4370661126256,3.545903844106197
1776870097054691600,5.519691650390625,-3.427577324411273,8.51610223993957,3.449363916544616
1776870097064727600,5.5297275390625,-3.3398791672140358,8.591584474164247,3.346678618095815
1776870097074764500,5.5397646484375,-3.261392198215425,8.66172067118585,3.241652309478819
1776870097084800500,5.549800537109375,-3.1899747292116283,8.72871389400661,3.131135586751997
1776870097094836500,5.55983642578125,-3.125334206996858,8.79566620029509,3.0064804485574363
1776870097104873500,5.56987353515625,-3.0678198834002015,8.863692273294925,2.8624846500769254
1776870097114909400,5.579909423828125,-3.018224954625964,8.930770836311579,2.702227744886279
1776870097124946700,5.58994677734375,-2.977331218701601,8.994263357535004,2.5316201260730624
1776870097134982700,5.599982666015625,-2.941505579821765,9.053626231607794,2.355795941655338
1776870097145019600,5.61001953125,-2.904539246474206,9.109570237147807,2.1793943957410753
1776870097155055600,5.6200556640625,-2.863664215250313,9.162095374155044,2.0064453283682466
1776870097165092400,5.63009228515625,-2.8201690646558997,9.21072525728941,1.8383572911605237
1776870097175128600,5.640128662109375,-2.775275737701356,9.25533479886651,1.6754072013631462
1776870097185165300,5.650165283203125,-2.7275720295011996,9.296958602631092,1.5156787039607762
1776870097195201300,5.660201171875,-2.676156315040588,9.336081821751595,1.358729608143866
1776870097205238500,5.670238525390625,-2.621085292942822,9.372651849257945,1.2056889910075812
1776870097215274500,5.6802744140625,-2.5609759844169018,9.407171373975276,1.0568369116023182
1776870097225310500,5.690310546875,-2.495025548647344,9.439961882942914,0.9123397394709288
1776870097235347500,5.700347412109375,-2.424109453294426,9.470842174375056,0.7728139260113239
1776870097245383400,5.710383544921875,-2.348144842380285,9.499958963266014,0.6382639282029122
1776870097255420400,5.72042041015625,-2.2703699671737847,9.526679212409258,0.5081309431191533
1776870097265456400,5.730456298828125,-2.194030823858827,9.55043301296234,0.38189744969196615
1776870097275493400,5.740493408203125,-2.1197614725552496,9.571271802851557,0.2602520147074014
1776870097285529300,5.750529296875,-2.0450822252765297,9.589957798621057,0.14395679077752865
1776870097295566600,5.760566650390625,-1.9690745058730243,9.606872108542918,0.03378840428105322
1776870097305602600,5.7706025390625,-1.8914127356521784,9.622263154420256,-0.07055908490906003
1776870097315639600,5.7806396484375,-1.813964315921068,9.635939213073254,-0.16903467040807008
1776870097325675500,5.790675537109375,-1.7376907851882277,9.647968089041113,-0.2598733906533569
1776870097335712500,5.80071240234375,-1.6654771973706781,9.658163319841027,-0.34128512452486903
1776870097345748500,5.81074853515625,-1.5984518258459866,9.666666944292187,-0.413371980690211
1776870097355785700,5.82078564453125,-1.535069340868294,9.67403016653657,-0.47655550902970134
1776870097365821700,5.83082177734375,-1.4729152286417782,9.680885439258814,-0.5304540167493745
1776870097375857700,5.840857666015625,-1.410100168288499,9.687627899256348,-0.5760973218210041
1776870097385894700,5.850894775390625,-1.3466522168591617,9.69422539782524,-0.6155604404203593
1776870097395930600,5.8609306640625,-1.2844010739989578,9.700422498899698,-0.6499984973993151
1776870097405967400,5.87096728515625,-1.2245567000195383,9.706102882623671,-0.6799954301256687
1776870097416003600,5.881003662109375,-1.1665996010914443,9.711389298593998,-0.705920510303229
1776870097426040300,5.891040283203125,-1.1098635683909057,9.71638286909759,-0.7283608901701867
1776870097436076300,5.901076171875,-1.0535325362946837,9.721142630845307,-0.7482386530075222
1776870097446113500,5.911113525390625,-0.9973266649480909,9.725677351665496,-0.7660990116078407
1776870097456149500,5.9211494140625,-0.9430921667397022,9.729820442819594,-0.7820183191429824
1776870097466186500,5.9311865234375,-0.8921926581729203,9.733512283074855,-0.7956795455530286
1776870097476222500,5.941222412109375,-0.8448234426241368,9.736782683047652,-0.8072942877620458
1776870097486259500,5.951259521484375,-0.8022766787957399,9.739557408457994,-0.8171598482161759
1776870097496295400,5.96129541015625,-0.7676626807279885,9.74157810063064,-0.8262751748248934
1776870097506332400,5.97133251953125,-0.7414883019644767,9.742664726823568,-0.8372954582720994
1776870097516368400,5.981368408203125,-0.7218615182135254,9.742823716777563,-0.852449115196988
1776870097526405600,5.991405517578125,-0.7030152173157781,9.742404614582657,-0.8727520446438342
1776870097536441600,6.001441650390625,-0.6814991857521235,9.741761640504002,-0.896670607304573
1776870097546478600,6.011478515625,-0.6552162320476025,9.741192900705338,-0.9220840116329491
1776870097556514600,6.0215146484375,-0.6252639421805739,9.740847448268532,-0.9462249118074774
1776870097566551600,6.031551513671875,-0.5935448983693495,9.740690796402097,-0.9680054395262151
1776870097576587500,6.04158740234375,-0.5621276505162939,9.740638189432024,-0.9871093684468418
1776870097586624300,6.051624267578125,-0.5330911603199318,9.74053239096999,-1.00412129352428
1776870097596660500,6.061660400390625,-0.5045509292079136,9.740587336027621,-1.0182136778932065
1776870097606697500,6.071697509765625,-0.47299547846056517,9.741144969910383,-1.0279794312346726
1776870097616733400,6.0817333984375,-0.4352198745567351,9.742395846754311,-1.0328036365207285
1776870097626770400,6.0917705078125,-0.3911187208931893,9.744258718016743,-1.0328629654925316
1776870097636806400,6.101806396484375,-0.34313648801259694,9.746500359463692,-1.02877701135315
1776870097646843400,6.111843505859375,-0.2957988731784746,9.74892846339345,-1.020428066007048
1776870097656879400,6.12187939453125,-0.2538531622494571,9.751322665053605,-1.0087930847276
1776870097666915300,6.131915283203125,-0.21993971366649492,9.753483642479777,-0.9957790701799094
1776870097676952600,6.14195263671875,-0.19311836050264536,9.755260589024424,-0.983868998286128
1776870097686988500,6.151988525390625,-0.1700290882728994,9.756730661576986,-0.9734932963527738
1776870097697025500,6.162025634765625,-0.1486877191564068,9.758022454953194,-0.9639902856007218
1776870097707061500,6.1720615234375,-0.1304150168955326,9.75916402620375,-0.9550309532713145
1776870097717098500,6.182098388671875,-0.11788979051178321,9.760074711307883,-0.9473234476339072
1776870097727134500,6.192134521484375,-0.109828466468025,9.760426593485475,-0.9446696451894938
1776870097737171500,6.20217138671875,-0.10011413278654217,9.759415370616317,-0.9561324117071927
1776870097747207400,6.21220751953125,-0.09195322995898313,9.757276605021953,-0.978525591431558
1776870097757244700,6.22224462890625,-0.09035865424391813,9.755326639997959,-0.9979135979905724
1776870097767280600,6.23228076171875,-0.09780375521862879,9.754792971512675,-1.002421649999544
1776870097777317600,6.242317626953125,-0.10742042807876132,9.755328393563628,-0.9962103742692618
1776870097787353600,6.252353515625,-0.11645683509921655,9.755852125176787,-0.9900380423098802
1776870097797390300,6.262390380859375,-0.12840669101411475,9.755977212861179,-0.9873330211348831
1776870097807426600,6.272426513671875,-0.14601461835647933,9.75573288271129,-0.9872985343433917
1776870097817463000,6.282463134765625,-0.16784858416235074,9.755088155066966,-0.9901901641316712
1776870097827499300,6.292499267578125,-0.18970179352480918,9.754193836575746,-0.9950536785148083
1776870097837536000,6.302535888671875,-0.2077510988259688,9.753352709576488,-0.9996697940081357
1776870097847572000,6.312572021484375,-0.22098308523958549,9.752774617427587,-1.002470530642569
1776870097857609000,6.32260888671875,-0.23166598995858803,9.75250982901156,-1.0026311280317604
1776870097867645000,6.33264501953125,-0.2395796674262732,9.752529118233918,-1.000570249979198
1776870097877682200,6.34268212890625,-0.24383058460270984,9.752758250814676,-0.9973162896845489
1776870097887718100,6.35271826171875,-0.24202658565435556,9.753204241016507,-0.9933825304321944
1776870097897755100,6.362755126953125,-0.2341851697052829,9.753872349536419,-0.9886978797473013
1776870097907792100,6.372792236328125,-0.2244877688922919,9.754784203684329,-0.9819228326544165
1776870097917828000,6.382828125,-0.21844204072095452,9.755860308483243,-0.9725453479781746
1776870097927865000,6.392864990234375,-0.2192121483106166,9.756891405096649,-0.9619690819714218
1776870097937902300,6.40290234375,-0.22642189702633767,9.757687523910402,-0.9521890809088945
1776870097947938300,6.412938232421875,-0.2373945602058433,9.758231129267811,-0.9439014372959732
1776870097957974300,6.422974365234375,-0.24990979491854085,9.758575997182726,-0.9370717374064028
1776870097968011300,6.43301123046875,-0.2620581873465329,9.758876441434024,-0.9306132089167832
1776870097978048000,6.443048095703125,-0.2728980544592254,9.759320678070187,-0.9227953017074614
1776870097988084000,6.453083984375,-0.28207758714426306,9.759992878243327,-0.9128921126566827
1776870097998121000,6.463120849609375,-0.28909696438703686,9.760860308727622,-0.9013384529851376
1776870098008157000,6.473156982421875,-0.2963812944426201,9.761803142535685,-0.8886701831351965
1776870098018194200,6.483194091796875,-0.3057793287165463,9.762743638256191,-0.8750588602814823
1776870098028230100,6.493230224609375,-0.3164553287707269,9.763653154316543,-0.8610125070113688
1776870098038267100,6.50326708984375,-0.32818949610833076,9.764563254898786,-0.8461545450974255
1776870098048303000,6.51330322265625,-0.34199027711953967,9.765444129386543,-0.8303703351840377
1776870098058340000,6.523340087890625,-0.36035398213211445,9.76619699358046,-0.8135942646890878
1776870098068376000,6.5333759765625,-0.3842018176442012,9.7667218942374,-0.7962059075146913
1776870098078413000,6.5434130859375,-0.4142126692980528,9.766937582814693,-0.7782922843571752
1776870098088449000,6.553448974609375,-0.44978287211209533,9.766847566443682,-0.7594521940045058
1776870098098486300,6.563486328125,-0.49098417614828793,9.7664044988513,-0.7393742324199527
1776870098108522200,6.573522216796875,-0.538247848963365,9.76543068538308,-0.719044780292362
1776870098118559200,6.583559326171875,-0.5911797766732052,9.763849553671479,-0.6986757998719811
1776870098128595200,6.59359521484375,-0.6491875463426112,9.761752873653172,-0.6761234840631485
1776870098138632000,6.6036318359375,-0.7137205895949155,9.75912895489037,-0.6483815637219696
1776870098148668200,6.613668212890625,-0.7874924397051334,9.755682613828778,-0.613907193320617
1776870098158705200,6.623705078125,-0.8732342752028256,9.750748080036043,-0.5751079454574733
1776870098168741000,6.6337412109375,-0.9700906483024359,9.74383552416861,-0.5356862548470497
1776870098178778000,6.643778076171875,-1.0715553189150988,9.735102182614803,-0.4999457004347816
1776870098188814000,6.65381396484375,-1.1675867854978887,9.725423669165373,-0.4725270572312176
1776870098198851000,6.66385107421875,-1.2505575488470495,9.715845108959078,-0.456981039987877
1776870098208887000,6.673886962890625,-1.3171933365322648,9.707183663597702,-0.4538326589595526
1776870098218924000,6.683924072265625,-1.368011085099727,9.69980407474041,-0.4612361036164686
1776870098228960000,6.6939599609375,-1.4064749635286629,9.693584761834144,-0.4760732784707099
1776870098238997200,6.703997314453125,-1.4377109365306793,9.688080319198965,-0.4944695340460166
1776870098249033200,6.714033203125,-1.467492765201628,9.682653617975115,-0.5129177390042692
1776870098259070200,6.7240703125,-1.502817030430585,9.676395726624131,-0.5284841414485126
1776870098269106200,6.734106201171875,-1.5528835222393274,9.66815455250144,-0.5345325547672808
1776870098279143200,6.74414306640625,-1.6196508273497223,9.657668229800462,-0.5259131219167262
1776870098289179100,6.75417919921875,-1.6978294610515237,9.645386255854367,-0.5042836565738543
1776870098299216100,6.764216064453125,-1.7765818029880522,9.632595747864245,-0.47670408718753604
1776870098309252000,6.774252197265625,-1.8467564323239027,9.620766778382658,-0.4480163738962263
1776870098319289000,6.7842890625,-1.905150315234065,9.610906478625536,-0.4138320359500125
1776870098329325300,6.7943251953125,-1.9545576124817132,9.603073300781846,-0.3620266280520707
1776870098339362000,6.804362060546875,-2.000231860680878,9.596303952777385,-0.2835980199108831
1776870098349399000,6.81439892578125,-2.041921277027577,9.59013958492875,-0.17372275515906513
1776870098359435000,6.82443505859375,-2.0788260894462467,9.583733809539675,-0.030190786214463878
1776870098369472000,6.834471923828125,-2.1145904996581373,9.574892915958166,0.1425571531126741
1776870098379508000,6.844508056640625,-2.1562796237438917,9.56115957415998,0.324120821897313
1776870098389545200,6.854545166015625,-2.2041730092972514,9.54327320433557,0.4878025139048695
1776870098399581200,6.864581298828125,-2.252045498193055,9.524394900864362,0.6201411192741245
1776870098409618200,6.8746181640625,-2.295195634742081,9.506656415078043,0.7252198156654834
1776870098419654100,6.884654052734375,-2.3372096068680284,9.488978719568252,0.8167743560299277
1776870098429691100,6.894691162109375,-2.3862271741457284,9.468422253751754,0.9084501846864819
1776870098439727000,6.90472705078125,-2.448016983104497,9.442787461757659,1.005669399749115
1776870098449764000,6.91476416015625,-2.5254291624784466,9.411151968044042,1.1058140738043933
1776870098459800000,6.924800048828125,-2.614952781537175,9.374109646850824,1.2076795072376727
1776870098469837300,6.93483740234375,-2.7053336019471286,9.333780559071897,1.3160942892491816
1776870098479873300,6.944873291015625,-2.783750720579922,9.292154417219757,1.4411694064214824
1776870098489910000,6.954909912109375,-2.8461916869238015,9.248387171685694,1.5927718805134294
1776870098499946200,6.9649462890625,-2.900490555605292,9.197788618826866,1.7771395830012857
1776870098509983000,6.97498291015625,-2.956571339267492,9.135388569015264,1.9934218884050845
1776870098520019000,6.98501904296875,-3.014790011741221,9.061472268933057,2.2296084793269633
1776870098530056000,6.995055908203125,-3.0686364604800938,8.981396277177334,2.4674647570267316
1776870098540092200,7.005092041015625,-3.120566846464574,8.899572564971447,2.6888743423163888
1776870098550129200,7.015129150390625,-3.18296894210279,8.815984181180596,2.884009668664634
1776870098560165000,7.0251650390625,-3.268243379284441,8.727655324864386,3.052375353769958
1776870098570202000,7.0352021484375,-3.3813206001490355,8.630786019217968,3.2010283304065466
1776870098580239000,7.045239013671875,-3.5146553038835524,8.525625270566344,3.336358884133398
1776870098590275000,7.055275146484375,-3.6513802345782516,8.416384559124708,3.464429383729398
1776870098600312300,7.065312255859375,-3.77672978477776,8.31074800965488,3.583037935236096
1776870098610348300,7.075348388671875,-3.8884398089423775,8.211196333056687,3.691432843503356
1776870098620385300,7.08538525390625,-3.988464948271215,8.115541663897037,3.794800571258366
1776870098630421200,7.095421142578125,-4.085446774381399,8.021254191437363,3.8908848640069364
1776870098640458000,7.1054580078125,-4.186275631308555,7.925845021471381,3.9782486746832726
1776870098650494200,7.115494140625,-4.288269440361857,7.826613078346848,4.06512674766928
1776870098660531000,7.125531005859375,-4.386492206443846,7.720531707718968,4.162026156193018
1776870098670567000,7.13556689453125,-4.474921892786026,7.607941101327538,4.273720398266613
1776870098680604200,7.145604248046875,-4.552587900790572,7.492382292780279,4.394147689633071
1776870098690640100,7.15564013671875,-4.629828376859426,7.374107211011648,4.511940248581767
1776870098700677000,7.165677001953125,-4.709905245397985,7.254823828983306,4.621113740006089
1776870098710713000,7.175713134765625,-4.796707915060222,7.1358648566037415,4.716080426901579
1776870098720750000,7.18575,-4.89937070941627,7.012050260886549,4.795590893729031
1776870098730786000,7.1957861328125,-5.013721895739436,6.882139686381817,4.8650931767612695
1776870098740823000,7.205822998046875,-5.132071211788058,6.749734956973791,4.9267958919584744
1776870098750860300,7.2158603515625,-5.254347930413484,6.612401538991928,4.983808403512835
1776870098760896300,7.225896240234375,-5.383703793644905,6.464979273194074,5.038863935780525
1776870098770933200,7.235933349609375,-5.514613316059112,6.3083957958191625,5.095444485658407
1776870098780969200,7.24596923828125,-5.634454916492104,6.1497092086851595,5.157942735147476
1776870098791006200,7.256006103515625,-5.735243441408873,5.996245324635505,5.227084075912833
1776870098801042200,7.266042236328125,-5.817240756615996,5.8522612165927885,5.299162639173865
1776870098811079000,7.276078857421875,-5.885558506038785,5.716048911595344,5.371904634779692
1776870098821115100,7.286115234375,-5.935093813580274,5.586534058409929,5.453043871852755
1776870098831152000,7.296152099609375,-5.9747214750915765,5.45551581492424,5.541698891383409
1776870098841188000,7.30618798828125,-6.027313832116127,5.316116696584224,5.619677034077048
1776870098851225000,7.31622509765625,-6.090256318241358,5.172081150615215,5.685836728683114
1776870098861261000,7.326260986328125,-6.152310331094265,5.026774269536137,5.749001333126426
1776870098871298000,7.336298095703125,-6.198669346687197,4.885497666886448,5.820550319555402
1776870098881334000,7.346333984375,-6.2282221889078615,4.745579493108392,5.9041609151780605
1776870098891371000,7.35637109375,-6.250346342432499,4.61401618296057,5.984513970309496
1776870098901408300,7.366408203125,-6.262914732104539,4.491049728505313,6.064385379403829
1776870098911444200,7.3764443359375,-6.26850919111073,4.371965668441355,6.145086225059628
1776870098921481200,7.386481201171875,-6.278326236248016,4.252316083449125,6.218586345556378
1776870098931517200,7.39651708984375,-6.297069515162706,4.134161413189768,6.279013049468397
1776870098941554200,7.40655419921875,-6.32207126995027,4.017618562041223,6.329339799648523
1776870098951590100,7.416590087890625,-6.346831032675504,3.903488909514248,6.3758046137034885
1776870098961627000,7.426626953125,-6.363260773950815,3.799500711773336,6.422077704578638
1776870098971663000,7.4366630859375,-6.364895681676268,3.7104432489216324,6.472332558566332
1776870098981700000,7.4467001953125,-6.3527364573270075,3.6313188588023184,6.528908432269096
1776870098991736000,7.456736083984375,-6.328863998830318,3.556922666248679,6.592735300013422
1776870099001773000,7.46677294921875,-6.30459698805809,3.495595798626542,6.648552464303374
1776870099011809000,7.47680908203125,-6.27958646544218,3.4460128525510427,6.697922936671972
1776870099021846000,7.486845947265625,-6.254461961057782,3.3991292285621166,6.745220694419741
1776870099031883000,7.496883056640625,-6.230345172411203,3.3586285836085676,6.787694977533817
1776870099041919200,7.506919189453125,-6.2012307216078035,3.330367827025056,6.82815967439115
1776870099051956200,7.516956298828125,-6.1661769438833,3.314109642924368,6.867700826662778
1776870099061992200,7.5269921875,-6.128848791486025,3.3105995889768,6.902718364030123
1776870099072029200,7.537029296875,-6.0904720068186515,3.3202932999953627,6.931968423911929
1776870099082065200,7.547065185546875,-6.05394114227891,3.342011795328557,6.953499287718534
1776870099092102100,7.55710205078125,-6.021716450500488,3.372399042546749,6.966795407143235
1776870099102138000,7.56713818359375,-5.996033727711438,3.4116847587525845,6.969819723400473
1776870099112175000,7.577175048828125,-5.974358486998081,3.461555874119699,6.96383831090331
1776870099122211300,7.58721142578125,-5.954751869252323,3.5205776796698567,6.951032020822167
1776870099132248000,7.597248046875,-5.939818504014611,3.58699427164644,6.9298208904892205
1776870099142284000,7.607283935546875,-5.92995352808237,3.660911448511481,6.899547917300462
1776870099152321000,7.617321044921875,-5.9206122837632895,3.7436519833013415,6.863076089471578
1776870099162358000,7.62735791015625,-5.909410506269335,3.837013280826807,6.821039028730988
1776870099172394000,7.63739404296875,-5.89468756891191,3.937710035806894,6.776243024671078
1776870099182431200,7.64743115234375,-5.8753650288045405,4.042859970803558,6.730953684136271
1776870099192467200,7.65746728515625,-5.857956797885895,4.153561694708467,6.678520901587605
1776870099202504200,7.667504150390625,-5.841992920556664,4.267892715026438,6.620166327774524
1776870099212540200,7.6775400390625,-5.824302365565299,4.38694141151607,6.557638852190971
1776870099222577200,7.6875771484375,-5.807780854353308,4.511966844327747,6.487081214886904
1776870099232613000,7.697613037109375,-5.790107250496745,4.640902436320483,6.41147973819673
1776870099242650000,7.707650146484375,-5.769111808741092,4.773117196114361,6.332857452380657
1776870099252686000,7.71768603515625,-5.743009983757138,4.905778822892904,6.254723242342472
1776870099262723300,7.727723388671875,-5.708482275733352,5.0371916186541315,6.1814493318170305
1776870099272760000,7.737760009765625,-5.667071237936615,5.167928122588992,6.111235393384098
1776870099282796000,7.747796142578125,-5.620833218374848,5.297619501385093,6.042503217941523
1776870099292833000,7.7578330078125,-5.571460992440581,5.4281993534535165,5.971921615239977
1776870099302869000,7.767868896484375,-5.520535107323527,5.563012897568941,5.894655420207977
1776870099312906000,7.777906005859375,-5.468404522591829,5.700180311334133,5.811616486993432
1776870099322942000,7.78794189453125,-5.417161826610565,5.835294884222746,5.724864670735597
1776870099332979200,7.797979248046875,-5.365171527132391,5.965209550380706,5.639288912519812
1776870099343015200,7.80801513671875,-5.312135517993569,6.0886190724283455,5.557006350630521
1776870099353052200,7.81805224609375,-5.256696539366245,6.208707925620675,5.476265172964334
1776870099363089200,7.828089111328125,-5.197748091313243,6.329010129302739,5.394204729393124
1776870099373125000,7.838125,-5.13514404336214,6.448605061498284,5.311888265234232
1776870099383162000,7.848162109375,-5.071166953492164,6.564659544607997,5.230572502550483
1776870099393198000,7.858197998046875,-5.00897733156085,6.676018563377856,5.148913625517487
1776870099403235000,7.868235107421875,-4.948664609417319,6.783500448453426,5.066086289227009
1776870099413271300,7.878271240234375,-4.885831721146404,6.890498933926224,4.981972420257329
1776870099423308000,7.88830810546875,-4.81373006927073,6.9992848873376845,4.899836281101405
1776870099433344000,7.898343994140625,-4.73025216011703,7.10822749261558,4.823710780537128
1776870099443381000,7.908381103515625,-4.639541377100349,7.2162155736476175,4.750922607702017
1776870099453418000,7.91841796875,-4.548606137678027,7.32113725284636,4.6777685241639615
1776870099463454000,7.928453857421875,-4.459107068538666,7.421734054583311,4.604847957120835
1776870099473491200,7.9384912109375,-4.366998401422799,7.520453956532478,4.5323815635859965
1776870099483527200,7.948527099609375,-4.2708907277986405,7.6184624953418965,4.459698312430083
1776870099493564200,7.958564208984375,-4.17179585505724,7.716165913724899,4.384892370031774
1776870099503600000,7.96860009765625,-4.0726553896084425,7.812309243184328,4.307167033055425
1776870099513637000,7.97863720703125,-3.9771129486516115,7.904682990977167,4.22716644462347
1776870099523673000,7.988673095703125,-3.8867929185181853,7.991818253594636,4.146571689690649
1776870099533710000,7.9987099609375,-3.7975989698052404,8.07467247789204,4.067961386573314
1776870099543746300,8.008746337890624,-3.705408761885762,8.155273954826592,3.9914723133936523
1776870099553783300,8.018783203125,-3.6116353764280675,8.234585976472497,3.9138311475694176
1776870099563819300,8.0288193359375,-3.5195749323680996,8.312486962276697,3.832171393753588
1776870099573856000,8.03885595703125,-3.431073642094433,8.388651918068527,3.74548270585984
1776870099583892200,8.048892333984375,-3.345665933921933,8.46384306039214,3.652431497196853
1776870099593929000,8.058928955078125,-3.265264947995543,8.537968619310856,3.5512677092269063
1776870099603965000,8.06896484375,-3.1917697959348557,8.610729319617151,3.440687565875053
1776870099614002200,8.079002197265625,-3.122259914118051,8.683253873080014,3.320085502463579
1776870099624038100,8.0890380859375,-3.0564167381152507,8.75486131169796,3.1907834152460097
1776870099634075100,8.0990751953125,-2.995793050326407,8.824297251495718,3.0540754356861113
1776870099644112100,8.109112060546876,-2.943532701735198,8.890367514252661,2.909877684892714
1776870099654148000,8.119148193359376,-2.9020374927863477,8.952095948413014,2.7583596742138266
1776870099664185000,8.12918505859375,-2.86759600174129,9.009835605198145,2.601949799840152
1776870099674221000,8.139220947265626,-2.8338030377328396,9.064610566958784,2.4439264989204705
1776870099684258300,8.14925830078125,-2.7961747333452105,9.117240333384276,2.286424299265444
1776870099694295000,8.159294921875,-2.753783744600415,9.167754130569099,2.1305746891230344
1776870099704331300,8.169331298828125,-2.7093121501892803,9.215556915229559,1.975734402153641
1776870099714368000,8.179367919921875,-2.66651053481698,9.259982916933298,1.8201171394623814
1776870099724404200,8.189404296875,-2.6287021976873275,9.300527108767628,1.661473953078687
1776870099734441000,8.19944091796875,-2.596439511986077,9.337321592679618,1.497766030651331
1776870099744477000,8.209476806640625,-2.5652809881344436,9.37130043464899,1.3298254390902817
1776870099754514200,8.21951416015625,-2.52822931459099,9.40393546079397,1.159495102848485
1776870099764550100,8.229550048828125,-2.4803470349535344,9.435901793897152,0.990966409201175
1776870099774587100,8.239587158203125,-2.4221223711304365,9.466776240110397,0.8269505898684263
1776870099784624000,8.2496240234375,-2.3557941880896687,9.495974277544022,0.6686499333120882
1776870099794660000,8.25966015625,-2.2852765905350445,9.522781620448827,0.514343460958451
1776870099804697000,8.269697021484374,-2.2117472439438104,9.547086625143885,0.3628880306543782
1776870099814733600,8.279733642578124,-2.134694545532018,9.56910264211893,0.2138620559869334
1776870099824770600,8.2897705078125,-2.052749545034021,9.58915115841329,0.06924475547405891
1776870099834807300,8.299807373046875,-1.965592070584744,9.607399347287416,-0.06872760429873596
1776870099844843300,8.30984326171875,-1.872986121471226,9.62410322932899,-0.19739161737505345
1776870099854880500,8.319880615234375,-1.7757329310737549,9.639430562320351,-0.3139220109008252
1776870099864916500,8.32991650390625,-1.675681926651299,9.653440967494248,-0.41659291549809274
1776870099874953500,8.339953369140625,-1.5748793732091784,9.666206925565003,-0.5045636425590142
1776870099884989400,8.349989501953125,-1.474429286466539,9.677857031348347,-0.5792551647974178
1776870099895026400,8.3600263671875,-1.376070619045198,9.68827730307579,-0.6434912343971431
1776870099905063400,8.3700634765625,-1.2812766583681106,9.697325701928138,-0.7004205246474593
1776870099915099400,8.380099365234376,-1.1912758502516896,9.705054250353575,-0.7504564021222293
1776870099925136600,8.39013671875,-1.1059304667256773,9.711753455731271,-0.7931946699347346
1776870099935172600,8.400172607421876,-1.025286027432233,9.717610365065932,-0.8289837761964648
1776870099945209600,8.410209716796874,-0.9482319407809525,9.72291080956161,-0.8580435742031782
1776870099955245600,8.42024560546875,-0.8726226461105048,9.727974522691964,-0.88057893887721
1776870099965282600,8.430282470703125,-0.7973357883274554,9.732788644975424,-0.8985771715782582
1776870099975319300,8.4403193359375,-0.723544356733933,9.736977328836918,-0.9154922852177172
1776870099985355300,8.450355224609375,-0.654055736900866,9.740064773458242,-0.934732480803877
1776870099995392500,8.460392578125,-0.5917106321468949,9.741753457197547,-0.9583817250039428
1776870100005428500,8.470428466796875,-0.538723357520625,9.741994280216097,-0.9867737798169255
1776870100015465500,8.480465576171875,-0.49603528552539644,9.741012867963313,-1.0183313129235059
1776870100025501400,8.49050146484375,-0.46273258925192057,9.739071086245774,-1.0520212549488992
1776870100035538400,8.500538330078125,-0.4350657069083303,9.736213358727097,-1.0896021399982272
1776870100045575400,8.510575439453126,-0.41651382237989454,9.732809103241562,-1.1266397119510918
1776870100055611400,8.520611328125,-0.40565000813603397,9.729523505699634,-1.1585334912747145
1776870100065648600,8.530648681640624,-0.39529176879413425,9.726821261003613,-1.1845062099862842
1776870100075684600,8.5406845703125,-0.37855460553746667,9.724408354642987,-1.209534852780774
1776870100085721600,8.5507216796875,-0.35209381104800846,9.721945179399848,-1.2370032168775795
1776870100095758300,8.56075830078125,-0.31759525605347005,9.719772511535883,-1.2631475658290088
1776870100105794300,8.570794189453125,-0.2774404105965979,9.718459675371646,-1.2825541309580206
1776870100115831300,8.580831298828125,-0.23522852301206437,9.71824632488191,-1.2925656757541
1776870100125867500,8.590867431640625,-0.19359235295625402,9.718997435510158,-1.2938215210340915
1776870100135904500,8.600904541015625,-0.15341777988560498,9.720408471351861,-1.288603347994387
1776870100145941500,8.61094140625,-0.11342017081705853,9.722190678593515,-1.279268095024675
1776870100155977500,8.6209775390625,-0.07356085597435012,9.723922032430767,-1.2689860627241432
1776870100166014500,8.631014404296875,-0.0335829745195806,9.725454648825526,-1.2588906390368937
1776870100176050400,8.641050537109376,0.007236139536547125,9.726727737501262,-1.249434828427434
1776870100186087700,8.651087646484376,0.046386584019870496,9.727675832006335,-1.2411886858686805
1776870100196123600,8.66112353515625,0.07790921477642841,9.728295425209403,-1.2347436013825237
1776870100206160600,8.67116064453125,0.0919543990027625,9.728887545883655,-1.2290982889719306
1776870100216197400,8.681197265625,0.08040710513992234,9.72975322280228,-1.2230376737587154
1776870100226233600,8.691233642578124,0.04425454499381594,9.730708916091919,-1.2172647894456983
1776870100236270300,8.701270263671875,-0.005699714045529254,9.73130395937562,-1.2132914288353174
1776870100246306300,8.711306396484375,-0.058140565736219285,9.73135715086758,-1.211474588671699
1776870100256343600,8.721343505859375,-0.10523259917828254,9.730978380683064,-1.2113400025065988
1776870100266380500,8.731380615234375,-0.14229737879848106,9.730384506443142,-1.2123381466984748
1776870100276416500,8.74141650390625,-0.16768396818516776,9.72975497636795,-1.2141429310981184
1776870100286453500,8.75145361328125,-0.18117613990493117,9.729303725469112,-1.2158239429876208
1776870100296489500,8.761489501953125,-0.18477469411985947,9.729165193781256,-1.2163935595691204
1776870100306526500,8.7715263671875,-0.18175536456499247,9.729413031062483,-1.214852613737434
1776870100316563700,8.781563720703126,-0.1756105964659713,9.729911628234387,-1.2117655344422906
1776870100326599700,8.791599609375,-0.16875640145596116,9.730345927998423,-1.2092359428994357
1776870100336636400,8.801636474609374,-0.16285985423065721,9.73053589761257,-1.208525529607758
1776870100346672600,8.811672607421874,-0.15867221154877914,9.730566292750835,-1.2088372989706695
1776870100356709400,8.82170947265625,-0.15561497940262778,9.730577398666739,-1.2091470955722032
1776870100366746400,8.831746337890625,-0.15279369317051023,9.730655724599957,-1.208877996307239
1776870100376782300,8.8417822265625,-0.1490017809411045,9.730793671765923,-1.2082409405127168
1776870100386819600,8.851819580078125,-0.1425441475006286,9.731027480521798,-1.2071273532476277
1776870100396855600,8.86185546875,-0.13369555466985328,9.731275317803025,-1.2061484982781112
1776870100406892500,8.871892578125,-0.12194622629573568,9.731603234583138,-1.2047498835265635
1776870100416929500,8.881929443359375,-0.10895456057717091,9.73206559139788,-1.2022593818850815
1776870100426965500,8.891965576171875,-0.09623451487421988,9.732730192786455,-1.1979510902319104
1776870100437002500,8.90200244140625,-0.08540552534856834,9.733663089722395,-1.1911733397252857
1776870100447038500,8.91203857421875,-0.0779138544189278,9.734850253680348,-1.1819579868081957
1776870100457075700,8.92207568359375,-0.07577658666190691,9.736168350541591,-1.1711867827512323
1776870100467112400,8.932112548828124,-0.07951330723850987,9.737375972765683,-1.1608472481098024
1776870100477148400,8.9421484375,-0.08819972264436073,9.738305947092176,-1.1523929426930843
1776870100487185400,8.952185302734375,-0.1004273725873325,9.73889514515698,-1.146388149320334
1776870100497221400,8.962221435546875,-0.11403355347504839,9.739171624010801,-1.142765063452348
1776870100507258400,8.97225830078125,-0.12730593583113514,9.739179222795366,-1.1412915568336843
1776870100517295600,8.982295654296875,-0.13964113780180923,9.738996851965785,-1.1414142333652824
1776870100527331600,8.99233154296875,-0.15092270253370516,9.738767719385027,-1.1419351884994655
1776870100537368600,9.00236865234375,-0.16111556784659622,9.738634448394178,-1.1416819443907589
1776870100547404500,9.012404541015625,-0.1701007652696222,9.738670104229449,-1.1400590924292802
1776870100557441500,9.022441650390626,-0.1772529933781363,9.738957104477286,-1.136516012994945
1776870100567478500,9.032478515625,-0.18181337836254388,9.739580789333582,-1.130443780409172
1776870100577514500,9.042514404296876,-0.18439354931516572,9.740395028325915,-1.1229899572718889
1776870100587551500,9.052551513671874,-0.1860692457087338,9.741191731661557,-1.1157669472157954
1776870100597588500,9.06258837890625,-0.18805543282357975,9.7418580866158,-1.1096074016727506
1776870100607624400,9.07262451171875,-0.1911343288122676,9.74247241912186,-1.1036770617756992
1776870100617661400,9.082661376953125,-0.19505977689400314,9.743173845389485,-1.0967662594739347
1776870100627697400,9.092697509765625,-0.19902168452860786,9.743940738108753,-1.0892219085089863
1776870100637734400,9.102734375,-0.20207151881959287,9.744708215349911,-1.0817605596523732
1776870100647771600,9.112771728515625,-0.20454050274901092,9.745396197614074,-1.0750867079116404
1776870100657807600,9.1228076171875,-0.2070837757573463,9.74598130402565,-1.069289127548784
1776870100667844600,9.1328447265625,-0.21082455145455894,9.746424371618032,-1.0645056195992977
1776870100677880600,9.142880615234375,-0.2161543499088846,9.746854579728842,-1.059474274368584
1776870100687917600,9.15291748046875,-0.223481697122287,9.74734090194106,-1.053463635776937
1776870100697954300,9.162954345703126,-0.2336907189855352,9.747878077557683,-1.0462630567483604
1776870100707990500,9.172990478515626,-0.24703325310153884,9.748459676837921,-1.0377467189460992
1776870100718027500,9.183027587890624,-0.2628288429254666,9.749043614205718,-1.0283328477822244
1776870100728063500,9.1930634765625,-0.28014649121752006,9.749651516970992,-1.0179409253664313
1776870100738100500,9.2031005859375,-0.2979060015255585,9.750265849477053,-1.006965211713314
1776870100748137500,9.213137451171875,-0.31596093284990634,9.750870245110988,-0.9955365666609257
1776870100758173400,9.22317333984375,-0.3339611383123323,9.751566995203495,-0.9827489812802522
1776870100768210400,9.23321044921875,-0.3519274415051564,9.752335056966542,-0.9687680944617837
1776870100778246400,9.243246337890625,-0.36941790734715757,9.753075646200775,-0.9547044247306883
1776870100788283600,9.25328369140625,-0.38608047099765386,9.753575412416458,-0.9429291581977158
1776870100798320600,9.263320556640625,-0.40291060976739973,9.753619836080073,-0.935387510646507
1776870100808356600,9.273356689453125,-0.42256756946090607,9.753152803090215,-0.9315770855128764
1776870100818397200,9.283397216796875,-0.4476737344710156,9.752287126171588,-0.928909035347402
1776870100828434400,9.293434326171875,-0.4786089344281703,9.751269473561644,-0.9241711931705474
1776870100838470400,9.303470458984375,-0.5143177785279229,9.750200383025406,-0.9162007257480174
1776870100848507400,9.31350732421875,-0.5530813340231776,9.749054720121622,-0.9057780428677796
1776870100858543400,9.32354345703125,-0.594009483673796,9.747731362563371,-0.8940158550120889
1776870100868580400,9.333580322265625,-0.6383454690065234,9.746137371370196,-0.8807325220037251
1776870100878617300,9.343617431640626,-0.6886562178999185,9.744117263719438,-0.8650632437068968
1776870100888653300,9.3536533203125,-0.7474511558916419,9.741405666673183,-0.8466023619301617
1776870100898690600,9.363690673828126,-0.8156932097297162,9.737672325363755,-0.8263119997039436
1776870100908727300,9.373727294921874,-0.8924449524335563,9.732636084762214,-0.8060474295061081
1776870100918763500,9.383763427734374,-0.9739128369390964,9.726316234090923,-0.7878301472268998
1776870100928800300,9.39380029296875,-1.052353628708422,9.719290865498781,-0.7735041732978075
1776870100938836200,9.403836181640624,-1.1210497099243104,9.712328625270723,-0.7644055786281824
1776870100948873200,9.413873291015625,-1.1768781993258743,9.705974872329831,-0.7611823057327419
1776870100958910500,9.423910400390625,-1.219944383918494,9.700461661866306,-0.7636466500196606
1776870100968946400,9.433946533203125,-1.2536021772399544,9.695593179047107,-0.7709259203076362
1776870100978983400,9.4439833984375,-1.282687694209814,9.690958504983783,-0.7812894934117793
1776870100989020400,9.4540205078125,-1.3127217440761625,9.68592694055736,-0.7937037885006517
1776870100999056400,9.464056396484375,-1.3463110022060572,9.680214992651344,-0.807012255950272
1776870101009093400,9.47409326171875,-1.3843442341327667,9.673798111346363,-0.8195244584556669
1776870101019129300,9.48412939453125,-1.428517283988744,9.666576343399285,-0.8288776854734867
1776870101029166300,9.494166259765626,-1.4808257095053792,9.658509356799721,-0.8311026680465787
1776870101039203300,9.504203369140624,-1.5412341471083462,9.649699442878365,-0.8235808211743831
1776870101049239300,9.5142392578125,-1.6063719513207673,9.640509589728712,-0.8065477071784436
1776870101059276300,9.5242763671875,-1.6738550034850834,9.631147887143491,-0.7807507103599608
1776870101069313300,9.534313232421875,-1.745969807103276,9.621170098486543,-0.7450330618992448
1776870101079349200,9.544349365234375,-1.825070524086058,9.60992857350409,-0.6991201095733791
1776870101089386500,9.554386474609375,-1.9078904077224432,9.597781624114512,-0.6425958199273795
1776870101099422500,9.56442236328125,-1.986677090319991,9.585984803336858,-0.5765322791721671
1776870101109459500,9.57445947265625,-2.0571447112530468,9.575449380797147,-0.4992902687333524
1776870101119496400,9.584496337890625,-2.121723128017038,9.565599017912149,-0.4098626208623871
1776870101129532400,9.594532470703125,-2.186451620776206,9.55476081303358,-0.31043047899063675
1776870101139569400,9.6045693359375,-2.2570077967755493,9.541115149518847,-0.20839447476342318
1776870101149606400,9.6146064453125,-2.3314013589806852,9.524830369672179,-0.1120808667710051
1776870101159642400,9.624642333984376,-2.3988968322351574,9.508688213166593,-0.02292308991656173
1776870101169679400,9.634679443359374,-2.452907531625032,9.49472573878765,0.06169451362444087
1776870101179716400,9.64471630859375,-2.496881697908044,9.482317508113384,0.14712947513004765
1776870101189752300,9.65475244140625,-2.5424331965103746,9.468366724172235,0.23758188120517879
1776870101199789300,9.664789306640625,-2.597278593158722,9.450518348270654,0.3350284022176638
1776870101209825300,9.6748251953125,-2.658107448130846,9.429241751486062,0.44075043801385905
1776870101219862500,9.684862548828125,-2.7136101396441457,9.40738764707446,0.5547723558500409
1776870101229899500,9.6948994140625,-2.755743938757479,9.387162605169415,0.6763476482078432
1776870101239935500,9.704935546875,-2.7839623175039887,9.368515772366523,0.8067669759523123
1776870101249972200,9.71497216796875,-2.803146618184447,9.349567326268554,0.9478191952615975
1776870101260009200,9.72500927734375,-2.821360612528026,9.327389981251955,1.100049080536887
1776870101270045200,9.735045166015626,-2.8451272725626824,9.299904592955112,1.2599284576520322
1776870101280082400,9.74508251953125,-2.877159364378452,9.266777983900903,1.4209775361336767
1776870101290119400,9.755119384765624,-2.9144463079825043,9.230461638894676,1.573207786735147
1776870101300155400,9.7651552734375,-2.956116873498261,9.192661192810535,1.7107716524720191
1776870101310192400,9.7751923828125,-3.0057904204666612,9.15209011296928,1.8370831795714795
1776870101320228400,9.785228271484375,-3.0654610453143714,9.107076666766405,1.958187201155722
1776870101330265300,9.795265380859375,-3.132040426637232,9.057592797151207,2.0786369966149327
1776870101340302600,9.805302490234375,-3.1984616947889326,9.005528263393044,2.200156174871325
1776870101350338600,9.815338623046875,-3.262794466228783,8.95236249039471,2.319430058418959
1776870101360375300,9.825375244140625,-3.328962344141304,8.89842924015522,2.4302976404100654
1776870101370412300,9.835412353515625,-3.39930020121485,8.84292654864192,2.533334821036458
1776870101380448300,9.8454482421875,-3.47150355989933,8.785696594944596,2.632599497386813
1776870101390485200,9.8554853515625,-3.54156289229244,8.727198228746651,2.731983123941719
1776870101400522500,9.8655224609375,-3.60782604727298,8.667015270462631,2.8349276578485965
1776870101410558500,9.875558349609374,-3.67293301795572,8.603726747378706,2.942078703534603
1776870101420595500,9.885595458984374,-3.7407813963010903,8.536254216608405,3.051117754924297
1776870101430632400,9.895632568359375,-3.8155084282442924,8.46393833746016,3.1581682628452774
1776870101440668400,9.90566845703125,-3.9025408150091767,8.385140110555291,3.2603649009943005
1776870101450705400,9.915705322265625,-4.00104327481538,8.300100943434238,3.3571365914851423
1776870101460741400,9.925741455078125,-4.104375931257009,8.210881275758148,3.4504932128354904
1776870101470778400,9.9357783203125,-4.207839812862873,8.119298386082052,3.5413922119006513
1776870101480815400,9.9458154296875,-4.3154517540588975,8.023445564001799,3.6292674792304633
1776870101490851300,9.955851318359375,-4.428296627472341,7.921148388087749,3.7169860946938393
1776870101500888300,9.965888427734376,-4.544883902284503,7.813715602850913,3.802665021023154
1776870101510925300,9.97592529296875,-4.666297282078862,7.703840100637078,3.879033098171651
1776870101520961300,9.985961181640626,-4.7939621234834195,7.592340212091803,3.942675256998837
1776870101530998500,9.99599853515625,-4.9225604463458055,7.481122647619247,3.9964471791967746
1776870101541035500,10.006035400390624,-5.046066414505243,7.37249802224934,4.043991605181992
1776870101551071500,10.016071533203124,-5.160675374981761,7.266042557612061,4.091751427483558
1776870101561108200,10.026108154296875,-5.266000374284387,7.158458381205797,4.146819234710931
1776870101571145200,10.036145263671875,-5.367040828135609,7.045709369382262,4.20989791443646
1776870101581181200,10.04618115234375,-5.461988810330629,6.927790261444449,4.28284653853029
1776870101591218400,10.056218505859375,-5.546682525014877,6.808237414824962,4.364928024889529
1776870101601255400,10.06625537109375,-5.616955500158667,6.692703156197071,4.452856483711302
1776870101611291400,10.07629150390625,-5.674439720878005,6.582994242721796,4.542609235350787
1776870101621328400,10.086328369140626,-5.719137525260448,6.477167139115929,4.637688442710042
1776870101631365400,10.096365478515626,-5.762240169405937,6.369650767248869,4.732285419510305
1776870101641401300,10.1064013671875,-5.817800728586316,6.2497723419368265,4.8232700510323046
1776870101651438600,10.1164384765625,-5.878766946202516,6.122438339921832,4.911846744629741
1776870101661474600,10.126474609375,-5.944733164063096,5.993730126944184,4.990564892035723
1776870101671511300,10.13651123046875,-6.021025545626879,5.864795119473338,5.051913971489667
1776870101681548300,10.14654833984375,-6.101915776374936,5.730042950156331,5.109170228672027
1776870101691584300,10.156584228515625,-6.1784770380079745,5.587841633877158,5.174247973260283
1776870101701621200,10.166621337890625,-6.24346242813766,5.44682455894649,5.246109094378352
1776870101711658500,10.176658447265625,-6.297302154874801,5.3130052865654225,5.318489855456352
1776870101721694500,10.186694580078125,-6.3442795946270225,5.187975469839572,5.385667202672362
1776870101731731500,10.1967314453125,-6.385995168328285,5.066689515817165,5.451431760480999
1776870101741768400,10.2067685546875,-6.426058883169293,4.945850136518478,5.51495350779891
1776870101751804400,10.216804443359376,-6.469954138997196,4.82683183516711,5.568821291586756
1776870101761841400,10.22684130859375,-6.509903872069716,4.707781385111809,5.62390663447082
1776870101771878400,10.23687841796875,-6.544983368757367,4.586918624937534,5.682759220933914
1776870101781914400,10.246914306640624,-6.595442220884562,4.4631984295055265,5.722795463246107
1776870101791951400,10.256951416015625,-6.6325640370547765,4.343503251805902,5.771781904733181
1776870101801988400,10.26698828125,-6.664622140094638,4.224662060587108,5.822836969187855
1776870101812024300,10.2770244140625,-6.703600397786498,4.111453906819224,5.859016536071896
1776870101822063900,10.28706396484375,-6.743537271377444,4.001704953594506,5.889095447993278
1776870101832099800,10.297099853515626,-6.775414172631502,3.8960844784766433,5.923232110872864
1776870101842136800,10.30713671875,-6.800946088773012,3.79647171934098,5.958550092491508
1776870101852173800,10.317173828125,-6.82668551018536,3.701044429196417,5.98907499461472
1776870101862209800,10.327209716796874,-6.842821236950159,3.614118717676401,6.023647126302123
1776870101872247000,10.3372470703125,-6.846090467879176,3.538250114482641,6.064834292215108
1776870101882284000,10.347283935546875,-6.837905407857894,3.4739816404506563,6.11104659281373
1776870101892320000,10.357320068359375,-6.822426683697104,3.420724974298477,6.158206987917423
1776870101902356700,10.367356689453125,-6.804294814679026,3.3776737680792808,6.201877202817797
1776870101912393700,10.377393798828125,-6.782962103793024,3.341253670437634,6.244824364140629
1776870101922429700,10.3874296875,-6.76219462557435,3.3110075852558016,6.283337926930189
1776870101932467000,10.397467041015625,-6.744568367990851,3.290266118261218,6.313107042250037
1776870101942504000,10.40750390625,-6.727911832222342,3.2774311866074797,6.337509662100673
1776870101952540000,10.417539794921876,-6.709498223653435,3.2722058531746265,6.359691683292389
1776870101962577000,10.427576904296876,-6.6945251109272235,3.276537452638149,6.373226872169971
1776870101972614000,10.43761376953125,-6.68145753956139,3.2885192745938894,6.38076428193748
1776870101982649900,10.44764990234375,-6.6695455679714675,3.3066353615209456,6.383862832474708
1776870101992686800,10.457686767578124,-6.656930416548252,3.332696854494512,6.383477632549405
1776870102002723800,10.467723876953125,-6.645317720165848,3.369299322965741,6.376358740454912
1776870102012759800,10.477759765625,-6.632279374894499,3.413427510766685,6.3664563551217315
1776870102022796800,10.487796875,-6.615145869264007,3.4627979831352826,6.3576137079745525
1776870102032833800,10.497833740234375,-6.599336305713654,3.5190608453661203,6.343134516245127
1776870102042869800,10.507869873046875,-6.5877826460421085,3.580041383768618,6.320981721147895
1776870102052906800,10.51790673828125,-6.576698941969871,3.6465389320269224,6.294455533272028
1776870102062944000,10.527944091796876,-6.567248392057419,3.71725526702404,6.262877907225489
1776870102072980000,10.53797998046875,-6.563297608605027,3.794176009619236,6.220750245591998
1776870102083017000,10.548016845703126,-6.564544978317618,3.8770261422634125,6.168128077951073
1776870102093053700,10.5580537109375,-6.559816196230053,3.9637855573058127,6.117810095599293
1776870102103090000,10.56808984375,-6.550293750125169,4.053911818432808,6.068759356704354
1776870102113126700,10.578126708984374,-6.542070696181058,4.1461613553240895,6.015068098527193
1776870102123164000,10.588163818359375,-6.536135460913181,4.240811815877258,5.955234684333205
1776870102133200000,10.598199951171875,-6.533201745548844,4.339887107135355,5.886683126154542
1776870102143236900,10.60823681640625,-6.527939294975996,4.443332576301693,5.814910267841816
1776870102153273900,10.61827392578125,-6.52073214007616,4.550556102702021,5.739588192614913
1776870102163310800,10.628310791015625,-6.513055029577017,4.658875023123621,5.660864784511923
1776870102173346800,10.638346923828125,-6.5010612249225375,4.767098374216258,5.584028797590732
1776870102183384000,10.648384033203126,-6.485084488111734,4.875827921265364,5.508208709713816
1776870102193420800,10.6584208984375,-6.470275626036524,4.986586636054516,5.425851913544535
1776870102203456800,10.668456787109376,-6.452931692525744,5.099270765948296,5.341114359718561
1776870102213493800,10.67849365234375,-6.427772701349854,5.215156906753778,5.258921814200281
1776870102223530800,10.68853076171875,-6.398695075425505,5.333644169968366,5.174873996204138
1776870102233566700,10.698566650390624,-6.365799937039613,5.451768445089459,5.091679580166936
1776870102243604000,10.70860400390625,-6.328267786502837,5.56782585080862,5.01225825292766
1776870102253641000,10.718640869140625,-6.28947248416245,5.682570420363545,4.931664374777674
1776870102263677000,10.728677001953125,-6.249533857005834,5.796314288443327,4.849376844452321
1776870102273714000,10.7387138671875,-6.2058455219268795,5.910003795987367,4.76756979112029
1776870102283750700,10.748750732421875,-6.156313721516728,6.024971068382263,4.687207675899565
1776870102293787000,10.758786865234375,-6.101345283010602,6.142376381579041,4.605993035502731
1776870102303824000,10.768823974609376,-6.041548693695664,6.2619987863034,4.522989465862512
1776870102313860900,10.77886083984375,-5.976567979741096,6.382154859513044,4.440621271516383
1776870102323896800,10.788896728515626,-5.906439381504058,6.501452854588628,4.3606732900545
1776870102333933800,10.798933837890624,-5.8332210005581375,6.618899668839574,4.281832977573574
1776870102343970800,10.808970703125,-5.757288684478402,6.7334039998978374,4.2053877435356375
1776870102354006800,10.8190068359375,-5.677551715418696,6.845628695586323,4.131968579320609
1776870102364044000,10.8290439453125,-5.593575793614983,6.9552435010373586,4.062866693782806
1776870102374081000,10.8390810546875,-5.506252314949036,7.061544067373871,3.9982711797535417
1776870102384117000,10.849116943359375,-5.416613545078039,7.165036590552329,3.9361072767853735
1776870102394153700,10.85915380859375,-5.32352901866734,7.266759765970707,3.876161342127621
1776870102404190700,10.869190673828125,-5.2265141670703885,7.367242585939168,3.8180706799477337
1776870102414226700,10.879226806640625,-5.127567470628023,7.4679218052625655,3.75614058573544
1776870102424264000,10.889263916015626,-5.0296986325502395,7.568984470945597,3.685509590934217
1776870102434301000,10.899301025390624,-4.933316233637929,7.6689575878262515,3.6083050629615783
1776870102444337000,10.9093369140625,-4.836708209276199,7.765700636744499,3.5313635698392987
1776870102454374000,10.919373779296874,-4.739546350423991,7.857848759087919,3.4585122686401006
1776870102464411000,10.929410888671875,-4.640550261881947,7.9462407437682145,3.3901229152858257
1776870102474446800,10.93944677734375,-4.538439256189763,8.032308669415116,3.3249031318783757
1776870102484483800,10.94948388671875,-4.432095727494358,8.117145007440447,3.261725667953491
1776870102494520800,10.959520751953125,-4.322285107210278,8.201483332815766,3.197483789667487
1776870102504556800,10.969556884765625,-4.211800240926444,8.2850670404315,3.1287028066471216
1776870102514593800,10.97959375,-4.1046667308971285,8.365342354151606,3.056654054002464
1776870102524630800,10.989630859375,-4.002673506365716,8.440707099476457,2.9838638353407383
1776870102534666800,10.999666748046875,-3.9049408618882295,8.511840490841864,2.9103944022431967
1776870102544704000,11.0097041015625,-3.810529763048887,8.580065885806084,2.83420314296633
1776870102554741000,11.019740966796874,-3.7168148297801613,8.647041572970151,2.7539649463862177
1776870102564777000,11.02977685546875,-3.6232673620328306,8.713256212633848,2.668608968400955
1776870102574814000,11.03981396484375,-3.5308415917918086,8.778344478616118,2.5776351505339146
1776870102584850700,11.0498505859375,-3.441049969446659,8.84130333135426,2.4821219356715676
1776870102594886700,11.05988671875,-3.353791664971411,8.90107653979361,2.386067015147954
1776870102604924000,11.069923828125,-3.2655659767687317,8.958430996653437,2.2919395555555817
1776870102614961000,11.0799609375,-3.175764417551458,9.014555034935475,2.1960653984263536
1776870102624996900,11.089996826171875,-3.087249098752439,9.069536917445063,2.0935067950971424
1776870102635033900,11.100033935546875,-3.0037682669892907,9.122505706566571,1.9818324267677963
1776870102645070800,11.11007080078125,-2.926470215514302,9.172840055531262,1.86149515177235
1776870102655106800,11.12010693359375,-2.8505653719633814,9.221216840687394,1.7360364421099423
1776870102665144000,11.13014404296875,-2.7730110076397656,9.267776347288489,1.609077118626237
1776870102675180800,11.140180908203124,-2.6959783291026946,9.311534240472316,1.4823744002521038
1776870102685217000,11.150217041015624,-2.6205802660301325,9.352345558810233,1.3552078637585043
1776870102695253800,11.160253662109374,-2.544976451252401,9.391039738863705,1.2255031140241772
1776870102705290800,11.170290771484375,-2.4676184862837194,9.428142265811562,1.0915076082933695
1776870102715326700,11.18032666015625,-2.3905358311250806,9.463103104555607,0.9515369006104767
1776870102725364000,11.190364013671875,-2.316009728581458,9.495213814565538,0.8046069483742118
1776870102735401000,11.20040087890625,-2.2441714038170875,9.524173951590061,0.6513028579961508
1776870102745437000,11.21043701171875,-2.1742261993229386,9.549878301689029,0.4929023943271488
1776870102755474000,11.220473876953125,-2.1034216015204787,9.572672901821136,0.3315807094492018
1776870102765511000,11.230510986328126,-2.0284743509553373,9.593079730033875,0.16888830247363074
1776870102775547000,11.240546875,-1.9481325478702782,9.61119815504849,0.00694911531418038
1776870102785583900,11.250583984375,-1.8648476770706475,9.626511459514498,-0.15164626756790092
1776870102795620900,11.260620849609374,-1.7825452414371072,9.638487728512287,-0.3041117242978886
1776870102805656800,11.27065673828125,-1.7031760827764868,9.647230422416328,-0.44782059559579934
1776870102815688000,11.28068798828125,-1.6277601917862892,9.653209496825934,-0.5799379228971898
1776870102825725000,11.290724853515625,-1.5561055530257522,9.657155604103208,-0.6987628205683082
1776870102835761000,11.300760986328125,-1.4852268670737743,9.660126728868484,-0.8040180425703525
1776870102845798000,11.3107978515625,-1.4119753145106135,9.66302303483188,-0.8959316985707729
1776870102855835000,11.3208349609375,-1.3356890704266726,9.666352471515536,-0.9736180187109857
1776870102865870800,11.330870849609376,-1.2580844372205435,9.670155370929837,-1.0371608088169246
1776870102875907800,11.340907958984374,-1.1819720883987843,9.674180388662219,-1.0879046153653413
1776870102885944800,11.35094482421875,-1.1108352629672735,9.678047585484386,-1.1277531530857086
1776870102895980800,11.360980712890624,-1.0457827989507467,9.681559392997622,-1.1593789291229097
1776870102906017800,11.371017822265625,-0.9866307911496609,9.684743868252635,-1.1843567915782331
1776870102916055000,11.381054931640625,-0.9335234703402966,9.687648357522487,-1.2034925038766116
1776870102926091000,11.391091064453125,-0.8843947708383202,9.690733464056253,-1.2157052119787781
1776870102936128000,11.4011279296875,-0.836512052809447,9.69428151192665,-1.2212952870707958
1776870102946164700,11.411164794921875,-0.7868655399784446,9.698283148783444,-1.2225080969266593
1776870102956201000,11.421200927734375,-0.734006275646016,9.702577631106973,-1.2213191063378006
1776870102966237700,11.43123779296875,-0.6774910460893064,9.707053315216303,-1.218412571241334
1776870102976275000,11.44127490234375,-0.6184916715666652,9.711530168369412,-1.2141034028053284
1776870102986311000,11.451310791015626,-0.5589492031432688,9.715124977990984,-1.2142126353334635
1776870102996348000,11.461347900390624,-0.5012397953659296,9.716822429558635,-1.2257663680702446
1776870103006385000,11.471385009765624,-0.4555764704195782,9.716856331828236,-1.2431906733408569
1776870103016420900,11.4814208984375,-0.42718112767096605,9.71602923335433,-1.2596318127930164
1776870103026457900,11.491457763671875,-0.4146323194822296,9.714616443946957,-1.274641750398278
1776870103036494800,11.501494873046875,-0.4104769899010658,9.712479431918263,-1.2921448199935257
1776870103046531000,11.511531005859375,-0.4066897629799321,9.709660867366194,-1.3143296176642179
1776870103056567800,11.52156787109375,-0.39640148360170424,9.706735919830203,-1.3388498725451528
1776870103066604800,11.531604736328125,-0.3764586196389049,9.704162854471802,-1.3630387035146354
1776870103076640800,11.541640869140625,-0.34427889951337126,9.702308166515827,-1.3845895871959626
1776870103086677800,11.551677734375,-0.2983717376074754,9.701298697212337,-1.4022037159502505
1776870103096715000,11.561715087890626,-0.2362235071324743,9.70105319801867,-1.4156917046852409
1776870103106751000,11.5717509765625,-0.15447609329950063,9.70138988262713,-1.4246337205536663
1776870103116788000,11.5817880859375,-0.04962291732628364,9.701901923802495,-1.4286447097606956
1776870103126825000,11.591824951171875,0.07363063784150872,9.702008306786418,-1.4268888060040772
1776870103136861000,11.60186083984375,0.20395121335266156,9.701171271440387,-1.4198888641141354
1776870103146898000,11.61189794921875,0.32509156662560995,9.699034259411691,-1.4118955272726714
1776870103156935000,11.621934814453125,0.42345198761262,9.694848498159647,-1.4145735143102705
1776870103166971000,11.631970947265625,0.477783991378732,9.690356447437406,-1.4279668104991317
1776870103177007900,11.6420078125,0.4755374545609578,9.688488315477967,-1.4413275195926427
1776870103187044900,11.652044921875,0.4227931218450889,9.690942138370872,-1.4412791504062712
1776870103197080800,11.662080810546875,0.34562140016350895,9.69638812881708,-1.4251273492895067
1776870103207117800,11.672117919921876,0.2687556756911799,9.702345575916766,-1.4009431944951414
1776870103217155000,11.682155029296876,0.20627563771223648,9.70743150087893,-1.376078656221181
1776870103227191000,11.69219091796875,0.16053696424104272,9.711302789354324,-1.3546994758449493
1776870103237228000,11.70222802734375,0.12607117900494486,9.714232997587322,-1.3372301623888312
1776870103247264800,11.7122646484375,0.09601148324068635,9.716147306776046,-1.325757166738063
1776870103257300700,11.72230078125,0.06828294753746594,9.716618431419134,-1.3240328271634876
1776870103267337700,11.732337646484375,0.044278980748751195,9.715594349068402,-1.3325351364403963
1776870103277375000,11.742375,0.026145714358030817,9.713483640524744,-1.348315473896265
1776870103287411000,11.752410888671875,0.015326812401553615,9.710700147286056,-1.3683756806284189
1776870103297448000,11.762447998046875,0.011018445399857591,9.707630822843313,-1.3900254946395754
1776870103307485000,11.77248486328125,0.012228226473351242,9.70440776914358,-1.4123312883414327
1776870103317521000,11.78252099609375,0.018128113008278886,9.70127414729297,-1.4336355037853121
1776870103327558000,11.792557861328126,0.026077569608821065,9.698490069532394,-1.4522330906189977
1776870103337594600,11.8025947265625,0.03608437658098992,9.696396896645426,-1.4659317994952201
1776870103347631000,11.812631103515624,0.047430371151492,9.695116793707012,-1.474061622197926
1776870103357667800,11.822667724609374,0.061743622596329074,9.694648007151484,-1.4766077995494007
1776870103367704800,11.832704833984375,0.08017811868963763,9.695375152382255,-1.4709355991318822
1776870103377740800,11.84274072265625,0.10032839659173041,9.697709732809662,-1.4542109665632248
1776870103387777800,11.85277783203125,0.11966027078302577,9.701270640161633,-1.4287740352287888
1776870103397814800,11.862814697265625,0.13556225272403097,9.705066525313258,-1.401318019156903
1776870103407851000,11.87285107421875,0.14672343334611504,9.708310621801019,-1.3775237404629588
1776870103417888000,11.882887939453125,0.151846438915655,9.710758014953136,-1.3596058064565062
1776870103427925000,11.892925048828126,0.15036963522820732,9.712470664089917,-1.347468793939054
1776870103437961000,11.9029609375,0.1428198774357792,9.713643215000628,-1.3398184253163634
1776870103447997700,11.912997802734376,0.13140844837967305,9.714236504718661,-1.3366777892030774
1776870103458034000,11.923033935546876,0.11872685325727797,9.714128952690958,-1.3386591722786425
1776870103468071000,11.93307080078125,0.10722204682929441,9.713549106976389,-1.3438256151311099
1776870103478108000,11.94310791015625,0.09849653238891623,9.712869308018684,-1.3493924554780126
1776870103488144000,11.953143798828124,0.0930614834618289,9.71207260468304,-1.3555036318346858
1776870103498180900,11.963180908203125,0.09107002651682124,9.710784318438172,-1.3648399077177047
1776870103508217900,11.9732177734375,0.09184911199738272,9.708910925781726,-1.3780417729876935
1776870103518253800,11.98325390625,0.09343070036671124,9.706614339277147,-1.394018509798497
1776870103528290800,11.993290771484375,0.09398772232811897,9.704188573434948,-1.4107710532873867
1776870103538327800,12.003327880859375,0.09281173735130578,9.701840549004077,-1.4269070723131299
1776870103548364000,12.013364013671875,0.09027024530810303,9.699763158208132,-1.4411260056711732
1776870103558400000,12.02339990234375,0.08865221565221436,9.698083242297171,-1.4524755210727451
1776870103568436700,12.033436767578126,0.08939306974792853,9.696869774854182,-1.4605236568413673
1776870103578473700,12.0434736328125,0.09213391115497797,9.696066641777753,-1.4656740253418683
1776870103588509700,12.053509765625,0.09481368829086423,9.695699562031031,-1.4679348098807037
1776870103598547000,12.063546875,0.09592628004211,9.695835171109437,-1.4669637728914617
1776870103608584000,12.073583984375,0.09557636149274185,9.696473469012975,-1.4627581378951668
1776870103618620000,12.083619873046874,0.09443658034047112,9.697523854848741,-1.455849673680961
1776870103628657000,12.093656982421875,0.09331934894672594,9.69875778055787,-1.4476878484047948
1776870103638694000,12.10369384765625,0.09176893203379585,9.700041390627621,-1.4391583588600159
1776870103648729900,12.113729736328125,0.08902197141321376,9.70133143043816,-1.430613087224215
1776870103658766800,12.123766845703125,0.0844362236586865,9.70259984293878,-1.4222523783750831
1776870103668803800,12.133803955078125,0.07821053581056185,9.703883453008531,-1.413829564075172
1776870103678839800,12.14383984375,0.07078747770430054,9.705243050923944,-1.404860367938876
1776870103688876800,12.153876708984376,0.06294540873467921,9.706732412698864,-1.3949046449832618
1776870103698913800,12.163913818359376,0.05511435891599394,9.708346862158178,-1.3839533351190387
1776870103708949800,12.17394970703125,0.04762458311591763,9.71002268641591,-1.3724259789325297
1776870103718986800,12.18398681640625,0.0407189821456559,9.711505618450046,-1.362119104451686
1776870103729024000,12.19402392578125,0.03381540416912176,9.712517425841092,-1.3550782460294664
1776870103739060000,12.20406005859375,0.024106933972844854,9.712978029090166,-1.3519883171901106
1776870103749097000,12.214096923828125,0.008063242577030906,9.71319371766746,-1.3506190746635198
1776870103759133700,12.2241337890625,-0.014934686120186233,9.71341642050743,-1.3489669235423207
1776870103769170000,12.234169921875,-0.04076989034898579,9.7137355694592,-1.3461302388116716
1776870103779206700,12.24420654296875,-0.06456558924845886,9.714063486239313,-1.3428281285263597
1776870103789243000,12.254242919921875,-0.08362660604254342,9.714244103503226,-1.3404669523529709
1776870103799279900,12.26427978515625,-0.09841841651825234,9.714223060715199,-1.339605074826628
1776870103809316900,12.27431689453125,-0.11016477661714888,9.71412544555962,-1.3394038531661032
1776870103819352600,12.2843525390625,-0.1196042754126247,9.714015555444359,-1.3393946469463407
1776870103829389600,12.2943896484375,-0.1269926960303448,9.714021985185147,-1.3386726162821054
1776870103839426600,12.304426513671874,-0.13289740829579533,9.714323013958335,-1.3359104580923915
1776870103849462500,12.314462646484374,-0.1379740539729595,9.714999890306592,-1.3304707512564957
1776870103859499500,12.32449951171875,-0.14360123707181774,9.716081255802512,-1.3219405310593544
1776870103869536500,12.33453662109375,-0.15097637808285652,9.717459558418392,-1.310948158532381
1776870103879572700,12.34457275390625,-0.16063543791314586,9.71890040487647,-1.2990547455124557
1776870103889609500,12.354609375,-0.17283729582773522,9.720250650441645,-1.287341072973609
1776870103899646500,12.364646484375,-0.18896449222620576,9.721349551594257,-1.2767426682002843
1776870103909682400,12.374682373046875,-0.2103069573212415,9.722114106225966,-1.267550184702128
1776870103919719400,12.384719482421875,-0.23739315370004624,9.722719086381792,-1.2580801994368433
1776870103929756700,12.394756591796876,-0.2713945362947881,9.723212422856689,-1.247346770107001
1776870103939792600,12.404792724609376,-0.31274891200084237,9.723628602442146,-1.2343567940220237
1776870103949829600,12.41482958984375,-0.3600553645117208,9.723895728945731,-1.2192618084818123
1776870103959866600,12.42486669921875,-0.4111675294484943,9.724014386889339,-1.2020187780622391
1776870103969902600,12.434902587890624,-0.46250984987933186,9.724013802367448,-1.1832292488530278
1776870103979939600,12.444939697265625,-0.5109646321751177,9.72391969434321,-1.1639271670117974
1776870103989975600,12.4549755859375,-0.5557774047067389,9.7236198346138,-1.1457388185661286
1776870104000012500,12.465012451171875,-0.5995477189807221,9.722988550972937,-1.1289014463379978
1776870104010049500,12.475049560546875,-0.6476416320748627,9.721891987907886,-1.111652278438583
1776870104020085500,12.48508544921875,-0.7051769253943115,9.72000222863853,-1.093014067333564
1776870104030122500,12.49512255859375,-0.774370069412142,9.71686860678792,-1.0738681989673524
1776870104040159500,12.505159423828125,-0.8556467421945184,9.712010060840845,-1.0559934465155005
1776870104050195500,12.515195556640625,-0.9456944581925868,9.705277537715434,-1.0409813900183886
1776870104060232700,12.525232666015626,-1.0374117148380726,9.697000123235583,-1.0307071026328951
1776870104070269700,12.535269775390624,-1.124740892592445,9.687725514411925,-1.0263193160027264
1776870104080305700,12.5453056640625,-1.2038269234627486,9.677799163681268,-1.0302332015108318
1776870104090342400,12.55534228515625,-1.275000354577601,9.667188337817787,-1.044141899875924
1776870104100379400,12.56537939453125,-1.3419022458530963,9.655516604724525,-1.068035620356351
1776870104110415400,12.575415283203125,-1.4099452699877322,9.642263739919661,-1.0996318780381231
1776870104120452600,12.58545263671875,-1.4847985586591064,9.626855158385634,-1.1355281710013747
1776870104130489600,12.595489501953125,-1.5710921097554265,9.609167526003718,-1.16874121623002
1776870104140525600,12.605525634765625,-1.6705710133783518,9.589773089703916,-1.1898892912641168
1776870104150562600,12.6155625,-1.7769374845579267,9.570376315316558,-1.191957037448883
1776870104160599600,12.625599609375,-1.879124916487187,9.553034719893336,-1.1742205244239419
1776870104170635500,12.635635498046875,-1.9661855064332483,9.540338319927454,-1.1342117546405643
1776870104180672800,12.6456728515625,-2.03682000836581,9.533974630114436,-1.0606930755738169
1776870104190709500,12.65570947265625,-2.1025652769520877,9.53204570787847,-0.943240781430155
1776870104200745500,12.665745361328124,-2.1736855165749787,9.530641686299443,-0.7825327714711428
1776870104210782500,12.675782470703124,-2.249407258643955,9.526640049442648,-0.5947210294766351
1776870104220818400,12.685818359375,-2.3228018729396163,9.51897170677185,-0.4051659144135192
1776870104230855400,12.69585546875,-2.3883787992216647,9.50832347150743,-0.24044150841999798
1776870104240892700,12.705892578125,-2.4477568708635866,9.495541731345654,-0.11641286809332668
1776870104250928600,12.7159287109375,-2.5058324816048145,9.481051433700323,-0.029002914437034632
1776870104260965600,12.725965576171875,-2.566861827585101,9.464666700610518,0.04083360780153889
1776870104271002600,12.736002685546875,-2.635369254361093,9.445244791781901,0.11214190364270471
1776870104281038600,12.74603857421875,-2.715288301989436,9.421174180364607,0.1976837321894243
1776870104291075600,12.75607568359375,-2.8026629263207314,9.392756479653716,0.3026368294397369
1776870104301112300,12.7661123046875,-2.886652876649797,9.362472400549054,0.42630416217334566
1776870104311148500,12.7761484375,-2.957743013395369,9.332654769912361,0.568947523131594
1776870104321185500,12.786185546875,-3.018853315657377,9.3017925986588,0.73044354166314
1776870104331222500,12.796222412109374,-3.0779902720198034,9.266716609102486,0.9079243341814726
1776870104341258500,12.806258544921874,-3.1370790053263304,9.226468185344338,1.0960876295600086
1776870104351295500,12.81629541015625,-3.1891911776185036,9.183913238209486,1.2865358940705656
1776870104361332500,12.82633251953125,-3.22764482691437,9.142647746363282,1.471277982828766
1776870104371368700,12.83636865234375,-3.253303876566887,9.103774702611565,1.6455065686181187
1776870104381405700,12.84640576171875,-3.277149447056651,9.063675331935286,1.8112028883837163
1776870104391442400,12.8564423828125,-3.3112264887034892,9.017122839596867,1.9742513239890336
1776870104401478700,12.866478759765625,-3.361460007642209,8.961794920128584,2.134764980419725
1776870104411515400,12.876515380859376,-3.4273189657360312,8.899103778415919,2.2868777421213684
1776870104421551400,12.88655126953125,-3.505519226747751,8.832026384443044,2.424258360245824
1776870104431588600,12.896588623046876,-3.589684825904667,8.764209570279718,2.544246675673127
1776870104441625600,12.90662548828125,-3.6739357652574776,8.698917306157947,2.6460209967568513
1776870104451661600,12.91666162109375,-3.75881740372926,8.63546277885735,2.7332155883461233
1776870104461698600,12.926698486328124,-3.846610545733571,8.570796537679433,2.8134350802257657
1776870104471735600,12.936735595703125,-3.9372181606367227,8.501399760848283,2.8973960967212915
1776870104481771500,12.946771484375,-4.028510542933643,8.425553369486332,2.9919129940226674
1776870104491808500,12.95680859375,-4.115856817953288,8.34485720000565,3.0973315168276425
1776870104501845500,12.966845458984375,-4.1948520287349815,8.261960305610298,3.211480750837922
1776870104511881500,12.976881591796875,-4.261668141423166,8.179782373139261,3.331626594914496
1776870104521918500,12.98691845703125,-4.31796461366266,8.100014424419403,3.4518589482307434
1776870104531955500,12.99695556640625,-4.376236185367405,8.01956200056672,3.5644878408059477
1776870104541991400,13.006991455078126,-4.450278742177784,7.933466017869114,3.6640851101115346
1776870104552028400,13.0170283203125,-4.542128758357465,7.84035343440771,3.7507740902662277
1776870104562065700,13.027065673828124,-4.64470445895195,7.743200635644793,3.826219499611854
1776870104572101600,13.0371015625,-4.756426465815306,7.642644165918231,3.890601955412328
1776870104582138600,13.047138671875,-4.877115622988343,7.535890010595321,3.948987216624617
1776870104592175400,13.05717529296875,-5.00271008785963,7.4240651278793806,4.003315311400592
1776870104602211600,13.067211669921875,-5.133818932238221,7.308822545674443,4.049121953807771
1776870104612248300,13.077248291015625,-5.2707911156922576,7.18913175188899,4.087239210756123
1776870104622284500,13.087284423828125,-5.408582798835635,7.067019283914566,4.120053392860293
1776870104632321500,13.097321533203125,-5.545720986506343,6.942250163951516,4.149762886947393
1776870104642358500,13.107358642578125,-5.682049026837944,6.815168675392866,4.175905920724571
1776870104652394500,13.11739453125,-5.8151639503419394,6.68324968367517,4.2057594994574785
1776870104662431500,13.127431396484376,-5.944058041280508,6.545148203930259,4.242591977292299
1776870104672468500,13.137468505859376,-6.066002751472592,6.404882824149728,4.283862145313621
1776870104682504400,13.14750439453125,-6.175158707240223,6.266318987590074,4.332556033594906
1776870104692541700,13.157541748046874,-6.269883986595272,6.1327551512748,4.387282772299647
1776870104702578400,13.167578369140625,-6.349497037014364,6.002974925151467,4.451805221092701
