time,seconds_elapsed,z,y,x
1776814964143903200,0.3439033203125,0.05987096577882767,2.4548778533935547,-1.2208541631698608
1776814964153941200,0.353941162109375,0.015182055532932281,2.188035249710083,-1.2610630989074707
1776814964163978200,0.363978271484375,-0.05991583317518234,1.7227360010147095,-1.264357566833496
1776814964174016300,0.374016357421875,-0.189697265625,1.220747709274292,-1.2126415967941284
1776814964184054000,0.384053955078125,-0.3682433068752289,0.8869436383247375,-1.0810273885726929
1776814964194091300,0.39409130859375,-0.3798070251941681,0.5965333580970764,-0.771303117275238
1776814964204129300,0.40412939453125,-0.27809301018714905,0.4877661168575287,-0.3083363175392151
1776814964214167000,0.4141669921875,-0.18620650470256805,0.7326131463050842,0.1504538655281067
1776814964224204300,0.424204345703125,-0.18659164011478424,1.013566017150879,0.42515233159065247
1776814964234242300,0.4342421875,-0.2834028899669647,1.2336994409561157,0.5475464463233948
1776814964244280300,0.4442802734375,-0.40590792894363403,1.4252128601074219,0.5307960510253906
1776814964254318300,0.454318359375,-0.4974026679992676,1.4525229930877686,0.3768403232097626
1776814964264355000,0.46435498046875,-0.5945310592651367,1.3317186832427979,0.2319427728652954
1776814964274393300,0.474393310546875,-0.6495642066001892,1.1380047798156738,0.12817057967185974
1776814964284431000,0.48443115234375,-0.5820596814155579,1.0439456701278687,-0.03198239952325821
1776814964294468000,0.494468017578125,-0.38185572624206543,1.1982824802398682,-0.24638018012046814
1776814964304506400,0.50450634765625,-0.16075733304023743,1.7561089992523193,-0.4704093933105469
1776814964314544000,0.514544189453125,-0.011493276804685593,2.5248053073883057,-0.6808832883834839
1776814964324581000,0.5245810546875,0.08783075213432312,3.016000986099243,-0.7515122890472412
1776814964334619400,0.534619384765625,-0.052403856068849564,3.1514430046081543,-0.6650344133377075
1776814964344657200,0.5446572265625,-0.2820292115211487,2.946880578994751,-0.41654500365257263
1776814964354695400,0.5546953125,-0.5432901382446289,2.200556755065918,-0.02720709703862667
1776814964364732200,0.564732177734375,-0.9257218241691589,1.5248733758926392,0.5172255635261536
1776814964374770200,0.574770263671875,-1.038204550743103,0.8350693583488464,0.8154218792915344
1776814964384808200,0.58480810546875,-0.9871213436126709,0.08218493312597275,0.7904932498931885
1776814964394845200,0.59484521484375,-1.0870901346206665,-0.26839759945869446,0.5514639019966125
1776814964404883200,0.60488330078125,-1.1639295816421509,-0.04577687382698059,0.0464218333363533
1776814964414921200,0.614921142578125,-1.2551928758621216,0.5596677660942078,-0.6244755983352661
1776814964424959200,0.624959228515625,-1.4619802236557007,1.5928587913513184,-1.1592674255371094
1776814964434996200,0.634996337890625,-1.652181625366211,2.3934435844421387,-1.2805323600769043
1776814964445034200,0.6450341796875,-2.163613796234131,2.8285861015319824,-0.881699800491333
1776814964455072300,0.655072265625,-2.5924768447875977,3.096967935562134,-0.3326374590396881
1776814964465109000,0.66510888671875,-2.514265298843384,3.690969705581665,-0.38977712392807007
1776814964475147300,0.675147216796875,-2.1309633255004883,4.933500289916992,-0.6570730209350586
1776814964485185000,0.68518505859375,-1.517408013343811,5.4464640617370605,-0.4896310865879059
1776814964495223300,0.695223388671875,-0.871233344078064,5.583130836486816,-0.008790144696831703
1776814964505260300,0.70526025390625,-0.471439391374588,5.059539794921875,0.2824939787387848
1776814964515298000,0.715298095703125,-0.3706648647785187,4.006582736968994,0.5433670878410339
1776814964525336300,0.72533642578125,-0.301914781332016,0.2290523797273636,1.1106795072555542
1776814964535373300,0.735373291015625,-0.32297664880752563,-1.4686496257781982,0.42484384775161743
1776814964545411000,0.7454111328125,-0.20791387557983398,-1.383680820465088,-0.5203938484191895
1776814964555449300,0.755449462890625,-0.16248619556427002,-1.6860287189483643,-0.941984236240387
1776814964565486000,0.765486083984375,-0.12452381104230881,-1.7872658967971802,-0.8756187558174133
1776814964575524400,0.7755244140625,-0.15814702212810516,-1.419732689857483,-0.7998449206352234
1776814964585562000,0.78556201171875,-0.09155238419771194,-0.3294594883918762,-0.8302987813949585
1776814964595600100,0.79560009765625,-0.28248026967048645,0.37068501114845276,-0.8556797504425049
1776814964605641200,0.80564111328125,-0.6068775653839111,0.41766226291656494,-1.0059080123901367
1776814964615679200,0.81567919921875,-0.7957825064659119,0.43421727418899536,-1.3488215208053589
1776814964625717200,0.82571728515625,-0.7999643087387085,0.2817372977733612,-1.8244452476501465
1776814964635754000,0.83575390625,-0.6595738530158997,0.10403387993574142,-2.3000900745391846
1776814964645792300,0.845792236328125,-0.7344520688056946,-0.15091699361801147,-2.753606081008911
1776814964655830300,0.855830322265625,-1.0036568641662598,-0.05611591041088104,-3.1246514320373535
1776814964665868300,0.865868408203125,-1.6092185974121094,0.6859357953071594,-3.3466053009033203
1776814964675905300,0.8759052734375,-2.260091781616211,1.982708215713501,-3.2439017295837402
1776814964685943000,0.885943115234375,-2.6923744678497314,2.673020124435425,-2.790179491043091
1776814964695981300,0.895981201171875,-3.059781551361084,3.1683199405670166,-2.1219370365142822
1776814964706018300,0.906018310546875,-3.224782705307007,3.607583522796631,-1.626319169998169
1776814964716056000,0.91605615234375,-3.14402437210083,3.577725887298584,-1.4532233476638794
1776814964726094300,0.92609423828125,-2.692552089691162,3.100339889526367,-1.0883952379226685
1776814964736132000,0.936132080078125,-2.123379707336426,1.7615673542022705,-0.825560450553894
1776814964746169300,0.94616943359375,-1.344648003578186,0.03095233626663685,-0.6982749104499817
1776814964756207000,0.95620703125,-0.7339063286781311,-2.012281894683838,-0.6605554819107056
1776814964766245000,0.9662451171875,-0.4360702335834503,-3.5007970333099365,-0.7042940855026245
1776814964776282400,0.976282470703125,-0.5061795711517334,-4.493991374969482,-0.7876938581466675
1776814964786320100,0.986320068359375,-1.1302388906478882,-4.356240749359131,-0.983579695224762
1776814964796358100,0.996358154296875,-1.86458420753479,-3.084071636199951,-1.3429815769195557
1776814964806396200,1.006396240234375,-2.178123712539673,-1.2856091260910034,-1.754278302192688
1776814964816433200,1.01643310546875,-2.280940055847168,0.3874618411064148,-1.9298536777496338
1776814964826471400,1.026471435546875,-2.299638509750366,1.557807207107544,-1.9011532068252563
1776814964836509200,1.03650927734375,-2.093928575515747,2.0442392826080322,-1.8635601997375488
1776814964846546200,1.046546142578125,-1.797298789024353,1.8959695100784302,-2.0233025550842285
1776814964856584200,1.056584228515625,-1.457729697227478,1.2659274339675903,-2.2337656021118164
1776814964866622200,1.066622314453125,-1.0685396194458008,0.3906007409095764,-2.3526535034179688
1776814964876660200,1.07666015625,-0.6948744058609009,-0.5090104937553406,-2.3475117683410645
1776814964886697200,1.086697265625,-0.517080545425415,-1.024202823638916,-2.3363707065582275
1776814964896735200,1.0967353515625,-0.532185435295105,-1.1735185384750366,-2.399570941925049
1776814964906773200,1.106773193359375,-0.6086824536323547,-0.4631742835044861,-2.606010913848877
1776814964916810200,1.116810302734375,-0.1923837959766388,0.6476658582687378,-2.692577838897705
1776814964926848300,1.12684814453125,0.2101963609457016,1.2536101341247559,-2.6235623359680176
1776814964936886300,1.13688623046875,0.2849275767803192,1.4135957956314087,-2.6447536945343018
1776814964946924300,1.14692431640625,0.30689096450805664,1.6350371837615967,-2.6330645084381104
1776814964956961300,1.156961181640625,0.1995173692703247,1.9773463010787964,-2.6165740489959717
1776814964966999300,1.166999267578125,0.06236477941274643,2.266655445098877,-2.5055339336395264
1776814964977037300,1.177037353515625,-0.09131292998790741,2.215988874435425,-2.3825974464416504
1776814964987074000,1.187073974609375,-0.38609135150909424,2.069413423538208,-2.2989745140075684
1776814964997112300,1.1971123046875,-0.8188685774803162,1.750401496887207,-2.1932692527770996
1776814965007150000,1.207150146484375,-1.0364760160446167,1.4006245136260986,-2.177426338195801
1776814965017188400,1.217188232421875,-0.7762525081634521,1.0185338258743286,-2.208268880844116
1776814965027225300,1.227225341796875,-0.5073896050453186,0.5380061268806458,-2.1902196407318115
1776814965037263000,1.23726318359375,-0.27280691266059875,-0.2826259434223175,-2.220078229904175
1776814965047301400,1.24730126953125,0.07455916702747345,-2.5424671173095703,-1.873238205909729
1776814965057338000,1.257338134765625,0.34857821464538574,-3.4511842727661133,-0.582499623298645
1776814965067376000,1.267376220703125,0.20177993178367615,-1.977454423904419,0.5212777256965637
1776814965077414400,1.277414306640625,0.026310108602046967,-0.2917160391807556,1.1034228801727295
1776814965087452200,1.2874521484375,-0.14143779873847961,0.6869330406188965,1.9171476364135742
1776814965097489200,1.2974892578125,-0.3494455814361572,0.8138552904129028,2.3874144554138184
1776814965107527200,1.307527099609375,-0.24420055747032166,0.5962327718734741,2.2048656940460205
1776814965117565200,1.317565185546875,0.09966360032558441,0.6029841303825378,1.6129060983657837
1776814965127603200,1.327603271484375,0.37552282214164734,0.6752361059188843,0.8410442471504211
1776814965137640200,1.33764013671875,0.5836730599403381,0.6814777851104736,0.1311032921075821
1776814965147678200,1.34767822265625,0.8983822464942932,0.4365069270133972,-0.3937796354293823
1776814965157716200,1.35771630859375,1.0356484651565552,-0.59920734167099,-0.8603246808052063
1776814965167753200,1.367753173828125,1.0178611278533936,-2.158632278442383,-1.052916407585144
1776814965177791200,1.377791259765625,0.8897170424461365,-0.9983746409416199,-0.9894158244132996
1776814965187829200,1.387829345703125,0.012889523059129715,0.41672980785369873,-1.2400959730148315
1776814965197866200,1.3978662109375,-0.28989458084106445,1.441622018814087,-1.4697242975234985
1776814965207904300,1.407904296875,0.1881876438856125,3.229048490524292,-1.6610766649246216
1776814965217942300,1.4179423828125,0.5173245072364807,3.0941317081451416,-2.4179563522338867
1776814965227980000,1.42797998046875,1.129386067390442,2.740877389907837,-2.8524398803710938
1776814965238017300,1.438017333984375,0.7756894826889038,3.337132692337036,-3.2738776206970215
1776814965248055300,1.44805517578125,0.6440218091011047,4.710829734802246,-3.3154592514038086
1776814965258093000,1.458093017578125,0.8981313109397888,3.9904427528381348,-2.6134166717529297
1776814965268130300,1.46813037109375,1.2763020992279053,1.2455321550369263,-0.8117212057113647
1776814965278168300,1.478168212890625,1.7113161087036133,-0.15084464848041534,-0.013246646150946617
1776814965288206300,1.488206298828125,1.702254056930542,-0.4754922091960907,-0.10983177274465561
1776814965298244400,1.498244384765625,1.8527166843414307,0.7927189469337463,-1.1844606399536133
1776814965308281000,1.508281005859375,1.868247151374817,1.493200421333313,-2.19109845161438
1776814965318319400,1.5183193359375,1.8829797506332397,1.646143913269043,-2.499981641769409
1776814965328357000,1.528357177734375,1.9413756132125854,1.0749287605285645,-2.1779472827911377
1776814965338395100,1.53839501953125,2.0154621601104736,0.9715384840965271,-2.1947903633117676
1776814965348432400,1.548432373046875,1.6378105878829956,0.36694419384002686,-2.283675193786621
1776814965358470100,1.55847021484375,1.252895474433899,0.27602067589759827,-2.276010036468506
1776814965368508400,1.56850830078125,1.1252481937408447,1.0622730255126953,-2.8585445880889893
1776814965378545400,1.57854541015625,1.2017067670822144,1.3735851049423218,-3.6532859802246094
1776814965388583200,1.588583251953125,1.2269319295883179,0.4099751114845276,-2.5426034927368164
1776814965398621400,1.598621337890625,1.163955569267273,-0.22466310858726501,-1.5483328104019165
1776814965408659200,1.6086591796875,0.5786804556846619,0.004870948381721973,-1.0298048257827759
1776814965418696200,1.6186962890625,0.21957525610923767,0.19771362841129303,-1.141652226448059
1776814965428734200,1.628734130859375,0.1652318388223648,-0.018145302310585976,-1.3163353204727173
1776814965438772200,1.638772216796875,-0.005295699927955866,-0.5543964505195618,-1.1294138431549072
1776814965448809200,1.648809326171875,-0.14743445813655853,-0.9329577684402466,-0.6855083703994751
1776814965458847200,1.65884716796875,-0.2994042634963989,-0.911174476146698,-0.45177122950553894
1776814965468885200,1.66888525390625,-0.09237827360630035,-0.6690323948860168,-0.48128074407577515
1776814965478923300,1.67892333984375,0.30404868721961975,-0.5495795011520386,-0.5060366988182068
1776814965488960300,1.688960205078125,0.42702746391296387,-0.33588090538978577,-0.5526352524757385
1776814965498998300,1.698998291015625,0.2483629435300827,-0.1639493703842163,-0.539369523525238
1776814965509036300,1.709036376953125,0.159550741314888,0.00037425942718982697,-0.38716626167297363
1776814965519073300,1.7190732421875,0.10849634557962418,-0.34906843304634094,-0.23111863434314728
1776814965529111000,1.729111083984375,0.07848422974348068,-0.9894993305206299,-0.028794817626476288
1776814965539149300,1.7391494140625,0.039101939648389816,-1.8728779554367065,0.2815430760383606
1776814965549187000,1.74918701171875,-0.04886333644390106,-2.595038890838623,0.637343168258667
1776814965559224000,1.75922412109375,-0.1420164406299591,-2.933469772338867,0.8317843079566956
1776814965569262300,1.769262451171875,-0.02635367587208748,-2.6323297023773193,0.9130721092224121
1776814965579300000,1.779300048828125,-0.01974024623632431,-2.191366672515869,0.6108294129371643
1776814965589338400,1.78933837890625,-0.23531721532344818,-1.7921042442321777,0.4538382887840271
1776814965599375400,1.799375244140625,-0.46685272455215454,-1.699424386024475,0.4554239511489868
1776814965609409800,1.809409912109375,-0.28138282895088196,-1.894677758216858,0.4064349830150604
1776814965619448000,1.819447998046875,-0.12964893877506256,-2.108325958251953,0.12499692291021347
1776814965629484800,1.82948486328125,0.05328028276562691,-2.093167543411255,-0.2831376791000366
1776814965639522800,1.839522705078125,0.2687254846096039,-1.6847691535949707,-0.6394636034965515
1776814965649560800,1.849560791015625,0.2137090414762497,-1.2676212787628174,-0.8241071701049805
1776814965659598800,1.859598876953125,0.17962297797203064,-0.8986706733703613,-0.875177264213562
1776814965669635800,1.8696357421875,0.12949398159980774,-0.6254887580871582,-0.7938002943992615
1776814965679673900,1.879673828125,0.21222428977489471,-0.59807950258255,-0.7089918851852417
1776814965689711900,1.8897119140625,0.3630194664001465,-0.5440903306007385,-0.6584417819976807
1776814965699748900,1.899748779296875,0.3788982927799225,-0.47894835472106934,-0.5855433344841003
1776814965709787000,1.909786865234375,0.3722444176673889,-0.4035850465297699,-0.40726155042648315
1776814965719825000,1.919824951171875,0.18379460275173187,-0.1266932338476181,-0.0493883416056633
1776814965729863000,1.92986279296875,-0.11892979592084885,0.014695210382342339,0.3272448480129242
1776814965739900000,1.93989990234375,-0.1629667580127716,0.04070337861776352,0.5351775288581848
1776814965749937700,1.949937744140625,-0.17101028561592102,-0.0430419035255909,0.5772097706794739
1776814965759976000,1.959975830078125,-0.3643594980239868,-0.2460099309682846,0.65840744972229
1776814965770013000,1.970012939453125,-0.5321100950241089,-0.510856568813324,0.7448894381523132
1776814965780050700,1.98005078125,-0.7748292088508606,-0.632868230342865,0.734965980052948
1776814965790089000,1.9900888671875,-1.0636813640594482,-0.780612587928772,0.6410112977027893
1776814965800126700,2.000126708984375,-1.4618300199508667,-0.8556854724884033,0.47142013907432556
1776814965810163700,2.010163818359375,-1.7028414011001587,-0.7959515452384949,0.25007274746894836
1776814965820202000,2.020201904296875,-2.461167335510254,-0.6153788566589355,-0.06287078559398651
1776814965830239700,2.03023974609375,-2.929083824157715,-0.17743180692195892,-0.41933730244636536
1776814965840277000,2.040277099609375,-3.1094353199005127,0.16669787466526031,-0.7381579279899597
1776814965850314800,2.050314697265625,-2.7966768741607666,0.5213785171508789,-0.6653512716293335
1776814965860352800,2.060352783203125,-2.6085715293884277,1.1529465913772583,-0.5968310832977295
1776814965870390800,2.070390869140625,-2.755631685256958,1.8526856899261475,-0.6029031872749329
1776814965880427800,2.080427734375,-2.543175458908081,2.2813682556152344,-0.613865852355957
1776814965890465800,2.0904658203125,-2.40322208404541,2.4856739044189453,-0.5028094053268433
1776814965900503800,2.10050390625,-2.00070858001709,1.8762773275375366,-0.2999012768268585
1776814965910540800,2.110540771484375,-1.5597143173217773,0.9144725799560547,-0.016972512006759644
1776814965920579000,2.1205791015625,-1.0030626058578491,0.03866279497742653,0.329622745513916
1776814965930616800,2.130616943359375,-0.629584789276123,-0.4874423146247864,0.47904571890830994
1776814965940654800,2.14065478515625,-0.6972602009773254,-0.4851493537425995,0.40514594316482544
1776814965950691800,2.15069189453125,-0.7083719372749329,-0.36837971210479736,0.27149540185928345
1776814965960729900,2.160729736328125,-0.5769699811935425,-0.6424639821052551,0.34928980469703674
1776814965970767600,2.170767578125,-0.37642809748649597,-1.1349456310272217,0.6663659811019897
1776814965980806000,2.180805908203125,-0.17206910252571106,-1.1604068279266357,1.0508835315704346
1776814965990843000,2.1908427734375,-0.24161297082901,-0.816781759262085,1.0270012617111206
1776814966000881000,2.200880859375,-0.49856966733932495,-0.8790291547775269,0.851976215839386
1776814966010919000,2.2109189453125,-0.5209996700286865,-0.5929276347160339,0.5939485430717468
1776814966020956000,2.220955810546875,-0.6219121813774109,-0.6358239650726318,0.35396602749824524
1776814966030994000,2.230993896484375,-0.5638291835784912,-0.7359378933906555,0.06571599841117859
1776814966041032000,2.241031982421875,-0.48599544167518616,-1.101122498512268,-0.06438874453306198
1776814966051069700,2.251069580078125,-0.49072134494781494,-1.3197052478790283,-0.2329300045967102
1776814966061107000,2.26110693359375,-0.6255209445953369,-1.2968130111694336,-0.44084006547927856
1776814966071144700,2.271144775390625,-0.543617308139801,-1.3751897811889648,-0.4447409212589264
1776814966081183000,2.281182861328125,-0.6181719899177551,-1.3480943441390991,-0.3638727068901062
1776814966091220000,2.291219970703125,-0.470847487449646,-1.185119390487671,-0.19628947973251343
1776814966101257700,2.3012578125,-0.15528742969036102,-1.25581693649292,0.13056135177612305
1776814966111296000,2.3112958984375,0.030531711876392365,-1.153446078300476,0.5575613975524902
1776814966121333800,2.321333740234375,0.12258386611938477,-0.8999459743499756,0.9479438066482544
1776814966131370800,2.331370849609375,0.1457158327102661,-0.6693772673606873,1.208686351776123
1776814966141409000,2.341408935546875,0.09027282148599625,-0.46583452820777893,1.3433051109313965
1776814966151446800,2.35144677734375,0.0052171070128679276,-0.5862799882888794,1.2925097942352295
1776814966161483800,2.36148388671875,0.01919124647974968,-0.8323270082473755,1.176729679107666
1776814966171521800,2.371521728515625,0.07055268436670303,-0.7585617303848267,0.9149035811424255
1776814966181559800,2.381559814453125,0.011847290210425854,-0.8997499942779541,0.5298379063606262
1776814966191597800,2.391597900390625,-0.11964669078588486,-0.2763257622718811,0.198033407330513
1776814966201634800,2.401634765625,-0.2091350257396698,0.5192826986312866,-0.3125033676624298
1776814966211672800,2.4116728515625,-0.7676762938499451,0.11550339311361313,-0.647379457950592
1776814966221710800,2.4217109375,-1.0226984024047852,0.305717796087265,-0.7517229318618774
1776814966231747800,2.431747802734375,-1.1799222230911255,0.06135530024766922,-0.8876585364341736
1776814966241785900,2.441785888671875,-0.7845380306243896,1.1458557844161987,-0.7905697822570801
1776814966251823900,2.451823974609375,-0.6870015859603882,1.380537748336792,-0.8213221430778503
1776814966261862000,2.46186181640625,-0.7768043875694275,1.8434313535690308,-0.9394741058349609
1776814966271898600,2.471898681640625,-0.7611389756202698,1.69110107421875,-1.0213943719863892
1776814966281937000,2.48193701171875,-0.5998914837837219,0.8978109955787659,-0.9873450398445129
1776814966291974700,2.491974609375,-0.33408045768737793,-0.3049166202545166,-0.770329475402832
1776814966302012000,2.502011962890625,-0.16489703953266144,-1.03598952293396,-0.49573174118995667
1776814966312050000,2.5120498046875,-0.36050328612327576,-0.9691286683082581,-0.45448464155197144
1776814966322087700,2.522087646484375,-0.5239265561103821,-0.7230304479598999,-0.4430293142795563
1776814966332126000,2.5321259765625,-0.5019868612289429,-0.7133018374443054,-0.25888729095458984
1776814966342163000,2.542162841796875,-0.3465283215045929,-0.6631798148155212,0.0020122025161981583
1776814966352200700,2.55220068359375,-0.235550656914711,-0.5002475380897522,0.24479877948760986
1776814966362239000,2.562239013671875,-0.12795042991638184,-0.06436849385499954,0.43009141087532043
1776814966372275700,2.572275634765625,0.11389930546283722,0.06670809537172318,0.613568902015686
1776814966382314000,2.58231396484375,0.4087461233139038,-0.33780211210250854,0.8245636820793152
1776814966392351700,2.592351806640625,0.7263675332069397,-0.805848240852356,1.0177934169769287
1776814966402388700,2.602388671875,1.193023443222046,-1.0690863132476807,1.0675926208496094
1776814966412427000,2.612427001953125,0.7122805714607239,-1.210816740989685,1.0472979545593262
1776814966422464800,2.62246484375,1.0554488897323608,-1.0762799978256226,0.8859170079231262
1776814966432502800,2.632502685546875,0.8348003029823303,-1.657576084136963,0.902255654335022
1776814966442540000,2.6425400390625,0.7432397603988647,-2.069312810897827,0.3836961090564728
1776814966452577800,2.652577880859375,1.1179524660110474,-2.771210193634033,-0.24285103380680084
1776814966462616000,2.662615966796875,1.1046123504638672,-2.811753034591675,-0.31402695178985596
1776814966472653800,2.67265380859375,1.1999118328094482,-2.8665266036987305,-0.08118042349815369
1776814966482690800,2.68269091796875,0.6931915879249573,-2.2357876300811768,-0.18994951248168945
1776814966492728800,2.692728759765625,0.011202213354408741,-1.3648207187652588,-0.44678443670272827
1776814966502766800,2.702766845703125,-0.3165660500526428,-0.9374890923500061,-0.8352317810058594
1776814966512803800,2.712803955078125,-0.5725003480911255,-0.9989133477210999,-0.9084118604660034
1776814966522841900,2.722841796875,-0.6359941363334656,-0.933674156665802,-0.7552976608276367
1776814966532880000,2.7328798828125,-0.5997049808502197,-0.9166975617408752,-0.5624470114707947
1776814966542918000,2.74291796875,-0.5048863291740417,-0.6360280513763428,-0.3412533402442932
1776814966552955000,2.752954833984375,-0.5059374570846558,-0.13645659387111664,-0.1833806335926056
1776814966562993000,2.762992919921875,-0.5777758955955505,-0.13413511216640472,-0.2182299643754959
1776814966573031000,2.773031005859375,-0.6346320509910583,0.0895092561841011,-0.05829639360308647
1776814966583068000,2.78306787109375,-0.7496318817138672,0.2356339693069458,0.007869844324886799
1776814966593106000,2.79310595703125,-0.8076381087303162,0.43671324849128723,-0.04903416335582733
1776814966603144000,2.80314404296875,-0.817954957485199,0.4184950888156891,-0.1965399980545044
1776814966613185300,2.813185302734375,-0.8492686152458191,0.34554409980773926,-0.3288624584674835
1776814966623222500,2.823222412109375,-0.8505682349205017,0.12777820229530334,-0.45966973900794983
1776814966633260500,2.833260498046875,-0.807911217212677,0.20213517546653748,-0.5337733626365662
1776814966643298300,2.84329833984375,-0.7356737852096558,0.40359076857566833,-0.5918465256690979
1776814966653335600,2.85333544921875,-0.685396134853363,0.7635994553565979,-0.40286242961883545
1776814966663373600,2.86337353515625,-0.6350101828575134,0.8624253273010254,-0.055328961461782455
1776814966673411300,2.873411376953125,-0.6556822061538696,0.8430332541465759,0.3431605100631714
1776814966683449600,2.88344970703125,-0.6404560804367065,0.5924135446548462,0.5602179765701294
1776814966693486300,2.893486328125,-0.37957829236984253,0.3615626096725464,0.5824962854385376
1776814966703524600,2.903524658203125,0.05806563049554825,0.3598187565803528,0.4658266603946686
1776814966713562400,2.913562255859375,0.1146729364991188,0.24848540127277374,0.16760171949863434
1776814966723599400,2.923599365234375,0.12267307192087173,0.0760507807135582,-0.06403177231550217
1776814966733637600,2.9336376953125,0.17271745204925537,-0.003965211100876331,-0.18918341398239136
1776814966743675400,2.94367529296875,0.3258497416973114,-0.10848043113946915,-0.2791098654270172
1776814966753713400,2.95371337890625,0.4636005163192749,-0.19993415474891663,-0.25433921813964844
1776814966763750700,2.963750732421875,0.5647218227386475,-0.36794763803482056,-0.3047499358654022
1776814966773788400,2.973788330078125,0.7340500354766846,-0.7968147397041321,-0.6145644187927246
1776814966783826700,2.98382666015625,0.5516394972801208,-0.317256897687912,-0.8025510907173157
1776814966793863400,2.993863525390625,0.2876327633857727,0.1085573360323906,-0.748637855052948
1776814966803901400,3.0039013671875,-0.04882485792040825,-0.07979153841733932,-0.6413041949272156
1776814966813939500,3.013939453125,-0.25036635994911194,-0.3621876835823059,-0.5647481083869934
1776814966823977500,3.0239775390625,-0.38534998893737793,-0.398798406124115,-0.51756751537323
1776814966834014500,3.034014404296875,-0.4666255712509155,-0.2267332822084427,-0.4488132894039154
1776814966844052500,3.044052490234375,-0.32001855969429016,0.08927527070045471,-0.2790420949459076
1776814966854090500,3.054090576171875,-0.06880219280719757,0.1897045522928238,-0.039338089525699615
1776814966864127500,3.06412744140625,0.04548283666372299,0.028333237394690514,0.10748037695884705
1776814966874165500,3.07416552734375,0.05986552685499191,-0.011495538055896759,0.23387578129768372
1776814966884203500,3.08420361328125,0.057767756283283234,0.024697884917259216,0.32873785495758057
1776814966894241500,3.094241455078125,0.10289338231086731,0.08698435127735138,0.30983471870422363
1776814966904278500,3.104278564453125,0.16428856551647186,0.06661064177751541,0.1217053085565567
1776814966914316300,3.11431640625,0.20921824872493744,-0.06664653867483139,-0.08182244002819061
1776814966924354600,3.1243544921875,0.13141904771327972,-0.2080870270729065,-0.1227610781788826
1776814966934391600,3.1343916015625,-0.00677588302642107,-0.23357923328876495,-0.027727410197257996
1776814966944429300,3.14442919921875,-0.12514939904212952,-0.08583823591470718,0.09711971879005432
1776814966954467600,3.154467529296875,-0.23164764046669006,-0.09820771217346191,0.07246389240026474
1776814966964504600,3.164504638671875,-0.3641502857208252,-0.1364871859550476,0.02066780813038349
1776814966974542300,3.174542236328125,-0.54286789894104,-0.0054113720543682575,0.13372667133808136
1776814966984580600,3.18458056640625,-0.6587502956390381,-0.06393646448850632,0.28481340408325195
1776814966994618400,3.194618408203125,-0.7305018305778503,-0.08240307122468948,0.40655988454818726
1776814967004655400,3.2046552734375,-1.052348256111145,-0.10137170553207397,0.5283750295639038
1776814967014693400,3.214693359375,-1.3533028364181519,-0.18144600093364716,0.481587678194046
1776814967024731400,3.2247314453125,-1.4044575691223145,0.16284851729869843,0.6101387143135071
1776814967034769400,3.234769287109375,-1.3710607290267944,0.3891710638999939,0.7715581655502319
1776814967044806400,3.244806396484375,-1.496706247329712,0.7754650115966797,1.0091909170150757
1776814967054844400,3.254844482421875,-1.6628527641296387,0.7946299314498901,1.0279604196548462
1776814967064882400,3.26488232421875,-1.5655021667480469,0.7368313074111938,0.7495054006576538
1776814967074919400,3.27491943359375,-1.198586344718933,0.8215697407722473,0.47424760460853577
1776814967084957400,3.28495751953125,-1.0839699506759644,0.7393142580986023,0.2462485283613205
1776814967094995500,3.294995361328125,-1.1444021463394165,0.47521862387657166,-0.009224158711731434
1776814967105032400,3.305032470703125,-1.3291703462600708,0.4207276701927185,-0.23115362226963043
1776814967115070500,3.315070556640625,-1.5270593166351318,0.5061905980110168,-0.43012484908103943
1776814967125108500,3.3251083984375,-1.4010560512542725,0.8982985019683838,-0.5331790447235107
1776814967135146500,3.335146484375,-1.1903008222579956,1.2388142347335815,-0.5044074058532715
1776814967145183500,3.34518359375,-1.1331496238708496,0.9246402978897095,-0.4309651255607605
1776814967155221500,3.355221435546875,-1.0272917747497559,0.4326249659061432,-0.4010797441005707
1776814967165259300,3.36525927734375,-1.0206676721572876,0.33114492893218994,-0.39115333557128906
1776814967175296500,3.375296630859375,-0.9869312644004822,-0.20466335117816925,-0.4547275900840759
1776814967185334500,3.38533447265625,-0.877484142780304,0.0347558930516243,-0.304543137550354
1776814967195372500,3.39537255859375,-1.1512672901153564,0.12195166945457458,-0.09663258492946625
1776814967205410600,3.40541064453125,-1.154021978378296,0.16822277009487152,-0.13735736906528473
1776814967215447600,3.415447509765625,-1.1679843664169312,0.511874258518219,-0.034654516726732254
1776814967225485600,3.425485595703125,-1.240234136581421,0.9975554943084717,0.18943557143211365
1776814967235523600,3.435523681640625,-1.432887077331543,1.0847173929214478,0.4857814908027649
1776814967245560300,3.445560302734375,-1.4011030197143555,1.1472641229629517,0.5033288598060608
1776814967255598600,3.4555986328125,-1.1958717107772827,0.7394940853118896,0.25220993161201477
1776814967265636400,3.46563623046875,-0.8154243230819702,0.3150485157966614,-0.05514043569564819
1776814967275674600,3.475674560546875,-0.10561372339725494,-0.03580116480588913,-0.2384658008813858
1776814967285711600,3.485711669921875,0.23573827743530273,0.11707839369773865,-0.3607879877090454
1776814967295749400,3.495749267578125,0.3912532925605774,0.20033055543899536,-0.46231332421302795
1776814967305787600,3.50578759765625,0.4846687316894531,0.18158642947673798,-0.47105729579925537
1776814967315824400,3.515824462890625,0.14078614115715027,0.12349098175764084,-0.3751741945743561
1776814967325862400,3.5258623046875,-0.18407663702964783,0.11317629367113113,-0.2529681324958801
1776814967335900700,3.535900634765625,-0.31291571259498596,-0.016186870634555817,-0.175271138548851
1776814967345937400,3.5459375,-0.19437973201274872,0.2722774147987366,0.02911689132452011
1776814967355975400,3.555975341796875,-0.0873217061161995,0.29551076889038086,0.10771112143993378
1776814967366013400,3.566013427734375,-0.05371767282485962,0.21540315449237823,0.13636885583400726
1776814967376051500,3.576051513671875,0.04636690765619278,0.03716658800840378,0.083258718252182
1776814967386088400,3.58608837890625,0.016199685633182526,-0.002753667300567031,0.06746537238359451
1776814967396126500,3.59612646484375,0.0018996214494109154,-0.1504652053117752,0.0065191020257771015
1776814967406164500,3.60616455078125,0.01083292905241251,-0.17418944835662842,-0.027903053909540176
1776814967416201500,3.616201416015625,0.008598165586590767,-0.1919715404510498,-0.013471763581037521
1776814967426239500,3.626239501953125,-0.00013487227261066437,-0.19934077560901642,0.001632088329643011
1776814967436277500,3.636277587890625,-0.030620204284787178,-0.1448914110660553,-0.0041406056843698025
1776814967446315500,3.6463154296875,-0.002777654677629471,-0.04092933237552643,-0.04080061614513397
1776814967456352500,3.6563525390625,0.015108066610991955,-0.08495708554983139,0.02713130973279476
1776814967466390300,3.666390380859375,0.01974276453256607,-0.12077394127845764,0.03188425302505493
1776814967476428500,3.676428466796875,0.018203191459178925,-0.09685057401657104,0.0061174719594419
1776814967486465500,3.686465576171875,0.019106801599264145,-0.0902525931596756,-0.015123367309570312
1776814967496503600,3.696503662109375,0.020956609398126602,-0.08330055326223373,-0.034074075520038605
1776814967506541600,3.70654150390625,0.0034258197993040085,-0.06701425462961197,-0.02803242951631546
1776814967516578600,3.71657861328125,-0.0372060164809227,-0.0026063944678753614,0.006349822506308556
1776814967526616600,3.726616455078125,-0.18229609727859497,0.3359370231628418,0.2756228446960449
1776814967536654600,3.736654541015625,-0.27208489179611206,0.8728653192520142,0.6522602438926697
1776814967546692400,3.7466923828125,-0.2101117968559265,0.6104092001914978,0.3784494400024414
1776814967556729600,3.7567294921875,-0.48546862602233887,0.4447985291481018,-0.03337137773633003
1776814967566767400,3.766767333984375,-0.7491066455841064,-0.13057103753089905,-0.36739835143089294
1776814967576805600,3.7768056640625,-0.9175752401351929,-0.5533775091171265,-0.5078127980232239
1776814967586842600,3.786842529296875,-0.927803635597229,-0.555575966835022,-0.4033300280570984
1776814967596880400,3.79688037109375,-0.833245038986206,-0.648855447769165,-0.3486544191837311
1776814967606918700,3.806918701171875,-0.819949746131897,-0.7480936050415039,-0.37938088178634644
1776814967616952000,3.8169521484375,-0.8185193538665771,-0.5618667602539062,-0.33668696880340576
1776814967626988800,3.82698876953125,-1.0091180801391602,-0.2606091797351837,-0.2481035441160202
1776814967637026800,3.83702685546875,-1.2640676498413086,-0.1385708898305893,-0.19006571173667908
1776814967647064800,3.84706494140625,-1.5698518753051758,-0.22983263432979584,-0.21962971985340118
1776814967657101800,3.857101806640625,-1.8004566431045532,-0.2862499952316284,-0.2559061050415039
1776814967667140000,3.86714013671875,-1.9555507898330688,-0.4196208417415619,-0.2838573157787323
1776814967677177900,3.877177734375,-2.0357022285461426,-0.578290581703186,-0.2881391644477844
1776814967687215900,3.8872158203125,-2.055403470993042,-0.6485029458999634,-0.3329007625579834
1776814967697252900,3.8972529296875,-2.079822540283203,-0.7414106726646423,-0.2766208350658417
1776814967707291000,3.907290771484375,-1.840011477470398,-0.6999825835227966,-0.28742846846580505
1776814967717329000,3.917328857421875,-1.6213101148605347,-0.35939303040504456,-0.15393544733524323
1776814967727366000,3.927365966796875,-1.357604742050171,0.09650421142578125,0.06469675153493881
1776814967737404000,3.93740380859375,-1.5122227668762207,0.0788949728012085,0.08643686771392822
1776814967747442000,3.94744189453125,-1.422633409500122,-0.1678043007850647,0.1132035031914711
1776814967757479000,3.95747900390625,-1.3328779935836792,-0.36013683676719666,0.09574266523122787
1776814967767517000,3.967516845703125,-1.1956417560577393,-0.3768569827079773,0.009681815281510353
1776814967777555000,3.977554931640625,-1.0558849573135376,-0.34346747398376465,-0.16258998215198517
1776814967787593000,3.987593017578125,-0.8607184290885925,-0.38570335507392883,-0.37226226925849915
1776814967797630000,3.9976298828125,-0.7315818667411804,-0.4675678312778473,-0.510210394859314
1776814967807668000,4.00766796875,-0.6746474504470825,-0.3803461194038391,-0.5817993879318237
1776814967817706000,4.0177060546875,-0.7520673871040344,-0.5707011222839355,-0.7992157340049744
1776814967827742700,4.02774267578125,-0.7244144678115845,-0.821638286113739,-0.6258870363235474
1776814967837781000,4.037781005859375,-0.6303165555000305,-0.6647995114326477,-0.3272011876106262
1776814967847818800,4.04781884765625,-0.47133514285087585,-0.4216760993003845,-0.24241572618484497
1776814967857857000,4.05785693359375,-0.07398241013288498,-0.33165407180786133,-0.3039342761039734
1776814967867894000,4.06789404296875,0.2980297803878784,-0.10055612772703171,0.042504630982875824
1776814967877931800,4.077931884765625,0.4127909541130066,0.19939275085926056,0.067786306142807
1776814967887970000,4.087969970703125,0.12978853285312653,0.4299423396587372,-0.01578661985695362
1776814967898007000,4.098007080078125,0.08247146010398865,0.19270500540733337,-0.09655150026082993
1776814967908044800,4.108044921875,0.006143935024738312,-0.08155079931020737,-0.07718472182750702
1776814967918083000,4.1180830078125,-0.08187506347894669,-0.11828133463859558,-0.023090513423085213
1776814967928120800,4.128120849609375,-0.05153021216392517,-0.03808556869626045,0.12048529833555222
1776814967938157800,4.13815771484375,0.04746077209711075,0.03256819769740105,0.24184778332710266
1776814967948195800,4.14819580078125,0.08088663220405579,-0.0020587551407516003,0.23560746014118195
1776814967958233900,4.15823388671875,0.03231056034564972,-0.029588863253593445,0.19047372043132782
1776814967968270800,4.168270751953125,0.015861276537179947,-0.01442669052630663,0.1882297396659851
1776814967978308900,4.178308837890625,0.04082353785634041,0.07984907180070877,0.2061697244644165
1776814967988347000,4.188346923828125,0.06250699609518051,0.18119405210018158,0.22110579907894135
1776814967998385000,4.198385009765625,0.08984237909317017,0.21513348817825317,0.22472065687179565
1776814968008422000,4.208421875,0.13602665066719055,0.1939144879579544,0.1772303730249405
1776814968018460000,4.2184599609375,0.19303809106349945,0.12844917178153992,0.10077039897441864
1776814968028498000,4.228497802734375,0.25292113423347473,0.03904445841908455,0.014686109498143196
1776814968038535000,4.238534912109375,0.28400447964668274,-0.00808880664408207,-0.08245299756526947
1776814968048572700,4.24857275390625,0.30814656615257263,-0.025932785123586655,-0.15005788207054138
1776814968058611000,4.25861083984375,0.3228771984577179,-0.048941679298877716,-0.16330382227897644
1776814968068648000,4.26864794921875,0.3040430545806885,-0.0541289821267128,-0.10956521332263947
1776814968078686000,4.27868603515625,0.18380913138389587,-0.09994237869977951,-0.0811573788523674
1776814968088724000,4.288723876953125,-0.0966891199350357,-0.022694731131196022,-0.013175661675632
1776814968098761700,4.29876171875,-0.054245755076408386,0.16573302447795868,0.10678868740797043
1776814968108799000,4.308799072265625,-0.10603918135166168,0.2766299843788147,0.12718956172466278
1776814968118837000,4.3188369140625,-0.14630404114723206,0.3363146483898163,0.12000875920057297
1776814968128874800,4.328874755859375,-0.050305064767599106,0.2642180919647217,0.08276711404323578
1776814968138912000,4.338912109375,-0.01774505153298378,0.18378767371177673,0.045058149844408035
1776814968148949800,4.34894970703125,-0.02405434474349022,0.12059859186410904,0.006844981573522091
1776814968158988000,4.358988037109375,0.016121596097946167,0.022163929417729378,-0.056945737451314926
1776814968169025800,4.36902587890625,0.07720572501420975,-0.06971433013677597,-0.10175209492444992
1776814968179062800,4.379062744140625,0.005254786461591721,-0.028687696903944016,-0.047848813235759735
1776814968189101000,4.38910107421875,0.08430725336074829,-0.1341632455587387,-0.0550534650683403
1776814968199138800,4.399138916015625,0.07546551525592804,-0.17357100546360016,-0.05653621256351471
1776814968209175800,4.40917578125,-0.01015138067305088,-0.16922526061534882,-0.030866002663969994
1776814968219214000,4.419214111328125,-0.026404188945889473,-0.26507866382598877,-0.09499970078468323
1776814968229251800,4.429251953125,-0.02639353647828102,-0.28173860907554626,-0.1349974423646927
1776814968239290000,4.4392900390625,-0.032129500061273575,-0.19605503976345062,-0.13470600545406342
1776814968249326800,4.449326904296875,-0.014419212937355042,-0.14307810366153717,-0.07740408927202225
1776814968259364900,4.45936474609375,-0.006072112824767828,-0.1998991221189499,-0.09010205417871475
1776814968269403000,4.46940283203125,0.008488720282912254,-0.18980839848518372,-0.10731858760118484
1776814968279440000,4.47943994140625,0.0012521939352154732,-0.19972588121891022,-0.10941756516695023
1776814968289478000,4.489477783203125,-0.032465822994709015,-0.0893692746758461,-0.09338507056236267
1776814968299516000,4.499515869140625,-0.00484475726261735,-0.050809651613235474,-0.09884623438119888
1776814968309554000,4.509553955078125,0.021374061703681946,-0.036208074539899826,-0.1373898983001709
1776814968319591000,4.5195908203125,-0.00526297464966774,0.0030500309076160192,-0.1475098580121994
1776814968329629000,4.52962890625,0.013241467997431755,-0.002156715141609311,-0.13132236897945404
1776814968339667000,4.5396669921875,0.013004574924707413,0.020221147686243057,-0.14086002111434937
1776814968349703700,4.54970361328125,-0.0030548200011253357,0.0441424585878849,-0.10445700585842133
1776814968359742000,4.559741943359375,0.008570201694965363,0.05041820555925369,-0.06528756022453308
1776814968369779700,4.56977978515625,0.018886756151914597,0.033469848334789276,-0.04167011007666588
1776814968379818000,4.57981787109375,0.024337390437722206,0.0036229966208338737,-0.014271188527345657
1776814968389855000,4.58985498046875,0.020580200478434563,-0.0015800211112946272,-0.0014209034852683544
1776814968399892700,4.599892822265625,0.018426131457090378,0.03129120543599129,0.0033447134774178267
1776814968409931000,4.609930908203125,0.018594976514577866,0.046016886830329895,-0.0039323740638792515
1776814968419968000,4.619968017578125,0.012006917968392372,0.0694110095500946,-0.010103999637067318
1776814968430005800,4.630005859375,-0.003064442425966263,0.07485637068748474,0.006935703568160534
1776814968440044000,4.6400439453125,-0.015204174444079399,0.07854125648736954,0.017788011580705643
1776814968450081800,4.650081787109375,-0.01684228517115116,0.06350743770599365,0.034111589193344116
1776814968460119000,4.660119140625,-0.022206319496035576,0.037440862506628036,0.05689797177910805
1776814968470156800,4.67015673828125,0.008318034000694752,0.03975621238350868,0.05306701362133026
1776814968480194800,4.68019482421875,0.01495671458542347,0.04871146008372307,0.04285015910863876
1776814968490232800,4.69023291015625,0.010334532707929611,0.037509672343730927,0.03691903501749039
1776814968500269800,4.700269775390625,0.012437618337571621,0.016575254499912262,0.03798026591539383
1776814968510307800,4.710307861328125,0.012920183129608631,-0.0036975275725126266,0.035669706761837006
1776814968520345900,4.720345947265625,0.012204592116177082,-0.029398363083600998,0.03495171666145325
1776814968530382800,4.7303828125,0.00641354825347662,-0.05432847887277603,0.048845961689949036
1776814968540421000,4.740421142578125,0.0006300555542111397,-0.07144667953252792,0.07251273840665817
1776814968550459000,4.750458984375,0.001241518184542656,-0.07119900733232498,0.08814363181591034
1776814968560497000,4.760496826171875,0.006335726007819176,-0.06257124245166779,0.09352640807628632
1776814968570534000,4.770533935546875,0.011607985943555832,-0.055519986897706985,0.09975314140319824
1776814968580572000,4.780572021484375,0.011090800166130066,-0.04109177738428116,0.10370873659849167
1776814968590609700,4.790609619140625,0.009177850559353828,-0.057330936193466187,0.1142796203494072
1776814968600647000,4.80064697265625,0.0003577163442969322,-0.09796316176652908,0.12272685766220093
1776814968610686000,4.81068603515625,-0.004864209331572056,-0.12381578981876373,0.13162580132484436
1776814968620724000,4.820723876953125,-0.005852673668414354,-0.14132599532604218,0.13233044743537903
1776814968630762000,4.830761962890625,-0.001726904883980751,-0.13456769287586212,0.1252720057964325
1776814968640798700,4.840798828125,0.009069865569472313,-0.10281918942928314,0.11098910123109818
1776814968650837000,4.8508369140625,0.018837541341781616,-0.07478649169206619,0.08942681550979614
1776814968660874800,4.860874755859375,0.022227376699447632,-0.07291063666343689,0.06837057322263718
1776814968670911700,4.870911865234375,0.02088301256299019,-0.10766222327947617,0.05517354607582092
1776814968680950000,4.880949951171875,0.02331981249153614,-0.15127547085285187,0.040129777044057846
1776814968690987800,4.89098779296875,0.02813374064862728,-0.1765102595090866,0.027620911598205566
1776814968701026000,4.901026123046875,0.03076568804681301,-0.1851305514574051,0.026721501722931862
1776814968711062800,4.911062744140625,0.030482595786452293,-0.18960759043693542,0.029808105900883675
1776814968721100800,4.921100830078125,0.02684447541832924,-0.21433164179325104,0.03196082264184952
1776814968731139000,4.93113916015625,0.018521830439567566,-0.23794960975646973,0.03371771052479744
1776814968741176800,4.9411767578125,0.017651621252298355,-0.24367228150367737,0.03143005073070526
1776814968751213800,4.9512138671875,0.022653039544820786,-0.23921096324920654,0.012668613344430923
1776814968761251800,4.961251953125,0.021502379328012466,-0.2291598618030548,-0.00375663535669446
1776814968771289900,4.971289794921875,0.017084728926420212,-0.19664691388607025,-0.01584285870194435
1776814968781326800,4.981326904296875,0.007125674746930599,-0.1710250973701477,-0.011782379820942879
1776814968791364900,4.99136474609375,0.0012597963213920593,-0.16484896838665009,-0.008676601573824883
1776814968801403000,5.00140283203125,-0.007043219171464443,-0.18529656529426575,-0.00574753200635314
1776814968811441000,5.01144091796875,-0.015515000559389591,-0.18565049767494202,-0.009671701118350029
1776814968821478000,5.021477783203125,-0.019333595409989357,-0.15882882475852966,-0.01936214603483677
1776814968831516000,5.031515869140625,-0.023780008777976036,-0.11685554683208466,-0.0334651842713356
1776814968841554000,5.041553955078125,-0.027832146733999252,-0.07649095356464386,-0.04417463392019272
1776814968851592000,5.051592041015625,-0.027105368673801422,-0.035895321518182755,-0.04551899805665016
1776814968861628700,5.061628662109375,-0.027117665857076645,0.0038095794152468443,-0.04964439570903778
1776814968871667000,5.0716669921875,-0.022238753736019135,0.0359821654856205,-0.05783654749393463
1776814968881704700,5.08170458984375,-0.011868522502481937,0.06096712127327919,-0.05422837287187576
1776814968891741700,5.09174169921875,-0.005692918319255114,0.07243335992097855,-0.0520312637090683
1776814968901780000,5.101780029296875,-0.004735257942229509,0.07675449550151825,-0.04683920741081238
1776814968911817700,5.111817626953125,-0.003946961835026741,0.08034762740135193,-0.045675940811634064
1776814968921856000,5.12185595703125,0.0011201323941349983,0.08289993554353714,-0.03694392368197441
1776814968931893000,5.13189306640625,0.004026706330478191,0.08692290633916855,-0.029089463874697685
1776814968941930800,5.1419306640625,0.009226919151842594,0.08152150362730026,-0.018568871542811394
1776814968951969000,5.151968994140625,0.007229016162455082,0.06211558356881142,-0.009810800664126873
1776814968962006800,5.1620068359375,0.008929540403187275,0.05166647583246231,-0.00990634597837925
1776814968972043800,5.172043701171875,0.013631084002554417,0.07481120526790619,-0.016002854332327843
1776814968982081800,5.182081787109375,0.018299976363778114,0.10884338617324829,-0.019262459129095078
1776814968992119800,5.192119873046875,0.020526912063360214,0.12897954881191254,-0.014274358749389648
1776814969002156800,5.20215673828125,0.02184148132801056,0.12680983543395996,-0.0071805184707045555
1776814969012194800,5.21219482421875,0.01392283570021391,0.10804147273302078,0.0035935654304921627
1776814969022232800,5.22223291015625,0.006906636990606785,0.07890534400939941,0.010826218873262405
1776814969032270800,5.232270751953125,0.0007760403677821159,0.052862294018268585,0.014569025486707687
1776814969042307800,5.242307861328125,-0.004165062680840492,0.040773700922727585,0.01113199070096016
1776814969052345900,5.252345947265625,-0.004250017926096916,0.041201405227184296,0.007816088385879993
1776814969062383900,5.2623837890625,-0.003436582162976265,0.05724313482642174,-0.00011416967026889324
1776814969072422000,5.272421875,-0.004659772384911776,0.0630142018198967,0.0005809152498841286
1776814969082458600,5.282458740234375,-0.01354333758354187,0.05867297574877739,0.0014390470460057259
1776814969092497000,5.292496826171875,-0.011996840126812458,0.04565943777561188,0.0028092432767152786
1776814969102534700,5.30253466796875,-0.00806187093257904,0.029704418033361435,0.005889046937227249
1776814969112572000,5.312572021484375,0.0007348163053393364,0.031626153737306595,0.0067931897938251495
1776814969122610000,5.32260986328125,0.009516045451164246,0.03208969905972481,0.004396304953843355
1776814969132647700,5.332647705078125,0.015482325106859207,0.030398860573768616,-0.0002967177424579859
1776814969142686000,5.34268603515625,0.01765996776521206,0.023233139887452126,0.008312667720019817
1776814969152723000,5.352722900390625,0.015456467866897583,-0.0019648910965770483,0.012834715656936169
1776814969162760700,5.3627607421875,0.013816913589835167,-0.037510547786951065,0.025551307946443558
1776814969172799000,5.372799072265625,0.005631955340504646,-0.055915120989084244,0.040994711220264435
1776814969182836700,5.382836669921875,-0.0007508564740419388,-0.04913615807890892,0.048766039311885834
1776814969192874000,5.3928740234375,-0.0000973166897892952,-0.027256421744823456,0.04906218498945236
1776814969202911700,5.402911865234375,-0.003728814423084259,-0.009069005958735943,0.05664283409714699
1776814969212949800,5.41294970703125,-0.004616179037839174,0.0002123769372701645,0.054930686950683594
1776814969222987800,5.42298779296875,-0.00503117498010397,-0.016033677384257317,0.055673062801361084
1776814969233024800,5.433024658203125,-0.006579270586371422,-0.034498170018196106,0.06796088814735413
1776814969243062800,5.443062744140625,-0.0043222480453550816,-0.03161582723259926,0.08524436503648758
1776814969253100800,5.453100830078125,0.0037250258028507233,-0.014031503349542618,0.09671805799007416
1776814969263137800,5.4631376953125,0.01224688719958067,0.014594923704862595,0.09050494432449341
1776814969273176000,5.473176025390625,0.02077033370733261,0.02263447269797325,0.07991728186607361
1776814969283213800,5.4832138671875,0.02204841934144497,0.013253816403448582,0.07683666050434113
1776814969293251800,5.493251953125,0.01718628592789173,-0.009530059061944485,0.0863843560218811
1776814969303288800,5.503288818359375,0.006806408986449242,-0.03571823984384537,0.09775040298700333
1776814969313326800,5.513326904296875,0.003723001107573509,-0.039618704468011856,0.10759530961513519
1776814969323364600,5.523364501953125,-0.0012408886104822159,-0.031178303062915802,0.10455522686243057
1776814969333403000,5.53340283203125,-0.0056833080016076565,-0.008406144566833973,0.10079511255025864
1776814969343440000,5.54343994140625,-0.004641537554562092,0.018654223531484604,0.09795944392681122
1776814969353478000,5.553477783203125,-0.00306654442101717,0.031122876331210136,0.10735826939344406
1776814969363516000,5.563515869140625,0.002387816086411476,0.021198060363531113,0.11468122154474258
1776814969373553700,5.5735537109375,0.0023574568331241608,0.011822935193777084,0.11884427815675735
1776814969383591000,5.5835908203125,0.01324335765093565,-0.0005011698231101036,0.11502997577190399
1776814969393629000,5.59362890625,0.016355793923139572,-0.013226819224655628,0.10232643038034439
1776814969403666700,5.603666748046875,0.020999258384108543,-0.011962035670876503,0.10209199786186218
1776814969413705000,5.613705078125,0.015541376546025276,-0.01155590359121561,0.09517896175384521
1776814969423741700,5.62374169921875,0.007635333575308323,0.0004629078321158886,0.08828592300415039
1776814969433780000,5.633780029296875,-0.0028748316690325737,0.0025750608183443546,0.09206228703260422
1776814969443817700,5.643817626953125,-0.01238276157528162,0.002170218387618661,0.08511535078287125
1776814969453854700,5.653854736328125,-0.018766624853014946,0.00034275720827281475,0.08012325316667557
1776814969463893000,5.66389306640625,-0.02074059471487999,-0.009017784148454666,0.08049357682466507
1776814969473930800,5.6739306640625,-0.028217419981956482,-0.01388551015406847,0.08850356936454773
1776814969483968800,5.68396875,-0.03199869394302368,-0.0065625254064798355,0.10808268934488297
1776814969494006000,5.694006103515625,-0.03357129171490669,0.0009513171389698982,0.12283260375261307
1776814969504043800,5.704043701171875,-0.03217562660574913,0.008650597184896469,0.1321348249912262
1776814969514082000,5.71408203125,-0.021074773743748665,0.007680674083530903,0.13097448647022247
1776814969524119800,5.724119873046875,-0.018117457628250122,-0.005047124810516834,0.12363317608833313
1776814969534156800,5.73415673828125,-0.019218675792217255,-0.017825504764914513,0.11792735010385513
1776814969544194800,5.74419482421875,-0.022715292870998383,-0.03498806804418564,0.11463329195976257
1776814969554232800,5.75423291015625,-0.02576647698879242,-0.04331524297595024,0.1210794746875763
1776814969564270800,5.764270751953125,-0.03227537125349045,-0.046333808451890945,0.12983469665050507
1776814969574307800,5.774307861328125,-0.03801768273115158,-0.04527413845062256,0.13510483503341675
1776814969584345900,5.784345947265625,-0.047089073807001114,-0.05008899047970772,0.14299729466438293
1776814969594384000,5.7943837890625,-0.054554980248212814,-0.060677722096443176,0.15331785380840302
1776814969604422000,5.804421875,-0.0657774955034256,-0.062104202806949615,0.16772836446762085
1776814969614458400,5.814458251953125,-0.06429357826709747,-0.06755436211824417,0.17955972254276276
1776814969624496400,5.824496337890625,-0.060621827840805054,-0.06606123596429825,0.17134234309196472
1776814969634534400,5.834534423828125,-0.04124759882688522,-0.05300775170326233,0.15803585946559906
1776814969644572200,5.844572265625,-0.03202975541353226,-0.03076084703207016,0.13824281096458435
1776814969654609400,5.854609375,-0.02531220018863678,-0.03396409749984741,0.12343830615282059
1776814969664647400,5.8646474609375,-0.020113609731197357,-0.06635260581970215,0.11361067742109299
1776814969674685200,5.874685302734375,-0.019299481064081192,-0.11093951761722565,0.1154615730047226
1776814969684723500,5.884723388671875,-0.023703046143054962,-0.12422462552785873,0.11752073466777802
1776814969694760400,5.894760498046875,-0.027584869414567947,-0.10795723646879196,0.10660150647163391
1776814969704798500,5.904798583984375,-0.026042349636554718,-0.05623803287744522,0.08630871027708054
1776814969714836500,5.91483642578125,-0.023548565804958344,-0.01783604547381401,0.07384485006332397
1776814969724873200,5.924873291015625,-0.030068784952163696,0.006577949970960617,0.07520598918199539
1776814969734911500,5.934911376953125,-0.042087629437446594,0.018783750012516975,0.08882885426282883
1776814969744949200,5.94494921875,-0.056901730597019196,0.002907847985625267,0.1103661060333252
1776814969754987300,5.9549873046875,-0.06891897320747375,-0.02638026513159275,0.12448272109031677
1776814969765024500,5.9650244140625,-0.07374048978090286,-0.0574021078646183,0.1292734295129776
1776814969775062300,5.975062255859375,-0.07068424671888351,-0.05945167690515518,0.13294433057308197
1776814969785100500,5.9851005859375,-0.06605164706707001,-0.03700500726699829,0.13503846526145935
1776814969795138300,5.99513818359375,-0.06495948880910873,-0.004329351242631674,0.1442125290632248
1776814969805175300,6.00517529296875,-0.06867985427379608,0.008775390684604645,0.17530250549316406
1776814969815213600,6.015213623046875,-0.08474031835794449,0.0010863118804991245,0.21182537078857422
1776814969825251300,6.025251220703125,-0.09356042742729187,0.008329420350492,0.24278517067432404
1776814969835289300,6.035289306640625,-0.09703239053487778,0.04233771935105324,0.2607708275318146
1776814969845326300,6.045326416015625,-0.10062486678361893,0.09948251396417618,0.2795770466327667
1776814969855364400,6.0553642578125,-0.10728197544813156,0.14012502133846283,0.29695630073547363
1776814969865402400,6.06540234375,-0.10612892359495163,0.14702481031417847,0.34095191955566406
1776814969875440400,6.0754404296875,-0.1245204508304596,0.14064069092273712,0.3810197114944458
1776814969885477400,6.085477294921875,-0.1387367993593216,0.14323805272579193,0.4228954613208771
1776814969895515400,6.095515380859375,-0.15136763453483582,0.14566925168037415,0.4648570120334625
1776814969905553400,6.105553466796875,-0.14532425999641418,0.14471425116062164,0.5131868124008179
1776814969915591200,6.115591064453125,-0.128187894821167,0.1885293871164322,0.5538985729217529
1776814969925628400,6.12562841796875,-0.11707552522420883,0.24397161602973938,0.6230157613754272
1776814969935666400,6.13566650390625,-0.11947796493768692,0.3079138398170471,0.7351036667823792
1776814969945704400,6.145704345703125,-0.13429953157901764,0.3590962290763855,0.8738346695899963
1776814969955742500,6.155742431640625,-0.14445629715919495,0.3000400960445404,1.0240315198898315
1776814969965779200,6.165779296875,-0.13978669047355652,0.26088064908981323,1.1622669696807861
1776814969975817500,6.1758173828125,-0.12304499000310898,0.25996798276901245,1.3039679527282715
1776814969985855200,6.185855224609375,-0.026130283251404762,0.24043527245521545,1.444541096687317
1776814969995893200,6.195893310546875,0.02858888730406761,0.1901092529296875,1.5615921020507812
1776814970005930500,6.205930419921875,0.0629754438996315,0.12396882474422455,1.6737741231918335
1776814970015968300,6.21596826171875,0.11549750715494156,-0.015279613435268402,1.811511516571045
1776814970026006500,6.226006591796875,0.1308092474937439,-0.13615524768829346,1.9639989137649536
1776814970036044300,6.236044189453125,0.11041982471942902,-0.07279013097286224,2.080368757247925
1776814970046081300,6.246081298828125,0.1584503948688507,0.02240792289376259,2.1671977043151855
1776814970056119600,6.25611962890625,0.26930874586105347,0.0020757545717060566,2.1583943367004395
1776814970066157300,6.2661572265625,0.42236098647117615,0.013531620614230633,2.04995059967041
1776814970076195300,6.2761953125,0.5621918439865112,-0.07592609524726868,1.9147911071777344
1776814970086232300,6.286232421875,0.5856746435165405,-0.1875462830066681,1.8467514514923096
1776814970096270300,6.296270263671875,0.5141767263412476,-0.1535893827676773,1.8407548666000366
1776814970106308400,6.306308349609375,0.4696161448955536,-0.05101040005683899,1.8602190017700195
1776814970116346400,6.316346435546875,0.4235176146030426,0.06566295027732849,1.7931782007217407
1776814970126383400,6.32638330078125,0.4325603246688843,0.21440543234348297,1.6484732627868652
1776814970136421400,6.33642138671875,0.470274418592453,0.20905514061450958,1.5780030488967896
1776814970146459400,6.34645947265625,0.49711212515830994,0.15694569051265717,1.6040513515472412
1776814970156497200,6.3564970703125,0.5524988770484924,0.07841918617486954,1.6888724565505981
1776814970166536400,6.366536376953125,0.658356249332428,0.14755484461784363,1.7310336828231812
1776814970176574500,6.376574462890625,0.7697818279266357,0.2946760952472687,1.7486616373062134
1776814970186611500,6.386611572265625,0.799430251121521,0.4694582223892212,1.7844082117080688
1776814970196649200,6.396649169921875,0.7692630290985107,0.4672025144100189,1.8360404968261719
1776814970206687500,6.4066875,0.7264696955680847,0.3943405747413635,1.9279091358184814
1776814970216725200,6.416725341796875,0.7196932435035706,0.4668336808681488,1.9312691688537598
1776814970226762200,6.42676220703125,0.7760396599769592,0.5810391306877136,1.8137837648391724
1776814970236800500,6.436800537109375,0.8272724747657776,0.6059879064559937,1.7945339679718018
1776814970246838300,6.44683837890625,0.7955211400985718,0.5325360298156738,1.8249735832214355
1776814970256876500,6.45687646484375,0.6921966075897217,0.4633801281452179,1.8832411766052246
1776814970266913500,6.46691357421875,0.5936827659606934,0.35401126742362976,1.972456693649292
1776814970276951300,6.476951416015625,0.5205965042114258,0.3152100741863251,2.0826282501220703
1776814970286989600,6.486989501953125,0.4738966226577759,0.2606373727321625,2.148449659347534
1776814970297027300,6.49702734375,0.45235565304756165,0.17534486949443817,2.182081699371338
1776814970307064300,6.507064208984375,0.354975163936615,0.24499395489692688,2.165268898010254
1776814970317102300,6.517102294921875,0.2513699531555176,0.27675771713256836,2.1539840698242188
1776814970327140400,6.527140380859375,0.16644169390201569,0.32453736662864685,2.1535935401916504
1776814970337178400,6.537178466796875,0.10631603002548218,0.33136066794395447,2.1474993228912354
1776814970347215400,6.54721533203125,0.17446988821029663,0.3980778157711029,2.1237099170684814
1776814970357253400,6.55725341796875,0.1395995169878006,0.4484270215034485,2.082702159881592
1776814970367291400,6.56729150390625,0.18415825068950653,0.4770524501800537,2.0288538932800293
1776814970377329400,6.577329345703125,0.19823706150054932,0.4309011995792389,1.996425747871399
1776814970387366400,6.587366455078125,0.28315025568008423,0.4380762279033661,1.9163316488265991
1776814970397404400,6.597404296875,0.3975788354873657,0.477647066116333,1.8057318925857544
1776814970407442400,6.6074423828125,0.448504239320755,0.5239666104316711,1.7762528657913208
1776814970417480400,6.61748046875,0.43132421374320984,0.5404467582702637,1.7969194650650024
1776814970427518500,6.6275185546875,0.3949320912361145,0.5199554562568665,1.8144164085388184
1776814970437555200,6.63755517578125,0.40411385893821716,0.48295852541923523,1.7871488332748413
1776814970447593500,6.647593505859375,0.39968228340148926,0.37065109610557556,1.7628120183944702
1776814970457631200,6.65763134765625,0.3780305087566376,0.27881917357444763,1.744195818901062
1776814970467668200,6.667668212890625,0.3393518030643463,0.2188841998577118,1.753404140472412
1776814970477706500,6.67770654296875,0.3127918541431427,0.09520620107650757,1.7897322177886963
1776814970487744300,6.687744140625,0.3518899083137512,0.04244483634829521,1.7765694856643677
1776814970497782500,6.697782470703125,0.37912312150001526,-0.0164262056350708,1.7579803466796875
1776814970507820300,6.7078203125,0.4012075364589691,-0.05202307924628258,1.6852012872695923
1776814970517857300,6.717857177734375,0.3883151710033417,-0.0039871083572506905,1.6338587999343872
1776814970527895600,6.7278955078125,0.35399770736694336,0.006054029334336519,1.6434803009033203
1776814970537933300,6.737933349609375,0.2915300726890564,0.04112919420003891,1.6617200374603271
1776814970547970300,6.74797021484375,0.24051885306835175,0.07490835338830948,1.6474895477294922
1776814970558008300,6.75800830078125,0.25530847907066345,0.08632532507181168,1.6274739503860474
1776814970568046300,6.76804638671875,0.281740665435791,0.06366679817438126,1.621497392654419
1776814970578084400,6.77808447265625,0.26436328887939453,0.013945309445261955,1.6100798845291138
1776814970588122400,6.788122314453125,0.1839381456375122,-0.03293810784816742,1.595805048942566
1776814970598159400,6.798159423828125,0.052343375980854034,-0.03342200443148613,1.593696117401123
1776814970608197400,6.808197265625,0.012468823231756687,-0.16870464384555817,1.5845032930374146
1776814970618235600,6.818235595703125,0.04368772730231285,-0.22135454416275024,1.5441089868545532
1776814970628273400,6.8282734375,0.034805990755558014,-0.3839978575706482,1.529211401939392
1776814970638310400,6.838310302734375,0.11278494447469711,-0.32815244793891907,1.4691866636276245
1776814970648348700,6.8483486328125,0.1426863670349121,-0.29513534903526306,1.3988456726074219
1776814970658386400,6.858386474609375,0.12876948714256287,-0.16649505496025085,1.329447627067566
1776814970668424700,6.8684248046875,0.05006851255893707,-0.05538889020681381,1.2435448169708252
1776814970678461400,6.87846142578125,0.014766713604331017,0.1215246319770813,1.1229592561721802
1776814970688499500,6.88849951171875,0.0486871600151062,0.11177197098731995,1.0202304124832153
1776814970698537500,6.898537353515625,0.10295439511537552,0.05759875476360321,0.9060628414154053
1776814970708575500,6.908575439453125,0.15163391828536987,-0.00364083144813776,0.8328378796577454
1776814970718612500,6.918612548828125,0.16947630047798157,-0.03483230620622635,0.7224866151809692
1776814970728650500,6.928650390625,0.17168410122394562,0.0020034562330693007,0.6074461340904236
1776814970738688500,6.9386884765625,0.1497710794210434,0.04231545701622963,0.4789816439151764
1776814970748726500,6.9487265625,0.17238843441009521,0.08458993583917618,0.35446810722351074
1776814970758763500,6.958763427734375,0.18018297851085663,0.08170067518949509,0.24402761459350586
1776814970768801500,6.968801513671875,0.1875344067811966,0.0918179377913475,0.13876819610595703
1776814970778839600,6.978839599609375,0.1764063835144043,0.12745635211467743,0.025539105758070946
1776814970788877600,6.988877685546875,0.1609889715909958,0.09214747697114944,-0.08728679269552231
1776814970798914600,6.99891455078125,0.13333763182163239,0.032626889646053314,-0.17073988914489746
1776814970808952600,7.00895263671875,0.10093632340431213,0.024878451600670815,-0.2766673266887665
1776814970818990600,7.018990478515625,0.08758536726236343,0.004334028344601393,-0.3839400112628937
1776814970829028600,7.029028564453125,0.07527682930231094,-0.0048418715596199036,-0.47667640447616577
1776814970839065600,7.039065673828125,0.051153652369976044,-0.05344722419977188,-0.5759318470954895
1776814970849103400,7.049103271484375,0.03694188594818115,-0.07441975176334381,-0.6708666086196899
1776814970859141600,7.0591416015625,0.020155716687440872,-0.10904137790203094,-0.7580814361572266
1776814970869179400,7.069179443359375,0.005192769691348076,-0.1357998102903366,-0.8313707113265991
1776814970879217700,7.0792177734375,-0.00598984444513917,-0.17707906663417816,-0.9248567223548889
1776814970889254700,7.089254638671875,-0.0031524617224931717,-0.1591673046350479,-1.0127097368240356
1776814970899292400,7.09929248046875,0.00011230725795030594,-0.1393829584121704,-1.0946406126022339
1776814970909330700,7.10933056640625,0.00856111478060484,-0.14959418773651123,-1.1717190742492676
1776814970919368400,7.119368408203125,0.006649230606853962,-0.17104674875736237,-1.237138032913208
1776814970929405400,7.129405517578125,0.005898543633520603,-0.1693560928106308,-1.3015791177749634
1776814970939443700,7.139443603515625,0.0014950064942240715,-0.14624197781085968,-1.3764256238937378
1776814970949481500,7.1494814453125,-0.004586079157888889,-0.1606176793575287,-1.4508397579193115
1776814970959519700,7.159519775390625,-0.003735464997589588,-0.1948462277650833,-1.5022765398025513
1776814970969556500,7.169556396484375,0.012429947964847088,-0.12810669839382172,-1.5491266250610352
1776814970979594500,7.179594482421875,0.015161552466452122,-0.08874572068452835,-1.6141109466552734
1776814970989632500,7.189632568359375,0.003886830061674118,-0.08766040951013565,-1.685465693473816
1776814970999670500,7.19967041015625,-0.026464683935046196,-0.15738782286643982,-1.7616592645645142
1776814971009707500,7.20970751953125,-0.024812832474708557,-0.13310426473617554,-1.8030470609664917
1776814971019745500,7.21974560546875,-0.007603751495480537,-0.04911775141954422,-1.802584171295166
1776814971029783600,7.229783447265625,-0.02529250830411911,-0.010937357321381569,-1.8495447635650635
1776814971039821600,7.239821533203125,-0.03978942334651947,0.014198888093233109,-1.9160999059677124
1776814971049859600,7.249859619140625,-0.07617230713367462,-0.05913550406694412,-1.9873052835464478
1776814971059896600,7.259896484375,-0.07061615586280823,0.02007196471095085,-2.0002033710479736
1776814971069934600,7.2699345703125,-0.149886354804039,0.06895279139280319,-2.0344157218933105
1776814971079972600,7.27997265625,-0.2350795418024063,0.12537159025669098,-2.0533368587493896
1776814971090010400,7.29001025390625,-0.33273082971572876,0.13585422933101654,-2.092442274093628
1776814971100047600,7.300047607421875,-0.40585219860076904,0.10109678655862808,-2.0964574813842773
1776814971110085400,7.31008544921875,-0.4511297345161438,0.11088445782661438,-2.0815932750701904
1776814971120123600,7.32012353515625,-0.5014469623565674,0.10921359062194824,-2.040652275085449
1776814971130161400,7.330161376953125,-0.5578194856643677,0.1141507551074028,-2.026423215866089
1776814971140199400,7.340199462890625,-0.6088567972183228,0.055697839707136154,-2.0534379482269287
1776814971150236700,7.350236572265625,-0.6476672887802124,0.01389133371412754,-2.0675740242004395
1776814971160274400,7.3602744140625,-0.6545898914337158,0.016075925901532173,-2.0839953422546387
1776814971170312400,7.3703125,-0.6611272096633911,-0.010342812165617943,-2.0928165912628174
1776814971180350500,7.3803505859375,-0.6758587956428528,-0.028655506670475006,-2.0542287826538086
1776814971190387500,7.390387451171875,-0.6948913931846619,-0.09061409533023834,-2.0481669902801514
1776814971200425700,7.40042578125,-0.7157673835754395,-0.17447225749492645,-2.0618207454681396
1776814971210463500,7.41046337890625,-0.7582617402076721,-0.20143350958824158,-2.0708842277526855
1776814971220501500,7.42050146484375,-0.8046207427978516,-0.1780797243118286,-2.0928738117218018
1776814971230539500,7.43053955078125,-0.8302802443504333,-0.13987235724925995,-2.1420485973358154
1776814971240576500,7.440576416015625,-0.8435094952583313,-0.1163579672574997,-2.1802194118499756
1776814971250614500,7.450614501953125,-0.8432050943374634,-0.1371321678161621,-2.2022292613983154
1776814971260652500,7.460652587890625,-0.8670102953910828,-0.17371760308742523,-2.2109150886535645
1776814971270690600,7.470690673828125,-0.8962946534156799,-0.192048117518425,-2.178895950317383
1776814971280727600,7.4807275390625,-0.8918841481208801,-0.19456294178962708,-2.176392078399658
1776814971290765600,7.490765625,-0.8881027698516846,-0.058518506586551666,-2.235790491104126
1776814971300803300,7.50080322265625,-0.8475539684295654,-0.04662589356303215,-2.26786732673645
1776814971310841600,7.510841552734375,-0.7946410179138184,-0.09831082820892334,-2.28226637840271
1776814971320879400,7.52087939453125,-0.763140082359314,-0.0992882028222084,-2.2901597023010254
1776814971330916400,7.530916259765625,-0.74351966381073,-0.07906419783830643,-2.313878059387207
1776814971340954600,7.54095458984375,-0.7298866510391235,0.01464551780372858,-2.4238526821136475
1776814971350992400,7.550992431640625,-0.7018588185310364,0.14641746878623962,-2.5436644554138184
1776814971361030700,7.56103076171875,-0.6988859176635742,0.014703910797834396,-2.5155622959136963
1776814971371067600,7.571067626953125,-0.6742964386940002,-0.06923671066761017,-2.510293483734131
1776814971381105400,7.58110546875,-0.6389930248260498,-0.08699014037847519,-2.561285972595215
1776814971391143700,7.591143798828125,-0.5921049118041992,0.22893363237380981,-2.8044869899749756
1776814971401181400,7.601181396484375,-0.5720092058181763,0.19552800059318542,-2.78559947013855
1776814971411218400,7.611218505859375,-0.5619914531707764,-0.014209144748747349,-2.641214370727539
1776814971421256400,7.62125634765625,-0.5284310579299927,-0.18736574053764343,-2.489516258239746
1776814971431294500,7.63129443359375,-0.486175000667572,-0.32180356979370117,-2.395907163619995
1776814971441332500,7.64133251953125,-0.40521252155303955,-0.23070694506168365,-2.4249579906463623
1776814971451370500,7.65137060546875,-0.3804949223995209,-0.15193486213684082,-2.4625778198242188
1776814971461407500,7.661407470703125,-0.39484402537345886,-0.24305596947669983,-2.3861520290374756
1776814971471445500,7.671445556640625,-0.3920130133628845,-0.2881131172180176,-2.261220932006836
1776814971481483500,7.6814833984375,-0.36454278230667114,-0.1388453245162964,-2.2280941009521484
1776814971491521500,7.691521484375,-0.3440760672092438,-0.05154821276664734,-2.2245066165924072
1776814971501558500,7.70155859375,-0.3236861228942871,-0.12475612014532089,-2.0369608402252197
1776814971511596500,7.711596435546875,-0.2645736038684845,-0.14000669121742249,-1.8440823554992676
1776814971521634600,7.721634521484375,-0.229792982339859,-0.18174082040786743,-1.6732592582702637
1776814971531672600,7.731672607421875,-0.1618514060974121,-0.23920556902885437,-1.502355933189392
1776814971541709300,7.741709228515625,-0.10733330249786377,-0.24248206615447998,-1.353370189666748
1776814971551747600,7.75174755859375,-0.056791383773088455,-0.1933150291442871,-1.2424349784851074
1776814971561785300,7.761785400390625,-0.03695455938577652,-0.1700485795736313,-1.1651151180267334
1776814971571823600,7.77182373046875,-0.04779668152332306,-0.1810077577829361,-1.0858192443847656
1776814971581860600,7.781860595703125,-0.05629748851060867,-0.20386859774589539,-0.9932703971862793
1776814971591898400,7.7918984375,-0.05963176488876343,-0.22481489181518555,-0.8915485739707947
1776814971601936600,7.8019365234375,-0.06019929051399231,-0.24440297484397888,-0.7887619733810425
1776814971611974100,7.81197412109375,-0.0650508925318718,-0.24718092381954193,-0.6824321746826172
1776814971622012400,7.822012451171875,-0.05382992699742317,-0.22431768476963043,-0.5913752317428589
1776814971632049400,7.83204931640625,-0.07043864578008652,-0.21068821847438812,-0.49844375252723694
1776814971642087400,7.84208740234375,-0.06517117470502853,-0.18318815529346466,-0.3916837275028229
1776814971652125400,7.85212548828125,-0.032623372972011566,-0.1569603532552719,-0.2658248245716095
1776814971662163200,7.8621630859375,0.022818848490715027,-0.15247319638729095,-0.15150439739227295
1776814971672200400,7.872200439453125,0.07537470012903214,-0.19327713549137115,-0.07841752469539642
1776814971682238500,7.882238525390625,0.10313202440738678,-0.2761635184288025,-0.022277021780610085
1776814971692276200,7.892276123046875,0.12186826765537262,-0.3704304099082947,0.02400721050798893
1776814971702314500,7.902314453125,0.12489496171474457,-0.3875444233417511,0.059005141258239746
1776814971712351200,7.912351318359375,0.13024941086769104,-0.30490854382514954,0.07361805438995361
1776814971722389500,7.922389404296875,0.1383318454027176,-0.2165626883506775,0.05516820400953293
1776814971732427300,7.93242724609375,0.13992297649383545,-0.21818672120571136,0.017243744805455208
1776814971742465300,7.94246533203125,0.12232615053653717,-0.256105899810791,-0.011474985629320145
1776814971752502500,7.95250244140625,0.09191947430372238,-0.2416577786207199,-0.014553185552358627
1776814971762540300,7.962540283203125,0.06545830518007278,-0.11922159790992737,-0.012378714978694916
1776814971772578300,7.972578369140625,0.05866740271449089,0.06425896286964417,-0.029179509729146957
1776814971782616300,7.9826162109375,0.056715842336416245,0.21571186184883118,-0.05993848666548729
1776814971792653300,7.9926533203125,0.04015437141060829,0.32073962688446045,-0.09386526793241501
1776814971802691600,8.002691650390625,0.023189768195152283,0.3919304311275482,-0.10879841446876526
1776814971812729300,8.012729248046876,-0.007491652853786945,0.43612906336784363,-0.12146633863449097
1776814971822767400,8.022767333984374,-0.03455309942364693,0.44936203956604004,-0.12706804275512695
1776814971832804400,8.032804443359375,-0.05628557875752449,0.44576045870780945,-0.13339310884475708
1776814971842842400,8.04284228515625,-0.06240472570061684,0.4467165172100067,-0.13976553082466125
1776814971852880100,8.052880126953125,-0.07087467610836029,0.4094769358634949,-0.1577073633670807
1776814971862918400,8.06291845703125,-0.08157525956630707,0.31010428071022034,-0.17759984731674194
1776814971872956200,8.0729560546875,-0.08436340093612671,0.18963688611984253,-0.18287919461727142
1776814971882993400,8.082993408203125,-0.05859731510281563,0.10175657272338867,-0.1679292768239975
1776814971893031400,8.093031494140625,-0.022138867527246475,0.09109970182180405,-0.14614804089069366
1776814971903069200,8.103069091796876,0.011913907714188099,0.1195843368768692,-0.11492140591144562
1776814971913107500,8.113107421875,0.040013909339904785,0.1401611566543579,-0.10299806296825409
1776814971923144400,8.12314453125,0.061428386718034744,0.0936003103852272,-0.10786046087741852
1776814971933182200,8.13318212890625,0.06765373051166534,-0.03374621272087097,-0.1018911823630333
1776814971943220500,8.143220458984375,0.06424355506896973,-0.17032429575920105,-0.078265480697155
1776814971953258200,8.15325830078125,0.06208689138293266,-0.25307998061180115,-0.039854831993579865
1776814971963295500,8.16329541015625,0.05745565518736839,-0.2554672360420227,0.007932132109999657
1776814971973333200,8.173333251953125,0.05376504734158516,-0.19930514693260193,0.049810606986284256
1776814971983371300,8.183371337890625,0.05306197330355644,-0.1309814751148224,0.0792558491230011
1776814971993409300,8.1934091796875,0.05320219695568085,-0.0650128647685051,0.09141631424427032
1776814972003446300,8.2034462890625,0.05959431827068329,0.0002494982909411192,0.09789285808801651
1776814972013484300,8.213484375,0.07941178232431412,0.0692969486117363,0.08804096281528473
1776814972023522300,8.223522216796875,0.09662006795406342,0.15300144255161285,0.056725382804870605
1776814972033560300,8.233560302734375,0.09969566762447357,0.196909561753273,0.029040558263659477
1776814972043597600,8.24359765625,0.08297047764062881,0.18022726476192474,0.005132030695676804
1776814972053635300,8.25363525390625,0.05076153203845024,0.11449408531188965,0.0030650203116238117
1776814972063673300,8.26367333984375,0.015296478755772114,0.04342789575457573,0.024643549695611
1776814972073711400,8.27371142578125,-0.022509217262268066,-0.004742586985230446,0.06227926164865494
1776814972083748400,8.283748291015625,-0.05171264335513115,-0.017797136679291725,0.09579168260097504
1776814972093786000,8.2937861328125,-0.06400428712368011,0.009855583310127258,0.10397457331418991
1776814972103824400,8.303824462890624,-0.06163061410188675,0.06953968107700348,0.08969789743423462
1776814972113862400,8.3138623046875,-0.04496803507208824,0.15306445956230164,0.0731462761759758
1776814972123899400,8.3238994140625,-0.025659050792455673,0.21272645890712738,0.0515376515686512
1776814972133937400,8.3339375,-0.0041532497853040695,0.2402273565530777,0.03571173548698425
1776814972143975200,8.34397509765625,0.027035564184188843,0.22607478499412537,0.01928083412349224
1776814972154013400,8.354013427734374,0.053074173629283905,0.18990904092788696,-0.0011847468558698893
1776814972164050400,8.364050537109375,0.06561126559972763,0.13200871646404266,-0.020545927807688713
1776814972174088200,8.374088134765625,0.06300630420446396,0.06099218875169754,-0.04077813774347305
1776814972184126500,8.38412646484375,0.04593277350068092,-0.039835356175899506,-0.04539792239665985
1776814972194164200,8.394164306640626,0.028134949505329132,-0.14046639204025269,-0.035150330513715744
1776814972204201500,8.404201416015624,0.01522128190845251,-0.20018750429153442,-0.02640850469470024
1776814972214239200,8.4142392578125,0.004511249251663685,-0.21052896976470947,-0.02068447880446911
1776814972224277200,8.42427734375,0.0041125742718577385,-0.18393650650978088,-0.018237300217151642
1776814972234315500,8.4343154296875,0.0057628704234957695,-0.1460394561290741,-0.019801760092377663
1776814972244352300,8.444352294921876,0.0163971409201622,-0.11901023983955383,-0.01761610247194767
1776814972254390300,8.454390380859374,0.02662969008088112,-0.1086278110742569,-0.007880927063524723
1776814972264428300,8.46442822265625,0.03687140718102455,-0.09707847982645035,-0.007033775560557842
1776814972274466300,8.47446630859375,0.034451618790626526,-0.08155324310064316,-0.01614362932741642
1776814972284503600,8.484503662109375,0.023061543703079224,-0.08373410254716873,-0.021818293258547783
1776814972294541300,8.494541259765626,0.011044612154364586,-0.09587448090314865,-0.02081065997481346
1776814972304579300,8.504579345703124,0.006394732743501663,-0.09776479750871658,-0.016314178705215454
1776814972314617300,8.514617431640625,0.0008567124605178833,-0.0666055902838707,-0.021731767803430557
1776814972324654300,8.524654296875,0.0028841765597462654,-0.012354866601526737,-0.02137650176882744
1776814972334692400,8.5346923828125,0.005662701092660427,0.025864331051707268,-0.015463856980204582
1776814972344730400,8.54473046875,0.016578465700149536,0.03213794156908989,-0.00934338103979826
1776814972354768400,8.554768310546875,0.013955594040453434,0.029845859855413437,0.003457262646406889
1776814972364805400,8.564805419921875,0.011746234260499477,0.013231996446847916,0.005633065477013588
1776814972374843400,8.574843505859375,0.0014215800911188126,-0.014755596406757832,0.013463810086250305
1776814972384881200,8.584881103515626,-0.006938348989933729,-0.05039961263537407,0.02395613119006157
1776814972394919400,8.59491943359375,-0.01189253106713295,-0.07456478476524353,0.033465269953012466
1776814972404956400,8.604956298828125,-0.014171131886541843,-0.07694485783576965,0.03757133334875107
1776814972414994200,8.614994140625,-0.013683784753084183,-0.06937173008918762,0.03518776223063469
1776814972425032400,8.625032470703125,-0.011608117260038853,-0.06294605880975723,0.04091915115714073
1776814972435070200,8.6350703125,-0.002480766735970974,-0.06459648907184601,0.0444212406873703
1776814972445107500,8.645107421875,0.008604375645518303,-0.07420383393764496,0.037225645035505295
1776814972455145500,8.6551455078125,0.015083436854183674,-0.0829126238822937,0.026405803859233856
1776814972465183200,8.665183349609375,0.016977209597826004,-0.08930527418851852,0.013323290273547173
1776814972475221500,8.675221435546876,0.01904451474547386,-0.09614339470863342,0.0031949274707585573
1776814972485258200,8.68525830078125,0.015580541454255581,-0.10372328013181686,0.006176070310175419
1776814972495296300,8.695296142578124,0.01710214838385582,-0.09466802328824997,0.003345879027619958
1776814972505334300,8.705334228515625,0.013594766147434711,-0.06910646706819534,0.011977450922131538
1776814972515372300,8.715372314453125,0.011996823363006115,-0.04117407649755478,0.02012469805777073
1776814972525409500,8.725409423828125,0.009327535517513752,-0.019243210554122925,0.03266818821430206
1776814972535447300,8.735447265625,0.013720868155360222,-0.008474420756101608,0.050259415060281754
1776814972545485300,8.7454853515625,0.008455533534288406,0.004331122152507305,0.057300012558698654
1776814972555522600,8.7555224609375,0.0020698532462120056,0.015022555366158485,0.054515041410923004
1776814972565560300,8.765560302734375,-0.003816797398030758,0.01800423115491867,0.05707434192299843
1776814972575598300,8.775598388671876,-0.0068499199114739895,0.006399067118763924,0.06781976670026779
1776814972585636400,8.78563623046875,-0.0005954857915639877,0.007330907508730888,0.07969214022159576
1776814972595673300,8.79567333984375,0.003963770344853401,0.022023456171154976,0.09419316053390503
1776814972605711400,8.80571142578125,0.01285633072257042,0.042307157069444656,0.10712307691574097
1776814972615750000,8.81575,0.01884467899799347,0.05600665882229805,0.12048590183258057
1776814972625787600,8.82578759765625,0.024167008697986603,0.07386475801467896,0.12239991128444672
1776814972635824600,8.83582470703125,0.03211915120482445,0.10044972598552704,0.12131599336862564
1776814972645863000,8.84586279296875,0.026400547474622726,0.11929717659950256,0.11937002092599869
1776814972655900700,8.855900634765625,0.019502267241477966,0.1107528880238533,0.11530213057994843
1776814972665939000,8.86593896484375,0.010810774751007557,0.08829259127378464,0.12864910066127777
1776814972675975700,8.8759755859375,0.008630539290606976,0.06357453763484955,0.1415891796350479
1776814972686013700,8.886013671875,0.014693225733935833,0.07042551785707474,0.15261413156986237
1776814972696051700,8.8960517578125,0.012855366803705692,0.11186366528272629,0.16743777692317963
1776814972706089700,8.90608984375,0.01320450659841299,0.16307224333286285,0.18329450488090515
1776814972716126700,8.916126708984375,0.02316874824464321,0.20101825892925262,0.199810191988945
1776814972726164700,8.926164794921876,0.03749176114797592,0.2320888191461563,0.22091467678546906
1776814972736202800,8.93620263671875,0.043110333383083344,0.23030750453472137,0.2468777894973755
1776814972746240800,8.94624072265625,0.038603466004133224,0.18836137652397156,0.27004119753837585
1776814972756277800,8.95627783203125,0.03198171779513359,0.11533696949481964,0.28609752655029297
1776814972766315800,8.966315673828126,0.03058755025267601,0.059277165681123734,0.30102428793907166
1776814972776353800,8.976353759765624,0.038870714604854584,0.04961787536740303,0.32500168681144714
1776814972786391800,8.986391845703125,0.05919968709349632,0.10241983830928802,0.3603535294532776
1776814972796428800,8.9964287109375,0.08453815430402756,0.1882457584142685,0.41188910603523254
1776814972806466800,9.006466796875,0.09822893887758255,0.2537344694137573,0.4600638151168823
1776814972816504800,9.0165048828125,0.1112690195441246,0.2687097191810608,0.5102651715278625
1776814972826542800,9.02654296875,0.12691588699817657,0.2462342381477356,0.5534331798553467
1776814972836579800,9.036579833984375,0.1446230560541153,0.20089273154735565,0.5985515713691711
1776814972846617600,9.04661767578125,0.14955604076385498,0.1513664573431015,0.6441012620925903
1776814972856656000,9.05665576171875,0.150905579328537,0.14092886447906494,0.6933549046516418
1776814972866693600,9.066693603515626,0.13960446417331696,0.165414497256279,0.7523162364959717
1776814972876730600,9.076730712890624,0.1112573966383934,0.13920214772224426,0.8164685368537903
1776814972886769000,9.086768798828125,0.07484373450279236,0.05122942104935646,0.894123375415802
1776814972896806700,9.096806640625,0.05380255728960037,-0.02448463998734951,0.9680932760238647
1776814972906843600,9.10684375,0.05632563680410385,-0.01871144026517868,1.0267025232315063
1776814972916882000,9.1168818359375,0.08219683170318604,0.05755605548620224,1.0859169960021973
1776814972926919700,9.126919677734374,0.10963458567857742,0.07675158977508545,1.1389245986938477
1776814972936958000,9.1369580078125,0.14023198187351227,-0.021673662588000298,1.198174238204956
1776814972946994700,9.14699462890625,0.1565164029598236,-0.15651482343673706,1.2712428569793701
1776814972957032700,9.15703271484375,0.16961504518985748,-0.25913989543914795,1.3407634496688843
1776814972967070700,9.16707080078125,0.18988089263439178,-0.2951708436012268,1.4045969247817993
1776814972977108700,9.177108642578125,0.19325664639472961,-0.23059581220149994,1.4704910516738892
1776814972987145700,9.187145751953125,0.1880972981452942,-0.15528854727745056,1.560067057609558
1776814972997183700,9.197183837890625,0.18165098130702972,-0.11938580870628357,1.6960985660552979
1776814973007221800,9.2072216796875,0.15808066725730896,-0.18441541492938995,1.8244365453720093
1776814973017259800,9.217259765625,0.12948375940322876,-0.26950347423553467,1.901986002922058
1776814973027296800,9.227296875,0.10729455947875977,-0.31127381324768066,1.8954932689666748
1776814973037334800,9.237334716796875,0.07969224452972412,-0.29640689492225647,1.8321760892868042
1776814973047372800,9.247372802734375,0.06155824661254883,-0.3208422064781189,1.770017385482788
1776814973057410800,9.257410888671876,0.05066831782460213,-0.45951539278030396,1.7555408477783203
1776814973067447600,9.267447509765624,0.07906453311443329,-0.5451978445053101,1.7989463806152344
1776814973077485800,9.27748583984375,0.16931071877479553,-0.45920562744140625,1.8410766124725342
1776814973087523600,9.287523681640625,0.308214008808136,-0.3272337317466736,1.8562166690826416
1776814973097561900,9.297561767578125,0.46499577164649963,-0.19915762543678284,1.8285810947418213
1776814973107598800,9.307598876953126,0.5884279012680054,-0.08491041511297226,1.7657427787780762
1776814973117636600,9.31763671875,0.6758868098258972,-0.05070693418383598,1.7236374616622925
1776814973127675000,9.3276748046875,0.6996296644210815,0.06959550827741623,1.6764636039733887
1776814973137712600,9.337712646484375,0.7134690284729004,0.18935982882976532,1.598780870437622
1776814973147749600,9.34774951171875,0.6531087756156921,0.213384747505188,1.5053542852401733
1776814973157788000,9.357787841796876,0.5780166387557983,0.13575346767902374,1.5288431644439697
1776814973167825700,9.36782568359375,0.5971953868865967,0.11206571757793427,1.6268211603164673
1776814973177864000,9.377864013671875,0.6571568250656128,0.21814195811748505,1.7298600673675537
1776814973187900700,9.387900634765625,0.7239118814468384,0.3322671949863434,1.7186611890792847
1776814973197938700,9.397938720703126,0.7320490479469299,0.4219377934932709,1.6745556592941284
1776814973207976700,9.407976806640624,0.6807275414466858,0.5249525308609009,1.675403118133545
1776814973218014700,9.4180146484375,0.6279884576797485,0.5652658343315125,1.6854679584503174
1776814973228051700,9.4280517578125,0.6056706309318542,0.5409698486328125,1.6766947507858276
1776814973238089700,9.43808984375,0.6116809844970703,0.5607808232307434,1.7007001638412476
1776814973248127700,9.448127685546876,0.6202012300491333,0.5981047749519348,1.6766456365585327
1776814973258165000,9.4581650390625,0.5729225873947144,0.48898372054100037,1.6667848825454712
1776814973268202800,9.46820263671875,0.4911118447780609,0.3483025133609772,1.7455894947052002
1776814973278240800,9.47824072265625,0.45276355743408203,0.26894721388816833,1.848951816558838
1776814973288278800,9.48827880859375,0.4363914728164673,0.1950354278087616,1.8697534799575806
1776814973298315800,9.498315673828126,0.4553038775920868,0.12130382657051086,1.8105746507644653
1776814973308353500,9.508353515625,0.486371785402298,0.03360193967819214,1.7647626399993896
1776814973318391800,9.518391845703125,0.46439141035079956,0.016885824501514435,1.7440565824508667
1776814973328429800,9.528429931640625,0.40405669808387756,-0.01259776670485735,1.7617567777633667
1776814973338466800,9.538466796875,0.37325969338417053,-0.019550804048776627,1.8313692808151245
1776814973348504800,9.5485048828125,0.29297417402267456,-0.014049513265490532,1.927941918373108
1776814973358542600,9.55854248046875,0.25092196464538574,-0.07219666242599487,1.9065344333648682
1776814973368580900,9.568580810546875,0.21606384217739105,-0.10415725409984589,1.8512991666793823
1776814973378617900,9.578617919921875,0.25287821888923645,-0.024359017610549927,1.7668794393539429
1776814973388655600,9.588655517578125,0.2959628403186798,0.007177603431046009,1.6853837966918945
1776814973398694000,9.59869384765625,0.29264986515045166,0.05957396328449249,1.6905841827392578
1776814973408731600,9.608731689453125,0.32425761222839355,0.13691535592079163,1.7065266370773315
1776814973418769000,9.618768798828125,0.2732884883880615,0.03278093412518501,1.7353408336639404
1776814973428806700,9.628806640625,0.2481522560119629,0.058072976768016815,1.7136709690093994
1776814973438844700,9.6388447265625,0.231296107172966,0.08531350642442703,1.7336386442184448
1776814973448882000,9.6488818359375,0.19973444938659668,0.051148880273103714,1.757906198501587
1776814973458919700,9.658919677734374,0.17893630266189575,0.006706562824547291,1.7326200008392334
1776814973468957700,9.668957763671875,0.09877409040927887,0.003917966969311237,1.7572630643844604
1776814973478995700,9.67899560546875,0.03424111008644104,-0.04080969840288162,1.8067556619644165
1776814973489032700,9.68903271484375,0.030706562101840973,0.00996240321546793,1.8469536304473877
1776814973499071000,9.699071044921874,-0.03978575021028519,0.05838979408144951,1.8393837213516235
1776814973509108700,9.709108642578125,-0.06979317963123322,0.18112397193908691,1.7945616245269775
1776814973519146800,9.719146728515625,-0.055517714470624924,0.22041626274585724,1.771641492843628
1776814973529183700,9.729183837890625,0.007645807228982449,0.2839169502258301,1.7444052696228027
1776814973539221800,9.7392216796875,-0.06216706708073616,0.21601146459579468,1.7828162908554077
1776814973549259800,9.749259765625,-0.09287890791893005,0.14949022233486176,1.7950048446655273
1776814973559297800,9.7592978515625,-0.09200909733772278,0.08417151868343353,1.7931634187698364
1776814973569334800,9.769334716796875,-0.15769250690937042,0.08825467526912689,1.7724945545196533
1776814973579372800,9.779372802734375,-0.17121602594852448,0.05335379019379616,1.7620999813079834
1776814973589410800,9.789410888671876,-0.16154395043849945,0.0805065780878067,1.7328039407730103
1776814973599447800,9.79944775390625,-0.104738250374794,0.03909958153963089,1.7060885429382324
1776814973609485800,9.80948583984375,-0.058256231248378754,0.06403129547834396,1.6820673942565918
1776814973619524000,9.819524169921875,-0.04802675172686577,0.16552715003490448,1.6354235410690308
1776814973629561900,9.829561767578125,-0.11087841540575027,0.24478468298912048,1.6087676286697388
1776814973639598800,9.839598876953126,-0.16530540585517883,0.2628691792488098,1.5835193395614624
1776814973649636900,9.849636962890624,-0.12741075456142426,0.17422641813755035,1.5400160551071167
1776814973659675000,9.8596748046875,-0.03818000480532646,0.04370993748307228,1.5346765518188477
1776814973669713000,9.869712890625,0.024821866303682327,0.027713662013411522,1.5284794569015503
1776814973679750000,9.87975,0.05094144493341446,0.08670435845851898,1.4845160245895386
1776814973689788000,9.889787841796876,0.04759571701288223,0.13088513910770416,1.4342645406723022
1776814973699826000,9.899825927734375,0.040632035583257675,0.1499321460723877,1.3626594543457031
1776814973709864000,9.909864013671875,0.03145984187722206,0.15914668142795563,1.305678367614746
1776814973719901000,9.91990087890625,0.09051793813705444,0.04153342917561531,1.2719378471374512
1776814973729939000,9.92993896484375,0.1307615041732788,-0.043950844556093216,1.2553561925888062
1776814973739977000,9.93997705078125,0.19081787765026093,-0.0935584232211113,1.2206887006759644
1776814973750014700,9.9500146484375,0.21771341562271118,-0.09471423923969269,1.1899994611740112
1776814973760052000,9.960052001953125,0.21862174570560455,-0.01846151240170002,1.1266257762908936
1776814973770090000,9.970090087890625,0.22588258981704712,0.0645151287317276,1.0622419118881226
1776814973780128000,9.9801279296875,0.20433028042316437,0.16017401218414307,1.0046114921569824
1776814973790166000,9.990166015625,0.20025165379047394,0.22376178205013275,0.9125417470932007
1776814973800202800,10.00020263671875,0.22127662599086761,0.20421569049358368,0.8601115345954895
1776814973810241000,10.010240966796875,0.23313061892986298,0.1659654974937439,0.8253708481788635
1776814973820278800,10.02027880859375,0.25295376777648926,0.13256551325321198,0.8030955195426941
1776814973830316800,10.03031689453125,0.2528959810733795,0.1332307755947113,0.7760915756225586
1776814973840354000,10.04035400390625,0.25383833050727844,0.12238945811986923,0.7399025559425354
1776814973850391800,10.050391845703125,0.2344507873058319,0.10073024034500122,0.697630763053894
1776814973860430000,10.06043017578125,0.21129687130451202,0.1898190826177597,0.6310762166976929
1776814973870467000,10.070467041015625,0.20613299310207367,0.22503645718097687,0.5535643696784973
1776814973880504800,10.0805048828125,0.21766090393066406,0.17222024500370026,0.5107091069221497
1776814973890543000,10.090543212890625,0.2338382750749588,0.0895000621676445,0.47182005643844604
1776814973900580900,10.100580810546875,0.25625574588775635,0.02478344552218914,0.42975127696990967
1776814973910617900,10.110617919921875,0.2693268060684204,0.013403760269284248,0.39474987983703613
1776814973920656000,10.12065576171875,0.23670892417430878,0.007229330949485302,0.3278110921382904
1776814973930694000,10.13069384765625,0.24416711926460266,0.19111819565296173,0.23868387937545776
1776814973940732000,10.14073193359375,0.2077043056488037,0.159288227558136,0.13886576890945435
1776814973950769000,10.150768798828125,0.21979773044586182,0.17571327090263367,0.08882470428943634
1776814973960807000,10.160806884765625,0.1956881880760193,0.1348356455564499,0.02122943289577961
1776814973970845000,10.170844970703126,0.19870901107788086,0.09424294531345367,-0.020986463874578476
1776814973980883000,10.180883056640624,0.17873439192771912,0.04899110645055771,-0.0692276731133461
1776814973990920000,10.190919921875,0.16392162442207336,0.029147624969482422,-0.13793615996837616
1776814974000958000,10.2009580078125,0.16005516052246094,0.024955863133072853,-0.2150021195411682
1776814974010996000,10.210995849609375,0.14953140914440155,0.011917825788259506,-0.28130391240119934
1776814974021034000,10.221033935546876,0.11890015006065369,0.011324171908199787,-0.34999921917915344
1776814974031071000,10.231071044921874,0.07954422384500504,-0.0027876521926373243,-0.4122796356678009
1776814974041108700,10.241108642578125,0.047288089990615845,-0.009501087479293346,-0.4590333104133606
1776814974051147000,10.25114697265625,0.01831449568271637,-0.04070960730314255,-0.5088363289833069
1776814974061184800,10.261184814453125,-0.012739884667098522,-0.09972207248210907,-0.5685150027275085
1776814974071222800,10.271222900390624,-0.02852683886885643,-0.12227346003055573,-0.6056230068206787
1776814974081260000,10.281260009765624,-0.04002077504992485,-0.1267765909433365,-0.651645839214325
1776814974091297800,10.2912978515625,-0.048463527113199234,-0.135908842086792,-0.7000882625579834
1776814974101336000,10.301336181640625,-0.05945076793432236,-0.153989776968956,-0.7676867842674255
1776814974111373800,10.311373779296876,-0.05428929626941681,-0.1794583797454834,-0.8385990262031555
1776814974121410800,10.321410888671876,-0.06465235352516174,-0.2214469164609909,-0.8874847888946533
1776814974131449000,10.331448974609375,-0.06631576269865036,-0.2532389163970947,-0.9159132242202759
1776814974141486800,10.34148681640625,-0.06265828013420105,-0.2805548906326294,-0.9770535826683044
1776814974151524900,10.35152490234375,-0.05485015735030174,-0.2593822181224823,-1.0321762561798096
1776814974161561900,10.361561767578126,-0.06638698279857635,-0.2849356532096863,-1.0838510990142822
1776814974171600000,10.371599853515624,-0.058096032589673996,-0.24966049194335938,-1.1165728569030762
1776814974181638000,10.381637939453125,-0.04114961624145508,-0.23389068245887756,-1.1436758041381836
1776814974191676000,10.391676025390625,-0.02189895696938038,-0.29138484597206116,-1.1958330869674683
1776814974201713000,10.401712890625,-0.022723879665136337,-0.308805912733078,-1.2310599088668823
1776814974211751000,10.4117509765625,-0.012316247448325157,-0.29966700077056885,-1.2812144756317139
1776814974221789000,10.421788818359374,-0.008170219138264656,-0.2517823576927185,-1.3441524505615234
1776814974231826700,10.43182666015625,0.00952302385121584,-0.1814144253730774,-1.388732671737671
1776814974241864000,10.441864013671875,0.0033676577731966972,-0.16220654547214508,-1.44309663772583
1776814974251902000,10.45190185546875,-0.01280651893466711,-0.100009486079216,-1.4851568937301636
1776814974261940000,10.46193994140625,-0.023896517232060432,-0.12181223183870316,-1.5145008563995361
1776814974271978000,10.47197802734375,-0.014608209952712059,-0.10353336483240128,-1.5277260541915894
1776814974282014700,10.4820146484375,0.0011685863137245178,-0.1402301788330078,-1.5640448331832886
1776814974292053000,10.492052978515625,-0.00551488297060132,-0.15460459887981415,-1.6156092882156372
1776814974302091000,10.502091064453126,-0.021735183894634247,-0.048573654145002365,-1.6594420671463013
1776814974312128800,10.512128662109374,-0.0421360619366169,-0.004067705944180489,-1.7145015001296997
1776814974322166000,10.522166015625,-0.08037227392196655,-0.006286413874477148,-1.7110191583633423
1776814974332203800,10.532203857421875,-0.0829150602221489,-0.00908220000565052,-1.7483066320419312
1776814974342242000,10.542241943359375,-0.08576646447181702,0.0176183320581913,-1.7394943237304688
1776814974352279800,10.55227978515625,-0.11617310345172882,-0.00017397990450263023,-1.7539925575256348
1776814974362317800,10.56231787109375,-0.16640135645866394,-0.02311422862112522,-1.8020586967468262
1776814974372355000,10.57235498046875,-0.20170262455940247,-0.0010752396192401648,-1.835609793663025
1776814974382392800,10.582392822265625,-0.23245958983898163,0.045182764530181885,-1.8678027391433716
1776814974392430800,10.592430908203125,-0.2630201578140259,0.07858546078205109,-1.864050269126892
1776814974402468900,10.60246875,-0.30368590354919434,0.10327672213315964,-1.8305672407150269
1776814974412505900,10.612505859375,-0.36128607392311096,0.11936300992965698,-1.8131000995635986
1776814974422544100,10.622544189453125,-0.42866501212120056,0.132222518324852,-1.8208032846450806
1776814974432582000,10.632581787109375,-0.49452686309814453,0.12081219255924225,-1.8385322093963623
1776814974442620000,10.642619873046876,-0.5278685092926025,0.1278296709060669,-1.8433003425598145
1776814974452657000,10.652656982421876,-0.523953378200531,0.14423847198486328,-1.8531413078308105
1776814974462695000,10.66269482421875,-0.5124179124832153,0.14295798540115356,-1.851191759109497
1776814974472732700,10.672732666015625,-0.5167481899261475,0.13257965445518494,-1.8413490056991577
1776814974482771000,10.68277099609375,-0.524637758731842,0.11517006158828735,-1.8734937906265259
1776814974492808700,10.69280859375,-0.5207991003990173,0.06309780478477478,-1.8700441122055054
1776814974502846000,10.702845947265626,-0.5133868455886841,0.027673188596963882,-1.8463492393493652
1776814974512884000,10.712884033203125,-0.5088783502578735,0.022099457681179047,-1.8183956146240234
1776814974522921700,10.722921630859375,-0.5208794474601746,0.0463000051677227,-1.8089563846588135
1776814974532960000,10.7329599609375,-0.545214056968689,0.04218941554427147,-1.8117116689682007
1776814974542997000,10.7429970703125,-0.5288367867469788,0.007176285609602928,-1.8344706296920776
1776814974553034800,10.75303466796875,-0.5177471041679382,0.01650933362543583,-1.8536860942840576
1776814974563073000,10.763072998046875,-0.5297269225120544,-0.026292594149708748,-1.9138699769973755
1776814974573110800,10.77311083984375,-0.554780125617981,-0.051667723804712296,-1.9206596612930298
1776814974583148000,10.78314794921875,-0.6112449169158936,-0.09160231053829193,-1.895837426185608
1776814974593185800,10.793185791015626,-0.6606452465057373,-0.12997660040855408,-1.8512557744979858
1776814974603223800,10.803223876953124,-0.7100952863693237,-0.14897187054157257,-1.8005645275115967
1776814974613261300,10.81326123046875,-0.749965488910675,-0.1737789511680603,-1.7390987873077393
1776814974623298000,10.823298095703125,-0.742659866809845,-0.2211574763059616,-1.7141138315200806
1776814974633336300,10.83333642578125,-0.7123437523841858,-0.2302878499031067,-1.7028015851974487
1776814974643374000,10.8433740234375,-0.6593502163887024,-0.19100724160671234,-1.7331430912017822
1776814974653412400,10.853412353515624,-0.6105672121047974,-0.18868523836135864,-1.7966251373291016
1776814974663449300,10.863449462890625,-0.5829445719718933,-0.2363063395023346,-1.812192440032959
1776814974673487000,10.873487060546875,-0.5792121291160583,-0.27296316623687744,-1.8226203918457031
1776814974683525400,10.883525390625,-0.5875592827796936,-0.31125161051750183,-1.8361433744430542
1776814974693563100,10.893563232421876,-0.5953341126441956,-0.3530840277671814,-1.8535391092300415
1776814974703601400,10.903601318359375,-0.5928770303726196,-0.35926899313926697,-1.9010902643203735
1776814974713638400,10.913638427734375,-0.5886806845664978,-0.30106374621391296,-1.961372971534729
1776814974723676200,10.92367626953125,-0.5693861246109009,-0.2201581597328186,-2.0154788494110107
1776814974733714400,10.93371435546875,-0.5387352705001831,-0.1839170753955841,-2.0609023571014404
1776814974743752200,10.943752197265624,-0.48573681712150574,-0.21561792492866516,-2.101649522781372
1776814974753789200,10.9537890625,-0.4313763678073883,-0.14793607592582703,-2.1821417808532715
1776814974763827200,10.9638271484375,-0.38388726115226746,-0.14029349386692047,-2.2114322185516357
1776814974773865200,10.973865234375,-0.3132306635379791,-0.21406465768814087,-2.186809539794922
1776814974783903500,10.983903564453126,-0.25290533900260925,-0.20774003863334656,-2.204353094100952
1776814974793940200,10.993940185546874,-0.2142927050590515,-0.11856354773044586,-2.2466490268707275
1776814974803978200,11.003978271484375,-0.20934654772281647,-0.0074852402321994305,-2.3325133323669434
1776814974814016300,11.014016357421875,-0.21753309667110443,-0.05760246887803078,-2.26873779296875
1776814974824054300,11.02405419921875,-0.2090616524219513,-0.08703054487705231,-2.239422082901001
1776814974834091300,11.03409130859375,-0.20630048215389252,-0.10461033880710602,-2.272005558013916
1776814974844129300,11.04412939453125,-0.21602967381477356,-0.1261005699634552,-2.2981128692626953
1776814974854167300,11.054167236328125,-0.22245614230632782,-0.09502547979354858,-2.3079023361206055
1776814974864205300,11.064205322265625,-0.21344242990016937,0.035790108144283295,-2.359518527984619
1776814974874242300,11.0742421875,-0.2608232796192169,-0.021511534228920937,-2.2429826259613037
1776814974884280300,11.0842802734375,-0.2549946904182434,-0.06073281913995743,-2.1212222576141357
1776814974894318300,11.094318359375,-0.24969659745693207,-0.09443778544664383,-2.0193932056427
1776814974904356400,11.1043564453125,-0.2516074776649475,-0.08362812548875809,-1.9292545318603516
1776814974914393000,11.11439306640625,-0.2406483292579651,-0.11731311678886414,-1.8345115184783936
1776814974924431400,11.124431396484376,-0.2136511355638504,-0.21842505037784576,-1.7385283708572388
1776814974934469000,11.13446923828125,-0.18379683792591095,-0.30754855275154114,-1.6624021530151367
1776814974944507400,11.14450732421875,-0.15844325721263885,-0.32213228940963745,-1.596472978591919
1776814974954544400,11.15454443359375,-0.1473035216331482,-0.26674628257751465,-1.5166807174682617
1776814974964582100,11.16458203125,-0.15828241407871246,-0.20679636299610138,-1.3911229372024536
1776814974974620400,11.174620361328126,-0.15596866607666016,-0.205519899725914,-1.2483793497085571
1776814974984658200,11.184658203125,-0.13868367671966553,-0.2648627460002899,-1.1284836530685425
1776814974994695200,11.194695068359374,-0.09963667392730713,-0.34098121523857117,-1.0454035997390747
1776814975004733400,11.2047333984375,-0.06425449252128601,-0.37741902470588684,-1.0113003253936768
1776814975014771200,11.214771240234375,0.006556031294167042,-0.3489977717399597,-1.0390161275863647
1776814975024809500,11.2248095703125,0.05508733540773392,-0.2803700864315033,-1.0679415464401245
1776814975034846200,11.23484619140625,0.0821080356836319,-0.2164052277803421,-1.06101393699646
1776814975044884200,11.24488427734375,0.11402243375778198,-0.1883150190114975,-1.0030643939971924
1776814975054922200,11.254922119140625,0.1515149474143982,-0.15373893082141876,-0.8868936896324158
1776814975064959200,11.264959228515625,0.19358472526073456,-0.10888627171516418,-0.7688090801239014
1776814975074997200,11.274997314453126,0.2356208711862564,-0.07797309756278992,-0.6509087681770325
1776814975085035300,11.28503515625,0.25355401635169983,-0.08751264959573746,-0.4560365676879883
1776814975095073300,11.2950732421875,0.207469642162323,-0.16996784508228302,-0.2508336007595062
1776814975105111300,11.305111328125,0.15196765959262848,-0.2893282175064087,-0.04775719344615936
1776814975115148300,11.315148193359375,0.11766346544027328,-0.3695703446865082,0.1995425969362259
1776814975125186300,11.325186279296876,0.08094171434640884,-0.4080047607421875,0.4569961130619049
1776814975135224300,11.335224365234374,0.0471523255109787,-0.3443216383457184,0.6937684416770935
1776814975145262300,11.345262451171875,0.02361222356557846,-0.1555560976266861,0.8478991389274597
1776814975155299000,11.355299072265625,0.009633022360503674,0.0919618308544159,0.893748939037323
1776814975165337300,11.36533740234375,0.019959352910518646,0.34514498710632324,0.8537095189094543
1776814975175375000,11.375375,0.03865900635719299,0.5679527521133423,0.7586628794670105
1776814975185413400,11.385413330078125,0.05347030237317085,0.7093582153320312,0.6159533262252808
1776814975195450400,11.395450439453125,0.07199232280254364,0.7629782557487488,0.4408304989337921
1776814975205488000,11.405488037109375,0.09233856946229935,0.751340389251709,0.2772618234157562
1776814975215526400,11.4155263671875,0.09608536958694458,0.6868876218795776,0.13098742067813873
1776814975225563400,11.4255634765625,0.08932652324438095,0.5618678331375122,0.011229820549488068
1776814975235601200,11.43560107421875,0.08979177474975586,0.368821382522583,-0.09396424144506454
1776814975245639400,11.445639404296875,0.08611767739057541,0.20085662603378296,-0.146745964884758
1776814975255677200,11.45567724609375,0.07529991865158081,0.12105979025363922,-0.1386755257844925
1776814975265714200,11.465714111328126,0.05795828253030777,0.06658229231834412,-0.11477766931056976
1776814975275752200,11.475752197265624,0.03739601746201515,-0.028308266773819923,-0.08318538963794708
1776814975285790200,11.485790283203125,0.019035443663597107,-0.11469507217407227,-0.03646668419241905
1776814975295828200,11.495828125,0.010783106088638306,-0.13247619569301605,-0.0000013508833944797516
1776814975305865200,11.505865234375,0.01015748456120491,-0.10009606182575226,0.009823687374591827
1776814975315903200,11.5159033203125,0.006232783198356628,-0.0501367561519146,-0.0019245813600718975
1776814975325941200,11.525941162109374,-0.000941472128033638,-0.039389774203300476,-0.006790587678551674
1776814975335979300,11.535979248046875,-0.010860681533813477,-0.07683781534433365,0.0012843830045312643
1776814975346016300,11.546016357421875,-0.014442426152527332,-0.1274743676185608,0.021657628938555717
1776814975356054300,11.55605419921875,-0.016001973301172256,-0.1715528815984726,0.029688391834497452
1776814975366092300,11.56609228515625,-0.019305428490042686,-0.1981862187385559,0.03396252170205116
1776814975376130300,11.57613037109375,-0.014599889516830444,-0.19927571713924408,0.02980692684650421
1776814975386167300,11.586167236328125,-0.0030175773426890373,-0.19217631220817566,0.023843279108405113
1776814975396205300,11.596205322265625,0.01531748753041029,-0.19544614851474762,0.0229274183511734
1776814975406243300,11.606243408203126,0.032148875296115875,-0.2034473717212677,0.005412138067185879
1776814975416281300,11.61628125,0.05136704444885254,-0.1929076462984085,-0.019144071266055107
1776814975426318000,11.626318115234374,0.049292005598545074,-0.1603059470653534,-0.024066157639026642
1776814975436356400,11.6363564453125,0.03385446220636368,-0.13984914124011993,-0.021785695105791092
1776814975446394000,11.64639404296875,0.02091369777917862,-0.14959192276000977,-0.019765444099903107
1776814975456432400,11.656432373046876,0.006145407445728779,-0.10688574612140656,-0.013973867520689964
1776814975466469400,11.666469482421874,0.005024595186114311,-0.004668653942644596,0.02152128331363201
1776814975476507100,11.676507080078125,0.012514736503362656,0.0978289544582367,0.06862808018922806
1776814975486545400,11.68654541015625,0.02893618494272232,0.17716866731643677,0.09001556783914566
1776814975496583200,11.696583251953125,0.04420994594693184,0.2331658899784088,0.08178985863924026
1776814975506620200,11.7066201171875,0.05971679091453552,0.25449806451797485,0.07055018842220306
1776814975516658400,11.716658447265624,0.0722469687461853,0.24894672632217407,0.05258024483919144
1776814975526696200,11.7266962890625,0.07878047227859497,0.23656333982944489,0.03380461409687996
1776814975536733200,11.736733154296875,0.0798095166683197,0.20484429597854614,0.0017606604378670454
1776814975546771200,11.746771240234375,0.07093050330877304,0.14030012488365173,-0.02275465801358223
1776814975556809200,11.756809326171876,0.04669174551963806,0.05683932080864906,-0.02829696238040924
1776814975566847200,11.76684716796875,0.015906579792499542,-0.013365023769438267,-0.002754242392256856
1776814975576884200,11.77688427734375,-0.015728045254945755,-0.048109423369169235,0.03495877981185913
1776814975586922200,11.786922119140625,-0.03794361650943756,-0.058012496680021286,0.061839889734983444
1776814975596960300,11.796960205078125,-0.05308634787797928,-0.050177741795778275,0.07460442185401917
1776814975606998300,11.806998291015624,-0.06593596935272217,-0.04301424324512482,0.08603319525718689
1776814975617035800,11.817035888671874,-0.07396432757377625,-0.028264325112104416,0.09687598794698715
1776814975627073800,11.82707373046875,-0.07296337187290192,0.00039819302037358284,0.10427767038345337
1776814975637111800,11.83711181640625,-0.060684870928525925,0.04169982671737671,0.09375046193599701
1776814975647149800,11.84714990234375,-0.043140165507793427,0.09158296883106232,0.06715411692857742
1776814975657186800,11.857186767578124,-0.013393720611929893,0.12699662148952484,0.02753559686243534
1776814975667224800,11.867224853515625,0.010291197337210178,0.11666949093341827,-0.00656825490295887
1776814975677262800,11.877262939453125,0.014972503297030926,0.0784643143415451,-0.03393330052495003
1776814975687300900,11.88730078125,0.017024338245391846,0.03227750584483147,-0.03867071121931076
1776814975697337900,11.897337890625,0.015813931822776794,0.0008753743022680283,-0.028821008279919624
1776814975707375900,11.9073759765625,0.007303953170776367,-0.006187237799167633,-0.013695059344172478
1776814975717414000,11.917413818359375,-0.00009563937783241272,0.004195895045995712,-0.003313258057460189
1776814975727452000,11.927451904296875,-0.014787211082875729,0.027451900765299797,0.009312070906162262
1776814975737488600,11.937488525390625,-0.02253594435751438,0.05713922530412674,0.02921520546078682
1776814975747527000,11.94752685546875,-0.03138524293899536,0.08224380016326904,0.04700286313891411
1776814975757564700,11.957564697265624,-0.030634766444563866,0.1002691388130188,0.061904583126306534
1776814975767603000,11.96760302734375,-0.027791336178779602,0.1165391206741333,0.06416699290275574
1776814975777640000,11.977639892578125,-0.02260083518922329,0.11490687727928162,0.06579151749610901
1776814975787677700,11.987677734375,-0.013325241394340992,0.09296814352273941,0.06996866315603256
1776814975797716000,11.997716064453124,-0.015127668157219887,0.060922589153051376,0.08015871793031693
1776814975807753700,12.007753662109375,-0.01523388922214508,0.02834564633667469,0.09016100317239761
1776814975817790700,12.017790771484375,-0.01920652575790882,-0.004990205634385347,0.1069791316986084
1776814975827829000,12.0278291015625,-0.021395448595285416,-0.011715873144567013,0.12369368970394135
1776814975837866800,12.03786669921875,-0.019820721819996834,0.009428560733795166,0.13895200192928314
1776814975847904000,12.047904052734374,-0.019004687666893005,0.03261755779385567,0.14850665628910065
1776814975857941800,12.057941650390624,-0.017273899167776108,0.04238683357834816,0.14902064204216003
1776814975867979800,12.067979736328125,-0.016345739364624023,0.038920365273952484,0.1574992537498474
1776814975878017800,12.078017822265625,-0.020461121574044228,0.02168731950223446,0.1735333502292633
1776814975888054800,12.0880546875,-0.021881859749555588,0.011243212968111038,0.20247678458690643
1776814975898092800,12.0980927734375,-0.028599949553608894,0.016531186178326607,0.24185320734977722
1776814975908130800,12.108130859375,-0.033268868923187256,0.029826613143086433,0.2928925156593323
1776814975918168800,12.1181689453125,-0.0256599523127079,0.060038309544324875,0.3249575197696686
1776814975928206000,12.1282060546875,-0.014931170269846916,0.10935504734516144,0.33791911602020264
1776814975938243800,12.138243896484376,-0.00014689750969409943,0.18039168417453766,0.3422861695289612
1776814975948281900,12.14828173828125,0.015742480754852295,0.2070276290178299,0.3574293255805969
1776814975958319900,12.15831982421875,0.027119772508740425,0.14545294642448425,0.4040769934654236
1776814975968356900,12.16835693359375,0.03514975681900978,0.038669463247060776,0.485018253326416
1776814975978394600,12.17839453125,0.04508867487311363,-0.06117483973503113,0.5943820476531982
1776814975988433000,12.188432861328126,0.06375760585069656,-0.07932649552822113,0.7122465968132019
1776814975998470700,12.198470703125,0.10005835443735123,0.020858166739344597,0.8435723781585693
1776814976008508000,12.2085078125,0.14662298560142517,0.1600128710269928,0.9582645297050476
1776814976018546000,12.2185458984375,0.20538297295570374,0.19314631819725037,1.0278306007385254
1776814976028583700,12.228583740234376,0.2667914927005768,0.09643229842185974,1.0848565101623535
1776814976038622000,12.2386220703125,0.3245040476322174,0.006919728592038155,1.175428032875061
1776814976048659000,12.248658935546874,0.3417109549045563,-0.01194307953119278,1.3201552629470825
1776814976058696700,12.25869677734375,0.2871478199958801,-0.035923250019550323,1.441757082939148
1776814976068735000,12.26873486328125,0.191167950630188,-0.03743242472410202,1.4654756784439087
1776814976078772700,12.278772705078126,0.10554786026477814,-0.012218417599797249,1.4106718301773071
1776814976088810000,12.28881005859375,0.04949473589658737,-0.08541784435510635,1.3212112188339233
1776814976098847700,12.29884765625,0.01873069629073143,-0.3055872321128845,1.2518390417099
1776814976108885800,12.3088857421875,0.009291168302297592,-0.5265295505523682,1.218241572380066
1776814976118923000,12.318923095703125,0.030016420409083366,-0.5844149589538574,1.2053627967834473
1776814976128960800,12.328960693359376,0.038473665714263916,-0.5148482322692871,1.1931828260421753
1776814976138998800,12.338998779296874,0.04795798659324646,-0.46312829852104187,1.1896400451660156
1776814976149036800,12.349036865234375,0.07431098818778992,-0.3988265097141266,1.1987788677215576
1776814976159073800,12.35907373046875,0.12980060279369354,-0.2605743706226349,1.2379560470581055
1776814976169112000,12.369112060546875,0.19044581055641174,-0.14788328111171722,1.3247690200805664
1776814976179149800,12.37914990234375,0.24729979038238525,-0.21665248274803162,1.4387112855911255
1776814976189187800,12.389187744140624,0.3002837598323822,-0.412321537733078,1.5614101886749268
1776814976199224800,12.399224853515625,0.3213941156864166,-0.5342810153961182,1.6465892791748047
1776814976209262800,12.409262939453125,0.3115740716457367,-0.4423771798610687,1.646096110343933
1776814976219300900,12.41930078125,0.2841360569000244,-0.21481406688690186,1.5822441577911377
1776814976229339000,12.4293388671875,0.2500300109386444,-0.046541377902030945,1.4830046892166138
1776814976239376000,12.4393759765625,0.21046262979507446,-0.05453485623002052,1.4149497747421265
1776814976249414000,12.449413818359375,0.15063762664794922,0.01302292849868536,1.412171483039856
1776814976259452000,12.459451904296875,0.0984087735414505,0.09416358917951584,1.4488270282745361
1776814976269489700,12.46948974609375,0.13226254284381866,0.2879175841808319,1.462606430053711
1776814976279527000,12.47952685546875,0.2335934340953827,0.5373117327690125,1.3804467916488647
1776814976289565000,12.48956494140625,0.33309265971183777,0.60821533203125,1.2466310262680054
1776814976299602700,12.499602783203125,0.3616984784603119,0.4714779555797577,1.1922389268875122
1776814976309640000,12.509639892578125,0.3794088661670685,0.3909562826156616,1.2199283838272095
1776814976319678000,12.519677978515626,0.40004676580429077,0.3430582880973816,1.322688102722168
1776814976329716000,12.529716064453124,0.4442138671875,0.39566245675086975,1.4840867519378662
1776814976339754000,12.53975390625,0.501681923866272,0.38219350576400757,1.6521916389465332
1776814976349790700,12.549790771484375,0.5655925273895264,0.3440918028354645,1.656624674797058
1776814976359829000,12.5598291015625,0.6017377376556396,0.35201069712638855,1.477372646331787
1776814976369866800,12.56986669921875,0.6046196222305298,0.2452383041381836,1.365196943283081
1776814976379904800,12.57990478515625,0.5584843754768372,0.07786314934492111,1.4285738468170166
1776814976389942000,12.58994189453125,0.5236333012580872,0.09230123460292816,1.5043853521347046
1776814976399979800,12.599979736328125,0.5011767148971558,0.1643085926771164,1.5030606985092163
1776814976410018000,12.61001806640625,0.49159109592437744,0.16089721024036407,1.482508659362793
1776814976420055800,12.620055908203126,0.48352542519569397,0.06525004655122757,1.5022082328796387
1776814976430092800,12.6300927734375,0.5011885762214661,-0.001766860717907548,1.5254877805709839
1776814976440131000,12.640131103515625,0.49938103556632996,0.022646335884928703,1.5211033821105957
1776814976450168800,12.6501689453125,0.4860984683036804,0.041513219475746155,1.4714601039886475
1776814976460206800,12.660206787109376,0.4854809045791626,0.08786234259605408,1.4259706735610962
