time,seconds_elapsed,z,y,x
1776814964064858000,0.264858154296875,1.2131636142730713,0.363837331533432,-0.5325235724449158
1776814964074896400,0.274896484375,1.1012191772460938,1.0394845008850098,-0.5066133737564087
1776814964084934100,0.28493408203125,0.8770135641098022,1.1962310075759888,-0.5747309327125549
1776814964094971100,0.29497119140625,0.6334972977638245,1.1179479360580444,-0.6943614482879639
1776814964105009400,0.305009521484375,0.42688581347465515,1.3934439420700073,-0.8020628690719604
1776814964115047200,0.315047119140625,0.3096979260444641,1.8724642992019653,-0.8968919515609741
1776814964125084200,0.325084228515625,0.21980400383472443,2.225921392440796,-1.0226496458053589
1776814964135122200,0.3351220703125,0.12477042526006699,2.436396360397339,-1.1541348695755005
1776814964145160200,0.34516015625,0.06740008294582367,2.4337775707244873,-1.2325726747512817
1776814964155197200,0.355197265625,0.022547386586666107,2.138664960861206,-1.265106201171875
1776814964165235200,0.365235107421875,-0.061588261276483536,1.6565918922424316,-1.2642781734466553
1776814964175273200,0.375273193359375,-0.19834983348846436,1.1642080545425415,-1.2040694952011108
1776814964185311200,0.385311279296875,-0.36866191029548645,0.8475832343101501,-1.0556304454803467
1776814964195348200,0.39534814453125,-0.35519298911094666,0.5624210238456726,-0.7228133678436279
1776814964205386200,0.40538623046875,-0.2518708407878876,0.503294050693512,-0.24692510068416595
1776814964215424300,0.41542431640625,-0.17071129381656647,0.769508421421051,0.19091428816318512
1776814964225461200,0.425461181640625,-0.1796770840883255,1.038659930229187,0.44309115409851074
1776814964235499300,0.435499267578125,-0.29061612486839294,1.2552289962768555,0.550970196723938
1776814964245537300,0.445537353515625,-0.4055826663970947,1.440569281578064,0.5164569616317749
1776814964255574300,0.45557421875,-0.5005549788475037,1.4405573606491089,0.3534241020679474
1776814964265612000,0.465612060546875,-0.5923200249671936,1.3077454566955566,0.21406355500221252
1776814964275650300,0.475650390625,-0.6398966312408447,1.111727237701416,0.1085328683257103
1776814964285688000,0.48568798828125,-0.5488128066062927,1.0461472272872925,-0.05818953737616539
1776814964295725300,0.495725341796875,-0.34325990080833435,1.2369037866592407,-0.27593863010406494
1776814964305763300,0.505763427734375,-0.1230849102139473,1.8480995893478394,-0.5003251433372498
1776814964315801000,0.515801025390625,0.018221082165837288,2.603646993637085,-0.7025919556617737
1776814964325838300,0.52583837890625,0.09943950176239014,3.052560567855835,-0.7520931959152222
1776814964335876400,0.53587646484375,-0.06874044984579086,3.147857666015625,-0.6440639495849609
1776814964345914000,0.5459140625,-0.295660138130188,2.8821756839752197,-0.37898221611976624
1776814964355951400,0.555951416015625,-0.5805808305740356,2.0872349739074707,0.0280340313911438
1776814964365989000,0.565989013671875,-0.9466214179992676,1.450736165046692,0.5775498747825623
1776814964376027400,0.57602734375,-1.0186114311218262,0.7286046743392944,0.8199297785758972
1776814964386065200,0.586065185546875,-0.9786205887794495,0.011639345437288284,0.771540105342865
1776814964396102100,0.59610205078125,-1.0910824537277222,-0.27365922927856445,0.4945913553237915
1776814964406140400,0.606140380859375,-1.1557698249816895,0.005768939387053251,-0.03612018749117851
1776814964416178200,0.61617822265625,-1.2649441957473755,0.6715824007987976,-0.7078359723091125
1776814964426215200,0.626215087890625,-1.47536039352417,1.7159388065338135,-1.2041208744049072
1776814964436253200,0.636253173828125,-1.6846392154693604,2.458700656890869,-1.2618507146835327
1776814964446291200,0.646291259765625,-2.226410388946533,2.866523027420044,-0.8076563477516174
1776814964456329500,0.65632958984375,-2.6046316623687744,3.115215539932251,-0.2973800301551819
1776814964466366200,0.6663662109375,-2.4578022956848145,3.8465616703033447,-0.4391571283340454
1776814964476404200,0.676404296875,-2.059598922729492,5.010279655456543,-0.6650150418281555
1776814964486442200,0.686442138671875,-1.418885588645935,5.505892276763916,-0.43864232301712036
1776814964496479200,0.696479248046875,-0.7938169240951538,5.540098190307617,0.040096819400787354
1776814964506517200,0.706517333984375,-0.4311679005622864,4.969332695007324,0.29676881432533264
1776814964516555300,0.71655517578125,-0.3519596457481384,3.665015459060669,0.6287283897399902
1776814964526592300,0.72659228515625,-0.2892374098300934,-0.14352068305015564,1.0631974935531616
1776814964536630300,0.73663037109375,-0.31106361746788025,-1.4928884506225586,0.3058004081249237
1776814964546668300,0.746668212890625,-0.18687747418880463,-1.39884614944458,-0.6162293553352356
1776814964556706300,0.756706298828125,-0.14687013626098633,-1.7151870727539062,-0.9486909508705139
1776814964566743000,0.766742919921875,-0.10687478631734848,-1.7891004085540771,-0.860293984413147
1776814964576781300,0.77678125,-0.14516118168830872,-1.3288952112197876,-0.8047186136245728
1776814964586819000,0.786819091796875,-0.0811220183968544,-0.1811482161283493,-0.8337193727493286
1776814964596856000,0.79685595703125,-0.31553053855895996,0.38194870948791504,-0.8694565892219543
1776814964606898400,0.8068984375,-0.6272881627082825,0.4220154285430908,-1.039379596710205
1776814964616936200,0.816936279296875,-0.7965325713157654,0.42107000946998596,-1.4051094055175781
1776814964626974500,0.826974365234375,-0.7718189358711243,0.26236531138420105,-1.8891359567642212
1776814964637011200,0.83701123046875,-0.6379176378250122,0.06835935264825821,-2.3565704822540283
1776814964647049200,0.84704931640625,-0.7507493495941162,-0.16353033483028412,-2.8089351654052734
1776814964657087200,0.857087158203125,-1.0386730432510376,-0.004287689458578825,-3.1650850772857666
1776814964667124200,0.867124267578125,-1.6978408098220825,0.8330644965171814,-3.3581655025482178
1776814964677162200,0.877162353515625,-2.301915168762207,2.107107639312744,-3.2044389247894287
1776814964687200300,0.8872001953125,-2.7308003902435303,2.728741407394409,-2.717076539993286
1776814964697238300,0.89723828125,-3.090099811553955,3.2353479862213135,-2.0425095558166504
1776814964707275300,0.907275146484375,-3.2110323905944824,3.6227011680603027,-1.5973174571990967
1776814964717313300,0.917313232421875,-3.0740232467651367,3.585984230041504,-1.4209765195846558
1776814964727351300,0.927351318359375,-2.6248788833618164,2.9665942192077637,-1.0492985248565674
1776814964737388000,0.937387939453125,-2.0167036056518555,1.5591745376586914,-0.8061196804046631
1776814964747426300,0.94742626953125,-1.2353237867355347,-0.21675202250480652,-0.6909454464912415
1776814964757464000,0.957464111328125,-0.6705206036567688,-2.2481484413146973,-0.6673340797424316
1776814964767502300,0.96750244140625,-0.4071970582008362,-3.65808367729187,-0.7120275497436523
1776814964777539300,0.977539306640625,-0.5419831275939941,-4.556927680969238,-0.8099660873413086
1776814964787577000,0.9875771484375,-1.2167149782180786,-4.248082160949707,-1.0171290636062622
1776814964797615400,0.997615478515625,-1.9210329055786133,-2.873048782348633,-1.403064250946045
1776814964807652400,1.00765234375,-2.1777119636535645,-1.0639458894729614,-1.7931764125823975
1776814964817690000,1.017690185546875,-2.282869577407837,0.5622612237930298,-1.937066674232483
1776814964827728400,1.027728271484375,-2.270754098892212,1.652381420135498,-1.8947125673294067
1776814964837766100,1.03776611328125,-2.0468225479125977,2.0602738857269287,-1.8737289905548096
1776814964847803100,1.04780322265625,-1.7458528280258179,1.833396553993225,-2.050607204437256
1776814964857841200,1.057841064453125,-1.4005018472671509,1.1619131565093994,-2.2586350440979004
1776814964867879200,1.067879150390625,-1.0039373636245728,0.2692205607891083,-2.3591082096099854
1776814964877916400,1.07791650390625,-0.6453401446342468,-0.6000714302062988,-2.3482789993286133
1776814964887954200,1.0879541015625,-0.4989831745624542,-1.0591984987258911,-2.3416788578033447
1776814964897992200,1.0979921875,-0.5224291086196899,-1.1414843797683716,-2.416649103164673
1776814964908030200,1.1080302734375,-0.6078739762306213,-0.37991243600845337,-2.652238130569458
1776814964918067200,1.118067138671875,-0.10756081342697144,0.7591508626937866,-2.6785874366760254
1776814964928105200,1.128105224609375,0.2465011179447174,1.284692645072937,-2.6269915103912354
1776814964938143200,1.138143310546875,0.2960793375968933,1.4227895736694336,-2.6487350463867188
1776814964948180200,1.14818017578125,0.31858915090560913,1.666480541229248,-2.633928060531616
1776814964958218200,1.15821826171875,0.19108766317367554,2.0272181034088135,-2.6129162311553955
1776814964968256300,1.16825634765625,0.05872137099504471,2.2719943523406982,-2.49009370803833
1776814964978294000,1.1782939453125,-0.10543374717235565,2.203615665435791,-2.374680995941162
1776814964988331300,1.188331298828125,-0.4240434169769287,2.0281293392181396,-2.28663969039917
1776814964998369300,1.198369384765625,-0.8568387627601624,1.7107230424880981,-2.185593605041504
1776814965008407000,1.208406982421875,-1.01301109790802,1.3535188436508179,-2.1851203441619873
1776814965018444300,1.2184443359375,-0.7209640145301819,0.9611833095550537,-2.213127851486206
1776814965028482300,1.228482421875,-0.46862632036209106,0.45472782850265503,-2.191995859146118
1776814965038520300,1.238520263671875,-0.22540488839149475,-0.42825308442115784,-2.2194950580596924
1776814965048558300,1.248558349609375,0.1427861750125885,-2.878438711166382,-1.7593870162963867
1776814965058595000,1.258594970703125,0.35744521021842957,-3.355386972427368,-0.4071557819843292
1776814965068633300,1.26863330078125,0.1849490851163864,-1.7456154823303223,0.5972796678543091
1776814965078671000,1.278671142578125,0.022844862192869186,-0.11297634989023209,1.1921839714050293
1776814965088708000,1.2887080078125,-0.1596226841211319,0.735072135925293,2.0095348358154297
1776814965098746400,1.298746337890625,-0.34773561358451843,0.7856565117835999,2.396206855773926
1776814965108784000,1.3087841796875,-0.19270233809947968,0.5804953575134277,2.148653030395508
1776814965118822400,1.318822509765625,0.15358875691890717,0.6103347539901733,1.5187631845474243
1776814965128859400,1.328859375,0.415052592754364,0.6772916316986084,0.7445793747901917
1776814965138897200,1.338897216796875,0.6245964765548706,0.6662198305130005,0.052069857716560364
1776814965148935400,1.348935302734375,0.9502075910568237,0.35314446687698364,-0.45474353432655334
1776814965158972200,1.35897216796875,1.0399487018585205,-0.8249074816703796,-0.9078335165977478
1776814965169010200,1.36901025390625,1.0384975671768188,-2.246079444885254,-1.053205132484436
1776814965179048200,1.379048095703125,0.825774073600769,-0.7286568284034729,-0.9962970614433289
1776814965189086200,1.389086181640625,-0.07851904630661011,0.5328263640403748,-1.292319416999817
1776814965199123200,1.399123291015625,-0.2576219439506531,1.6213535070419312,-1.4710584878921509
1776814965209161200,1.4091611328125,0.26006007194519043,3.3363733291625977,-1.741136074066162
1776814965219199200,1.41919921875,0.6194337010383606,3.045630693435669,-2.5037827491760254
1776814965229236200,1.429236328125,1.1457421779632568,2.7330775260925293,-2.911166191101074
1776814965239274200,1.439274169921875,0.7533525824546814,3.4656686782836914,-3.313654661178589
1776814965249312300,1.449312255859375,0.6631609201431274,4.84774112701416,-3.290365695953369
1776814965259350300,1.459350341796875,0.9523975253105164,3.518833637237549,-2.3934438228607178
1776814965269387300,1.46938720703125,1.3453046083450317,1.0415931940078735,-0.6529194712638855
1776814965279425000,1.479425048828125,1.7246692180633545,-0.31368735432624817,0.027949875220656395
1776814965289463300,1.48946337890625,1.72329580783844,-0.38104721903800964,-0.1920519918203354
1776814965299501000,1.4995009765625,1.8744441270828247,0.9697895646095276,-1.3598377704620361
1776814965309538000,1.5095380859375,1.8782787322998047,1.5329818725585938,-2.2619502544403076
1776814965319576300,1.519576416015625,1.9036765098571777,1.563549280166626,-2.4810760021209717
1776814965329614000,1.529614013671875,1.9528456926345825,0.9949237108230591,-2.134258508682251
1776814965339651000,1.539651123046875,1.9982352256774902,0.8689825534820557,-2.2352254390716553
1776814965349689300,1.549689453125,1.5917303562164307,0.3200403153896332,-2.284649133682251
1776814965359727000,1.55972705078125,1.2356553077697754,0.3720073699951172,-2.307790756225586
1776814965369765400,1.569765380859375,1.1683945655822754,1.2173999547958374,-2.999211549758911
1776814965379802000,1.579802001953125,1.205502986907959,1.2627708911895752,-3.595900535583496
1776814965389840100,1.589840087890625,1.2377371788024902,0.2872608006000519,-2.3835256099700928
1776814965399878100,1.599878173828125,1.126902461051941,-0.23424765467643738,-1.4578620195388794
1776814965409915100,1.6099150390625,0.5140247344970703,0.05717886611819267,-1.0131540298461914
1776814965419953200,1.619953125,0.2305099070072174,0.21706467866897583,-1.1694869995117188
1776814965429991200,1.6299912109375,0.15410807728767395,-0.08267118036746979,-1.3242599964141846
1776814965440029200,1.640029296875,-0.010343717411160469,-0.6257794499397278,-1.082271695137024
1776814965450066400,1.65006640625,-0.15891028940677643,-0.9548636078834534,-0.6414098143577576
1776814965460104200,1.660104248046875,-0.2829137146472931,-0.8932492733001709,-0.4547504782676697
1776814965470142200,1.67014208984375,-0.026068884879350662,-0.6744881272315979,-0.49345871806144714
1776814965480179200,1.68017919921875,0.3553314805030823,-0.521835207939148,-0.5105820298194885
1776814965490217200,1.69021728515625,0.4191858172416687,-0.3220140039920807,-0.5576339960098267
1776814965500255200,1.700255126953125,0.2363733947277069,-0.1435537040233612,-0.5296529531478882
1776814965510293200,1.710293212890625,0.16609816253185272,-0.019306320697069168,-0.36733487248420715
1776814965520330200,1.720330322265625,0.11108710616827011,-0.4260631501674652,-0.2190050482749939
1776814965530368300,1.7303681640625,0.09019008278846741,-1.080061435699463,0.00974184274673462
1776814965540406300,1.74040625,0.037521541118621826,-1.986223816871643,0.32495757937431335
1776814965550443300,1.750443359375,-0.051059190183877945,-2.6714890003204346,0.6682632565498352
1776814965560481300,1.760481201171875,-0.1488475352525711,-2.9316325187683105,0.8501028418540955
1776814965570519300,1.770519287109375,0.02075294964015484,-2.5916290283203125,0.899898111820221
1776814965580557000,1.78055712890625,-0.06592229008674622,-2.153193235397339,0.5692842602729797
1776814965590594300,1.79059423828125,-0.2479267120361328,-1.7407976388931274,0.44267168641090393
1776814965600632000,1.800632080078125,-0.44199711084365845,-1.7114546298980713,0.4534023702144623
1776814965610666800,1.810666748046875,-0.24144963920116425,-1.9484221935272217,0.3900098204612732
1776814965620704000,1.8207041015625,-0.11029721051454544,-2.128014326095581,0.06764189153909683
1776814965630741800,1.83074169921875,0.10720688104629517,-2.035578489303589,-0.32917869091033936
1776814965640779800,1.84077978515625,0.29251575469970703,-1.6466975212097168,-0.6703488230705261
1776814965650817800,1.85081787109375,0.22174836695194244,-1.2287718057632446,-0.8407207727432251
1776814965660854800,1.860854736328125,0.17753936350345612,-0.8581181764602661,-0.871810793876648
1776814965670893000,1.87089306640625,0.14649303257465363,-0.6086891889572144,-0.780942440032959
1776814965680930800,1.880930908203125,0.24579033255577087,-0.6059349179267883,-0.7055839896202087
1776814965690968800,1.89096875,0.3815963566303253,-0.5302425622940063,-0.653780460357666
1776814965701005800,1.901005859375,0.39358991384506226,-0.4791732430458069,-0.5773472189903259
1776814965711043800,1.9110439453125,0.37438371777534485,-0.3745799958705902,-0.3786591589450836
1776814965721081900,1.921081787109375,0.1609870195388794,-0.1061789020895958,0.0027113643009215593
1776814965731118800,1.931118896484375,-0.11536946892738342,0.02039049193263054,0.3636583685874939
1776814965741156900,1.941156982421875,-0.14232705533504486,0.03154833987355232,0.5381225943565369
1776814965751195000,1.95119482421875,-0.1747899204492569,-0.04886208102107048,0.5824711322784424
1776814965761233000,1.96123291015625,-0.3809249699115753,-0.2964271306991577,0.6645004749298096
1776814965771270000,1.971269775390625,-0.5310471057891846,-0.5385017991065979,0.7480230927467346
1776814965781308000,1.981307861328125,-0.8038256168365479,-0.6569358110427856,0.7230426669120789
1776814965791346000,1.991345947265625,-1.0959270000457764,-0.8052064776420593,0.622628927230835
1776814965801382700,2.001382568359375,-1.479265570640564,-0.8574486374855042,0.43978962302207947
1776814965811421000,2.0114208984375,-1.7644057273864746,-0.784615695476532,0.2157067209482193
1776814965821459000,2.021458984375,-2.5558888912200928,-0.5949230194091797,-0.10656346380710602
1776814965831497000,2.0314970703125,-2.9454286098480225,-0.11399926990270615,-0.4709707200527191
1776814965841534000,2.041533935546875,-3.063556432723999,0.18078602850437164,-0.7345507144927979
1776814965851571700,2.05157177734375,-2.7725234031677246,0.5946047902107239,-0.6597110629081726
1776814965861610000,2.06160986328125,-2.6262669563293457,1.2535678148269653,-0.6001867651939392
1776814965871647000,2.07164697265625,-2.694002628326416,1.9187347888946533,-0.5835744738578796
1776814965881684700,2.081684814453125,-2.5710761547088623,2.31681489944458,-0.6564622521400452
1776814965891723000,2.091722900390625,-2.3303892612457275,2.451417922973633,-0.45434993505477905
1776814965901760800,2.1017607421875,-1.950803518295288,1.7555134296417236,-0.2858509123325348
1776814965911797800,2.1117978515625,-1.483075499534607,0.811726987361908,0.030548587441444397
1776814965921835800,2.121835693359375,-0.9350728988647461,-0.055390022695064545,0.35805001854896545
1776814965931873800,2.131873779296875,-0.6035817265510559,-0.5176021456718445,0.4789564609527588
1776814965941910800,2.141910888671875,-0.6945521235466003,-0.4606514871120453,0.38508695363998413
1776814965951948800,2.15194873046875,-0.6890543103218079,-0.3902961015701294,0.2639690637588501
1776814965961986800,2.16198681640625,-0.5369590520858765,-0.6960728168487549,0.3737128674983978
1776814965972024800,2.17202490234375,-0.349785178899765,-1.202710747718811,0.731330156326294
1776814965982061800,2.182061767578125,-0.14614681899547577,-1.093395709991455,1.0620912313461304
1776814965992099800,2.192099853515625,-0.2590978741645813,-0.8331957459449768,1.015997052192688
1776814966002137900,2.202137939453125,-0.48685967922210693,-0.8571626543998718,0.8194341659545898
1776814966012174800,2.2121748046875,-0.5224778652191162,-0.5770132541656494,0.5574038624763489
1776814966022212900,2.222212890625,-0.615682065486908,-0.6482581496238708,0.3208259642124176
1776814966032251000,2.2322509765625,-0.5255239605903625,-0.7658689022064209,0.028847893700003624
1776814966042289000,2.242288818359375,-0.4692375361919403,-1.1412990093231201,-0.07304837554693222
1776814966052326000,2.252325927734375,-0.49623027443885803,-1.3374844789505005,-0.2709060609340668
1776814966062364000,2.262364013671875,-0.6149132251739502,-1.2980891466140747,-0.4578554332256317
1776814966072401700,2.272401611328125,-0.5525630712509155,-1.3826195001602173,-0.43993476033210754
1776814966082439000,2.28243896484375,-0.6016712188720703,-1.3424086570739746,-0.3510943651199341
1776814966092477000,2.292476806640625,-0.41843318939208984,-1.1842498779296875,-0.17054110765457153
1776814966102514700,2.3025146484375,-0.10727931559085846,-1.2597631216049194,0.17798331379890442
1776814966112553000,2.312552978515625,0.055083490908145905,-1.1137603521347046,0.6078401207923889
1776814966122590000,2.32258984375,0.14164714515209198,-0.8742454648017883,0.9845115542411804
1776814966132628000,2.3326279296875,0.15039803087711334,-0.643017590045929,1.2315999269485474
1776814966142666000,2.342666015625,0.0926005095243454,-0.45094427466392517,1.3452883958816528
1776814966152703700,2.352703857421875,0.00977513287216425,-0.6296945810317993,1.2776919603347778
1776814966162741000,2.362740966796875,0.036606479436159134,-0.839900016784668,1.1540576219558716
1776814966172778800,2.37277880859375,0.08372179418802261,-0.7724296450614929,0.8593682646751404
1776814966182816800,2.382816650390625,0.0052259210497140884,-0.9126203060150146,0.48970019817352295
1776814966192854000,2.39285400390625,-0.11768428981304169,-0.10936909914016724,0.13760553300380707
1776814966202891800,2.402891845703125,-0.2409558892250061,0.5225345492362976,-0.3731365501880646
1776814966212930000,2.412929931640625,-0.806939959526062,0.09187532961368561,-0.6775031089782715
1776814966222967800,2.4229677734375,-1.0393532514572144,0.30301207304000854,-0.7459236979484558
1776814966233004800,2.4330048828125,-1.1361929178237915,0.08970378339290619,-0.9251731038093567
1776814966243043000,2.44304296875,-0.7380495667457581,1.1840656995773315,-0.7894147634506226
1776814966253080800,2.453080810546875,-0.6807734966278076,1.4397051334381104,-0.8259580731391907
1776814966263117800,2.463117919921875,-0.7720922231674194,1.8664724826812744,-0.9587385058403015
1776814966273155800,2.47315576171875,-0.7377328872680664,1.6208804845809937,-1.0278675556182861
1776814966283193900,2.48319384765625,-0.5587136149406433,0.7544125318527222,-0.9720170497894287
1776814966293231900,2.49323193359375,-0.29273200035095215,-0.44758257269859314,-0.7328710556030273
1776814966303268900,2.503268798828125,-0.15216955542564392,-1.0541595220565796,-0.4750397503376007
1776814966313307000,2.513306884765625,-0.3798772990703583,-0.9379836916923523,-0.4615263342857361
1776814966323345000,2.523344970703125,-0.5160617828369141,-0.7145399451255798,-0.43266087770462036
1776814966333382000,2.5333818359375,-0.4753574728965759,-0.7183661460876465,-0.23123614490032196
1776814966343420000,2.543419921875,-0.3121837377548218,-0.6506712436676025,0.0314098559319973
1776814966353458000,2.5534580078125,-0.2188015878200531,-0.4537629783153534,0.2676388919353485
1776814966363496000,2.563495849609375,-0.0904124528169632,-0.025129588320851326,0.44732344150543213
1776814966373532700,2.57353271484375,0.16162165999412537,0.04523139446973801,0.6366113424301147
1776814966383571000,2.583571044921875,0.4625559151172638,-0.40103796124458313,0.8492636680603027
1776814966393608700,2.593608642578125,0.7865041494369507,-0.8529324531555176,1.0295159816741943
1776814966403645700,2.603645751953125,1.1917065382003784,-1.0918488502502441,1.0590459108352661
1776814966413684000,2.61368408203125,0.7262924909591675,-1.2152172327041626,1.0594542026519775
1776814966423721700,2.6237216796875,0.9831253290176392,-1.2060679197311401,0.9135566353797913
1776814966433760000,2.633760009765625,0.8372208476066589,-1.687497854232788,0.8589178919792175
1776814966443797000,2.643796875,0.7545925974845886,-2.154857873916626,0.32063794136047363
1776814966453834800,2.653834716796875,1.1346250772476196,-2.853066921234131,-0.2591894865036011
1776814966463873000,2.663873046875,1.1112606525421143,-2.8363189697265625,-0.3005688786506653
1776814966473909800,2.67390966796875,1.1806237697601318,-2.82511830329895,-0.08225732296705246
1776814966483947800,2.68394775390625,0.6236239075660706,-2.102254629135132,-0.2210215926170349
1776814966493985800,2.69398583984375,-0.04278954118490219,-1.313988208770752,-0.4888530373573303
1776814966504023800,2.70402392578125,-0.3484991192817688,-0.9518044590950012,-0.8657279014587402
1776814966514060800,2.714060791015625,-0.5745130777359009,-0.9934826493263245,-0.8975928425788879
1776814966524098800,2.724098876953125,-0.6246833205223083,-0.9219107031822205,-0.7300768494606018
1776814966534136800,2.73413671875,-0.5822599530220032,-0.9053706526756287,-0.5431264042854309
1776814966544174000,2.744174072265625,-0.47934502363204956,-0.6035937666893005,-0.31806451082229614
1776814966554211800,2.7542119140625,-0.5041412115097046,-0.1069624051451683,-0.1825362592935562
1776814966564249900,2.764249755859375,-0.5746659636497498,-0.12965066730976105,-0.21114712953567505
1776814966574288000,2.774287841796875,-0.6345399618148804,0.10811848193407059,-0.041017740964889526
1776814966584324900,2.784324951171875,-0.7499666810035706,0.2587878704071045,0.0024112260434776545
1776814966594362600,2.794362548828125,-0.7976268529891968,0.4445497691631317,-0.06468578428030014
1776814966604404500,2.804404541015625,-0.8081578016281128,0.4071994721889496,-0.2187243551015854
1776814966614441500,2.81444140625,-0.8427152633666992,0.3281877338886261,-0.3471289277076721
1776814966624479500,2.8244794921875,-0.8330519795417786,0.10012367367744446,-0.47920122742652893
1776814966634517500,2.834517578125,-0.7887124419212341,0.21862101554870605,-0.5537508130073547
1776814966644555500,2.844555419921875,-0.7161123156547546,0.4506864845752716,-0.5805158615112305
1776814966654592500,2.854592529296875,-0.6662147641181946,0.7907220721244812,-0.3685407340526581
1776814966664630500,2.864630615234375,-0.6226329207420349,0.8625579476356506,-0.0065567027777433395
1776814966674668500,2.87466845703125,-0.6466490626335144,0.8225087523460388,0.38183656334877014
1776814966684705500,2.88470556640625,-0.6121051907539368,0.5392557382583618,0.566964864730835
1776814966694743300,2.894743408203125,-0.3070635497570038,0.35203102231025696,0.5771732926368713
1776814966704781600,2.904781494140625,0.09273606538772583,0.35859811305999756,0.4313596487045288
1776814966714819300,2.9148193359375,0.1239970475435257,0.21854139864444733,0.12610360980033875
1776814966724856300,2.924856201171875,0.14048893749713898,0.058344531804323196,-0.08389623463153839
1776814966734894600,2.93489453125,0.19735834002494812,-0.03190892934799194,-0.20783469080924988
1776814966744932400,2.944932373046875,0.3581267297267914,-0.12557309865951538,-0.28637662529945374
1776814966754969300,2.95496923828125,0.4820510745048523,-0.2143181562423706,-0.2535736858844757
1776814966765007600,2.965007568359375,0.6144527792930603,-0.4100746214389801,-0.33002957701683044
1776814966775045400,2.97504541015625,0.7284675240516663,-0.7858253121376038,-0.6570414900779724
1776814966785083600,2.985083740234375,0.5335824489593506,-0.2386634349822998,-0.8078014850616455
1776814966795120400,2.995120361328125,0.26007604598999023,0.10953075438737869,-0.7354828119277954
1776814966805158400,3.005158447265625,-0.0712835043668747,-0.12762826681137085,-0.6326941251754761
1776814966815196400,3.015196533203125,-0.25572818517684937,-0.38215401768684387,-0.5592089891433716
1776814966825233400,3.0252333984375,-0.3926122486591339,-0.3917728364467621,-0.5153682827949524
1776814966835271400,3.035271484375,-0.4494209587574005,-0.1921851485967636,-0.43830305337905884
1776814966845309400,3.045309326171875,-0.27650216221809387,0.12060018628835678,-0.25238218903541565
1776814966855347500,3.055347412109375,-0.03298777714371681,0.17210465669631958,-0.016597352921962738
1776814966865384700,3.065384765625,0.06160770356655121,0.009472064673900604,0.12232298403978348
1776814966875422500,3.07542236328125,0.07108350098133087,-0.00945289060473442,0.24480921030044556
1776814966885460500,3.08546044921875,0.07609796524047852,0.030050577595829964,0.33192095160484314
1776814966895497500,3.09549755859375,0.12108781188726425,0.08693143725395203,0.29059427976608276
1776814966905535500,3.105535400390625,0.18316049873828888,0.053584929555654526,0.08915038406848907
1776814966915573200,3.1155732421875,0.21759836375713348,-0.09029793739318848,-0.0996304526925087
1776814966925611500,3.125611572265625,0.12548522651195526,-0.22888138890266418,-0.11677348613739014
1776814966935648500,3.1356484375,-0.008683236315846443,-0.21700341999530792,-0.011505921371281147
1776814966945686500,3.1456865234375,-0.12370196729898453,-0.08708856254816055,0.10384677350521088
1776814966955724500,3.155724609375,-0.23437388241291046,-0.10220759361982346,0.06280319392681122
1776814966965761500,3.165761474609375,-0.36940494179725647,-0.13544943928718567,0.02051273174583912
1776814966975799600,3.175799560546875,-0.550291895866394,0.001442900625988841,0.15809722244739532
1776814966985837600,3.185837646484375,-0.6532382369041443,-0.08576124161481857,0.2921498417854309
1776814966995874300,3.195874267578125,-0.7428823709487915,-0.064975805580616,0.4257204234600067
1776814967005912600,3.20591259765625,-1.0895111560821533,-0.13077186048030853,0.5225870609283447
1776814967015950300,3.215950439453125,-1.3609884977340698,-0.15691983699798584,0.4818473160266876
1776814967025988600,3.225988525390625,-1.3995686769485474,0.20006811618804932,0.6333561539649963
1776814967036025600,3.236025634765625,-1.3600547313690186,0.43946951627731323,0.7964199185371399
1776814967046063400,3.2460634765625,-1.5093384981155396,0.7974393963813782,1.0311576128005981
1776814967056101600,3.2561015625,-1.6601682901382446,0.7722426652908325,1.0042694807052612
1776814967066138600,3.266138671875,-1.5105223655700684,0.738735556602478,0.7034955620765686
1776814967076176400,3.27617626953125,-1.154553771018982,0.831527590751648,0.4448946416378021
1776814967086214700,3.286214599609375,-1.079228401184082,0.6938128471374512,0.20888955891132355
1776814967096252400,3.29625244140625,-1.1466975212097168,0.4468193054199219,-0.0396595299243927
1776814967106289400,3.306289306640625,-1.3471213579177856,0.4219065010547638,-0.2633237838745117
1776814967116327400,3.316327392578125,-1.5247694253921509,0.5375699996948242,-0.4583819508552551
1776814967126365400,3.326365478515625,-1.3635510206222534,0.9433611631393433,-0.529821515083313
1776814967136402400,3.33640234375,-1.1612313985824585,1.25038743019104,-0.5122041702270508
1776814967146440400,3.3464404296875,-1.1077029705047607,0.8684459328651428,-0.42650550603866577
1776814967156478500,3.356478515625,-1.0144894123077393,0.3903919756412506,-0.4015847146511078
1776814967166516500,3.3665166015625,-0.9977825880050659,0.3129294216632843,-0.4004456698894501
1776814967176553500,3.376553466796875,-0.9505969882011414,-0.26530784368515015,-0.49676796793937683
1776814967186591500,3.386591552734375,-0.893839418888092,0.06474970281124115,-0.25260668992996216
1776814967196629500,3.39662939453125,-1.1579691171646118,0.08410928398370743,-0.10503081232309341
1776814967206666500,3.40666650390625,-1.1373151540756226,0.18687134981155396,-0.11997354030609131
1776814967216704300,3.416704345703125,-1.1629528999328613,0.5654074549674988,-0.011694473214447498
1776814967226742500,3.426742431640625,-1.247699499130249,1.0512863397598267,0.21644975244998932
1776814967236780300,3.4367802734375,-1.4351990222930908,1.057912826538086,0.5088816285133362
1776814967246817500,3.446817626953125,-1.3739173412322998,1.1412944793701172,0.5001611113548279
1776814967256855600,3.45685546875,-1.123369574546814,0.7603141069412231,0.19561876356601715
1776814967266893300,3.466893310546875,-0.7363688349723816,0.23237571120262146,-0.09075680375099182
1776814967276930600,3.4769306640625,-0.017006147652864456,-0.04553446173667908,-0.2531169354915619
1776814967286968600,3.486968505859375,0.2764712870121002,0.13533759117126465,-0.3799625039100647
1776814967297006300,3.49700634765625,0.4117899537086487,0.20130407810211182,-0.4708745777606964
1776814967307043600,3.507043701171875,0.5072125792503357,0.17271637916564941,-0.46568700671195984
1776814967317081300,3.517081298828125,0.0731506422162056,0.10550805181264877,-0.3551362454891205
1776814967327119600,3.52711962890625,-0.19585604965686798,0.09827277064323425,-0.24968093633651733
1776814967337157400,3.537157470703125,-0.305594801902771,-0.00762835843488574,-0.16041071712970734
1776814967347194400,3.5471943359375,-0.1554524451494217,0.29785245656967163,0.04854356870055199
1776814967357232600,3.557232666015625,-0.06692817062139511,0.28210145235061646,0.11159203946590424
1776814967367270400,3.5672705078125,-0.039027027785778046,0.20491133630275726,0.13413703441619873
1776814967377307400,3.577307373046875,0.06955750286579132,0.027713386341929436,0.07584229856729507
1776814967387345700,3.587345703125,0.02376152202486992,-0.023745276033878326,0.06017039716243744
1776814967397383400,3.597383544921875,0.020909275859594345,-0.200336292386055,-0.01519013848155737
1776814967407421700,3.607421630859375,0.021638449281454086,-0.17030754685401917,-0.029814088717103004
1776814967417458400,3.61745849609375,0.01836515963077545,-0.20026305317878723,-0.012791961431503296
1776814967427496400,3.627496337890625,0.012134160846471786,-0.19657057523727417,0.003365170443430543
1776814967437534500,3.637534423828125,-0.016268186271190643,-0.13662602007389069,-0.013128585182130337
1776814967447571500,3.647571533203125,0.0016314524691551924,-0.03351854532957077,-0.036677852272987366
1776814967457609500,3.657609375,0.03225993365049362,-0.1019844189286232,0.029714219272136688
1776814967467647500,3.6676474609375,0.03455771133303642,-0.12134267389774323,0.02568991668522358
1776814967477685500,3.677685546875,0.02953924983739853,-0.09705597907304764,0.0021017666440457106
1776814967487722500,3.687722412109375,0.030916104093194008,-0.09192805737257004,-0.021739650517702103
1776814967497760500,3.697760498046875,0.030833546072244644,-0.08323896676301956,-0.039931170642375946
1776814967507798500,3.707798583984375,0.012323778122663498,-0.0682901069521904,-0.0272649098187685
1776814967517835300,3.717835205078125,-0.03598596528172493,0.01835716888308525,0.016628511250019073
1776814967527873500,3.72787353515625,-0.20813322067260742,0.4241534173488617,0.33849096298217773
1776814967537911300,3.737911376953125,-0.2597775161266327,0.8838073015213013,0.6510688662528992
1776814967547948300,3.7479482421875,-0.2207946926355362,0.639134407043457,0.3422295153141022
1776814967557986600,3.757986572265625,-0.5113239884376526,0.37562182545661926,-0.08937275409698486
1776814967568024300,3.7680244140625,-0.7613202333450317,-0.19028232991695404,-0.39747360348701477
1776814967578062600,3.7780625,-0.9217514991760254,-0.5751687288284302,-0.5082336664199829
1776814967588099600,3.788099609375,-0.903700590133667,-0.5540642738342285,-0.3878744840621948
1776814967598137300,3.798137451171875,-0.8199558854103088,-0.6712649464607239,-0.353453665971756
1776814967608171000,3.8081708984375,-0.8042961955070496,-0.7508028745651245,-0.38096386194229126
1776814967618208000,3.8182080078125,-0.8223316669464111,-0.536166250705719,-0.33318114280700684
1776814967628245800,3.828245849609375,-1.0276262760162354,-0.23234589397907257,-0.24427205324172974
1776814967638284000,3.838283935546875,-1.2891435623168945,-0.14789332449436188,-0.1946895867586136
1776814967648321800,3.84832177734375,-1.590368390083313,-0.24186961352825165,-0.23212112486362457
1776814967658358800,3.85835888671875,-1.8061398267745972,-0.30911868810653687,-0.2591404914855957
1776814967668397000,3.86839697265625,-1.9619057178497314,-0.4455135464668274,-0.29032158851623535
1776814967678434800,3.878434814453125,-2.01967716217041,-0.6043479442596436,-0.30485525727272034
1776814967688471800,3.888471923828125,-2.052978515625,-0.6517397165298462,-0.3359753489494324
1776814967698509800,3.898509765625,-2.042034864425659,-0.7631157636642456,-0.28410443663597107
1776814967708547800,3.9085478515625,-1.8037770986557007,-0.6565315127372742,-0.2828255891799927
1776814967718584800,3.918584716796875,-1.5691096782684326,-0.3198765516281128,-0.13648992776870728
1776814967728622800,3.928622802734375,-1.353502631187439,0.13148371875286102,0.06743550300598145
1776814967738660900,3.938660888671875,-1.5086519718170166,0.04939178377389908,0.10268829762935638
1776814967748699000,3.948698974609375,-1.380021333694458,-0.21925991773605347,0.09508443623781204
1776814967758736000,3.95873583984375,-1.3252925872802734,-0.3661833107471466,0.07980082184076309
1776814967768774000,3.96877392578125,-1.1668992042541504,-0.38930806517601013,-0.020893830806016922
1776814967778812000,3.97881201171875,-1.01570725440979,-0.35034096240997314,-0.18606840074062347
1776814967788849000,3.988848876953125,-0.8297153115272522,-0.39504292607307434,-0.39844298362731934
1776814967798884900,3.998884765625,-0.7116512060165405,-0.47502538561820984,-0.5274369120597839
1776814967808923000,4.0089228515625,-0.6651852130889893,-0.4011074900627136,-0.6029133200645447
1776814967818960000,4.0189599609375,-0.7495355010032654,-0.5867548584938049,-0.8194674253463745
1776814967828998000,4.028997802734375,-0.6871890425682068,-0.8062615990638733,-0.5806495547294617
1776814967839036000,4.039035888671875,-0.5986328125,-0.6419677734375,-0.29844582080841064
1776814967849074000,4.049073974609375,-0.4832577407360077,-0.41976213455200195,-0.27020832896232605
1776814967859111000,4.05911083984375,0.014007428660988808,-0.2903865575790405,-0.2673584818840027
1776814967869149000,4.06914892578125,0.357224702835083,-0.09327535331249237,0.07064061611890793
1776814967879187000,4.07918701171875,0.4010177254676819,0.25684884190559387,0.05804998800158501
1776814967889224000,4.089223876953125,0.14399099349975586,0.40951961278915405,-0.033237848430871964
1776814967899262000,4.099261962890625,0.07404013723134995,0.14060132205486298,-0.10589234530925751
1776814967909300000,4.109300048828125,0.01426602154970169,-0.10274102538824081,-0.0782705694437027
1776814967919338000,4.119337890625,-0.07369525730609894,-0.11347303539514542,-0.006396912969648838
1776814967929375000,4.129375,-0.029163211584091187,0.018487397581338882,0.13371704518795013
1776814967939412700,4.139412841796875,0.0641787201166153,0.028988242149353027,0.24268588423728943
1776814967949451000,4.149450927734375,0.08815595507621765,-0.011740013025701046,0.22205623984336853
1776814967959488000,4.159488037109375,0.04030507802963257,-0.03471590206027031,0.18486759066581726
1776814967969525800,4.16952587890625,0.028003938496112823,-0.009632919915020466,0.18719865381717682
1776814967979564000,4.17956396484375,0.055759135633707047,0.09116213023662567,0.2053867131471634
1776814967989601800,4.189601806640625,0.0806245356798172,0.1872580349445343,0.21798479557037354
1776814967999638800,4.199638671875,0.10801701247692108,0.21393492817878723,0.221669003367424
1776814968009677000,4.209677001953125,0.1533978134393692,0.1880308836698532,0.16789846122264862
1776814968019714800,4.21971484375,0.21214820444583893,0.11262667924165726,0.08811148256063461
1776814968029751800,4.229751708984375,0.2748432755470276,0.02865135297179222,0.002397643867880106
1776814968039789800,4.239789794921875,0.2968868017196655,-0.013166136108338833,-0.10086163133382797
1776814968049827800,4.249827880859375,0.324346125125885,-0.03278244659304619,-0.15757471323013306
1776814968059865000,4.259864990234375,0.33804967999458313,-0.052620332688093185,-0.1616932898759842
1776814968069902800,4.26990283203125,0.307576984167099,-0.060019128024578094,-0.10706546902656555
1776814968079940900,4.27994091796875,0.17539632320404053,-0.10079558938741684,-0.07698719203472137
1776814968089979000,4.289978759765625,-0.09904162585735321,-0.003560912562534213,-0.002004561247304082
1776814968100015900,4.300015869140625,-0.031316645443439484,0.18503296375274658,0.11089669167995453
1776814968110054000,4.310053955078125,-0.11163545399904251,0.28668874502182007,0.12081776559352875
1776814968120092000,4.320091796875,-0.12698350846767426,0.3218565881252289,0.11229404807090759
1776814968130129000,4.33012890625,-0.030219154432415962,0.25151264667510986,0.07717068493366241
1776814968140167000,4.3401669921875,-0.004791825544089079,0.17491881549358368,0.038651254028081894
1776814968150205000,4.350204833984375,-0.010096043348312378,0.10981038957834244,-0.000922519015148282
1776814968160242700,4.36024267578125,0.037144970148801804,0.004890895448625088,-0.06701738387346268
1776814968170280000,4.370280029296875,0.08536896109580994,-0.059236425906419754,-0.10316553711891174
1776814968180318000,4.38031787109375,0.02323155291378498,-0.042284075170755386,-0.0467563197016716
1776814968190355700,4.390355712890625,0.09448122978210449,-0.13988199830055237,-0.06374329328536987
1776814968200393000,4.40039306640625,0.07673339545726776,-0.16786091029644012,-0.05042455717921257
1776814968210431000,4.410430908203125,-0.0023702133912593126,-0.18139109015464783,-0.035290878266096115
1776814968220469000,4.420468994140625,-0.016201606020331383,-0.27307388186454773,-0.10575944930315018
1776814968230507000,4.430507080078125,-0.013085708022117615,-0.2780774235725403,-0.13962633907794952
1776814968240543700,4.440543701171875,-0.019686352461576462,-0.1852627992630005,-0.13573279976844788
1776814968250582000,4.45058203125,0.0013552826130762696,-0.15327318012714386,-0.07677440345287323
1776814968260619800,4.460619873046875,0.007477091159671545,-0.2033882737159729,-0.09555155783891678
1776814968270656800,4.47065673828125,0.016680710017681122,-0.1856399029493332,-0.1066092699766159
1776814968280695000,4.480695068359375,0.015455654822289944,-0.2040170431137085,-0.11743102222681046
1776814968290732800,4.49073291015625,-0.023844612762331963,-0.07580261677503586,-0.09032217413187027
1776814968300771000,4.50077099609375,0.015005048364400864,-0.052385441958904266,-0.10708064585924149
1776814968310808000,4.51080810546875,0.033189378678798676,-0.0390041247010231,-0.1432517021894455
1776814968320845800,4.520845703125,0.010963435284793377,0.0017875137273222208,-0.14393773674964905
1776814968330884000,4.530884033203125,0.024460868909955025,-0.009794574230909348,-0.13991662859916687
1776814968340920800,4.5409208984375,0.023364178836345673,0.02696184255182743,-0.14009159803390503
1776814968350958800,4.550958740234375,0.008651012554764748,0.04215703904628754,-0.10144779831171036
1776814968360996900,4.560996826171875,0.022698387503623962,0.04737896844744682,-0.0663641095161438
1776814968371035000,4.571034912109375,0.03235634043812752,0.027846012264490128,-0.04213999584317207
1776814968381072000,4.58107177734375,0.0358717143535614,-0.0016349145444110036,-0.013072391971945763
1776814968391110000,4.59110986328125,0.032834913581609726,0.0005153216770850122,-0.0037321539130061865
1776814968401148000,4.60114794921875,0.030234334990382195,0.030904652550816536,-0.002543851500377059
1776814968411185000,4.611184814453125,0.028026841580867767,0.045457229018211365,-0.006367618218064308
1776814968421223000,4.621222900390625,0.021352160722017288,0.07018548250198364,-0.01176264975219965
1776814968431261000,4.631260986328125,0.0063210129737854,0.07329019159078598,0.008476043120026588
1776814968441299000,4.641298828125,-0.0017917747609317303,0.07666974514722824,0.014168549329042435
1776814968451336000,4.6513359375,-0.005834719631820917,0.05868914723396301,0.03447036072611809
1776814968461373700,4.661373779296875,-0.006412891671061516,0.03538994863629341,0.0538128986954689
1776814968471412000,4.671411865234375,0.0246635340154171,0.036746297031641006,0.0495329312980175
1776814968481449700,4.68144970703125,0.02467365376651287,0.0504104420542717,0.039268042892217636
1776814968491486700,4.69148681640625,0.019604327157139778,0.031127292662858963,0.033897511661052704
1776814968501525000,4.70152490234375,0.0259849950671196,0.009752229787409306,0.03492176532745361
1776814968511562800,4.711562744140625,0.023203322663903236,-0.00974477268755436,0.03188762441277504
1776814968521600000,4.72160009765625,0.024331439286470413,-0.034454647451639175,0.03405437245965004
1776814968531638000,4.731637939453125,0.018754245713353157,-0.05964788421988487,0.051349740475416183
1776814968541675800,4.74167578125,0.013265471905469894,-0.07591287046670914,0.07002276182174683
1776814968551714000,4.751714111328125,0.012829778715968132,-0.07425159215927124,0.0851050391793251
1776814968561750800,4.761750732421875,0.019090870395302773,-0.06551642715930939,0.0907280370593071
1776814968571788800,4.771788818359375,0.023693345487117767,-0.054609980434179306,0.09701496362686157
1776814968581826800,4.781826904296875,0.022725285962224007,-0.04513658583164215,0.10180386155843735
1776814968591863800,4.79186376953125,0.019089804962277412,-0.0644032210111618,0.11318274587392807
1776814968601902000,4.801902099609375,0.012807940132915974,-0.10499805212020874,0.12081083655357361
1776814968611940900,4.81194091796875,0.007896006107330322,-0.13082300126552582,0.1292959302663803
1776814968621979000,4.821978759765625,0.005626460537314415,-0.14433161914348602,0.12831082940101624
1776814968632016000,4.832015869140625,0.010323744267225266,-0.13461905717849731,0.12198982387781143
1776814968642054000,4.842053955078125,0.02232075110077858,-0.10184939950704575,0.10591284930706024
1776814968652091600,4.852091552734375,0.029834860935807228,-0.07567664980888367,0.08526376634836197
1776814968662129000,4.86212890625,0.03405677154660225,-0.08015395700931549,0.06495902687311172
1776814968672167000,4.8721669921875,0.03375823050737381,-0.11439555138349533,0.049543850123882294
1776814968682205000,4.882204833984375,0.03614495322108269,-0.15770414471626282,0.036429379135370255
1776814968692243000,4.892242919921875,0.04090508818626404,-0.1837727576494217,0.026157567277550697
1776814968702279700,4.90227978515625,0.044971201568841934,-0.18899734318256378,0.02544916793704033
1776814968712318000,4.91231787109375,0.042388468980789185,-0.1933087408542633,0.028174113482236862
1776814968722356000,4.92235595703125,0.033122267574071884,-0.21522335708141327,0.02737037092447281
1776814968732393700,4.932393798828125,0.03031742572784424,-0.24098332226276398,0.03125033155083656
1776814968742431000,4.942430908203125,0.03134327381849289,-0.24637435376644135,0.02739087864756584
1776814968752468700,4.95246875,0.033903904259204865,-0.23996439576148987,0.008444617502391338
1776814968762507000,4.962507080078125,0.032890040427446365,-0.22646109759807587,-0.007170561235398054
1776814968772544000,4.9725439453125,0.02978239580988884,-0.1974467635154724,-0.02034095861017704
1776814968782581800,4.982581787109375,0.01912655681371689,-0.1727062612771988,-0.013685984537005424
1776814968792620000,4.9926201171875,0.012094746343791485,-0.16991978883743286,-0.01164360623806715
1776814968802657800,5.00265771484375,0.003719104453921318,-0.1890024095773697,-0.009376724250614643
1776814968812694800,5.01269482421875,-0.003774764481931925,-0.18730145692825317,-0.01227477565407753
1776814968822732800,5.02273291015625,-0.008155131712555885,-0.1565941423177719,-0.023609722033143044
1776814968832770800,5.032770751953125,-0.011048922315239906,-0.11318168044090271,-0.04062918573617935
1776814968842809000,5.04280908203125,-0.01582450233399868,-0.0727011039853096,-0.0477621965110302
1776814968852845800,5.052845703125,-0.014780543744564056,-0.030662572011351585,-0.04803517088294029
1776814968862883800,5.0628837890625,-0.013914217241108418,0.010418818332254887,-0.05179901421070099
1776814968872921900,5.072921875,-0.009780192747712135,0.034688737243413925,-0.061824750155210495
1776814968882958800,5.082958740234375,0.00162426196038723,0.06120023876428604,-0.057683803141117096
1776814968892996900,5.092996826171875,0.004017910920083523,0.07120520621538162,-0.053342849016189575
1776814968903035000,5.103034912109375,0.00942199770361185,0.07249976694583893,-0.05061657354235649
1776814968913073000,5.113072998046875,0.010721353814005852,0.07811584323644638,-0.04572434350848198
1776814968923110000,5.12310986328125,0.015749668702483177,0.08125331252813339,-0.03820144757628441
1776814968933148000,5.13314794921875,0.01696353778243065,0.08208208531141281,-0.028869464993476868
1776814968943186000,5.14318603515625,0.017370734363794327,0.07697627693414688,-0.020856812596321106
1776814968953224000,5.153223876953125,0.017736919224262238,0.05594555661082268,-0.010399111546576023
1776814968963261000,5.163260986328125,0.022901853546500206,0.05235588178038597,-0.01305348426103592
1776814968973298700,5.173298583984375,0.026990072801709175,0.07808680832386017,-0.01870604418218136
1776814968983337000,5.1833369140625,0.031446073204278946,0.11215955764055252,-0.02046532742679119
1776814968993374000,5.1933740234375,0.03127110376954079,0.12624262273311615,-0.01607111096382141
1776814969003411700,5.20341162109375,0.03293797746300697,0.12107902020215988,-0.009738381020724773
1776814969013450000,5.213449951171875,0.026198580861091614,0.10283556580543518,0.00021678130724467337
1776814969023487700,5.22348779296875,0.019033612683415413,0.0728912502527237,0.007720503956079483
1776814969033524700,5.233524658203125,0.009157545864582062,0.04874037578701973,0.01209607720375061
1776814969043563000,5.24356298828125,0.007524761371314526,0.03676387295126915,0.009209743700921535
1776814969053600800,5.253600830078125,0.00929443258792162,0.043041475117206573,0.0037816886324435472
1776814969063639000,5.26363916015625,0.00824008695781231,0.05600068345665932,-0.00020373181905597448
1776814969073675800,5.27367578125,0.004274906124919653,0.058088868856430054,-0.003099919529631734
1776814969083713800,5.2837138671875,0.000251402409048751,0.05354098975658417,-0.0000428768944402691
1776814969093751800,5.293751708984375,0.000011984225238848012,0.0402534119784832,-0.0006825681775808334
1776814969103788800,5.303788818359375,0.006456035189330578,0.025143969804048538,0.003043726785108447
1776814969113826800,5.313826904296875,0.014868427999317646,0.028804482892155647,0.003945206757634878
1776814969123864800,5.32386474609375,0.020121246576309204,0.030166158452630043,0.004431233741343021
1776814969133902800,5.33390283203125,0.029316609725356102,0.026623621582984924,-0.0006095975404605269
1776814969143939800,5.34393994140625,0.029823409393429756,0.018023742362856865,0.006072539836168289
1776814969153977900,5.353977783203125,0.029822876676917076,-0.006750048138201237,0.012076370418071747
1776814969164015900,5.364015869140625,0.024168452247977257,-0.04364201799035072,0.026282737031579018
1776814969174054000,5.374053955078125,0.01500957552343607,-0.057914700359106064,0.040048882365226746
1776814969184091000,5.3840908203125,0.012175173498690128,-0.051177967339754105,0.048403751105070114
1776814969194128600,5.394128662109375,0.01116130780428648,-0.026374882087111473,0.048710282891988754
1776814969204167000,5.4041669921875,0.008650213479995728,-0.009245962835848331,0.0553082637488842
1776814969214204700,5.41420458984375,0.007453655358403921,-0.0031345405150204897,0.0521116703748703
1776814969224241700,5.42424169921875,0.006295179948210716,-0.021772140637040138,0.05405551195144653
1776814969234280000,5.434280029296875,0.006339921150356531,-0.03814338892698288,0.06586609780788422
1776814969244317700,5.444317626953125,0.0073503246530890465,-0.03358059749007225,0.08476655185222626
1776814969254355000,5.45435498046875,0.01667778007686138,-0.014327007345855236,0.09378321468830109
1776814969264393000,5.46439306640625,0.024214791133999825,0.016393620520830154,0.08765687793493271
1776814969274430700,5.4744306640625,0.03327140212059021,0.0202229805290699,0.07201933115720749
1776814969284469000,5.484468994140625,0.035054922103881836,0.006542587652802467,0.07671262323856354
1776814969294505700,5.494505615234375,0.029564550146460533,-0.01654888316988945,0.08495777100324631
1776814969304543700,5.504543701171875,0.018924156203866005,-0.04067312926054001,0.09464608132839203
1776814969314581800,5.514581787109375,0.012507003732025623,-0.04388383403420448,0.10469472408294678
1776814969324619800,5.524619873046875,0.011091533116996288,-0.03206872195005417,0.10113780200481415
1776814969334657000,5.534656982421875,0.006922887172549963,-0.004944424610584974,0.10021554678678513
1776814969344694800,5.54469482421875,0.009671003557741642,0.019463179633021355,0.09461092948913574
1776814969354732800,5.55473291015625,0.009555421769618988,0.026701385155320168,0.10509898513555527
1776814969364770800,5.564770751953125,0.014584801159799099,0.018429340794682503,0.11353535205125809
1776814969374807800,5.574807861328125,0.01757846027612686,0.007119428366422653,0.11546774208545685
1776814969384845800,5.584845703125,0.025191107764840126,-0.005921272095292807,0.11004474759101868
1776814969394883800,5.5948837890625,0.027466777712106705,-0.013775733299553394,0.09982193261384964
1776814969404920800,5.6049208984375,0.031451400369405746,-0.017057280987501144,0.0980735719203949
1776814969414958800,5.614958740234375,0.026871828362345695,-0.010439325124025345,0.09181301295757294
1776814969424996900,5.624996826171875,0.017977401614189148,-0.0015552861150354147,0.08564672619104385
1776814969435034600,5.63503466796875,0.006155896931886673,-0.0013166668359190226,0.08760974556207657
1776814969445072000,5.64507177734375,-0.0012242551892995834,-0.0006386260502040386,0.08059550821781158
1776814969455110000,5.65510986328125,-0.005545233841985464,-0.004376106429845095,0.0781206339597702
1776814969465147600,5.665147705078125,-0.01122176181524992,-0.0138993039727211,0.0771443173289299
1776814969475186000,5.67518603515625,-0.014758439734578133,-0.014900386333465576,0.08935704082250595
1776814969485223000,5.685222900390625,-0.018760105594992638,-0.007832623086869717,0.10776534676551819
1776814969495261000,5.695260986328125,-0.0216581579297781,0.00039787625428289175,0.12166837602853775
1776814969505299000,5.705298828125,-0.018877284601330757,0.0082483422011137,0.13056093454360962
1776814969515336700,5.715336669921875,-0.007507184520363808,0.004904743749648333,0.12746314704418182
1776814969525374000,5.7253740234375,-0.006912766955792904,-0.009126120246946812,0.12375789135694504
1776814969535411700,5.73541162109375,-0.009268066845834255,-0.022481074556708336,0.11526507139205933
1776814969545449700,5.74544970703125,-0.008824650198221207,-0.03855351731181145,0.11028176546096802
1776814969555487700,5.75548779296875,-0.015733689069747925,-0.04741811379790306,0.12121990323066711
1776814969565524700,5.765524658203125,-0.021617677062749863,-0.04795634001493454,0.13116946816444397
1776814969575563000,5.77556298828125,-0.02780366875231266,-0.04741065949201584,0.13464409112930298
1776814969585600800,5.785600830078125,-0.03838600590825081,-0.05182165279984474,0.13961276412010193
1776814969595638800,5.795638671875,-0.04636962711811066,-0.06547114998102188,0.15188966691493988
1776814969605676000,5.805676025390625,-0.05254070460796356,-0.06569086015224457,0.16703638434410095
1776814969615713300,5.81571337890625,-0.05345390364527702,-0.07122224569320679,0.17668582499027252
1776814969625751300,5.825751220703125,-0.049123868346214294,-0.06604479998350143,0.16877196729183197
1776814969635788500,5.83578857421875,-0.028357870876789093,-0.05025038868188858,0.15116874873638153
1776814969645826300,5.845826416015625,-0.017053551971912384,-0.03142130747437477,0.13437111675739288
1776814969655864300,5.8558642578125,-0.01315175462514162,-0.04059882462024689,0.11796046048402786
1776814969665902300,5.86590234375,-0.007741809356957674,-0.07364838570356369,0.11254651844501495
1776814969675939300,5.875939208984375,-0.00866273045539856,-0.1190134733915329,0.11467358469963074
1776814969685977300,5.885977294921875,-0.01221565343439579,-0.1264261156320572,0.11324693262577057
1776814969696015400,5.896015380859375,-0.01625247299671173,-0.10519193112850189,0.10269628465175629
1776814969706053400,5.906053466796875,-0.013646037317812443,-0.05587924271821976,0.08433379232883453
1776814969716090400,5.91609033203125,-0.011297661811113358,-0.016049273312091827,0.07189229875802994
1776814969726128400,5.92612841796875,-0.01954813487827778,0.007497331127524376,0.07387582212686539
1776814969736166100,5.936166259765625,-0.030462302267551422,0.01318397931754589,0.09012936055660248
1776814969746204400,5.946204345703125,-0.044684380292892456,-0.0035867453552782536,0.10923514515161514
1776814969756241400,5.956241455078125,-0.057845454663038254,-0.03278564289212227,0.12464552372694016
1776814969766279400,5.966279541015625,-0.06381066888570786,-0.060752030462026596,0.12953348457813263
1776814969776317400,5.9763173828125,-0.058268897235393524,-0.059235893189907074,0.12868048250675201
1776814969786355200,5.986355224609375,-0.05193749815225601,-0.034988876432180405,0.13344193994998932
1776814969796392400,5.996392333984375,-0.05119314789772034,-0.00612287363037467,0.14490072429180145
1776814969806430500,6.006430419921875,-0.05622225999832153,0.004231496714055538,0.17648741602897644
1776814969816468200,6.01646826171875,-0.07201586663722992,-0.0034013893455266953,0.21391655504703522
1776814969826506500,6.026506591796875,-0.08193294703960419,0.005402222275733948,0.24330240488052368
1776814969836543200,6.036543212890625,-0.08382965624332428,0.04271124303340912,0.26165902614593506
1776814969846581500,6.04658154296875,-0.08941243588924408,0.10415250062942505,0.27666035294532776
1776814969856619300,6.056619384765625,-0.09542478621006012,0.1376659870147705,0.2995334565639496
1776814969866657300,6.0666572265625,-0.09499841928482056,0.1446346789598465,0.3402808904647827
1776814969876694500,6.076694580078125,-0.1130213588476181,0.14063887298107147,0.38304510712623596
1776814969886732300,6.086732177734375,-0.12687166035175323,0.14185833930969238,0.4259238839149475
1776814969896770300,6.096770263671875,-0.141028493642807,0.14129534363746643,0.46932247281074524
1776814969906808300,6.106808349609375,-0.13142460584640503,0.14657771587371826,0.5160638689994812
1776814969916845300,6.11684521484375,-0.11953198909759521,0.19183415174484253,0.559553861618042
1776814969926883600,6.126883544921875,-0.10489392280578613,0.2532237470149994,0.6326165795326233
1776814969936921300,6.13692138671875,-0.11107485741376877,0.31227001547813416,0.7499317526817322
1776814969946959400,6.14695947265625,-0.12140525877475739,0.3552747368812561,0.8900913000106812
1776814969956996400,6.156996337890625,-0.13443370163440704,0.29092586040496826,1.0406043529510498
1776814969967034400,6.167034423828125,-0.12710149586200714,0.2512599229812622,1.1760878562927246
1776814969977072000,6.177072021484375,-0.10114020109176636,0.261061429977417,1.3167091608047485
1776814969987110400,6.1871103515625,-0.006872553378343582,0.22994717955589294,1.4582247734069824
1776814969997147400,6.1971474609375,0.04572567716240883,0.18194369971752167,1.5716294050216675
1776814970007185400,6.207185302734375,0.07911799103021622,0.11560915410518646,1.6837964057922363
1776814970017223400,6.217223388671875,0.13246536254882812,-0.03949148207902908,1.8301432132720947
1776814970027261200,6.22726123046875,0.1419222503900528,-0.14570367336273193,1.9804717302322388
1776814970037298400,6.23729833984375,0.1263185292482376,-0.058036137372255325,2.0890274047851562
1776814970047336400,6.24733642578125,0.18078948557376862,0.017246365547180176,2.172231912612915
1776814970057374200,6.257374267578125,0.2981427311897278,-0.0019651465117931366,2.1470963954925537
1776814970067412500,6.26741259765625,0.4562721848487854,0.011235344223678112,2.028066396713257
1776814970077449200,6.27744921875,0.5816330313682556,-0.0998576208949089,1.9007004499435425
1776814970087487500,6.287487548828125,0.5938630700111389,-0.1933513581752777,1.8391369581222534
1776814970097525200,6.297525146484375,0.5155861377716064,-0.1295878142118454,1.8387422561645508
1776814970107563300,6.307563232421875,0.4751420319080353,-0.043774910271167755,1.8564832210540771
1776814970117600500,6.3176005859375,0.43112051486968994,0.08307038247585297,1.7750831842422485
1776814970127638300,6.32763818359375,0.44823983311653137,0.21969561278820038,1.629375696182251
1776814970137676300,6.33767626953125,0.48736700415611267,0.1934746503829956,1.5782297849655151
1776814970147714300,6.34771435546875,0.5153387188911438,0.14260774850845337,1.612027883529663
1776814970157751300,6.357751220703125,0.5711122155189514,0.0844150185585022,1.691532850265503
1776814970167790300,6.367790283203125,0.6846901774406433,0.15468624234199524,1.7331156730651855
1776814970177828400,6.377828369140625,0.7899692058563232,0.3156200051307678,1.7494819164276123
1776814970187865300,6.387865234375,0.8126060962677002,0.4720098674297333,1.7912781238555908
1776814970197903400,6.3979033203125,0.7768542170524597,0.4556564688682556,1.8455685377120972
1776814970207941400,6.40794140625,0.7318374514579773,0.3878616988658905,1.9357151985168457
1776814970217979400,6.4179794921875,0.7420059442520142,0.48397839069366455,1.915462613105774
1776814970228016400,6.428016357421875,0.7925357222557068,0.5861865282058716,1.802787184715271
1776814970238054400,6.438054443359375,0.840944766998291,0.5935986042022705,1.7944834232330322
1776814970248092400,6.448092529296875,0.8073945641517639,0.5310614705085754,1.8305981159210205
1776814970258130400,6.45813037109375,0.6918543577194214,0.44502007961273193,1.8882040977478027
1776814970268167200,6.468167236328125,0.5971912145614624,0.34680402278900146,1.9833383560180664
1776814970278205400,6.478205322265625,0.5305157899856567,0.29995104670524597,2.0921030044555664
1776814970288243200,6.4882431640625,0.488353431224823,0.24690964818000793,2.1497254371643066
1776814970298281500,6.498281494140625,0.45645275712013245,0.1676798164844513,2.179049015045166
1776814970308318500,6.508318359375,0.3486887514591217,0.2617783546447754,2.1564438343048096
1776814970318356200,6.518356201171875,0.25145113468170166,0.2725556194782257,2.1519381999969482
1776814970328394500,6.52839453125,0.16487017273902893,0.3266979455947876,2.1529300212860107
1776814970338432300,6.538432373046875,0.11300325393676758,0.3345383107662201,2.14432430267334
1776814970348469200,6.54846923828125,0.19076701998710632,0.40512990951538086,2.116668701171875
1776814970358507500,6.558507568359375,0.15260685980319977,0.44900548458099365,2.0745863914489746
1776814970368545300,6.568545166015625,0.20212993025779724,0.4751390814781189,2.0206360816955566
1776814970378583600,6.57858349609375,0.22832025587558746,0.4241086542606354,1.986642837524414
1776814970388620300,6.588620361328125,0.3096127212047577,0.43962371349334717,1.8986068964004517
1776814970398658300,6.598658203125,0.42277202010154724,0.4904717206954956,1.7922818660736084
1776814970408696300,6.6086962890625,0.4613566994667053,0.5284990072250366,1.7752426862716675
1776814970418734300,6.618734375,0.4389411509037018,0.5342391729354858,1.7957687377929688
1776814970428772400,6.6287724609375,0.4039011299610138,0.5129602551460266,1.8120344877243042
1776814970438809300,6.638809326171875,0.4283071458339691,0.4804307818412781,1.7751339673995972
1776814970448847400,6.648847412109375,0.40765485167503357,0.3415274918079376,1.762290596961975
1776814970458885400,6.658885498046875,0.387256920337677,0.2630990147590637,1.7417666912078857
1776814970468922400,6.66892236328125,0.3455137312412262,0.20482957363128662,1.7573776245117188
1776814970478960400,6.67896044921875,0.3278692066669464,0.08401687443256378,1.78812575340271
1776814970488998400,6.688998291015625,0.36794713139533997,0.03314889967441559,1.7718013525009155
1776814970499036400,6.699036376953125,0.3954131007194519,-0.025709092617034912,1.7494808435440063
1776814970509074400,6.709074462890625,0.4125998020172119,-0.05853095278143883,1.675378441810608
1776814970519111400,6.719111328125,0.3980834484100342,-0.0026114957872778177,1.6313930749893188
1776814970529149200,6.729149169921875,0.36253851652145386,0.01206704881042242,1.6421111822128296
1776814970539187500,6.7391875,0.29580235481262207,0.03990107774734497,1.6614100933074951
1776814970549224400,6.749224365234375,0.24999891221523285,0.07366276532411575,1.6402661800384521
1776814970559262200,6.75926220703125,0.2721540331840515,0.0818977952003479,1.6217937469482422
1776814970569300500,6.769300537109375,0.29781943559646606,0.05172870680689812,1.6151014566421509
1776814970579338200,6.779338134765625,0.2755871117115021,0.006642189808189869,1.6045985221862793
1776814970589376500,6.78937646484375,0.17612069845199585,-0.045098237693309784,1.5971426963806152
1776814970599413500,6.79941357421875,0.05498895049095154,-0.040530648082494736,1.5889813899993896
1776814970609451300,6.809451171875,0.014282532967627048,-0.17861981689929962,1.579430341720581
1776814970619489500,6.819489501953125,0.04023903235793114,-0.27161872386932373,1.540893316268921
1776814970629527600,6.829527587890625,0.05525499954819679,-0.37441566586494446,1.5210108757019043
1776814970639564500,6.839564453125,0.1316206157207489,-0.3285917341709137,1.4586950540542603
1776814970649602300,6.849602294921875,0.1537402868270874,-0.28651005029678345,1.3881956338882446
1776814970659640600,6.859640625,0.14581260085105896,-0.13240757584571838,1.315268635749817
1776814970669678300,6.86967822265625,0.04561249166727066,-0.06036427244544029,1.2325814962387085
1776814970679715600,6.879715576171875,0.032411471009254456,0.1358790099620819,1.1053436994552612
1776814970689753600,6.889753662109375,0.06762964278459549,0.10221638530492783,0.9989578127861023
1776814970699791400,6.899791259765625,0.12044598907232285,0.04830761253833771,0.893172025680542
1776814970709829600,6.90982958984375,0.1659567505121231,-0.01278770063072443,0.8189137578010559
1776814970719866600,6.91986669921875,0.18498876690864563,-0.03379924222826958,0.7058338522911072
1776814970729904400,6.929904296875,0.1798485964536667,0.0010436928132548928,0.5911368131637573
1776814970739942700,6.939942626953125,0.16476045548915863,0.046246591955423355,0.4595012664794922
1776814970749980400,6.94998046875,0.1875203549861908,0.08150790631771088,0.33538520336151123
1776814970760017700,6.960017578125,0.19282324612140656,0.07780051976442337,0.231866255402565
1776814970770055400,6.970055419921875,0.19960126280784607,0.08461235463619232,0.12363751977682114
1776814970780093400,6.980093505859375,0.18421538174152374,0.12278610467910767,0.007996940053999424
1776814970790131500,6.99013134765625,0.17233900725841522,0.08476974815130234,-0.10264728218317032
1776814970800168400,7.00016845703125,0.1430133432149887,0.026126675307750702,-0.18509182333946228
1776814970810206500,7.01020654296875,0.11323201656341553,0.023148728534579277,-0.2930382788181305
1776814970820244500,7.020244384765625,0.10168934613466263,0.0062219430692493916,-0.39844217896461487
1776814970830282500,7.030282470703125,0.08395588397979736,-0.013629259541630745,-0.49101659655570984
1776814970840319700,7.04031982421875,0.06258615106344223,-0.05841457471251488,-0.5917421579360962
1776814970850357500,7.050357421875,0.04424042999744415,-0.08817939460277557,-0.6829167604446411
1776814970860395500,7.0603955078125,0.03177976608276367,-0.11561954021453857,-0.7710394859313965
1776814970870433500,7.07043359375,0.017720939591526985,-0.1419832408428192,-0.8409178853034973
1776814970880471600,7.080471435546875,0.007720237597823143,-0.1831493079662323,-0.9395368695259094
1776814970890508300,7.09050830078125,0.008345548063516617,-0.16030286252498627,-1.0249584913253784
1776814970900546600,7.100546630859375,0.012141884304583073,-0.1419326364994049,-1.1050211191177368
1776814970910584600,7.11058447265625,0.020867198705673218,-0.15726977586746216,-1.1846784353256226
1776814970920622600,7.12062255859375,0.019448798149824142,-0.1777430921792984,-1.2496254444122314
1776814970930659600,7.13065966796875,0.018794460222125053,-0.16341476142406464,-1.3077492713928223
1776814970940697300,7.140697265625,0.012338957749307156,-0.15176795423030853,-1.3912779092788696
1776814970950735600,7.150735595703125,0.006370547693222761,-0.16953390836715698,-1.458318829536438
1776814970960773400,7.1607734375,0.009269132278859615,-0.1967998743057251,-1.5116888284683228
1776814970970810400,7.170810302734375,0.0225662961602211,-0.12977716326713562,-1.5608384609222412
1776814970980848600,7.1808486328125,0.027237480506300926,-0.08057846873998642,-1.621650218963623
1776814970990886400,7.190886474609375,0.009793508797883987,-0.10482228547334671,-1.6998549699783325
1776814971000924700,7.200924560546875,-0.012721387669444084,-0.15938246250152588,-1.7681338787078857
1776814971010961400,7.21096142578125,-0.014787201769649982,-0.13468538224697113,-1.810247778892517
1776814971020999400,7.22099951171875,0.003677825443446636,-0.038416896015405655,-1.8091363906860352
1776814971031037700,7.23103759765625,-0.013235378079116344,-0.003451456781476736,-1.8559670448303223
1776814971041075500,7.241075439453125,-0.036010466516017914,-0.00007456851017195731,-1.9299280643463135
1776814971051113700,7.25111376953125,-0.06625012308359146,-0.06005934253334999,-1.9935723543167114
1776814971061150500,7.261150390625,-0.0590132512152195,0.026194052770733833,-2.0054433345794678
1776814971071188500,7.2711884765625,-0.1488848179578781,0.0763232633471489,-2.037942886352539
1776814971081226500,7.2812265625,-0.23531317710876465,0.12796302139759064,-2.06122088432312
1776814971091264500,7.291264404296875,-0.3309262692928314,0.13003124296665192,-2.0976598262786865
1776814971101301500,7.301301513671875,-0.40051519870758057,0.09585782140493393,-2.0970427989959717
1776814971111339500,7.311339599609375,-0.445539653301239,0.1111542209982872,-2.0813801288604736
1776814971121377500,7.32137744140625,-0.4965088367462158,0.10792886465787888,-2.0376217365264893
1776814971131415600,7.33141552734375,-0.5520610213279724,0.1008262112736702,-2.0278327465057373
1776814971141453600,7.34145361328125,-0.6014621257781982,0.04701384902000427,-2.057452440261841
1776814971151490600,7.351490478515625,-0.637556254863739,0.009849434718489647,-2.070394515991211
1776814971161528600,7.361528564453125,-0.6427819132804871,0.016342487186193466,-2.0860328674316406
1776814971171566600,7.371566650390625,-0.6502022743225098,-0.01737925596535206,-2.0936214923858643
1776814971181604600,7.3816044921875,-0.6648922562599182,-0.03735163435339928,-2.053349733352661
1776814971191641600,7.3916416015625,-0.6850699782371521,-0.10333704203367233,-2.053797483444214
1776814971201679400,7.401679443359375,-0.7050021290779114,-0.18160174787044525,-2.0656654834747314
1776814971211717600,7.411717529296875,-0.7524311542510986,-0.20521999895572662,-2.0778727531433105
1776814971221755400,7.42175537109375,-0.7944055199623108,-0.17321012914180756,-2.1005282402038574
1776814971231793400,7.43179345703125,-0.8200549483299255,-0.14345383644104004,-2.1510281562805176
1776814971241830700,7.44183056640625,-0.8317230343818665,-0.11567120254039764,-2.183654546737671
1776814971251868400,7.451868408203125,-0.8312641978263855,-0.145062655210495,-2.2093679904937744
1776814971261906700,7.46190673828125,-0.8592622876167297,-0.1819080114364624,-2.2098000049591064
1776814971271944400,7.4719443359375,-0.8872030973434448,-0.19570372998714447,-2.1783597469329834
1776814971281981400,7.4819814453125,-0.8791512846946716,-0.18882450461387634,-2.183295488357544
1776814971292019700,7.492019775390625,-0.8750523924827576,-0.03587517514824867,-2.2492666244506836
1776814971302057500,7.502057373046875,-0.827938437461853,-0.06186523288488388,-2.2713499069213867
1776814971312095500,7.512095458984375,-0.7772379517555237,-0.1034235954284668,-2.2878661155700684
1776814971322133500,7.522133544921875,-0.748514711856842,-0.09869755059480667,-2.2926719188690186
1776814971332170500,7.53217041015625,-0.7195573449134827,-0.07548490166664124,-2.3253774642944336
1776814971342208500,7.54220849609375,-0.7157250642776489,0.0467643104493618,-2.4522464275360107
1776814971352246500,7.55224658203125,-0.6877450942993164,0.13699381053447723,-2.5500643253326416
1776814971362284500,7.562284423828125,-0.6825258135795593,-0.004165183752775192,-2.513707399368286
1776814971372321500,7.572321533203125,-0.6589779257774353,-0.07985728234052658,-2.5147316455841064
1776814971382359600,7.582359619140625,-0.6240478754043579,-0.08356600254774094,-2.580443859100342
1776814971392397300,7.592397216796875,-0.5730621814727783,0.24740447103977203,-2.823408365249634
1776814971402435600,7.602435546875,-0.5568536520004272,0.16969875991344452,-2.7729029655456543
1776814971412472600,7.61247265625,-0.5491762757301331,-0.04020174965262413,-2.625772714614868
1776814971422510600,7.622510498046875,-0.5107144117355347,-0.20743334293365479,-2.477159261703491
1776814971432548600,7.632548583984375,-0.4735468029975891,-0.3333688974380493,-2.3915069103240967
1776814971442586400,7.64258642578125,-0.3792594373226166,-0.20233047008514404,-2.4419233798980713
1776814971452624600,7.652624755859375,-0.37480637431144714,-0.16658419370651245,-2.461369037628174
1776814971462661600,7.66266162109375,-0.38370612263679504,-0.25076404213905334,-2.371182680130005
1776814971472699400,7.672699462890625,-0.3832733631134033,-0.28926029801368713,-2.250121831893921
1776814971482737700,7.682737548828125,-0.3411730229854584,-0.10646412521600723,-2.2417078018188477
1776814971492775400,7.692775390625,-0.3348168730735779,-0.06704774498939514,-2.2083096504211426
1776814971502812700,7.702812744140625,-0.3040733337402344,-0.13062991201877594,-2.012448310852051
1776814971512850400,7.712850341796875,-0.25024285912513733,-0.14442801475524902,-1.8229044675827026
1776814971522888400,7.722888427734375,-0.21325555443763733,-0.19391274452209473,-1.6546419858932495
1776814971532926500,7.732926513671875,-0.14328445494174957,-0.24538445472717285,-1.4848475456237793
1776814971542963500,7.74296337890625,-0.08698629587888718,-0.2419484555721283,-1.3396952152252197
1776814971553001500,7.75300146484375,-0.03852848336100578,-0.19101069867610931,-1.2357584238052368
1776814971563039500,7.76303955078125,-0.023119701072573662,-0.17066948115825653,-1.1585257053375244
1776814971573077500,7.773077392578125,-0.04012025520205498,-0.18955634534358978,-1.0782777070999146
1776814971583114800,7.78311474609375,-0.04644685983657837,-0.2090940922498703,-0.9818853735923767
1776814971593152500,7.793152587890625,-0.04716804623603821,-0.2307618409395218,-0.8812400102615356
1776814971603190500,7.8031904296875,-0.0502392016351223,-0.24849610030651093,-0.7774432897567749
1776814971613228300,7.813228271484375,-0.051831506192684174,-0.24767424166202545,-0.6733845472335815
1776814971623266600,7.8232666015625,-0.04441620036959648,-0.22646722197532654,-0.5831124186515808
1776814971633303300,7.83330322265625,-0.06064843386411667,-0.21217989921569824,-0.4888027012348175
1776814971643341300,7.84334130859375,-0.05005304887890816,-0.18154209852218628,-0.37709933519363403
1776814971653379300,7.85337939453125,-0.014731275849044323,-0.15694381296634674,-0.2516985535621643
1776814971663417300,7.863417236328125,0.041802309453487396,-0.15534111857414246,-0.143157958984375
1776814971673454300,7.873454345703125,0.09299705177545547,-0.20375099778175354,-0.07309205085039139
1776814971683492400,7.883492431640625,0.11774900555610657,-0.294048935174942,-0.018390191718935966
1776814971693530400,7.8935302734375,0.13205844163894653,-0.38077449798583984,0.02592960186302662
1776814971703568400,7.903568359375,0.13673068583011627,-0.38644516468048096,0.05885399505496025
1776814971713605400,7.91360546875,0.1453915536403656,-0.2950894236564636,0.07170428335666656
1776814971723643400,7.923643310546875,0.1491551250219345,-0.2152009904384613,0.04844556376338005
1776814971733681400,7.933681396484375,0.15010800957679749,-0.22636044025421143,0.00833729188889265
1776814971743719400,7.943719482421875,0.1298876851797104,-0.2629016637802124,-0.013138438574969769
1776814971753756200,7.953756103515625,0.10045923292636871,-0.23354963958263397,-0.016688698902726173
1776814971763794400,7.96379443359375,0.07601141184568405,-0.09910128265619278,-0.015083878301084042
1776814971773832400,7.97383251953125,0.07113596051931381,0.08439850062131882,-0.034875690937042236
1776814971783870500,7.983870361328125,0.06755853444337845,0.22778655588626862,-0.06788983196020126
1776814971793907500,7.993907470703125,0.05013507232069969,0.32600632309913635,-0.09697794169187546
1776814971803945200,8.0039453125,0.030776554718613625,0.3957750201225281,-0.11435054242610931
1776814971813983500,8.0139833984375,0.002672215923666954,0.43545451760292053,-0.12505538761615753
1776814971824021200,8.024021240234376,-0.026092054322361946,0.4465559124946594,-0.13166242837905884
1776814971834058200,8.034058349609374,-0.044851627200841904,0.4435710608959198,-0.13396020233631134
1776814971844096500,8.044096435546875,-0.04988926276564598,0.444494366645813,-0.14618250727653503
1776814971854134300,8.05413427734375,-0.06024123728275299,0.3976919651031494,-0.16308186948299408
1776814971864172500,8.064172607421876,-0.07071864604949951,0.2944287061691284,-0.17949679493904114
1776814971874210300,8.074210205078124,-0.07167205959558487,0.17221064865589142,-0.18380126357078552
1776814971884247300,8.084247314453124,-0.04171122610569,0.09373421221971512,-0.16840232908725739
1776814971894285600,8.09428564453125,-0.0073439329862594604,0.09140368551015854,-0.1473415195941925
1776814971904323300,8.1043232421875,0.027181286364793777,0.11992853134870529,-0.11557719856500626
1776814971914361300,8.114361328125,0.05751602351665497,0.13355326652526855,-0.10679329186677933
1776814971924398300,8.1243984375,0.07502364367246628,0.07745750993490219,-0.11186102032661438
1776814971934436400,8.134436279296875,0.08098859339952469,-0.05608190968632698,-0.1012461930513382
1776814971944474400,8.144474365234375,0.07709771394729614,-0.18952971696853638,-0.07755257934331894
1776814971954512400,8.154512451171875,0.07286009192466736,-0.2594462037086487,-0.037821147590875626
1776814971964549400,8.16454931640625,0.07099588215351105,-0.2538983225822449,0.01053173653781414
1776814971974587400,8.17458740234375,0.06453851610422134,-0.1944565623998642,0.05067303031682968
1776814971984625400,8.18462548828125,0.06463651359081268,-0.1260833591222763,0.08021068572998047
1776814971994663200,8.1946630859375,0.0674232468008995,-0.059714462608098984,0.0902223065495491
1776814972004700400,8.204700439453125,0.07439007610082626,0.003891411004588008,0.09499708563089371
1776814972014738400,8.214738525390626,0.09443063288927078,0.07699012011289597,0.08228262513875961
1776814972024776400,8.2247763671875,0.10966497659683228,0.15871934592723846,0.04854543134570122
1776814972034814500,8.234814453125,0.1107344999909401,0.19635939598083496,0.022179603576660156
1776814972044851200,8.244851318359375,0.09344552457332611,0.1704321950674057,0.0020072245970368385
1776814972054889500,8.254889404296875,0.06006866320967674,0.10239960998296738,0.0041553303599357605
1776814972064927200,8.26492724609375,0.023356188088655472,0.03286287561058998,0.025771941989660263
1776814972074965200,8.27496533203125,-0.01630786620080471,-0.011846273206174374,0.06319601088762283
1776814972085002500,8.28500244140625,-0.044432178139686584,-0.01889539323747158,0.09614091366529465
1776814972095040300,8.295040283203125,-0.05223790556192398,0.014948856085538864,0.10015882551670074
1776814972105078500,8.30507861328125,-0.0477113276720047,0.07711715251207352,0.08731759339570999
1776814972115116300,8.3151162109375,-0.030351247638463974,0.1599353402853012,0.06569565832614899
1776814972125153300,8.3251533203125,-0.013166667893528938,0.2134544849395752,0.047147005796432495
1776814972135191600,8.335191650390625,0.012572250328958035,0.23923122882843018,0.031268440186977386
1776814972145229300,8.345229248046875,0.04278527945280075,0.21783965826034546,0.01531450729817152
1776814972155267300,8.355267333984376,0.06798277795314789,0.18087418377399445,-0.005193696822971106
1776814972165304300,8.36530419921875,0.07938723266124725,0.12332406640052795,-0.026584738865494728
1776814972175342300,8.37534228515625,0.07250988483428955,0.0481848381459713,-0.04568706080317497
1776814972185380400,8.38538037109375,0.05739058926701546,-0.055391352623701096,-0.04701358079910278
1776814972195418400,8.39541845703125,0.03823180869221687,-0.1540185958147049,-0.035478632897138596
1776814972205455400,8.405455322265626,0.025800704956054688,-0.20785360038280487,-0.02917706035077572
1776814972215493400,8.415493408203124,0.016684437170624733,-0.2137993723154068,-0.020651215687394142
1776814972225531400,8.425531494140625,0.016206400468945503,-0.18269391357898712,-0.020319119095802307
1776814972235569200,8.435569091796875,0.01980246603488922,-0.14246633648872375,-0.022171348333358765
1776814972245606400,8.4456064453125,0.028379177674651146,-0.11942413449287415,-0.01883067935705185
1776814972255644400,8.45564453125,0.04050827771425247,-0.11190709471702576,-0.010130131617188454
1776814972265682400,8.465682373046874,0.0485433004796505,-0.09893430024385452,-0.012701946310698986
1776814972275720400,8.475720458984375,0.04345746338367462,-0.08296758681535721,-0.01925172470510006
1776814972285757200,8.485757080078125,0.032534241676330566,-0.08791866898536682,-0.024632375687360764
1776814972295795500,8.49579541015625,0.02165389619767666,-0.10073433071374893,-0.02472132444381714
1776814972305833200,8.505833251953124,0.017255153506994247,-0.09919289499521255,-0.02124856412410736
1776814972315871200,8.515871337890625,0.01131017878651619,-0.06143300235271454,-0.024520257487893105
1776814972325908500,8.525908447265625,0.016265789046883583,-0.010134659707546234,-0.022435002028942108
1776814972335946200,8.5359462890625,0.018156632781028748,0.024103205651044846,-0.017484983429312706
1776814972345984500,8.545984619140626,0.028174379840493202,0.030902788043022156,-0.010179400444030762
1776814972356022300,8.556022216796874,0.026502979919314384,0.025648105889558792,-0.000391218374716118
1776814972366059300,8.566059326171874,0.022351112216711044,0.007469900418072939,0.003079413203522563
1776814972376097500,8.57609765625,0.012681973166763783,-0.02136787213385105,0.012898221611976624
1776814972386135300,8.58613525390625,0.006672017276287079,-0.05922417342662811,0.02184564433991909
1776814972396173300,8.59617333984375,-0.0006476807757280767,-0.08011960238218307,0.03105698525905609
1776814972406210300,8.606210205078124,-0.0019094864837825298,-0.07957205921411514,0.03421469405293465
1776814972416248300,8.616248291015625,-0.0009171926649287343,-0.07163424044847488,0.03395450487732887
1776814972426286300,8.626286376953125,0.00199337606318295,-0.06546023488044739,0.03766695037484169
1776814972436324400,8.636324462890625,0.011381817981600761,-0.06550311297178268,0.04097379744052887
1776814972446361300,8.646361328125,0.02166028879582882,-0.0753573402762413,0.033376600593328476
1776814972456399400,8.6563994140625,0.027161845937371254,-0.08469171822071075,0.02148771472275257
1776814972466437400,8.666437255859375,0.030251113697886467,-0.09274538606405258,0.00839774589985609
1776814972476475100,8.67647509765625,0.0313938744366169,-0.09948797523975372,0.0007430219557136297
1776814972486512400,8.686512451171875,0.03142263740301132,-0.10702311992645264,0.0011627360945567489
1776814972496550400,8.69655029296875,0.02882685512304306,-0.09714199602603912,0.0016410398529842496
1776814972506588400,8.70658837890625,0.02551601268351078,-0.07001237571239471,0.011831359006464481
1776814972516626400,8.71662646484375,0.022548718377947807,-0.04331658035516739,0.017712684348225594
1776814972526663400,8.726663330078125,0.02135961689054966,-0.020960409194231033,0.033240243792533875
1776814972536701400,8.736701416015626,0.02486140839755535,-0.01070777140557766,0.04946981370449066
1776814972546739500,8.746739501953124,0.019701000303030014,0.002499376656487584,0.05566965416073799
1776814972556776200,8.756776123046874,0.012885704636573792,0.01407826878130436,0.052738044410943985
1776814972566814500,8.766814453125,0.00714526092633605,0.011871573515236378,0.05447522550821304
1776814972576852200,8.776852294921875,0.005823268089443445,0.002898318227380514,0.06710872799158096
1776814972586890500,8.786890380859376,0.011227620765566826,0.004486361052840948,0.0787281021475792
1776814972596927500,8.796927490234374,0.017916949465870857,0.021197963505983353,0.09240556508302689
1776814972606965200,8.80696533203125,0.02527979016304016,0.04013410210609436,0.10599993914365768
1776814972617003800,8.817003662109375,0.030848193913698196,0.057802312076091766,0.11559716612100601
1776814972627041800,8.827041748046875,0.03808213770389557,0.07333413511514664,0.11997966468334198
1776814972637078800,8.837078857421876,0.043059319257736206,0.10097401589155197,0.11890188604593277
1776814972647116500,8.847116455078124,0.03693937510251999,0.11884009838104248,0.11766272038221359
1776814972657154800,8.85715478515625,0.02979118563234806,0.10732672363519669,0.11522939056158066
1776814972667192600,8.867192626953125,0.02275245077908039,0.08285466581583023,0.12905651330947876
1776814972677229800,8.877229736328125,0.020730579271912575,0.05988889932632446,0.14023301005363464
1776814972687267800,8.887267822265626,0.02659459225833416,0.07276075333356857,0.15330779552459717
1776814972697305600,8.8973056640625,0.02479935623705387,0.11563152074813843,0.16780205070972443
1776814972707344000,8.90734375,0.024474982172250748,0.16593490540981293,0.18109548091888428
1776814972717380900,8.917380859375,0.03808453306555748,0.2035888135433197,0.19911709427833557
1776814972727418600,8.927418701171876,0.05014039948582649,0.23217065632343292,0.2205696552991867
1776814972737457000,8.937456787109374,0.05505659431219101,0.22608213126659393,0.24648621678352356
1776814972747494700,8.94749462890625,0.05056384205818176,0.17747145891189575,0.2689558267593384
1776814972757532000,8.957531982421875,0.042765840888023376,0.10360415279865265,0.28785815834999084
1776814972767569700,8.967569580078125,0.041967954486608505,0.053998786956071854,0.2981363534927368
1776814972777607700,8.977607666015626,0.051895420998334885,0.052149221301078796,0.3267480134963989
1776814972787645700,8.987645751953124,0.0757988914847374,0.11060773581266403,0.36364665627479553
1776814972797682700,8.9976826171875,0.0994189977645874,0.1955263614654541,0.4175224006175995
1776814972807720700,9.007720703125,0.11292575299739838,0.2571553587913513,0.4661272168159485
1776814972817758700,9.0177587890625,0.12280555069446564,0.2637898325920105,0.5148516297340393
1776814972827796700,9.027796630859376,0.14602485299110413,0.23639681935310364,0.5538166165351868
1776814972837834000,9.037833984375,0.15732863545417786,0.19064265489578247,0.6036768555641174
1776814972847871700,9.047871826171875,0.16117024421691895,0.14349564909934998,0.6478472352027893
1776814972857909800,9.05790966796875,0.16339771449565887,0.14434599876403809,0.6960866451263428
1776814972867947800,9.06794775390625,0.14594921469688416,0.16223205626010895,0.7561395764350891
1776814972877984800,9.07798486328125,0.11961987614631653,0.1286618411540985,0.823458194732666
1776814972888022800,9.088022705078124,0.08280966430902481,0.03645414859056473,0.9010661840438843
1776814972898060800,9.098060791015625,0.06260159611701965,-0.030959246680140495,0.9723044037818909
1776814972908097800,9.108097900390625,0.07193544507026672,-0.014146178960800171,1.0335017442703247
1776814972918135800,9.1181357421875,0.09560881555080414,0.06425195932388306,1.0895437002182007
1776814972928173800,9.128173828125,0.12230141460895538,0.06760407984256744,1.1430391073226929
1776814972938211600,9.138211669921875,0.1626829206943512,-0.042264632880687714,1.2046681642532349
1776814972948248800,9.148248779296875,0.1662781834602356,-0.17485463619232178,1.2784360647201538
1776814972958286800,9.158286865234375,0.18339352309703827,-0.2723710834980011,1.3480076789855957
1776814972968324600,9.16832470703125,0.20389054715633392,-0.296103298664093,1.4102284908294678
1776814972978363000,9.17836279296875,0.2043299674987793,-0.22508132457733154,1.4762042760849
1776814972988399900,9.18839990234375,0.19929152727127075,-0.1489655077457428,1.5731021165847778
1776814972998438000,9.19843798828125,0.19306506216526031,-0.12181218713521957,1.7109822034835815
1776814973008476000,9.208475830078125,0.1662108153104782,-0.1985146850347519,1.8376312255859375
1776814973018513700,9.218513671875,0.1382492184638977,-0.28035521507263184,1.9044197797775269
1776814973028551000,9.228551025390624,0.11551967263221741,-0.31414780020713806,1.886096715927124
1776814973038588700,9.238588623046875,0.0885453149676323,-0.29086220264434814,1.8207180500030518
1776814973048626700,9.248626708984375,0.07194609194993973,-0.32961225509643555,1.7591699361801147
1776814973058664700,9.258664794921875,0.06455422192811966,-0.4752725064754486,1.7582546472549438
1776814973068701700,9.26870166015625,0.10066962242126465,-0.5488253235816956,1.8038151264190674
1776814973078740000,9.278739990234374,0.19494764506816864,-0.4505019187927246,1.8434484004974365
1776814973088777700,9.28877783203125,0.33876553177833557,-0.3120359182357788,1.8506567478179932
1776814973098815700,9.298815673828125,0.493730366230011,-0.18796856701374054,1.8190401792526245
1776814973108852700,9.308852783203125,0.6140037775039673,-0.08805529028177261,1.757743239402771
1776814973118890800,9.318890869140626,0.6916524767875671,-0.042683813720941544,1.7153143882751465
1776814973128928800,9.3289287109375,0.7125247716903687,0.0858512595295906,1.6664695739746094
1776814973138966800,9.338966796875,0.7211486101150513,0.20032083988189697,1.5810614824295044
1776814973149003800,9.349003662109375,0.6564529538154602,0.1983833909034729,1.4990200996398926
1776814973159041800,9.359041748046875,0.5871130228042603,0.11817217618227005,1.536509394645691
1776814973169079800,9.369079833984374,0.6138719320297241,0.12073148041963577,1.6383394002914429
1776814973179117600,9.37911767578125,0.6776373386383057,0.2270938754081726,1.7359857559204102
1776814973189154800,9.38915478515625,0.7408850193023682,0.34429052472114563,1.7083874940872192
1776814973199192800,9.39919287109375,0.7366482019424438,0.43459299206733704,1.6699886322021484
1776814973209230600,9.409230712890626,0.6838893890380859,0.5339536666870117,1.675012230873108
1776814973219268900,9.419268798828124,0.6356057524681091,0.5598867535591125,1.6780718564987183
1776814973229305900,9.429305908203125,0.6171678900718689,0.5344724655151367,1.675902009010315
1776814973239343900,9.43934375,0.6249421834945679,0.5648367404937744,1.7001279592514038
1776814973249382000,9.4493818359375,0.6301484107971191,0.5899053812026978,1.668298363685608
1776814973259418600,9.459418701171876,0.5707340836524963,0.4654827415943146,1.6729559898376465
1776814973269457000,9.469456787109374,0.4945785701274872,0.33030176162719727,1.7576080560684204
1776814973279494700,9.47949462890625,0.4584466516971588,0.2572333812713623,1.855168342590332
1776814973289532700,9.48953271484375,0.4510936737060547,0.1823176145553589,1.862557053565979
1776814973299570000,9.49956982421875,0.47083941102027893,0.107928067445755,1.8022912740707397
1776814973309607700,9.509607666015626,0.4974617063999176,0.017479658126831055,1.758044719696045
1776814973319646000,9.51964599609375,0.47057709097862244,0.013999172486364841,1.74464750289917
1776814973329683700,9.52968359375,0.4087541997432709,-0.028238296508789062,1.763348937034607
1776814973339720700,9.539720703125,0.381393164396286,-0.009697368368506432,1.8416818380355835
1776814973349759000,9.549759033203125,0.2941597104072571,-0.028064657002687454,1.9338581562042236
1776814973359796700,9.559796630859376,0.26232215762138367,-0.0770774707198143,1.8934448957443237
1776814973369834800,9.569834716796874,0.22542166709899902,-0.10664921253919601,1.8437719345092773
1776814973379871700,9.579871826171875,0.2839891016483307,-0.017128121107816696,1.7508201599121094
1776814973389909800,9.58990966796875,0.30873042345046997,-0.00009161273919744417,1.6835436820983887
1776814973399947800,9.59994775390625,0.3064906895160675,0.06936069577932358,1.688603162765503
1776814973409985800,9.60998583984375,0.3377916216850281,0.13711151480674744,1.7021223306655884
1776814973420022800,9.620022705078124,0.2788555920124054,0.0275056604295969,1.7298749685287476
1776814973430060800,9.630060791015625,0.25850746035575867,0.06082100793719292,1.7144666910171509
1776814973440098800,9.640098876953125,0.24299347400665283,0.0802903100848198,1.7355661392211914
1776814973450135800,9.6501357421875,0.19617722928524017,0.04848284646868706,1.7528619766235352
1776814973460173800,9.660173828125,0.184666246175766,0.010404171422123909,1.7295606136322021
1776814973470211800,9.6702119140625,0.10297378897666931,-0.006087986286729574,1.7579246759414673
1776814973480249900,9.680249755859375,0.03994422033429146,-0.0507662408053875,1.8105838298797607
1776814973490286800,9.690286865234375,0.05387761443853378,0.05269277095794678,1.8259577751159668
1776814973500324600,9.70032470703125,-0.03780170902609825,0.06681258231401443,1.83257257938385
1776814973510363000,9.71036279296875,-0.058404453098773956,0.19253508746623993,1.7829376459121704
1776814973520400600,9.720400634765625,-0.0369524247944355,0.2252107411623001,1.7676513195037842
1776814973530437600,9.730437744140625,0.005784119479358196,0.2578333914279938,1.752193570137024
1776814973540476000,9.740475830078125,-0.05284590274095535,0.21319669485092163,1.7838395833969116
1776814973550513700,9.750513671875,-0.08152495324611664,0.14577211439609528,1.7920809984207153
1776814973560552000,9.760552001953124,-0.0800655409693718,0.07761250436306,1.7890170812606812
1776814973570589000,9.7705888671875,-0.17238189280033112,0.08640918880701065,1.7782949209213257
1776814973580626700,9.780626708984375,-0.16683772206306458,0.04844290018081665,1.759529709815979
1776814973590665000,9.7906650390625,-0.14454865455627441,0.07592832297086716,1.7290732860565186
1776814973600701700,9.80070166015625,-0.08460675925016403,0.02111726999282837,1.6997417211532593
1776814973610739700,9.81073974609375,-0.045151498168706894,0.06622429192066193,1.676353096961975
1776814973620777700,9.82077783203125,-0.01738724671304226,0.18218977749347687,1.626832365989685
1776814973630816000,9.83081591796875,-0.1107182577252388,0.24221476912498474,1.6028327941894531
1776814973640853000,9.84085302734375,-0.155618354678154,0.2575034499168396,1.576313853263855
1776814973650890800,9.850890869140626,-0.10408725589513779,0.15032824873924255,1.5358351469039917
1776814973660929000,9.860928955078125,-0.016823986545205116,0.038544461131095886,1.53460693359375
1776814973670966800,9.870966796875,0.04427744820713997,0.029135514050722122,1.5223523378372192
1776814973681003800,9.881003662109375,0.062313176691532135,0.09152459353208542,1.4767441749572754
1776814973691042000,9.8910419921875,0.059905678033828735,0.13272954523563385,1.4241470098495483
1776814973701079800,9.901079833984374,0.04634992033243179,0.1438160240650177,1.3536921739578247
1776814973711118000,9.9111181640625,0.04723861813545227,0.14990028738975525,1.2947101593017578
1776814973721154800,9.92115478515625,0.1139281690120697,0.018683405593037605,1.2717100381851196
1776814973731192800,9.93119287109375,0.151190847158432,-0.046004511415958405,1.2484477758407593
1776814973741230800,9.94123095703125,0.21030263602733612,-0.09742216020822525,1.2141673564910889
1776814973751268900,9.951268798828124,0.23026196658611298,-0.08931469917297363,1.1772838830947876
1776814973761305900,9.961305908203125,0.23016077280044556,-0.01338531356304884,1.1149195432662964
1776814973771344000,9.97134375,0.2401478886604309,0.07129788398742676,1.053155541419983
1776814973781382000,9.9813818359375,0.2137168049812317,0.1608613133430481,0.9922453165054321
1776814973791420000,9.991419921875,0.21482335031032562,0.22337768971920013,0.9028235673904419
1776814973801457000,10.001456787109374,0.2347874790430069,0.2059723436832428,0.8558856248855591
1776814973811495000,10.011494873046875,0.24927613139152527,0.15977607667446136,0.8183334469795227
1776814973821533000,10.021532958984375,0.26664820313453674,0.12939926981925964,0.7945860624313354
1776814973831571000,10.031571044921876,0.26645806431770325,0.12163242697715759,0.7707529067993164
1776814973841608000,10.04160791015625,0.26381832361221313,0.11565975099802017,0.7330307960510254
1776814973851646000,10.05164599609375,0.24282516539096832,0.10322438925504684,0.6883368492126465
1776814973861684000,10.06168408203125,0.22157633304595947,0.20044973492622375,0.619931161403656
1776814973871720700,10.071720703125,0.21969613432884216,0.2193824201822281,0.5448039174079895
1776814973881759000,10.081759033203125,0.2300688922405243,0.15797285735607147,0.5044389367103577
1776814973891796700,10.091796630859376,0.24890995025634766,0.07996167987585068,0.4640558063983917
1776814973901835000,10.1018349609375,0.270963579416275,0.016410931944847107,0.4216439127922058
1776814973911872000,10.1118720703125,0.28076162934303284,0.014830345287919044,0.3884878158569336
1776814973921909800,10.12190966796875,0.2514961361885071,0.033601369708776474,0.3154333233833313
1776814973931948000,10.131947998046876,0.2520838975906372,0.18498769402503967,0.21902555227279663
1776814973941985800,10.14198583984375,0.21805855631828308,0.15947914123535156,0.13221396505832672
1776814973952022800,10.152022705078124,0.22789840400218964,0.16440865397453308,0.07599303126335144
1776814973962061000,10.16206103515625,0.20741763710975647,0.12856915593147278,0.01386867742985487
1776814973972098800,10.172098876953125,0.21093913912773132,0.08657617121934891,-0.029037244617938995
1776814973982137000,10.18213720703125,0.18627239763736725,0.041553303599357605,-0.08043678849935532
1776814973992173800,10.192173828125,0.1758357435464859,0.024765001609921455,-0.15210483968257904
1776814974002211800,10.2022119140625,0.17231078445911407,0.023069633170962334,-0.22750799357891083
1776814974012249900,10.212249755859375,0.15782132744789124,0.00771677540615201,-0.2945898175239563
1776814974022288000,10.222287841796875,0.12590253353118896,0.008746886625885963,-0.36156272888183594
1776814974032324900,10.232324951171876,0.08992935717105865,-0.0049340385012328625,-0.421930193901062
1776814974042363000,10.24236279296875,0.05637246370315552,-0.014419686049222946,-0.46713683009147644
1776814974052401000,10.25240087890625,0.02569311298429966,-0.04921947792172432,-0.5183520913124084
1776814974062439000,10.26243896484375,-0.003549727378413081,-0.10890677571296692,-0.5762768983840942
1776814974072477000,10.272476806640626,-0.01938781328499317,-0.1275417059659958,-0.6117579340934753
1776814974082514000,10.282513916015626,-0.02911447547376156,-0.13074442744255066,-0.6590002775192261
1776814974092552000,10.292552001953124,-0.038897063583135605,-0.14115579426288605,-0.7074080109596252
1776814974102590000,10.30258984375,-0.04602208733558655,-0.16067036986351013,-0.7801535725593567
1776814974112628000,10.3126279296875,-0.042632680386304855,-0.18606388568878174,-0.8507699966430664
1776814974122665000,10.3226650390625,-0.052867207676172256,-0.22762490808963776,-0.896976113319397
1776814974132702700,10.33270263671875,-0.0552281029522419,-0.2631314992904663,-0.9252700209617615
1776814974142741000,10.342740966796875,-0.04936275631189346,-0.27851206064224243,-0.9898764491081238
1776814974152778800,10.35277880859375,-0.04529371112585068,-0.2602323889732361,-1.0405510663986206
1776814974162815700,10.362815673828125,-0.05386269837617874,-0.28485730290412903,-1.0923261642456055
1776814974172854000,10.37285400390625,-0.04483218491077423,-0.248734712600708,-1.1234451532363892
1776814974182891800,10.382891845703124,-0.02930462546646595,-0.24550136923789978,-1.149603009223938
1776814974192930000,10.392929931640625,-0.009949303232133389,-0.29676002264022827,-1.2054097652435303
1776814974202967000,10.402967041015625,-0.010033992119133472,-0.3154982924461365,-1.2414664030075073
1776814974213004800,10.4130048828125,0.000568318588193506,-0.29802608489990234,-1.290732979774475
1776814974223043000,10.42304296875,0.005624862387776375,-0.24519377946853638,-1.3536431789398193
1776814974233080800,10.433080810546874,0.023633424192667007,-0.1823924481868744,-1.395271897315979
1776814974243117800,10.443117919921875,0.011487545445561409,-0.15748043358325958,-1.45480477809906
1776814974253155800,10.45315576171875,-0.002796585438773036,-0.10142329335212708,-1.4938416481018066
1776814974263193900,10.46319384765625,-0.01281646266579628,-0.12386095523834229,-1.520338773727417
1776814974273232000,10.47323193359375,-0.0020578245166689157,-0.1064116582274437,-1.5335988998413086
1776814974283268900,10.483268798828124,0.014093714766204357,-0.14873062074184418,-1.5756936073303223
1776814974293307000,10.493306884765625,0.00936207640916109,-0.14444133639335632,-1.621349811553955
1776814974303345000,10.503344970703125,-0.011233746074140072,-0.046541135758161545,-1.6719402074813843
1776814974313383000,10.5133828125,-0.02984924241900444,0.002746251644566655,-1.7165471315383911
1776814974323420000,10.523419921875,-0.07038574665784836,-0.017682591453194618,-1.720961570739746
1776814974333458000,10.5334580078125,-0.06367911398410797,-0.0036996633280068636,-1.7489732503890991
1776814974343496000,10.543495849609375,-0.07579436153173447,0.012720854952931404,-1.7393709421157837
1776814974353534000,10.553533935546875,-0.10665720701217651,-0.003885019337758422,-1.7615638971328735
1776814974363572000,10.563572021484376,-0.1578093320131302,-0.02630510739982128,-1.8102355003356934
1776814974373608700,10.573608642578124,-0.19415563344955444,0.0032706281635910273,-1.841179609298706
1776814974383647000,10.58364697265625,-0.22009775042533875,0.04916967824101448,-1.8738433122634888
1776814974393685000,10.59368505859375,-0.2555859684944153,0.07954090088605881,-1.8622324466705322
1776814974403723000,10.603722900390625,-0.2992522120475769,0.10046535730361938,-1.8287827968597412
1776814974413760000,10.613760009765626,-0.35614025592803955,0.1181415542960167,-1.8169450759887695
1776814974423797800,10.6237978515625,-0.4260178804397583,0.1325007826089859,-1.8278353214263916
1776814974433836000,10.6338359375,-0.48810815811157227,0.11836259812116623,-1.8430589437484741
1776814974443873800,10.643873779296875,-0.5180718898773193,0.12999315559864044,-1.8460129499435425
1776814974453910800,10.653910888671875,-0.5131708979606628,0.13723349571228027,-1.8523532152175903
1776814974463949000,10.663948974609376,-0.5006663203239441,0.1301223188638687,-1.8483238220214844
1776814974473986800,10.67398681640625,-0.5047792792320251,0.1305825114250183,-1.8466891050338745
1776814974484025000,10.684025146484375,-0.5114023089408875,0.1049724891781807,-1.877506136894226
1776814974494062800,10.694062744140625,-0.5076315402984619,0.05421876534819603,-1.871382474899292
1776814974504099800,10.704099853515626,-0.5014095902442932,0.02189544588327408,-1.8448944091796875
1776814974514137900,10.714137939453124,-0.49760153889656067,0.02413596212863922,-1.8190710544586182
1776814974524176000,10.72417578125,-0.5148689150810242,0.04247475415468216,-1.8101437091827393
1776814974534214000,10.7342138671875,-0.5335842967033386,0.033895380795001984,-1.8160446882247925
1776814974544251000,10.7442509765625,-0.5127817988395691,-0.0004990763845853508,-1.8404784202575684
1776814974554289000,10.754288818359376,-0.508681058883667,0.01341407559812069,-1.8625456094741821
1776814974564327000,10.764326904296874,-0.5183742046356201,-0.03305062651634216,-1.920331358909607
1776814974574365000,10.774364990234375,-0.5493773818016052,-0.06246550753712654,-1.9235745668411255
1776814974584402000,10.78440185546875,-0.6069863438606262,-0.09666955471038818,-1.8910893201828003
1776814974594440000,10.79443994140625,-0.6551317572593689,-0.13725639879703522,-1.8482340574264526
1776814974604478000,10.80447802734375,-0.7065709829330444,-0.15637336671352386,-1.7950032949447632
1776814974614515200,10.81451513671875,-0.7399014830589294,-0.18121320009231567,-1.7375792264938354
1776814974624552200,10.82455224609375,-0.7271460294723511,-0.22783662378787994,-1.7136746644973755
1776814974634590500,10.834590576171875,-0.6936834454536438,-0.22911334037780762,-1.70705246925354
1776814974644628200,10.844628173828125,-0.6424274444580078,-0.18997472524642944,-1.745627522468567
1776814974654666200,10.854666259765626,-0.5944210290908813,-0.19467094540596008,-1.800981879234314
1776814974664703500,10.864703369140624,-0.5678749084472656,-0.24530403316020966,-1.8153855800628662
1776814974674741200,10.8747412109375,-0.5655912160873413,-0.28106310963630676,-1.8264429569244385
1776814974684779300,10.884779296875,-0.5798263549804688,-0.32083049416542053,-1.840222954750061
1776814974694817300,10.8948173828125,-0.5840945839881897,-0.35589125752449036,-1.860618233680725
1776814974704855300,10.904855224609374,-0.5806559324264526,-0.3579815924167633,-1.9088937044143677
1776814974714892300,10.914892333984374,-0.573905885219574,-0.29343801736831665,-1.9714792966842651
1776814974724930300,10.924930419921875,-0.5543414950370789,-0.21069997549057007,-2.0233163833618164
1776814974734968000,10.934968017578125,-0.5230402946472168,-0.1873382031917572,-2.067229747772217
1776814974745006300,10.94500634765625,-0.46561455726623535,-0.22449249029159546,-2.109614849090576
1776814974755043300,10.955043212890626,-0.41283470392227173,-0.13135455548763275,-2.1972126960754395
1776814974765081000,10.9650810546875,-0.36186501383781433,-0.1512688845396042,-2.208493709564209
1776814974775119400,10.975119384765625,-0.29376929998397827,-0.22062744200229645,-2.191572666168213
1776814974785157000,10.9851572265625,-0.2363416999578476,-0.20502132177352905,-2.2085001468658447
1776814974795194400,10.9951943359375,-0.19139713048934937,-0.08797726035118103,-2.267230749130249
1776814974805232400,11.005232421875,-0.20240822434425354,-0.01920218952000141,-2.3278138637542725
1776814974815270100,11.015270263671875,-0.20145055651664734,-0.06377498805522919,-2.2637205123901367
1776814974825308400,11.025308349609375,-0.1972970962524414,-0.09297015517950058,-2.2452235221862793
1776814974835345200,11.03534521484375,-0.19614127278327942,-0.11060001701116562,-2.2817585468292236
1776814974845383200,11.045383056640626,-0.20467591285705566,-0.12866424024105072,-2.3001577854156494
1776814974855421200,11.055421142578124,-0.20625969767570496,-0.062181614339351654,-2.32377552986145
1776814974865459200,11.065459228515625,-0.21020090579986572,0.025140773504972458,-2.3511178493499756
1776814974875496400,11.075496337890625,-0.24952860176563263,-0.026089657098054886,-2.2272799015045166
1776814974885534200,11.0855341796875,-0.24172501266002655,-0.0692291408777237,-2.1092357635498047
1776814974895572200,11.095572265625,-0.2367667406797409,-0.09761311113834381,-2.0097501277923584
1776814974905610200,11.1056103515625,-0.23871004581451416,-0.08701692521572113,-1.9193838834762573
1776814974915647200,11.115647216796875,-0.22696657478809357,-0.12797661125659943,-1.824975609779358
1776814974925685200,11.125685302734375,-0.19661425054073334,-0.23938968777656555,-1.7326712608337402
1776814974935723300,11.13572314453125,-0.17028704285621643,-0.3103890120983124,-1.6551847457885742
1776814974945761300,11.14576123046875,-0.14404559135437012,-0.32019078731536865,-1.5910440683364868
1776814974955798300,11.15579833984375,-0.13639140129089355,-0.26023849844932556,-1.5047334432601929
1776814974965836300,11.165836181640625,-0.1483689695596695,-0.2038455456495285,-1.3761022090911865
1776814974975874300,11.175874267578125,-0.14327220618724823,-0.2122989445924759,-1.234312891960144
1776814974985912300,11.185912353515626,-0.12305188924074173,-0.2759098708629608,-1.1186163425445557
1776814974995949300,11.19594921875,-0.08413724601268768,-0.35103872418403625,-1.0416818857192993
1776814975005987000,11.205987060546875,-0.04609159380197525,-0.3804943561553955,-1.0125956535339355
1776814975016025300,11.216025390625,0.029095035046339035,-0.3435951769351959,-1.043959617614746
1776814975026063000,11.22606298828125,0.06999346613883972,-0.2750542163848877,-1.0707662105560303
1776814975036100400,11.236100341796876,0.10024377703666687,-0.2168942242860794,-1.059345006942749
1776814975046138400,11.246138427734374,0.1307324469089508,-0.19037367403507233,-0.993744969367981
1776814975056176000,11.256176025390625,0.16634663939476013,-0.15100575983524323,-0.8746563792228699
1776814975066213400,11.26621337890625,0.20995989441871643,-0.1093781590461731,-0.7595269083976746
1776814975076251400,11.27625146484375,0.2518466114997864,-0.0805414468050003,-0.6346917152404785
1776814975086289200,11.2862890625,0.25923317670822144,-0.09841126203536987,-0.4313495457172394
1776814975096327400,11.296327392578124,0.21324516832828522,-0.18903356790542603,-0.2317328304052353
1776814975106365200,11.306365234375,0.1570998728275299,-0.306306928396225,-0.02257188782095909
1776814975116402200,11.316402099609375,0.12450091540813446,-0.3789249360561371,0.23080791532993317
1776814975126440200,11.326440185546875,0.0872076079249382,-0.41106051206588745,0.4868681728839874
1776814975136478200,11.336478271484374,0.057316020131111145,-0.32871556282043457,0.7142733931541443
1776814975146516200,11.34651611328125,0.031735826283693314,-0.12972736358642578,0.8572443723678589
1776814975156553200,11.35655322265625,0.019785689190030098,0.11944437026977539,0.8894302845001221
1776814975166591200,11.36659130859375,0.0332716703414917,0.36972692608833313,0.8420071005821228
1776814975176629200,11.376629150390626,0.0534946508705616,0.5871407389640808,0.7409561276435852
1776814975186667300,11.386667236328124,0.06912793964147568,0.717216432094574,0.5932065844535828
1776814975196704500,11.39670458984375,0.08708243817090988,0.7582799792289734,0.41719162464141846
1776814975206742300,11.4067421875,0.10645613819360733,0.7469234466552734,0.25441816449165344
1776814975216780300,11.4167802734375,0.10476343333721161,0.6739898920059204,0.1107771173119545
1776814975226817300,11.4268173828125,0.10231758654117584,0.5382376313209534,-0.005744970869272947
1776814975236855300,11.436855224609374,0.10065310448408127,0.3428809344768524,-0.10516557097434998
1776814975246893000,11.44689306640625,0.09534862637519836,0.1840803623199463,-0.15304015576839447
1776814975256931300,11.456931396484375,0.08497001975774765,0.1138828918337822,-0.1391158103942871
1776814975266968300,11.46696826171875,0.0672762393951416,0.05306321755051613,-0.11423496156930923
1776814975277006000,11.477006103515626,0.047442883253097534,-0.043118976056575775,-0.0820397436618805
1776814975287044400,11.48704443359375,0.02966282144188881,-0.1230367124080658,-0.03227538242936134
1776814975297082000,11.49708203125,0.02135429158806801,-0.13279587030410767,-0.0013371731620281935
1776814975307119400,11.507119384765625,0.02159557305276394,-0.09544236958026886,0.008490157313644886
1776814975317157400,11.517157470703125,0.016351809725165367,-0.050099119544029236,-0.007814513519406319
1776814975327195100,11.527195068359376,0.01053067110478878,-0.047148071229457855,-0.0086590014398098
1776814975337233400,11.5372333984375,0.000330231967382133,-0.08688616007566452,0.002049568807706237
1776814975347270100,11.547270263671875,-0.002436259761452675,-0.13861486315727234,0.022517826408147812
1776814975357308200,11.55730810546875,-0.004653607495129108,-0.18171413242816925,0.028025243431329727
1776814975367346200,11.56734619140625,-0.004728176165372133,-0.20126840472221375,0.032458871603012085
1776814975377384200,11.57738427734375,-0.0006601976347155869,-0.2022273987531662,0.02810327336192131
1776814975387421400,11.58742138671875,0.00977246928960085,-0.19632796943187714,0.02177933044731617
1776814975397459200,11.597459228515625,0.028965339064598083,-0.20021751523017883,0.021282119676470757
1776814975407497200,11.607497314453125,0.04727962985634804,-0.2057502269744873,-0.0002713761059567332
1776814975417535200,11.61753515625,0.06301039457321167,-0.1902913749217987,-0.02371651493012905
1776814975427572200,11.627572265625,0.05883322283625603,-0.15941283106803894,-0.02672215737402439
1776814975437610200,11.6376103515625,0.044801294803619385,-0.1426817774772644,-0.022161761298775673
1776814975447648300,11.647648193359375,0.029834328219294548,-0.15139085054397583,-0.020903950557112694
1776814975457686300,11.657686279296875,0.016756875440478325,-0.09755771607160568,-0.011671570129692554
1776814975467723300,11.66772314453125,0.016756342723965645,0.002685797866433859,0.025910159572958946
1776814975477761300,11.67776123046875,0.024095483124256134,0.10715974122285843,0.06786053627729416
1776814975487799000,11.687799072265625,0.04386385902762413,0.1822502315044403,0.08627789467573166
1776814975497837300,11.69783740234375,0.05784572288393974,0.23592810332775116,0.07850918918848038
1776814975507874300,11.707874267578125,0.0733192190527916,0.2517339587211609,0.06433877348899841
1776814975517912000,11.717912109375,0.0854741558432579,0.24698927998542786,0.04739361256361008
1776814975527950300,11.727950439453124,0.09053948521614075,0.23335948586463928,0.026699520647525787
1776814975537987300,11.7379873046875,0.09147106111049652,0.19417613744735718,-0.004844822455197573
1776814975548025300,11.748025390625,0.08071508258581161,0.12874306738376617,-0.027351995930075645
1776814975558063400,11.7580634765625,0.05699297785758972,0.04417971149086952,-0.029226062819361687
1776814975568101000,11.76810107421875,0.023424632847309113,-0.022062424570322037,-0.0017736653098836541
1776814975578138400,11.778138427734374,-0.008297344669699669,-0.05684756860136986,0.0367465615272522
1776814975588176100,11.788176025390625,-0.02785266935825348,-0.05837169662117958,0.05968889594078064
1776814975598214100,11.798214111328125,-0.0430380143225193,-0.05222512036561966,0.07410432398319244
1776814975608252200,11.808252197265626,-0.05577032268047333,-0.04620291665196419,0.08564912527799606
1776814975618290000,11.8182900390625,-0.06187748163938522,-0.02654346078634262,0.096329465508461
1776814975628328000,11.828327880859375,-0.058820441365242004,-0.00013875069271307439,0.09884908050298691
1776814975638365700,11.83836572265625,-0.046719834208488464,0.044248420745134354,0.08831148594617844
1776814975648404000,11.848404052734375,-0.02401106059551239,0.09598751366138458,0.060512080788612366
1776814975658440700,11.858440673828126,0.0018037590198218822,0.12622983753681183,0.01900458335876465
1776814975668479000,11.86847900390625,0.02281183935701847,0.11183838546276093,-0.015251124277710915
1776814975678517000,11.87851708984375,0.027644677087664604,0.0708286315202713,-0.03693830966949463
1776814975688554800,11.8885546875,0.02936028502881527,0.02442038804292679,-0.040043555200099945
1776814975698592000,11.898592041015625,0.0271312203258276,-0.0049409628845751286,-0.026436667889356613
1776814975708629800,11.908629638671876,0.019537482410669327,-0.007004646118730307,-0.014366422779858112
1776814975718667800,11.918667724609374,0.008051002398133278,0.003946005832403898,-0.0024413196370005608
1776814975728705800,11.928705810546875,-0.0007843009079806507,0.029458023607730865,0.005964415613561869
1776814975738742800,11.93874267578125,-0.012882775627076626,0.05609416216611862,0.028670260682702065
1776814975748781000,11.948781005859376,-0.017856761813163757,0.08216863870620728,0.047698814421892166
1776814975758818800,11.95881884765625,-0.01756913959980011,0.10076975077390671,0.059904877096414566
1776814975768856800,11.96885693359375,-0.015965649858117104,0.11520461738109589,0.061829011887311935
1776814975778893800,11.978893798828125,-0.01008086372166872,0.10764843225479126,0.06136082857847214
1776814975788931800,11.988931884765625,-0.002246642718091607,0.08613621443510056,0.06807838380336761
1776814975798969900,11.998969970703126,-0.001758218975737691,0.05413966625928879,0.0789848268032074
1776814975809007900,12.0090078125,-0.003946272190660238,0.02179131470620632,0.09127584844827652
1776814975819044900,12.019044921875,-0.008127168752253056,-0.010467021726071835,0.1055179014801979
1776814975829083000,12.029082763671875,-0.00788801722228527,-0.011899003759026527,0.12174054980278015
1776814975839121000,12.039120849609375,-0.0065199509263038635,0.0057377805933356285,0.13739700615406036
1776814975849158000,12.049157958984376,-0.006518885493278503,0.031067904084920883,0.14462216198444366
1776814975859196000,12.05919580078125,-0.006367085501551628,0.038116760551929474,0.1468818485736847
1776814975869234000,12.06923388671875,-0.006479470990598202,0.03261067345738411,0.15418317914009094
1776814975879271700,12.079271728515625,-0.009796970523893833,0.017853032797574997,0.17221783101558685
1776814975889309000,12.089308837890625,-0.009387110359966755,0.009148224256932735,0.20376937091350555
1776814975899347000,12.099346923828126,-0.01450064592063427,0.012114186771214008,0.2457064390182495
1776814975909385000,12.109385009765624,-0.017543839290738106,0.03259655833244324,0.29306596517562866
1776814975919423000,12.119423095703125,-0.014034592546522617,0.062238339334726334,0.32528966665267944
1776814975929459700,12.129459716796875,-0.0012836436508223414,0.11846432834863663,0.3349721431732178
1776814975939498000,12.139498046875,0.011661715805530548,0.18576747179031372,0.341386079788208
1776814975949535700,12.14953564453125,0.029281988739967346,0.2016335129737854,0.3575621247291565
1776814975959573800,12.15957373046875,0.04098951071500778,0.12980219721794128,0.4081840217113495
1776814975969611000,12.169611083984375,0.048299357295036316,0.022062158212065697,0.49273139238357544
1776814975979648800,12.179648681640625,0.06003723666071892,-0.072551429271698,0.6058022975921631
1776814975989687000,12.18968701171875,0.07844633609056473,-0.07646813988685608,0.7265737056732178
1776814975999724800,12.199724853515624,0.1150970309972763,0.03718545287847519,0.8581724762916565
1776814976009761800,12.20976171875,0.16607046127319336,0.16967611014842987,0.9672257304191589
1776814976019800000,12.219800048828125,0.2240820974111557,0.18372295796871185,1.0339107513427734
1776814976029837800,12.229837890625,0.28729382157325745,0.07935979962348938,1.0894118547439575
1776814976039875800,12.239875732421876,0.34389665722846985,0.002971288748085499,1.189571499824524
1776814976049912800,12.249912841796874,0.3505423069000244,-0.015578160993754864,1.3373337984085083
1776814976059950800,12.259950927734375,0.285866916179657,-0.04102226719260216,1.4468698501586914
1776814976069988900,12.26998876953125,0.18955475091934204,-0.036910347640514374,1.4596264362335205
1776814976080027000,12.28002685546875,0.10932382941246033,-0.01503966934978962,1.3989092111587524
1776814976090064000,12.29006396484375,0.05574369058012962,-0.10819624364376068,1.3066450357437134
1776814976100102000,12.300101806640624,0.02707129903137684,-0.3378504812717438,1.2418509721755981
1776814976110140000,12.310139892578125,0.02474209852516651,-0.5448302626609802,1.2106612920761108
1776814976120177000,12.320177001953125,0.04237888380885124,-0.5841425657272339,1.2008925676345825
1776814976130215000,12.33021484375,0.050630684942007065,-0.5081817507743835,1.1916348934173584
1776814976140253000,12.3402529296875,0.06018850579857826,-0.46358442306518555,1.1884686946868896
1776814976150291000,12.350291015625,0.09153231233358383,-0.38863375782966614,1.197656512260437
1776814976160328000,12.360327880859375,0.1511748731136322,-0.24615943431854248,1.2429603338241577
1776814976170365700,12.37036572265625,0.2091878354549408,-0.1472025066614151,1.3338834047317505
1776814976180404000,12.380404052734375,0.2675827145576477,-0.24152767658233643,1.4520018100738525
1776814976190441700,12.390441650390626,0.31798356771469116,-0.4390071928501129,1.5721074342727661
1776814976200478700,12.400478759765624,0.33604004979133606,-0.53782057762146,1.64833402633667
1776814976210517000,12.41051708984375,0.32084113359451294,-0.4153077304363251,1.640497088432312
1776814976220554800,12.4205546875,0.29103317856788635,-0.1912836730480194,1.5706501007080078
1776814976230593000,12.430593017578126,0.25883716344833374,-0.04421752691268921,1.4658368825912476
1776814976240630000,12.440630126953126,0.21984581649303436,-0.05512317270040512,1.406400203704834
1776814976250667800,12.450667724609374,0.15404735505580902,0.020800620317459106,1.4126991033554077
1776814976260706000,12.4607060546875,0.1075589507818222,0.11535216122865677,1.4538030624389648
1776814976270743800,12.470743896484375,0.15546122193336487,0.3107277750968933,1.4573949575424194
1776814976280780800,12.48078076171875,0.260688841342926,0.5708882808685303,1.3583236932754517
1776814976290818800,12.49081884765625,0.3520086407661438,0.5937528014183044,1.2344417572021484
1776814976300856800,12.50085693359375,0.3734574615955353,0.446885883808136,1.1897579431533813
1776814976310893800,12.510893798828125,0.39363253116607666,0.3779081404209137,1.2242895364761353
1776814976320931800,12.520931884765625,0.41588589549064636,0.34519973397254944,1.3345489501953125
1776814976330969900,12.530969970703126,0.4645756781101227,0.3937379717826843,1.5055749416351318
1776814976341008000,12.5410078125,0.5225196480751038,0.3784778118133545,1.663740634918213
1776814976351044900,12.551044921875,0.5826205611228943,0.34094613790512085,1.638469934463501
1776814976361083000,12.561082763671875,0.6173694729804993,0.34485751390457153,1.4527677297592163
1776814976371121000,12.571120849609375,0.6105901002883911,0.21753445267677307,1.3621424436569214
1776814976381159000,12.581158935546876,0.5679446458816528,0.06654573976993561,1.4389888048171997
1776814976391195600,12.591195556640624,0.5318849086761475,0.09788155555725098,1.5058037042617798
