time,seconds_elapsed,z,y,x
1776814963894182100,0.09418212890625,-87.03669738769531,23.52252197265625,-79.54541015625
1776814963904285200,0.10428515625,-86.82780456542969,23.261581420898438,-79.62339782714844
1776814963914386200,0.11438623046875,-86.81230163574219,23.176971435546875,-79.72573852539062
1776814963924488200,0.12448828125,-86.90240478515625,23.225234985351562,-79.85096740722656
1776814963934590500,0.134590576171875,-87.09083557128906,23.408248901367188,-80.01220703125
1776814963944691200,0.144691162109375,-87.62449645996094,23.508377075195312,-80.15982055664062
1776814963954792200,0.154792236328125,-87.31233215332031,23.318923950195312,-80.1673583984375
1776814963964895200,0.164895263671875,-87.4539794921875,23.32586669921875,-80.30271911621094
1776814963974996200,0.174996337890625,-86.84614562988281,23.594833374023438,-80.35533142089844
1776814963985097200,0.18509716796875,-86.66062927246094,23.72052001953125,-80.86711120605469
1776814963995199200,0.19519921875,-87.09597778320312,23.862701416015625,-80.88063049316406
1776814964005302300,0.20530224609375,-86.34855651855469,24.0479736328125,-81.28021240234375
1776814964015404300,0.215404296875,-85.97222900390625,24.284164428710938,-81.59281921386719
1776814964025505300,0.22550537109375,-86.12632751464844,24.263351440429688,-81.81053161621094
1776814964035606300,0.235606201171875,-85.80868530273438,24.254135131835938,-82.17652893066406
1776814964045710300,0.24571044921875,-85.959228515625,24.606460571289062,-82.53163146972656
1776814964055812000,0.25581201171875,-85.35177612304688,24.963104248046875,-82.82252502441406
1776814964065915100,0.2659150390625,-85.03732299804688,25.231155395507812,-82.94842529296875
1776814964076017200,0.27601708984375,-85.11341857910156,25.633651733398438,-82.80714416503906
1776814964086119200,0.286119140625,-85.79244995117188,25.96905517578125,-82.61358642578125
1776814964096222200,0.29622216796875,-85.77085876464844,26.594573974609375,-82.34524536132812
1776814964106325200,0.3063251953125,-86.96922302246094,26.89447021484375,-81.99272155761719
1776814964116427300,0.31642724609375,-87.27162170410156,27.560806274414062,-81.44343566894531
1776814964126530000,0.326530029296875,-87.86215209960938,27.548599243164062,-80.82151794433594
1776814964136633000,0.336633056640625,-88.30787658691406,27.966064453125,-80.33049011230469
1776814964146735000,0.346735107421875,-89.45504760742188,28.272445678710938,-79.54725646972656
1776814964156837000,0.356837158203125,-89.88796997070312,28.852264404296875,-79.00331115722656
1776814964166941200,0.366941162109375,-90.30259704589844,29.202713012695312,-78.35345458984375
1776814964177043200,0.377043212890625,-90.72383117675781,29.440765380859375,-78.13789367675781
1776814964187146200,0.387146240234375,-91.01679992675781,29.791488647460938,-77.86708068847656
1776814964197249300,0.397249267578125,-90.8720703125,29.967910766601562,-77.63186645507812
1776814964207351300,0.407351318359375,-91.52346801757812,30.103240966796875,-77.48207092285156
1776814964217452300,0.417452392578125,-91.06596374511719,29.867324829101562,-77.04788208007812
1776814964227554300,0.42755419921875,-91.41619873046875,29.715469360351562,-76.9539794921875
1776814964237656000,0.437656005859375,-91.36090087890625,29.538986206054688,-76.46235656738281
1776814964247759400,0.44775927734375,-91.66023254394531,29.224639892578125,-75.94955444335938
1776814964257861000,0.457861083984375,-91.79795837402344,29.091445922851562,-75.42057800292969
1776814964267963100,0.467963134765625,-92.07870483398438,29.017990112304688,-75.15153503417969
1776814964278064000,0.478064208984375,-91.95973205566406,28.636505126953125,-74.52421569824219
1776814964288165400,0.488165283203125,-92.446533203125,28.67242431640625,-74.252685546875
1776814964298268400,0.498268310546875,-92.71292114257812,28.607421875,-73.75848388671875
1776814964308369200,0.508369140625,-92.93080139160156,28.844558715820312,-72.96456909179688
1776814964318471200,0.51847119140625,-93.51167297363281,28.929824829101562,-72.10299682617188
1776814964328573200,0.5285732421875,-94.1102294921875,29.370513916015625,-71.24005126953125
1776814964338675200,0.53867529296875,-94.65011596679688,29.665802001953125,-70.08561706542969
1776814964348776400,0.5487763671875,-95.17465209960938,29.880874633789062,-69.03759765625
1776814964358878200,0.558878173828125,-95.16697692871094,29.874954223632812,-68.34814453125
1776814964368980200,0.568980224609375,-95.58137512207031,29.355072021484375,-67.73487854003906
1776814964379083300,0.579083251953125,-95.53038024902344,29.084457397460938,-67.38719177246094
1776814964389184300,0.589184326171875,-95.50503540039062,28.494781494140625,-67.3839111328125
1776814964399285200,0.59928515625,-95.3812255859375,28.295303344726562,-67.31063842773438
1776814964409385200,0.60938525390625,-95.54151916503906,28.340072631835938,-67.24722290039062
1776814964419487200,0.6194873046875,-95.21501159667969,28.166275024414062,-67.08065795898438
1776814964429589200,0.62958935546875,-95.74420166015625,28.556045532226562,-66.29306030273438
1776814964439690200,0.639690185546875,-95.80361938476562,29.127105712890625,-65.50653076171875
1776814964449791200,0.649791259765625,-96.18701171875,29.386383056640625,-64.34156799316406
1776814964459893200,0.659893310546875,-96.63362121582031,29.437698364257812,-63.09483337402344
1776814964469995300,0.669995361328125,-96.76005554199219,29.433761596679688,-61.4503173828125
1776814964480097300,0.68009716796875,-96.81591796875,29.818359375,-59.64909362792969
1776814964490200300,0.690200439453125,-96.92048645019531,29.873046875,-57.44960021972656
1776814964500300300,0.70030029296875,-96.49923706054688,30.081756591796875,-55.35626220703125
1776814964510401300,0.7104013671875,-96.44297790527344,29.725204467773438,-53.44834899902344
1776814964520503300,0.72050341796875,-96.39662170410156,29.573760986328125,-52.190887451171875
1776814964530605300,0.730605224609375,-96.62745666503906,29.253860473632812,-52.209228515625
1776814964540708400,0.740708251953125,-96.32138061523438,29.15728759765625,-52.75544738769531
1776814964550810400,0.750810302734375,-96.48477172851562,29.4700927734375,-53.16630554199219
1776814964560913400,0.760913330078125,-96.95968627929688,29.716400146484375,-53.99693298339844
1776814964571015200,0.77101513671875,-97.04112243652344,30.19635009765625,-54.48384094238281
1776814964581117200,0.7811171875,-96.91462707519531,30.34014892578125,-55.17649841308594
1776814964591219200,0.79121923828125,-97.39151000976562,30.732192993164062,-55.129852294921875
1776814964601320200,0.8013203125,-97.16769409179688,30.883270263671875,-54.949127197265625
1776814964611426000,0.811426025390625,-97.39680480957031,31.643875122070312,-54.848663330078125
1776814964621528000,0.821528076171875,-97.04541015625,32.10649108886719,-54.63850402832031
1776814964631630000,0.831630126953125,-97.28181457519531,33.086578369140625,-54.70622253417969
1776814964641731300,0.8417314453125,-96.79287719726562,33.83601379394531,-54.46992492675781
1776814964651833300,0.851833251953125,-96.90184020996094,35.08546447753906,-54.79217529296875
1776814964661936400,0.861936279296875,-96.71434020996094,36.261016845703125,-54.65339660644531
1776814964672038400,0.872038330078125,-96.35887145996094,38.01646423339844,-54.47813415527344
1776814964682141200,0.88214111328125,-95.9549560546875,39.42771911621094,-53.95005798339844
1776814964692243500,0.892243408203125,-95.85501098632812,40.530517578125,-52.83323669433594
1776814964702345200,0.90234521484375,-95.52467346191406,41.464141845703125,-52.26679992675781
1776814964712446200,0.9124462890625,-95.35206604003906,42.41011047363281,-51.119171142578125
1776814964722548200,0.92254833984375,-94.77284240722656,43.02714538574219,-50.10588073730469
1776814964732648200,0.932648193359375,-94.92185974121094,43.66847229003906,-49.7073974609375
1776814964742750200,0.942750244140625,-94.47966003417969,44.221923828125,-49.35552978515625
1776814964752853200,0.952853271484375,-94.32559204101562,44.9910888671875,-49.79393005371094
1776814964762956000,0.9629560546875,-94.44497680664062,44.91497802734375,-50.87022399902344
1776814964773058300,0.973058349609375,-95.06538391113281,45.44676208496094,-52.1793212890625
1776814964783161000,0.9831611328125,-94.95573425292969,45.73994445800781,-53.97633361816406
1776814964793264000,0.99326416015625,-94.8118896484375,46.5919189453125,-55.489654541015625
1776814964803367200,1.0033671875,-95.08084106445312,47.04811096191406,-56.74409484863281
1776814964813469200,1.01346923828125,-94.4727783203125,47.74896240234375,-57.22503662109375
1776814964823572200,1.023572265625,-94.11610412597656,48.47624206542969,-57.360015869140625
1776814964833674200,1.03367431640625,-93.63760375976562,49.241851806640625,-56.96205139160156
1776814964843776300,1.0437763671875,-93.73918151855469,50.06471252441406,-56.938934326171875
1776814964853878300,1.053878173828125,-93.24578857421875,50.88737487792969,-56.639434814453125
1776814964863979300,1.063979248046875,-92.69100952148438,51.778839111328125,-56.779022216796875
1776814964874081000,1.0740810546875,-92.8001708984375,52.60595703125,-56.99981689453125
1776814964884182300,1.084182373046875,-91.68904113769531,53.441864013671875,-57.15132141113281
1776814964894285300,1.094285400390625,-91.27809143066406,54.156219482421875,-57.82232666015625
1776814964904387300,1.10438720703125,-91.03363037109375,55.160064697265625,-58.304595947265625
1776814964914490000,1.114489990234375,-90.1402587890625,55.85133361816406,-58.43434143066406
1776814964924592400,1.12459228515625,-89.7786865234375,56.913726806640625,-58.23185729980469
1776814964934695200,1.134695068359375,-88.79196166992188,57.65708923339844,-57.79420471191406
1776814964944798200,1.144798095703125,-88.49447631835938,58.14630126953125,-57.1904296875
1776814964954901200,1.1549013671875,-87.68881225585938,58.89190673828125,-56.82945251464844
1776814964965003300,1.165003173828125,-87.05552673339844,59.86790466308594,-56.43316650390625
1776814964975104300,1.175104248046875,-86.42277526855469,60.703704833984375,-55.58787536621094
1776814964985206000,1.1852060546875,-85.51463317871094,61.15545654296875,-55.225006103515625
1776814964995308300,1.195308349609375,-84.759765625,61.77412414550781,-54.82167053222656
1776814965005410300,1.205410400390625,-83.88279724121094,62.348114013671875,-54.82975769042969
1776814965015512300,1.21551220703125,-83.40017700195312,62.93650817871094,-54.75587463378906
1776814965025614300,1.2256142578125,-82.86671447753906,63.49577331542969,-54.49859619140625
1776814965035716400,1.23571630859375,-82.55897521972656,64.03294372558594,-54.76347351074219
1776814965045817000,1.245817138671875,-81.92359924316406,64.43247985839844,-55.11732482910156
1776814965055918300,1.25591845703125,-81.85043334960938,64.69120788574219,-55.826171875
1776814965066020400,1.266020263671875,-81.8348388671875,64.37858581542969,-56.21440124511719
1776814965076121300,1.276121337890625,-82.2239990234375,64.31132507324219,-56.27641296386719
1776814965086223000,1.28622314453125,-82.81539916992188,63.89067077636719,-56.40480041503906
1776814965096325000,1.2963251953125,-83.43180847167969,63.526702880859375,-56.38134765625
1776814965106426000,1.306426025390625,-83.834716796875,63.01359558105469,-56.18751525878906
1776814965116527400,1.31652734375,-84.21174621582031,62.5714111328125,-56.1142578125
1776814965126628000,1.326628173828125,-84.65547180175781,62.11872863769531,-55.78691101074219
1776814965136729300,1.336729248046875,-84.89854431152344,61.82380676269531,-55.38670349121094
1776814965146831400,1.346831298828125,-84.67820739746094,61.989349365234375,-54.982421875
1776814965156932000,1.35693212890625,-84.65544128417969,62.06770324707031,-54.82630920410156
1776814965167034000,1.3670341796875,-84.26028442382812,62.486541748046875,-54.88716125488281
1776814965177136000,1.37713623046875,-84.27153015136719,62.64823913574219,-55.085845947265625
1776814965187237400,1.3872373046875,-84.07504272460938,62.91392517089844,-55.11576843261719
1776814965197338400,1.39733837890625,-83.75074768066406,63.29985046386719,-55.003753662109375
1776814965207439000,1.407439208984375,-83.18359375,63.74351501464844,-54.382904052734375
1776814965217539300,1.417539306640625,-81.80677795410156,64.48674011230469,-53.30821228027344
1776814965227641300,1.427641357421875,-81.02815246582031,64.94993591308594,-52.6893310546875
1776814965237742000,1.4377421875,-80.00863647460938,65.43983459472656,-51.8150634765625
1776814965247844000,1.447843994140625,-77.97137451171875,66.45443725585938,-50.85035705566406
1776814965257946400,1.4579462890625,-76.88458251953125,66.97186279296875,-49.80079650878906
1776814965268047400,1.46804736328125,-76.1778564453125,67.02827453613281,-49.062591552734375
1776814965278148000,1.478148193359375,-76.35739135742188,67.03852844238281,-48.274169921875
1776814965288249300,1.488249267578125,-76.43569946289062,66.81544494628906,-48.11700439453125
1776814965298352000,1.49835205078125,-76.3206787109375,66.65399169921875,-47.41261291503906
1776814965308453400,1.508453369140625,-75.28324890136719,66.70075988769531,-46.45933532714844
1776814965318555100,1.51855517578125,-74.32371520996094,67.00949096679688,-45.808837890625
1776814965328658400,1.528658447265625,-73.33567810058594,67.08261108398438,-44.867584228515625
1776814965338760200,1.53876025390625,-72.51869201660156,67.03170776367188,-44.14710998535156
1776814965348861200,1.548861083984375,-71.28306579589844,67.16314697265625,-43.55657958984375
1776814965358964200,1.558964111328125,-70.81504821777344,67.48692321777344,-43.03334045410156
1776814965369066200,1.569066162109375,-69.89942932128906,67.28533935546875,-42.65385437011719
1776814965379168300,1.579168212890625,-68.00474548339844,67.35774230957031,-41.99794006347656
1776814965389270300,1.589270263671875,-67.62998962402344,67.66859436035156,-41.737762451171875
1776814965399372300,1.599372314453125,-66.929931640625,67.53009033203125,-41.28825378417969
1776814965409475300,1.609475341796875,-66.68403625488281,67.66029357910156,-40.985931396484375
1776814965419577000,1.6195771484375,-66.30181884765625,67.40963745117188,-41.00468444824219
1776814965429679000,1.62967919921875,-65.56838989257812,67.60342407226562,-40.83375549316406
1776814965439781000,1.639781005859375,-65.36001586914062,67.61381530761719,-40.92475891113281
1776814965449883100,1.649883056640625,-65.22404479980469,67.93281555175781,-41.00248718261719
1776814965459984400,1.659984375,-65.13404846191406,67.71224975585938,-41.04014587402344
1776814965470085000,1.670085205078125,-64.92799377441406,68.05703735351562,-41.22076416015625
1776814965480187100,1.680187255859375,-65.03237915039062,67.98712158203125,-41.14888000488281
1776814965490287400,1.690287353515625,-64.86288452148438,67.8192138671875,-40.998260498046875
1776814965500387000,1.700386962890625,-64.83460998535156,67.88790893554688,-40.78651428222656
1776814965510490000,1.710489990234375,-64.95893859863281,67.91802978515625,-40.87611389160156
1776814965520592100,1.720592041015625,-64.84417724609375,67.85945129394531,-40.866180419921875
1776814965530694100,1.730694091796875,-64.86138916015625,67.72474670410156,-40.74200439453125
1776814965540795400,1.74079541015625,-65.29292297363281,67.74186706542969,-40.982147216796875
1776814965550898400,1.7508984375,-65.91323852539062,67.86996459960938,-41.04197692871094
1776814965561000200,1.761000244140625,-67.20085144042969,67.492431640625,-41.2548828125
1776814965571103200,1.771103271484375,-67.84390258789062,67.51866149902344,-41.65242004394531
1776814965581205200,1.781205322265625,-68.667724609375,67.18453979492188,-41.78179931640625
1776814965591305200,1.79130517578125,-68.73468017578125,67.28987121582031,-42.03855895996094
1776814965601408300,1.801408203125,-69.37315368652344,67.26864624023438,-42.28111267089844
1776814965611505700,1.811505615234375,-70.02851867675781,67.28561401367188,-42.60087585449219
1776814965621607000,1.82160693359375,-70.38810729980469,67.19924926757812,-42.91644287109375
1776814965631709000,1.831708984375,-70.86141967773438,67.14869689941406,-43.05955505371094
1776814965641812000,1.84181201171875,-70.76663208007812,67.25752258300781,-43.26824951171875
1776814965651914000,1.8519140625,-70.6094970703125,67.36721801757812,-43.39738464355469
1776814965662016800,1.862016845703125,-70.72923278808594,67.39801025390625,-43.483917236328125
1776814965672118800,1.872118896484375,-70.49360656738281,67.31068420410156,-43.3680419921875
1776814965682221000,1.882220947265625,-70.09768676757812,67.35139465332031,-43.42030334472656
1776814965692323000,1.892322998046875,-69.66357421875,67.59355163574219,-43.11701965332031
1776814965702425900,1.90242578125,-70.23091125488281,67.58067321777344,-43.389312744140625
1776814965712526800,1.91252685546875,-69.56303405761719,67.52169799804688,-43.29530334472656
1776814965722630700,1.922630615234375,-70.37442016601562,67.6019287109375,-43.20745849609375
1776814965732732700,1.932732666015625,-70.22344970703125,67.62559509277344,-43.283050537109375
1776814965742835700,1.942835693359375,-70.0684814453125,67.5584716796875,-43.03932189941406
1776814965752938800,1.952938720703125,-70.66995239257812,67.59483337402344,-43.213623046875
1776814965763040800,1.963040771484375,-70.97663879394531,67.475830078125,-43.39399719238281
1776814965773143800,1.973143798828125,-70.99560546875,67.4625244140625,-43.657745361328125
1776814965783246800,1.983246826171875,-71.56369018554688,67.47940063476562,-43.8944091796875
1776814965793349600,1.993349609375,-72.07521057128906,67.577392578125,-44.30412292480469
1776814965803453000,2.003452880859375,-72.56626892089844,67.60635375976562,-44.99688720703125
1776814965813554700,2.0135546875,-72.86518859863281,67.865234375,-45.78887939453125
1776814965823656700,2.02365673828125,-72.51997375488281,68.49702453613281,-46.56974792480469
1776814965833758700,2.0337587890625,-72.28460693359375,68.80113220214844,-47.55206298828125
1776814965843862800,2.04386279296875,-72.36912536621094,69.50794982910156,-48.764434814453125
1776814965853965800,2.0539658203125,-72.04055786132812,70.03892517089844,-49.63380432128906
1776814965864068900,2.06406884765625,-71.34236145019531,70.33477783203125,-50.51611328125
1776814965874171000,2.0741708984375,-71.51509094238281,70.52587890625,-51.16889953613281
1776814965884273000,2.08427294921875,-70.47163391113281,70.99873352050781,-51.554779052734375
1776814965894375700,2.094375732421875,-70.87269592285156,71.16650390625,-52.462677001953125
1776814965904478700,2.104478759765625,-70.07334899902344,71.49374389648438,-53.04512023925781
1776814965914581800,2.114581787109375,-70.03921508789062,71.62782287597656,-53.709136962890625
1776814965924682800,2.124682861328125,-70.24070739746094,71.6746826171875,-53.89219665527344
1776814965934784800,2.13478466796875,-70.398193359375,71.53872680664062,-54.08787536621094
1776814965944887000,2.144886962890625,-70.62770080566406,71.63421630859375,-54.43562316894531
1776814965954987800,2.15498779296875,-71.12644958496094,71.71267700195312,-54.724212646484375
1776814965965090800,2.1650908203125,-71.16741943359375,71.55574035644531,-55.028472900390625
1776814965975193900,2.17519384765625,-71.3021240234375,71.53237915039062,-55.27986145019531
1776814965985294800,2.185294921875,-71.94482421875,71.16014099121094,-55.44218444824219
1776814965995395800,2.195395751953125,-72.21138000488281,71.10121154785156,-55.58589172363281
1776814966005497900,2.205497802734375,-72.61747741699219,70.95309448242188,-55.97991943359375
1776814966015598800,2.215598876953125,-72.71687316894531,70.79734802246094,-56.2362060546875
1776814966025700900,2.225700927734375,-72.91877746582031,70.87503051757812,-56.24220275878906
1776814966035803000,2.235802978515625,-72.9432373046875,70.61915588378906,-56.85087585449219
1776814966045904000,2.24590380859375,-73.22511291503906,70.51799011230469,-57.10075378417969
1776814966056006000,2.256005859375,-72.88475036621094,70.61422729492188,-57.399505615234375
1776814966066107600,2.266107666015625,-72.74737548828125,71.05316162109375,-57.93914794921875
1776814966076209700,2.276209716796875,-72.33204650878906,70.85580444335938,-57.86859130859375
1776814966086312000,2.28631201171875,-72.57701110839844,70.93785095214844,-58.47038269042969
1776814966096414700,2.296414794921875,-72.36648559570312,70.98178100585938,-58.80165100097656
1776814966106517800,2.306517822265625,-72.45584106445312,70.8609619140625,-58.891326904296875
1776814966116619800,2.316619873046875,-72.67044067382812,70.93023681640625,-59.150421142578125
1776814966126721800,2.3267216796875,-73.36262512207031,70.8905029296875,-59.14344787597656
1776814966136825900,2.336825927734375,-73.74801635742188,70.6968994140625,-59.19793701171875
1776814966146927900,2.346927978515625,-73.84217834472656,70.44692993164062,-59.22520446777344
1776814966157028900,2.35702880859375,-74.4744873046875,70.15452575683594,-59.32966613769531
1776814966167132000,2.3671318359375,-75.01248168945312,69.9818115234375,-59.41133117675781
1776814966177235000,2.37723486328125,-75.26612854003906,69.9046630859375,-59.3583984375
1776814966187338000,2.387337890625,-75.6058349609375,69.73648071289062,-59.68428039550781
1776814966197440800,2.397440673828125,-75.57170104980469,69.56135559082031,-59.71049499511719
1776814966207543800,2.407543701171875,-75.54508972167969,69.79942321777344,-59.82502746582031
1776814966217646800,2.417646728515625,-75.08741760253906,69.97886657714844,-59.94981384277344
1776814966227750000,2.42775,-74.64768981933594,70.02632141113281,-60.45481872558594
1776814966237852000,2.437851806640625,-74.60173034667969,70.21994018554688,-60.881317138671875
1776814966247954000,2.447953857421875,-74.05467224121094,70.58345031738281,-60.91230773925781
1776814966258056000,2.458055908203125,-73.97984313964844,70.60928344726562,-61.04817199707031
1776814966268159700,2.46815966796875,-73.42410278320312,70.84310913085938,-60.87736511230469
1776814966278262000,2.478261962890625,-73.55085754394531,70.83197021484375,-61.106170654296875
1776814966288364000,2.488364013671875,-72.94895935058594,70.82684326171875,-61.0213623046875
1776814966298467800,2.4984677734375,-73.01333618164062,71.04347229003906,-61.30558776855469
1776814966308571000,2.50857080078125,-72.38154602050781,71.10684204101562,-61.57908630371094
1776814966318673000,2.5186728515625,-72.47221374511719,70.97161865234375,-61.826995849609375
1776814966328775000,2.52877490234375,-72.21705627441406,71.02760314941406,-62.08555603027344
1776814966338878000,2.5388779296875,-72.23602294921875,71.05133056640625,-62.37266540527344
1776814966348981800,2.548981689453125,-72.24235534667969,71.12294006347656,-62.495391845703125
1776814966359084800,2.559084716796875,-72.49436950683594,71.26095581054688,-62.56904602050781
1776814966369187800,2.569187744140625,-72.74412536621094,70.94956970214844,-62.46466064453125
1776814966379291000,2.579290771484375,-72.81939697265625,70.78314208984375,-62.562774658203125
1776814966389393000,2.589392822265625,-73.00823974609375,70.46018981933594,-62.40855407714844
1776814966399496000,2.599495849609375,-73.44700622558594,70.50233459472656,-62.111175537109375
1776814966409598700,2.6095986328125,-73.67376708984375,70.38490295410156,-61.6854248046875
1776814966419700700,2.61970068359375,-74.22850036621094,70.35459899902344,-61.717193603515625
1776814966429803800,2.6298037109375,-74.39834594726562,70.16239929199219,-61.705902099609375
1776814966439906800,2.63990673828125,-74.84034729003906,69.88877868652344,-61.61079406738281
1776814966450011000,2.650010986328125,-74.84088134765625,69.88282775878906,-61.56410217285156
1776814966460113700,2.66011376953125,-74.15992736816406,70.14614868164062,-61.582275390625
1776814966470215700,2.670215576171875,-73.99415588378906,69.94877624511719,-61.596710205078125
1776814966480317000,2.68031689453125,-73.96493530273438,69.99272155761719,-61.81727600097656
1776814966490416600,2.690416748046875,-73.67146301269531,70.0665283203125,-61.74835205078125
1776814966500519700,2.700519775390625,-73.56903076171875,70.05233764648438,-62.00178527832031
1776814966510622700,2.710622802734375,-73.24342346191406,70.52316284179688,-62.050750732421875
1776814966520726000,2.72072607421875,-72.99375915527344,70.35572814941406,-62.6063232421875
1776814966530827800,2.730827880859375,-72.78579711914062,70.41925048828125,-63.03179931640625
1776814966540930800,2.740930908203125,-72.59951782226562,70.5108642578125,-63.29539489746094
1776814966551036000,2.751035888671875,-72.2777099609375,70.58348083496094,-63.53385925292969
1776814966561139700,2.7611396484375,-72.51412963867188,70.40757751464844,-63.7322998046875
1776814966571243800,2.771243896484375,-72.26885986328125,70.39939880371094,-63.7501220703125
1776814966581345800,2.781345703125,-72.4075927734375,70.33842468261719,-64.05424499511719
1776814966591447800,2.79144775390625,-72.29051208496094,70.17073059082031,-64.31576538085938
1776814966601552000,2.8015517578125,-71.8572998046875,70.31723022460938,-64.29774475097656
1776814966611658500,2.811658447265625,-72.02024841308594,70.26359558105469,-64.63067626953125
1776814966621761500,2.821761474609375,-72.13288879394531,70.092041015625,-65.05218505859375
1776814966631864600,2.831864501953125,-71.26249694824219,70.19078063964844,-65.25506591796875
1776814966641966600,2.841966552734375,-71.36343383789062,70.28857421875,-65.41722106933594
1776814966652069600,2.852069580078125,-71.15640258789062,70.3297119140625,-65.62641906738281
1776814966662170400,2.86217041015625,-71.06002807617188,70.23097229003906,-65.74497985839844
1776814966672273400,2.8722734375,-70.95901489257812,70.35234069824219,-65.64076232910156
1776814966682375400,2.88237548828125,-71.34677124023438,70.13180541992188,-66.095458984375
1776814966692478500,2.892478515625,-71.27217102050781,70.1514892578125,-66.12620544433594
1776814966702580500,2.90258056640625,-71.89817810058594,70.08067321777344,-66.25309753417969
1776814966712682500,2.9126826171875,-72.15731811523438,70.26254272460938,-66.29684448242188
1776814966722786300,2.922786376953125,-72.3016357421875,69.90859985351562,-66.19575500488281
1776814966732889300,2.932889404296875,-71.59889221191406,69.86817932128906,-66.01559448242188
1776814966742992400,2.942992431640625,-71.43995666503906,70.15086364746094,-65.635009765625
1776814966753093400,2.95309326171875,-71.64164733886719,70.02236938476562,-65.84249877929688
1776814966763196400,2.963196533203125,-71.82681274414062,70.25663757324219,-65.63194274902344
1776814966773298400,2.97329833984375,-71.70614624023438,70.445556640625,-65.51028442382812
1776814966783401500,2.9834013671875,-71.06126403808594,70.27409362792969,-65.34869384765625
1776814966793504500,2.99350439453125,-70.87821960449219,70.65922546386719,-65.07077026367188
1776814966803608300,3.0036083984375,-70.65164184570312,70.57005310058594,-65.18783569335938
1776814966813711400,3.01371142578125,-70.43856811523438,70.64634704589844,-65.14463806152344
1776814966823812600,3.0238125,-70.24147033691406,70.8094482421875,-65.35678100585938
1776814966833914600,3.03391455078125,-70.28999328613281,70.77699279785156,-65.57585144042969
1776814966844016600,3.0440166015625,-70.11347961425781,70.75022888183594,-65.68148803710938
1776814966854118700,3.05411865234375,-69.83283996582031,70.90843200683594,-65.76255798339844
1776814966864220400,3.064220458984375,-69.79722595214844,70.7205810546875,-65.76661682128906
1776814966874322400,3.074322509765625,-70.02333068847656,70.82698059082031,-65.88856506347656
1776814966884425500,3.084425537109375,-70.25794982910156,70.82139587402344,-65.74769592285156
1776814966894528500,3.094528564453125,-70.20841979980469,70.80900573730469,-65.64860534667969
1776814966904631300,3.10463134765625,-70.28996276855469,70.67471313476562,-65.54283142089844
1776814966914733300,3.1147333984375,-70.11566162109375,70.69808959960938,-65.58172607421875
1776814966924835300,3.12483544921875,-70.00042724609375,70.85821533203125,-65.59532165527344
1776814966934937600,3.1349375,-69.59312438964844,70.78251647949219,-65.37449645996094
1776814966945040400,3.145040283203125,-70.16943359375,70.90817260742188,-65.61700439453125
1776814966955143400,3.155143310546875,-70.22334289550781,70.7266845703125,-65.603759765625
1776814966965246500,3.16524658203125,-69.95494079589844,70.82499694824219,-65.92242431640625
1776814966975350300,3.175350341796875,-70.17851257324219,70.73820495605469,-65.97596740722656
1776814966985454600,3.18545458984375,-70.1978759765625,70.71270751953125,-66.13716125488281
1776814966995557600,3.1955576171875,-70.66384887695312,70.61819458007812,-66.52191162109375
1776814967005659600,3.20565966796875,-70.19235229492188,70.44337463378906,-66.80258178710938
1776814967015761400,3.215761474609375,-70.91845703125,70.31227111816406,-67.51455688476562
1776814967025863400,3.225863525390625,-71.17266845703125,70.30340576171875,-68.03506469726562
1776814967035965400,3.23596533203125,-71.08580017089844,69.8651123046875,-68.15850830078125
1776814967046067500,3.2460673828125,-71.47587585449219,69.3829345703125,-68.50003051757812
1776814967056170500,3.25617041015625,-72.27217102050781,69.56047058105469,-69.15272521972656
1776814967066273500,3.2662734375,-72.49916076660156,69.00616455078125,-69.51850891113281
1776814967076374500,3.27637451171875,-72.34623718261719,68.88136291503906,-69.6546630859375
1776814967086475300,3.286475341796875,-72.78346252441406,68.55171203613281,-69.94418334960938
1776814967096577300,3.296577392578125,-72.59761047363281,68.19921875,-70.288818359375
1776814967106678500,3.306678466796875,-72.96775817871094,68.3289794921875,-70.67849731445312
1776814967116778500,3.316778564453125,-72.64328002929688,68.13070678710938,-71.18614196777344
1776814967126877400,3.32687744140625,-72.7685546875,68.22018432617188,-71.39207458496094
1776814967136978400,3.336978515625,-72.40461730957031,67.95556640625,-71.75126647949219
1776814967147079400,3.347079345703125,-72.62083435058594,67.85997009277344,-72.07992553710938
1776814967157180700,3.3571806640625,-72.48329162597656,67.92816162109375,-72.23721313476562
1776814967167281400,3.367281494140625,-72.47454833984375,67.77267456054688,-72.48536682128906
1776814967177382400,3.37738232421875,-71.92225646972656,67.57125854492188,-72.729248046875
1776814967187482600,3.387482666015625,-72.07618713378906,67.47586059570312,-73.13018798828125
1776814967197581600,3.39758154296875,-72.13587951660156,67.23658752441406,-73.23199462890625
1776814967207680500,3.407680419921875,-71.81805419921875,66.966552734375,-73.77694702148438
1776814967217781500,3.417781494140625,-71.79066467285156,66.97047424316406,-73.97123718261719
1776814967227881500,3.427881591796875,-72.49763488769531,66.96052551269531,-74.26692199707031
1776814967237981400,3.4379814453125,-72.55194091796875,66.61105346679688,-74.6396484375
1776814967248082400,3.44808251953125,-73.19108581542969,66.17092895507812,-74.77333068847656
1776814967258183400,3.458183349609375,-72.98710632324219,65.74006652832031,-74.95106506347656
1776814967268283400,3.468283447265625,-72.87420654296875,65.65283203125,-74.99403381347656
1776814967278383600,3.478383544921875,-72.66085815429688,65.66236877441406,-75.28572082519531
1776814967288486400,3.488486328125,-72.70404052734375,65.90626525878906,-75.21099853515625
1776814967298588400,3.49858837890625,-72.92245483398438,65.80447387695312,-74.95390319824219
1776814967308688400,3.5086884765625,-72.4339599609375,66.26042175292969,-74.84776306152344
1776814967318789400,3.518789306640625,-71.87318420410156,66.16563415527344,-74.68992614746094
1776814967328891400,3.528891357421875,-72.838623046875,66.13603210449219,-74.71754455566406
1776814967338994400,3.538994384765625,-72.32394409179688,66.17726135253906,-74.87535095214844
1776814967349097500,3.549097412109375,-72.55859375,66.03857421875,-74.98927307128906
1776814967359200500,3.559200439453125,-72.3631591796875,66.0345458984375,-74.91499328613281
1776814967369303600,3.569303466796875,-72.550537109375,66.18963623046875,-74.83445739746094
1776814967379404500,3.579404541015625,-72.67512512207031,66.07884216308594,-74.82249450683594
1776814967389505300,3.58950537109375,-72.6864013671875,65.94821166992188,-74.84562683105469
1776814967399606500,3.5996064453125,-72.86332702636719,66.01716613769531,-74.69111633300781
1776814967409707500,3.60970751953125,-72.71360778808594,66.2628173828125,-74.77438354492188
1776814967419808500,3.61980859375,-72.4669189453125,66.23745727539062,-75.15365600585938
1776814967429911300,3.629911376953125,-72.6588134765625,66.16665649414062,-75.12680053710938
1776814967440015600,3.640015625,-72.18756103515625,66.17115783691406,-75.088623046875
1776814967450118700,3.65011865234375,-72.451416015625,66.36396789550781,-75.00775146484375
1776814967460222500,3.660222412109375,-71.96159362792969,66.04777526855469,-74.76931762695312
1776814967470325500,3.670325439453125,-72.6123046875,66.01930236816406,-74.931884765625
1776814967480427500,3.680427490234375,-71.8629150390625,66.21530151367188,-75.10356140136719
1776814967490530600,3.690530517578125,-72.16700744628906,66.20372009277344,-75.17903137207031
1776814967500634400,3.70063427734375,-72.1429443359375,66.15663146972656,-75.15205383300781
1776814967510736400,3.710736328125,-71.77392578125,66.33671569824219,-75.1160888671875
1776814967520839400,3.72083935546875,-72.38519287109375,66.04167175292969,-75.25382995605469
1776814967530941400,3.73094140625,-72.66429138183594,66.09922790527344,-75.00938415527344
1776814967541043500,3.74104345703125,-72.58450317382812,65.78292846679688,-75.00930786132812
1776814967551146500,3.751146484375,-73.00392150878906,65.65853881835938,-74.87348937988281
1776814967561247500,3.76124755859375,-73.02667236328125,65.69093322753906,-75.07777404785156
1776814967571349500,3.771349609375,-72.8115234375,65.56256103515625,-75.311767578125
1776814967581450500,3.781450439453125,-72.78373718261719,65.48423767089844,-75.75428771972656
1776814967591551500,3.791551513671875,-72.44277954101562,65.49974060058594,-76.08486938476562
1776814967601654500,3.801654541015625,-71.60702514648438,65.08555603027344,-76.09515380859375
1776814967611753000,3.8117529296875,-71.80775451660156,65.19795227050781,-76.649658203125
1776814967621856000,3.82185595703125,-71.36383056640625,65.07231140136719,-76.99755859375
1776814967631958000,3.8319580078125,-71.67720031738281,64.97900390625,-77.46688842773438
1776814967642058800,3.842058837890625,-71.56304931640625,64.58189392089844,-77.76828002929688
1776814967652160000,3.852159912109375,-71.23587036132812,64.48683166503906,-77.87921142578125
1776814967662261000,3.862260986328125,-71.06463623046875,64.13865661621094,-78.61814880371094
1776814967672361000,3.87236083984375,-71.22773742675781,63.70390319824219,-79.16224670410156
1776814967682462000,3.8824619140625,-71.29229736328125,63.28608703613281,-79.89021301269531
1776814967692563000,3.89256298828125,-70.70419311523438,62.72883605957031,-80.39076232910156
1776814967702665000,3.9026650390625,-70.50057983398438,62.29026794433594,-81.00788879394531
1776814967712767000,3.91276708984375,-70.08534240722656,62.03227233886719,-81.68698120117188
1776814967722868000,3.922867919921875,-70.32270812988281,61.562042236328125,-82.02284240722656
1776814967732968700,3.93296875,-69.98155212402344,60.952239990234375,-82.28189086914062
1776814967743070700,3.94307080078125,-70.222412109375,60.60588073730469,-82.59611511230469
1776814967753173000,3.953173095703125,-70.43986511230469,60.31605529785156,-83.12062072753906
1776814967763275000,3.96327490234375,-70.42294311523438,59.96647644042969,-83.38833618164062
1776814967773377000,3.973376953125,-69.96710205078125,59.87467956542969,-83.7197265625
1776814967783479000,3.98347900390625,-69.85997009277344,59.37786865234375,-83.76127624511719
1776814967793583900,3.993583984375,-69.26893615722656,59.33128356933594,-83.95660400390625
1776814967803688000,4.00368798828125,-69.46060180664062,59.25440979003906,-84.43583679199219
1776814967813790700,4.013790771484375,-69.19863891601562,59.09490966796875,-84.53240966796875
1776814967823895000,4.02389501953125,-69.08201599121094,58.656280517578125,-84.71855163574219
1776814967833998000,4.033998046875,-68.527099609375,58.66363525390625,-85.10665893554688
1776814967844100900,4.044100830078125,-68.06271362304688,58.55851745605469,-85.01420593261719
1776814967854204000,4.054203857421875,-68.060791015625,58.07554626464844,-85.37890625
1776814967864307000,4.064306884765625,-67.91409301757812,58.38087463378906,-85.24688720703125
1776814967874408000,4.074407958984375,-68.12391662597656,58.191558837890625,-85.00433349609375
1776814967884509700,4.084509765625,-68.03662109375,58.43357849121094,-85.10877990722656
1776814967894612700,4.09461279296875,-67.86444091796875,58.442626953125,-85.10765075683594
1776814967904714800,4.10471484375,-67.79537963867188,58.58161926269531,-85.11297607421875
1776814967914816800,4.114816650390625,-68.02137756347656,58.44807434082031,-85.10606384277344
1776814967924919800,4.124919921875,-68.12113952636719,58.66204833984375,-85.04130554199219
1776814967935021800,4.135021728515625,-67.94970703125,58.538543701171875,-85.02218627929688
1776814967945123800,4.145123779296875,-67.87060546875,58.40766906738281,-85.02243041992188
1776814967955227000,4.155226806640625,-68.15385437011719,58.455535888671875,-84.94857788085938
1776814967965326800,4.165326904296875,-68.39187622070312,58.47834777832031,-85.02389526367188
1776814967975426800,4.1754267578125,-68.44783020019531,58.47511291503906,-85.13861083984375
1776814967985528800,4.18552880859375,-67.85484313964844,58.63203430175781,-84.79560852050781
1776814967995629800,4.1956298828125,-67.99711608886719,58.311431884765625,-84.97373962402344
1776814968005729800,4.205729736328125,-68.74234008789062,58.52638244628906,-85.08267211914062
1776814968015831000,4.2158310546875,-68.26220703125,58.4404296875,-84.73429870605469
1776814968025931000,4.225930908203125,-68.50686645507812,58.47880554199219,-84.77377319335938
1776814968036031000,4.236031005859375,-68.43264770507812,58.64390563964844,-84.5771484375
1776814968046132700,4.2461328125,-68.35980224609375,58.78416442871094,-84.62939453125
1776814968056234800,4.25623486328125,-68.76332092285156,58.75421142578125,-84.73289489746094
1776814968066336800,4.266336669921875,-68.60470581054688,58.92974853515625,-84.57643127441406
1776814968076438000,4.27643798828125,-68.49502563476562,59.07914733886719,-84.57614135742188
1776814968086540000,4.2865400390625,-68.52690124511719,59.03155517578125,-84.51641845703125
1776814968096641800,4.296641845703125,-68.37875366210938,59.02299499511719,-84.39344787597656
1776814968106742800,4.30674267578125,-68.13134765625,59.03422546386719,-84.593505859375
1776814968116844800,4.3168447265625,-68.49737548828125,58.832855224609375,-84.42794799804688
1776814968126946800,4.32694677734375,-68.7047119140625,58.99543762207031,-84.329345703125
1776814968137048000,4.337048095703125,-69.01197814941406,58.91229248046875,-84.50492858886719
1776814968147149800,4.34714990234375,-68.836181640625,58.87901306152344,-84.57609558105469
1776814968157250800,4.357250732421875,-68.803955078125,58.90501403808594,-84.55401611328125
1776814968167351000,4.36735107421875,-68.66926574707031,58.79803466796875,-84.4957275390625
1776814968177451000,4.377450927734375,-68.26412963867188,59.05067443847656,-84.38172912597656
1776814968187550700,4.38755078125,-68.96627807617188,58.980316162109375,-84.41510009765625
1776814968197652000,4.39765185546875,-68.5789794921875,59.144805908203125,-84.45927429199219
1776814968207754000,4.40775390625,-68.51036071777344,59.08219909667969,-84.48703002929688
1776814968217856000,4.41785595703125,-68.71376037597656,59.098175048828125,-84.52288818359375
1776814968227958000,4.4279580078125,-68.29100036621094,59.073455810546875,-84.52156066894531
1776814968238061000,4.43806103515625,-68.30928039550781,58.9281005859375,-84.55966186523438
1776814968248163000,4.4481630859375,-68.21319580078125,59.03657531738281,-84.57040405273438
1776814968258263800,4.458263916015625,-68.35653686523438,58.858428955078125,-84.36665344238281
1776814968268364800,4.46836474609375,-67.94868469238281,59.08332824707031,-84.35305786132812
1776814968278466000,4.478466064453125,-68.14753723144531,59.08319091796875,-84.5308837890625
1776814968288565000,4.48856494140625,-68.07052612304688,58.94618225097656,-84.54920959472656
1776814968298664700,4.498664794921875,-67.95294189453125,58.938690185546875,-84.48966979980469
1776814968308765000,4.508764892578125,-67.59291076660156,59.0177001953125,-84.59695434570312
1776814968318867000,4.518866943359375,-67.30126953125,59.0572509765625,-84.30325317382812
1776814968328969000,4.528968994140625,-67.58505249023438,59.18943786621094,-84.65910339355469
1776814968339070000,4.539070068359375,-67.62303161621094,59.275665283203125,-84.63002014160156
1776814968349172700,4.5491728515625,-67.421630859375,59.105865478515625,-84.62232971191406
1776814968359274800,4.559274658203125,-67.81854248046875,59.09449768066406,-84.64222717285156
1776814968369377800,4.569377685546875,-67.53463745117188,59.11561584472656,-84.57875061035156
1776814968379480800,4.579480712890625,-67.55807495117188,59.07341003417969,-84.38113403320312
1776814968389585000,4.5895849609375,-67.47634887695312,58.85801696777344,-84.50080871582031
1776814968399688000,4.59968798828125,-67.6290283203125,59.02996826171875,-84.39486694335938
1776814968409789000,4.609788818359375,-67.89846801757812,59.11552429199219,-84.4395751953125
1776814968419890000,4.619889892578125,-67.85556030273438,59.02244567871094,-84.53158569335938
1776814968429993000,4.629992919921875,-67.9622802734375,59.410369873046875,-84.51329040527344
1776814968440094000,4.640093994140625,-67.83836364746094,59.25166320800781,-84.59226989746094
1776814968450195000,4.65019482421875,-67.62197875976562,59.100372314453125,-84.4947509765625
1776814968460296000,4.6602958984375,-67.68409729003906,59.29847717285156,-84.28489685058594
1776814968470397000,4.67039697265625,-67.93692016601562,58.98822021484375,-84.43861389160156
1776814968480498700,4.680498779296875,-68.08903503417969,58.95027160644531,-84.5556640625
1776814968490600700,4.6906005859375,-68.00971984863281,59.01634216308594,-84.5599365234375
1776814968500703700,4.700703857421875,-67.71383666992188,59.22035217285156,-84.72611999511719
1776814968510804000,4.710803955078125,-67.91213989257812,59.05390930175781,-84.24337768554688
1776814968520906000,4.720906005859375,-67.88021850585938,58.84965515136719,-84.48963928222656
1776814968531008000,4.731008056640625,-68.114013671875,59.053375244140625,-84.4578857421875
1776814968541108700,4.741108642578125,-67.65724182128906,58.9710693359375,-84.4105224609375
1776814968551211000,4.7512109375,-67.89117431640625,59.2476806640625,-84.618408203125
1776814968561312000,4.76131201171875,-68.06219482421875,59.188690185546875,-84.57176208496094
1776814968571412700,4.771412841796875,-68.24790954589844,58.95436096191406,-84.45986938476562
1776814968581514000,4.781513916015625,-68.14042663574219,58.96745300292969,-84.41508483886719
1776814968591616000,4.791615966796875,-67.72715759277344,58.85272216796875,-84.40599060058594
1776814968601718000,4.801718017578125,-67.55081176757812,58.86097717285156,-84.338623046875
1776814968611819800,4.81181982421875,-67.94964599609375,58.90264892578125,-84.558837890625
1776814968621920800,4.821920654296875,-68.12547302246094,58.84339904785156,-84.5953369140625
1776814968632022000,4.83202197265625,-68.03993225097656,58.93693542480469,-84.55986022949219
1776814968642122800,4.842122802734375,-68.14213562011719,58.81791687011719,-84.62713623046875
1776814968652223700,4.8522236328125,-67.77973937988281,59.03863525390625,-84.50247192382812
1776814968662325000,4.862324951171875,-68.13581848144531,59.13909912109375,-84.63401794433594
1776814968672425700,4.87242578125,-68.29048156738281,58.88330078125,-84.53343200683594
1776814968682526000,4.88252587890625,-68.0455322265625,59.12335205078125,-84.63284301757812
1776814968692628000,4.8926279296875,-68.00459289550781,58.99055480957031,-84.50653076171875
1776814968702728700,4.902728759765625,-68.0565185546875,58.948150634765625,-84.42781066894531
1776814968712829000,4.912828857421875,-67.89047241210938,58.961334228515625,-84.55998229980469
1776814968722931000,4.922930908203125,-67.42166137695312,59.15150451660156,-84.7054443359375
1776814968733033000,4.933032958984375,-68.02528381347656,58.99397277832031,-84.58589172363281
1776814968743134700,4.943134765625,-67.65003967285156,58.826812744140625,-84.64543151855469
1776814968753235000,4.95323486328125,-67.8583984375,58.857757568359375,-84.66403198242188
1776814968763336000,4.9633359375,-67.71516418457031,59.05787658691406,-84.62677001953125
1776814968773437700,4.973437744140625,-67.56074523925781,58.96513366699219,-84.79920959472656
1776814968783539700,4.983539794921875,-67.53329467773438,59.07115173339844,-84.6724853515625
1776814968793641700,4.993641845703125,-67.57954406738281,59.05250549316406,-84.73820495605469
1776814968803743700,5.00374365234375,-67.5133056640625,58.86578369140625,-84.719482421875
1776814968813845800,5.013845703125,-67.51922607421875,58.665313720703125,-84.74369812011719
1776814968823948000,5.023947998046875,-67.49226379394531,58.85078430175781,-84.80654907226562
1776814968834048800,5.034048828125,-67.07022094726562,59.08636474609375,-84.69197082519531
1776814968844149800,5.044149658203125,-66.96846008300781,59.09765625,-84.58839416503906
1776814968854251800,5.054251708984375,-67.30035400390625,58.927764892578125,-84.83352661132812
1776814968864351700,5.064351806640625,-67.15960693359375,59.058380126953125,-84.83543395996094
1776814968874452700,5.07445263671875,-66.84001159667969,58.85455322265625,-84.75166320800781
1776814968884554000,5.084553955078125,-66.88731384277344,59.084381103515625,-84.8565673828125
1776814968894656000,5.094656005859375,-66.6260986328125,59.095794677734375,-84.71697998046875
1776814968904759000,5.104759033203125,-67.09770202636719,58.98039245605469,-84.76380920410156
1776814968914859800,5.11485986328125,-67.31845092773438,58.893524169921875,-84.71369934082031
1776814968924962800,5.124962890625,-66.8419189453125,59.06597900390625,-84.82511901855469
1776814968935064800,5.13506494140625,-67.24484252929688,58.9034423828125,-84.78248596191406
1776814968945166800,5.145166748046875,-67.50167846679688,58.841217041015625,-84.76412963867188
1776814968955268900,5.155268798828125,-66.80377197265625,59.05903625488281,-84.83351135253906
1776814968965371000,5.165370849609375,-67.66189575195312,59.046295166015625,-84.68415832519531
1776814968975473000,5.175472900390625,-67.67453002929688,58.9154052734375,-84.55421447753906
1776814968985572900,5.18557275390625,-67.57121276855469,59.03947448730469,-84.58078002929688
1776814968995675000,5.1956748046875,-67.59295654296875,58.93363952636719,-84.67366027832031
1776814969005776000,5.20577587890625,-67.46943664550781,58.983673095703125,-84.65338134765625
1776814969015876900,5.215876953125,-67.39356994628906,58.87699890136719,-84.61001586914062
1776814969025977900,5.225977783203125,-67.30557250976562,59.06596374511719,-84.70199584960938
1776814969036081000,5.236080810546875,-67.16439819335938,59.00498962402344,-84.34034729003906
1776814969046182000,5.246181884765625,-67.59306335449219,58.8824462890625,-84.62849426269531
1776814969056284000,5.256283935546875,-67.79061889648438,59.07440185546875,-84.70001220703125
1776814969066385700,5.2663857421875,-67.61793518066406,58.85601806640625,-84.50105285644531
1776814969076487700,5.27648779296875,-67.57868957519531,58.89164733886719,-84.65010070800781
1776814969086590700,5.2865908203125,-67.65032958984375,59.05464172363281,-84.52108764648438
1776814969096691000,5.29669091796875,-67.66644287109375,59.25633239746094,-84.6788330078125
1776814969106793000,5.30679296875,-67.62666320800781,58.865234375,-84.54428100585938
1776814969116895000,5.31689501953125,-67.81098937988281,58.929229736328125,-84.74581909179688
1776814969126996700,5.326996826171875,-67.55255126953125,59.01997375488281,-84.5965576171875
1776814969137097700,5.33709765625,-67.54225158691406,58.8389892578125,-84.53379821777344
1776814969147199000,5.347198974609375,-67.88876342773438,59.13116455078125,-84.71273803710938
1776814969157299700,5.3572998046875,-67.70993041992188,59.02789306640625,-84.59135437011719
1776814969167401000,5.36740087890625,-67.41072082519531,59.12278747558594,-84.59408569335938
1776814969177502000,5.377501953125,-67.66038513183594,58.815887451171875,-84.24232482910156
1776814969187602700,5.387602783203125,-67.03421020507812,58.94639587402344,-84.22471618652344
1776814969197704000,5.397703857421875,-67.07913208007812,59.13346862792969,-84.36064147949219
1776814969207805000,5.407804931640625,-67.39340209960938,58.99847412109375,-84.54461669921875
1776814969217907000,5.417906982421875,-67.669189453125,58.97088623046875,-84.69525146484375
1776814969228007000,5.4280068359375,-67.43704223632812,59.00886535644531,-84.60661315917969
1776814969238109000,5.43810888671875,-67.59812927246094,58.9315185546875,-84.64561462402344
1776814969248211000,5.4482109375,-67.68974304199219,58.87945556640625,-84.70332336425781
1776814969258314000,5.45831396484375,-67.72322082519531,59.002685546875,-84.71286010742188
1776814969268416000,5.468416015625,-67.50384521484375,59.0101318359375,-84.82606506347656
1776814969278518000,5.47851806640625,-67.81887817382812,59.0281982421875,-84.65115356445312
1776814969288619800,5.488619873046875,-67.41192626953125,58.953277587890625,-84.63494873046875
1776814969298722800,5.498722900390625,-67.61859130859375,58.62760925292969,-84.51814270019531
1776814969308825900,5.508825927734375,-67.42233276367188,58.61360168457031,-84.55001831054688
1776814969318926800,5.5189267578125,-67.28654479980469,58.957000732421875,-84.484619140625
1776814969329028900,5.52902880859375,-67.6201171875,58.806732177734375,-84.70489501953125
1776814969339132000,5.5391318359375,-67.98281860351562,58.914520263671875,-84.68513488769531
1776814969349234000,5.54923388671875,-67.91496276855469,58.659698486328125,-84.56407165527344
1776814969359336000,5.5593359375,-67.94358825683594,59.054656982421875,-84.70222473144531
1776814969369439000,5.56943896484375,-67.91314697265625,58.82994079589844,-84.36651611328125
1776814969379541000,5.579541015625,-67.74456787109375,58.6629638671875,-84.5758056640625
1776814969389644000,5.58964404296875,-67.63516235351562,58.73545837402344,-84.67092895507812
1776814969399746000,5.59974609375,-68.08364868164062,58.71697998046875,-84.520263671875
1776814969409848800,5.609848876953125,-68.26889038085938,58.84831237792969,-84.62619018554688
1776814969419951900,5.619951904296875,-68.09536743164062,58.8245849609375,-84.53536987304688
1776814969430056000,5.630055908203125,-68.31558227539062,58.92601013183594,-84.76445007324219
1776814969440158000,5.640157958984375,-68.27238464355469,58.57710266113281,-84.60224914550781
1776814969450261000,5.650260986328125,-68.29960632324219,58.84088134765625,-84.6669921875
1776814969460363000,5.660363037109375,-68.21560668945312,58.896331787109375,-84.61408996582031
1776814969470465800,5.6704658203125,-68.09931945800781,58.68376159667969,-84.732666015625
1776814969480569900,5.68056982421875,-68.53933715820312,58.999603271484375,-84.64039611816406
1776814969490673000,5.6906728515625,-68.42350769042969,58.78961181640625,-84.60430908203125
1776814969500776000,5.70077587890625,-68.29551696777344,58.787139892578125,-84.79240417480469
1776814969510878000,5.7108779296875,-68.3826904296875,58.82080078125,-84.44679260253906
1776814969520980000,5.72097998046875,-68.61834716796875,58.603607177734375,-84.59336853027344
1776814969531082800,5.731082763671875,-68.57768249511719,58.74859619140625,-84.68235778808594
1776814969541185800,5.741185791015625,-68.71054077148438,58.81236267089844,-84.68057250976562
1776814969551287800,5.751287841796875,-68.40972900390625,58.577880859375,-84.56391906738281
1776814969561389000,5.76138916015625,-68.37062072753906,58.60443115234375,-84.40776062011719
1776814969571491800,5.771491943359375,-68.31742858886719,58.63276672363281,-84.74540710449219
1776814969581595000,5.781594970703125,-68.37440490722656,58.49873352050781,-84.64726257324219
1776814969591698000,5.791697998046875,-68.58349609375,58.41999816894531,-84.70327758789062
1776814969601801000,5.801801025390625,-68.54782104492188,58.53642272949219,-84.8104248046875
1776814969611902200,5.811902099609375,-68.54815673828125,58.39045715332031,-84.66444396972656
1776814969622004200,5.822004150390625,-68.62667846679688,58.61058044433594,-84.80386352539062
1776814969632106200,5.832106201171875,-68.59298706054688,58.404022216796875,-84.84971618652344
1776814969642209300,5.842209228515625,-68.68048095703125,58.43231201171875,-84.76113891601562
1776814969652311300,5.852311279296875,-68.89163208007812,58.215484619140625,-84.77360534667969
1776814969662413300,5.862413330078125,-68.82698059082031,58.36167907714844,-84.81451416015625
1776814969672514600,5.8725146484375,-68.84028625488281,58.43104553222656,-85.00457763671875
1776814969682614300,5.8826142578125,-68.67279052734375,58.11558532714844,-84.84565734863281
1776814969692715500,5.892715576171875,-68.70797729492188,58.46990966796875,-84.81291198730469
1776814969702816300,5.902816162109375,-68.52297973632812,58.342803955078125,-84.64244079589844
1776814969712917200,5.912917236328125,-68.6259765625,58.3675537109375,-84.72889709472656
1776814969723019300,5.923019287109375,-68.62847900390625,58.39982604980469,-84.83869934082031
1776814969733121300,5.933121337890625,-68.82231140136719,58.284271240234375,-84.78958129882812
1776814969743223600,5.9432236328125,-68.61866760253906,58.25505065917969,-84.96444702148438
1776814969753325600,5.95332568359375,-68.93380737304688,58.26017761230469,-84.84391784667969
1776814969763427300,5.96342724609375,-68.844482421875,58.30839538574219,-84.92178344726562
1776814969773529300,5.973529296875,-68.89213562011719,58.24424743652344,-85.07666015625
1776814969783632400,5.98363232421875,-68.995849609375,58.303192138671875,-84.85441589355469
1776814969793735200,5.993735107421875,-68.84805297851562,58.105712890625,-85.06825256347656
1776814969803839500,6.003839599609375,-68.83322143554688,58.25201416015625,-84.96757507324219
1776814969813941200,6.013941162109375,-68.870849609375,58.11918640136719,-85.02937316894531
1776814969824044500,6.02404443359375,-69.09799194335938,58.070281982421875,-85.10208129882812
1776814969834147300,6.034147216796875,-68.7542724609375,57.91651916503906,-85.17057800292969
1776814969844251400,6.04425146484375,-68.82365417480469,58.09486389160156,-84.97183227539062
1776814969854355500,6.05435546875,-69.51899719238281,57.79768371582031,-85.14692687988281
1776814969864457500,6.06445751953125,-69.21371459960938,57.85107421875,-85.20326232910156
1776814969874560300,6.074560302734375,-69.64689636230469,57.38020324707031,-85.15318298339844
1776814969884663300,6.084663330078125,-69.95063781738281,57.577301025390625,-85.16201782226562
1776814969894766300,6.094766357421875,-69.71083068847656,57.76921081542969,-85.05155944824219
1776814969904869400,6.104869384765625,-69.95475769042969,57.4248046875,-85.32174682617188
1776814969914972400,6.114972412109375,-70.47398376464844,57.541595458984375,-85.35212707519531
1776814969925074400,6.125074462890625,-70.63528442382812,57.2841796875,-85.23326110839844
1776814969935177200,6.13517724609375,-70.67730712890625,57.22259521484375,-85.12939453125
1776814969945280300,6.1452802734375,-71.16033935546875,56.80247497558594,-85.1614990234375
1776814969955383300,6.15538330078125,-71.48159790039062,56.893890380859375,-85.31036376953125
1776814969965485300,6.1654853515625,-71.91329956054688,56.50604248046875,-85.07675170898438
1776814969975588400,6.17558837890625,-72.12010192871094,56.39854431152344,-85.20341491699219
1776814969985690400,6.1856904296875,-72.49526977539062,56.139739990234375,-85.09219360351562
1776814969995794200,6.195794189453125,-72.74272155761719,55.92234802246094,-85.04324340820312
1776814970005895400,6.2058955078125,-73.1182861328125,55.63812255859375,-85.10295104980469
1776814970015997400,6.21599755859375,-73.71290588378906,55.58818054199219,-84.99418640136719
1776814970026100500,6.2261005859375,-74.09663391113281,55.37840270996094,-85.09951782226562
1776814970036203300,6.236203369140625,-74.40751647949219,55.02412414550781,-84.96347045898438
1776814970046307300,6.246307373046875,-75.15957641601562,54.6563720703125,-85.12583923339844
1776814970056411400,6.256411376953125,-75.28921508789062,54.270599365234375,-84.9658203125
1776814970066513400,6.266513427734375,-75.56944274902344,54.00279235839844,-85.00967407226562
1776814970076616200,6.2766162109375,-76.11338806152344,53.823760986328125,-84.91122436523438
1776814970086718200,6.28671826171875,-76.71771240234375,53.555572509765625,-84.54876708984375
1776814970096820500,6.296820556640625,-76.76344299316406,53.479522705078125,-84.85505676269531
1776814970106924300,6.30692431640625,-77.02159118652344,53.17051696777344,-84.6116943359375
1776814970117026300,6.3170263671875,-77.81304931640625,52.832977294921875,-84.50437927246094
1776814970127129300,6.32712939453125,-78.233154296875,52.59716796875,-84.54360961914062
1776814970137233200,6.337233154296875,-78.52200317382812,52.36445617675781,-84.2611083984375
1776814970147336200,6.347336181640625,-78.61434936523438,52.09690856933594,-84.12490844726562
1776814970157440500,6.3574404296875,-79.02719116210938,51.81144714355469,-84.1904296875
1776814970167545300,6.36754541015625,-79.41392517089844,51.60585021972656,-84.01121520996094
1776814970177648400,6.3776484375,-79.58412170410156,51.46437072753906,-83.74282836914062
1776814970187752200,6.387752197265625,-80.49369812011719,51.416717529296875,-83.57298278808594
1776814970197854200,6.397854248046875,-80.68260192871094,51.06158447265625,-83.41583251953125
1776814970207958500,6.40795849609375,-81.30740356445312,50.897430419921875,-83.12661743164062
1776814970218061600,6.4180615234375,-81.64396667480469,50.592864990234375,-82.9549560546875
1776814970228163300,6.428163330078125,-82.07695007324219,50.25361633300781,-82.18667602539062
1776814970238265300,6.438265380859375,-82.53715515136719,50.05216979980469,-82.32875061035156
1776814970248368400,6.448368408203125,-83.04269409179688,49.615753173828125,-82.26197814941406
1776814970258469400,6.458469482421875,-83.74151611328125,49.23258972167969,-81.77864074707031
1776814970268571400,6.4685712890625,-83.73089599609375,48.93121337890625,-81.59500122070312
1776814970278671400,6.47867138671875,-84.30281066894531,48.28802490234375,-81.44139099121094
1776814970288772400,6.4887724609375,-84.80552673339844,47.721343994140625,-81.13796997070312
1776814970298872600,6.49887255859375,-85.04640197753906,47.10246276855469,-81.16574096679688
1776814970308972300,6.50897216796875,-85.38394165039062,46.961883544921875,-81.10469055175781
1776814970319074300,6.51907421875,-85.62713623046875,46.04316711425781,-80.70024108886719
1776814970329175300,6.52917529296875,-86.32911682128906,45.52740478515625,-80.79371643066406
1776814970339277300,6.53927734375,-86.78173828125,44.7593994140625,-80.58711242675781
1776814970349379300,6.54937939453125,-86.36579895019531,44.25108337402344,-80.34715270996094
1776814970359480300,6.559480224609375,-87.19590759277344,43.41712951660156,-80.19039916992188
1776814970369582300,6.569582275390625,-87.3426513671875,42.911865234375,-79.94157409667969
1776814970379684400,6.579684326171875,-87.65739440917969,42.14495849609375,-80.00625610351562
1776814970389788400,6.589788330078125,-87.82191467285156,41.74525451660156,-79.91227722167969
1776814970399890400,6.599890380859375,-88.08642578125,41.00306701660156,-79.7125244140625
1776814970409993500,6.609993408203125,-88.31072998046875,40.38603210449219,-79.31562805175781
1776814970420096500,6.620096435546875,-88.26397705078125,40.18902587890625,-79.07733154296875
1776814970430199300,6.63019921875,-88.87324523925781,39.551116943359375,-78.98338317871094
1776814970440304400,6.640304443359375,-88.93954467773438,38.9378662109375,-78.71563720703125
1776814970450407200,6.6504072265625,-89.15182495117188,38.406097412109375,-78.69912719726562
1776814970460510200,6.66051025390625,-89.36309814453125,37.92903137207031,-78.64291381835938
1776814970470613200,6.67061328125,-89.30548095703125,37.41593933105469,-78.41795349121094
1776814970480716500,6.680716552734375,-89.47927856445312,36.87713623046875,-78.30496215820312
1776814970490817300,6.6908173828125,-89.73263549804688,36.143524169921875,-78.28939819335938
1776814970500920300,6.70092041015625,-89.57965087890625,35.636444091796875,-78.09918212890625
1776814970511023400,6.7110234375,-89.391845703125,35.31126403808594,-78.21537780761719
1776814970521126100,6.721126220703125,-89.19747924804688,34.66664123535156,-78.14537048339844
1776814970531229200,6.731229248046875,-89.44854736328125,33.807281494140625,-78.2550048828125
1776814970541331200,6.741331298828125,-89.49894714355469,33.45521545410156,-78.34280395507812
1776814970551433200,6.75143310546875,-89.15437316894531,33.078216552734375,-78.26666259765625
1776814970561536300,6.761536376953125,-88.9500732421875,32.65238952636719,-78.05360412597656
1776814970571637500,6.771637451171875,-88.71722412109375,32.11102294921875,-77.94915771484375
1776814970581737200,6.7817373046875,-89.07902526855469,31.423995971679688,-78.08671569824219
1776814970591838500,6.79183837890625,-88.79959106445312,31.046340942382812,-77.98213195800781
1776814970601939500,6.801939453125,-88.89443969726562,30.473037719726562,-78.25308227539062
1776814970612040400,6.81204052734375,-88.22615051269531,29.937393188476562,-78.10366821289062
1776814970622141700,6.8221416015625,-88.42448425292969,29.134384155273438,-78.4163818359375
1776814970632241400,6.832241455078125,-87.91604614257812,28.77288818359375,-78.46525573730469
1776814970642342700,6.8423427734375,-87.89227294921875,28.34967041015625,-78.6385498046875
1776814970652443400,6.852443359375,-87.50480651855469,27.884048461914062,-78.83282470703125
1776814970662546700,6.862546630859375,-87.13636779785156,27.644271850585938,-78.69760131835938
1776814970672649700,6.872649658203125,-86.93084716796875,27.239639282226562,-78.71842956542969
1776814970682750500,6.88275048828125,-86.85711669921875,26.899063110351562,-78.91954040527344
1776814970692852500,6.8928525390625,-86.70660400390625,26.72723388671875,-79.01394653320312
1776814970702954500,6.90295458984375,-86.36198425292969,26.559066772460938,-78.88694763183594
1776814970713056500,6.913056396484375,-86.29971313476562,26.419586181640625,-78.91572570800781
1776814970723158500,6.923158447265625,-86.19656372070312,25.943206787109375,-78.825439453125
1776814970733261600,6.933261474609375,-86.29708862304688,25.86785888671875,-79.04881286621094
1776814970743365600,6.94336572265625,-86.08946228027344,25.829742431640625,-78.95562744140625
1776814970753468400,6.953468505859375,-86.04490661621094,25.691864013671875,-78.87098693847656
1776814970763569700,6.963569580078125,-85.96539306640625,25.729995727539062,-78.9622802734375
1776814970773672700,6.973672607421875,-86.22000122070312,25.636672973632812,-79.16159057617188
1776814970783774700,6.983774658203125,-86.4609375,25.696624755859375,-79.02055358886719
1776814970793877500,6.99387744140625,-86.01898193359375,25.553237915039062,-78.96063232421875
1776814970803980500,7.00398046875,-86.13754272460938,25.909942626953125,-78.91377258300781
1776814970814082600,7.01408251953125,-86.29373168945312,25.767059326171875,-78.94676208496094
1776814970824185600,7.024185546875,-86.500732421875,26.092803955078125,-79.03254699707031
1776814970834288600,7.03428857421875,-86.49420166015625,26.163375854492188,-79.02586364746094
1776814970844391700,7.0443916015625,-86.50540161132812,26.590545654296875,-78.96458435058594
1776814970854492400,7.054492431640625,-86.34672546386719,26.657379150390625,-78.91465759277344
1776814970864594400,7.064594482421875,-86.58041381835938,27.154281616210938,-79.18705749511719
1776814970874696400,7.074696533203125,-86.71760559082031,27.285903930664062,-79.14442443847656
1776814970884799500,7.084799560546875,-87.02543640136719,27.610000610351562,-79.26637268066406
1776814970894902500,7.094902587890625,-86.41177368164062,28.209548950195312,-79.00614929199219
1776814970905006300,7.10500634765625,-86.61174011230469,28.55804443359375,-78.91560363769531
1776814970915108400,7.1151083984375,-86.88809204101562,29.036468505859375,-78.93687438964844
1776814970925212700,7.125212646484375,-87.07853698730469,29.470672607421875,-79.25935363769531
1776814970935316500,7.13531640625,-87.23896789550781,30.021347045898438,-79.39984130859375
1776814970945419500,7.14541943359375,-87.17628479003906,30.56951904296875,-79.15257263183594
1776814970955523600,7.155523681640625,-87.142578125,31.053146362304688,-79.12435913085938
1776814970965627400,7.16562744140625,-87.27116394042969,31.618011474609375,-79.36016845703125
1776814970975730400,7.17573046875,-87.4046630859375,31.8768310546875,-79.35421752929688
1776814970985834500,7.18583447265625,-87.96025085449219,32.677490234375,-79.64358520507812
1776814970995938600,7.1959384765625,-87.77738952636719,33.41154479980469,-79.41783142089844
1776814971006042400,7.20604248046875,-88.09640502929688,33.84468078613281,-79.58955383300781
1776814971016146400,7.216146484375,-87.63026428222656,34.38090515136719,-79.78337097167969
1776814971026248400,7.22624853515625,-88.249755859375,35.13301086425781,-79.71281433105469
1776814971036350500,7.2363505859375,-87.70404052734375,35.85675048828125,-79.61920166015625
1776814971046453500,7.24645361328125,-87.71636962890625,36.5496826171875,-79.80130004882812
1776814971056556500,7.256556640625,-87.99652099609375,37.165863037109375,-79.760986328125
1776814971066658600,7.266658447265625,-87.33941650390625,37.91267395019531,-79.67230224609375
1776814971076760600,7.276760498046875,-87.31285095214844,38.6558837890625,-79.74288940429688
1776814971086862600,7.286862548828125,-87.42303466796875,39.361480712890625,-79.65324401855469
1776814971096964600,7.296964599609375,-86.99224853515625,39.90257263183594,-79.74809265136719
1776814971107067600,7.307067626953125,-87.62220764160156,40.643707275390625,-79.80093383789062
1776814971117168400,7.31716845703125,-87.43795776367188,41.08366394042969,-79.78120422363281
1776814971127269600,7.32726953125,-87.05850219726562,41.938751220703125,-79.92655944824219
1776814971137372400,7.337372314453125,-86.96229553222656,42.25431823730469,-79.72123718261719
1776814971147474400,7.347474365234375,-86.81086730957031,42.90232849121094,-79.88204956054688
1776814971157576400,7.357576416015625,-86.65559387207031,43.279754638671875,-79.96919250488281
1776814971167679500,7.367679443359375,-86.65965270996094,43.841644287109375,-80.08787536621094
1776814971177781500,7.377781494140625,-86.5235595703125,44.43267822265625,-80.11604309082031
1776814971187884500,7.387884521484375,-86.14480590820312,45.13665771484375,-80.29776000976562
1776814971197986600,7.397986572265625,-85.67633056640625,45.68962097167969,-80.5931396484375
1776814971208088600,7.408088623046875,-85.28440856933594,46.15907287597656,-80.66825866699219
1776814971218190300,7.4181904296875,-85.362548828125,46.67832946777344,-80.75022888183594
1776814971228292400,7.428292236328125,-84.90476989746094,47.26438903808594,-80.92422485351562
1776814971238393600,7.4383935546875,-84.68994140625,47.605377197265625,-81.13725280761719
1776814971248495600,7.44849560546875,-84.31425476074219,48.155242919921875,-81.29447937011719
1776814971258598700,7.4585986328125,-84.2938232421875,48.60734558105469,-81.62908935546875
1776814971268701400,7.468701416015625,-83.57994079589844,48.99906921386719,-81.64364624023438
1776814971278804500,7.478804443359375,-83.43569946289062,49.49737548828125,-81.65158081054688
1776814971288906500,7.488906494140625,-82.88790893554688,49.845123291015625,-81.99514770507812
1776814971299007500,7.499007568359375,-82.356201171875,50.19972229003906,-82.19216918945312
1776814971309108500,7.5091083984375,-82.01051330566406,50.58158874511719,-82.33193969726562
1776814971319210500,7.51921044921875,-81.61585998535156,51.262908935546875,-82.55451965332031
1776814971329312500,7.5293125,-80.83815002441406,51.63020324707031,-82.58819580078125
1776814971339413500,7.53941357421875,-80.92045593261719,51.958282470703125,-83.05662536621094
1776814971349515500,7.549515625,-80.38529968261719,52.59663391113281,-83.1199951171875
1776814971359615500,7.559615478515625,-80.20820617675781,53.0147705078125,-83.18873596191406
1776814971369716500,7.569716552734375,-79.37028503417969,53.296844482421875,-83.27018737792969
1776814971379818500,7.579818603515625,-78.68597412109375,53.904449462890625,-83.41560363769531
1776814971389919500,7.58991943359375,-78.44802856445312,54.196868896484375,-83.56700134277344
1776814971400021500,7.600021484375,-78.13876342773438,54.821746826171875,-83.82586669921875
1776814971410123500,7.61012353515625,-77.12446594238281,55.256622314453125,-83.98127746582031
1776814971420225500,7.6202255859375,-76.88087463378906,55.63194274902344,-83.92776489257812
1776814971430327300,7.630327392578125,-76.40109252929688,56.02644348144531,-84.28999328613281
1776814971440431600,7.640431640625,-75.78097534179688,56.36222839355469,-84.41000366210938
1776814971450534700,7.65053466796875,-75.09272766113281,56.707061767578125,-84.60427856445312
1776814971460637700,7.6606376953125,-74.61140441894531,56.91542053222656,-84.64790344238281
1776814971470740500,7.670740478515625,-73.89389038085938,57.08985900878906,-84.7451171875
1776814971480842500,7.680842529296875,-73.39453125,57.38800048828125,-84.79670715332031
1776814971490945500,7.690945556640625,-72.80131530761719,57.596954345703125,-85.02726745605469
1776814971501048600,7.701048583984375,-72.18112182617188,58.09364318847656,-85.19610595703125
1776814971511150600,7.711150634765625,-71.41604614257812,58.227752685546875,-85.30490112304688
1776814971521253600,7.721253662109375,-71.13653564453125,58.7130126953125,-85.301025390625
1776814971531357400,7.731357421875,-70.89263916015625,58.6885986328125,-85.37110900878906
1776814971541460500,7.74146044921875,-70.49168395996094,58.87571716308594,-85.3753662109375
1776814971551563500,7.7515634765625,-69.97459411621094,58.82830810546875,-85.46224975585938
1776814971561666600,7.76166650390625,-69.42109680175781,59.01011657714844,-85.3663330078125
1776814971571769600,7.77176953125,-69.17488098144531,59.12660217285156,-85.49703979492188
1776814971581870600,7.78187060546875,-69.43948364257812,59.202545166015625,-85.52227783203125
1776814971591973600,7.7919736328125,-68.76808166503906,59.222259521484375,-85.50624084472656
1776814971602075600,7.80207568359375,-68.57920837402344,59.26203918457031,-85.4404296875
1776814971612177700,7.812177734375,-68.23793029785156,59.21588134765625,-85.19898986816406
1776814971622280400,7.822280517578125,-68.36456298828125,59.641876220703125,-85.5804443359375
1776814971632383200,7.83238330078125,-68.13381958007812,59.2530517578125,-85.549072265625
1776814971642485500,7.842485595703125,-67.74678039550781,59.28218078613281,-85.64874267578125
1776814971652588300,7.85258837890625,-67.60646057128906,59.34202575683594,-85.62553405761719
1776814971662690300,7.862690185546875,-67.84480285644531,59.48411560058594,-85.65296936035156
1776814971672792300,7.872792236328125,-67.47892761230469,59.5992431640625,-85.65034484863281
1776814971682895400,7.882895263671875,-67.67654418945312,59.350250244140625,-85.41734313964844
1776814971692997400,7.892997314453125,-67.30902099609375,59.63130187988281,-85.57197570800781
1776814971703100400,7.903100341796875,-67.34017944335938,59.632720947265625,-85.46760559082031
1776814971713202200,7.9132021484375,-67.36300659179688,59.657989501953125,-85.6512451171875
1776814971723304200,7.92330419921875,-67.37657165527344,59.62080383300781,-85.67868041992188
1776814971733406200,7.93340625,-66.83396911621094,59.66871643066406,-85.57951354980469
1776814971743507500,7.943507568359375,-67.22764587402344,59.57392883300781,-85.58755493164062
1776814971753608400,7.9536083984375,-67.11619567871094,59.58534240722656,-85.39601135253906
1776814971763711500,7.96371142578125,-67.04606628417969,59.69319152832031,-85.49588012695312
1776814971773813200,7.973813232421875,-66.83779907226562,59.70439147949219,-85.47860717773438
1776814971783914200,7.983914306640625,-67.00485229492188,59.86885070800781,-85.50518798828125
1776814971794017300,7.994017333984375,-66.84001159667969,59.90068054199219,-85.62513732910156
1776814971804118300,8.0041181640625,-66.98463439941406,59.694305419921875,-85.15052795410156
1776814971814219300,8.01421923828125,-67.44662475585938,59.834228515625,-85.53085327148438
1776814971824322600,8.024322509765625,-67.5943603515625,59.8134765625,-85.32035827636719
1776814971834425300,8.03442529296875,-67.13212585449219,59.94056701660156,-85.34141540527344
1776814971844527400,8.04452734375,-67.59867858886719,59.90931701660156,-85.335693359375
1776814971854630400,8.05463037109375,-67.35591125488281,60.0062255859375,-85.28744506835938
1776814971864732200,8.064732177734374,-67.53218078613281,59.811187744140625,-85.09600830078125
1776814971874834200,8.074834228515625,-67.43232727050781,60.0013427734375,-85.29501342773438
1776814971884937200,8.084937255859375,-67.56524658203125,59.78858947753906,-85.431396484375
1776814971895040300,8.095040283203126,-67.46238708496094,59.931427001953125,-85.28106689453125
1776814971905142300,8.105142333984375,-67.84246826171875,59.73039245605469,-85.45008850097656
1776814971915244300,8.115244384765624,-67.36077880859375,59.72210693359375,-85.29478454589844
1776814971925347300,8.125347412109376,-67.65507507324219,59.77467346191406,-85.17802429199219
1776814971935449300,8.135449462890625,-67.55607604980469,59.86985778808594,-85.3797607421875
1776814971945552400,8.145552490234374,-67.41316223144531,59.74226379394531,-85.03602600097656
1776814971955655400,8.155655517578126,-67.37272644042969,59.89378356933594,-85.21258544921875
1776814971965756400,8.16575634765625,-67.66061401367188,60.023712158203125,-85.40791320800781
1776814971975859500,8.175859375,-67.649658203125,60.031280517578125,-85.295654296875
1776814971985961500,8.18596142578125,-67.23828125,59.908721923828125,-85.26943969726562
1776814971996064500,8.196064453125,-67.16755676269531,59.95677185058594,-85.28500366210938
1776814972006166500,8.20616650390625,-67.43386840820312,59.95082092285156,-85.33685302734375
1776814972016269600,8.21626953125,-67.31227111816406,59.96699523925781,-85.28486633300781
1776814972026372400,8.226372314453124,-67.40272521972656,59.880645751953125,-85.46501159667969
1776814972036474400,8.236474365234375,-67.57598876953125,60.06842041015625,-85.30825805664062
1776814972046576400,8.246576416015625,-67.79806518554688,60.043609619140625,-85.22343444824219
1776814972056679200,8.25667919921875,-67.52362060546875,60.30104064941406,-85.1854248046875
1776814972066783500,8.266783447265626,-67.36653137207031,59.982086181640625,-85.20228576660156
1776814972076885500,8.276885498046875,-67.68263244628906,60.184417724609375,-85.37014770507812
1776814972086988500,8.286988525390624,-67.59593200683594,60.070526123046875,-85.21478271484375
1776814972097092400,8.29709228515625,-67.8734130859375,60.156829833984375,-85.24603271484375
1776814972107194400,8.3071943359375,-67.71597290039062,59.966705322265625,-85.19871520996094
1776814972117296400,8.31729638671875,-67.92018127441406,59.811492919921875,-85.14312744140625
1776814972127398100,8.327398193359375,-67.92298889160156,59.82244873046875,-85.10337829589844
1776814972137500200,8.337500244140625,-67.31129455566406,59.994598388671875,-84.88798522949219
1776814972147602400,8.3476025390625,-68.19204711914062,59.90571594238281,-85.13177490234375
1776814972157705200,8.357705322265625,-67.79783630371094,59.967498779296875,-85.10946655273438
1776814972167808300,8.367808349609374,-68.13456726074219,60.08796691894531,-85.11105346679688
1776814972177909200,8.3779091796875,-67.82290649414062,60.00518798828125,-85.01077270507812
1776814972188009200,8.38800927734375,-67.68119812011719,60.08314514160156,-84.93341064453125
1776814972198110500,8.3981103515625,-68.05805969238281,59.909027099609375,-85.058837890625
1776814972208211500,8.40821142578125,-67.84841918945312,60.05464172363281,-85.01359558105469
1776814972218312200,8.418312255859375,-67.5924072265625,59.94071960449219,-84.95454406738281
1776814972228413400,8.428413330078126,-67.36131286621094,59.880706787109375,-84.90969848632812
1776814972238515500,8.438515380859375,-67.69036865234375,59.97966003417969,-85.04367065429688
1776814972248616400,8.448616455078126,-67.50387573242188,59.96492004394531,-84.91944885253906
1776814972258717200,8.45871728515625,-67.64939880371094,60.07952880859375,-85.12516784667969
1776814972268818400,8.468818359375,-67.61515808105469,60.004669189453125,-85.07289123535156
1776814972278920400,8.47892041015625,-67.59774780273438,60.17854309082031,-84.9747314453125
1776814972289021200,8.489021240234376,-67.62962341308594,59.989288330078125,-85.08108520507812
1776814972299123200,8.499123291015625,-67.67146301269531,60.085235595703125,-85.21737670898438
1776814972309225200,8.50922509765625,-67.53639221191406,60.01214599609375,-85.04563903808594
1776814972319328300,8.519328369140625,-67.44277954101562,60.06095886230469,-85.06968688964844
1776814972329431300,8.529431396484375,-67.00303649902344,60.205413818359375,-84.82899475097656
1776814972339534300,8.539534423828124,-67.07572937011719,60.18353271484375,-85.11231994628906
1776814972349636400,8.54963623046875,-67.50656127929688,60.160797119140625,-85.12550354003906
1776814972359740200,8.559740234375,-67.32330322265625,60.08357238769531,-85.18287658691406
1776814972369843200,8.56984326171875,-67.49595642089844,60.03474426269531,-85.05902099609375
1776814972379947500,8.579947509765624,-67.08865356445312,59.958282470703125,-85.01008605957031
1776814972390050300,8.59005029296875,-67.29891967773438,59.86299133300781,-85.08023071289062
1776814972400154400,8.600154296875,-67.35272216796875,59.884796142578125,-85.09281921386719
1776814972410257400,8.61025732421875,-67.220703125,60.004241943359375,-85.07157897949219
1776814972420359400,8.620359375,-66.81773376464844,60.08576965332031,-85.00869750976562
1776814972430461400,8.63046142578125,-67.25279235839844,60.02949523925781,-85.20294189453125
1776814972440563500,8.6405634765625,-67.1531982421875,60.100982666015625,-85.23651123046875
1776814972450666500,8.65066650390625,-67.46731567382812,59.94578552246094,-85.19404602050781
1776814972460770300,8.660770263671875,-67.40939331054688,59.9683837890625,-85.12442016601562
1776814972470875100,8.670875244140625,-66.87831115722656,60.10490417480469,-85.02452087402344
1776814972480978200,8.680978271484374,-67.12130737304688,59.988555908203125,-85.1829833984375
1776814972491081200,8.691081298828125,-67.02212524414062,59.92778015136719,-85.08409118652344
1776814972501184500,8.7011845703125,-67.08149719238281,59.98213195800781,-85.07600402832031
1776814972511287600,8.71128759765625,-66.71611022949219,60.116912841796875,-85.03535461425781
1776814972521389300,8.721389404296875,-67.12020874023438,60.03712463378906,-84.94789123535156
1776814972531492400,8.731492431640625,-67.29804992675781,60.237060546875,-85.1336669921875
1776814972541594400,8.741594482421876,-67.26698303222656,60.12187194824219,-85.11961364746094
1776814972551696400,8.7516962890625,-67.57916259765625,60.02239990234375,-85.12420654296875
1776814972561798400,8.76179833984375,-67.46662902832031,60.072509765625,-85.21682739257812
1776814972571901400,8.7719013671875,-67.2989501953125,60.18150329589844,-85.22151184082031
1776814972582004200,8.782004150390625,-67.29498291015625,59.960296630859375,-85.17707824707031
1776814972592107300,8.792107177734374,-67.24636840820312,60.13465881347656,-85.18948364257812
1776814972602209300,8.802209228515625,-67.58995056152344,60.182098388671875,-85.3427734375
1776814972612311300,8.812311279296875,-66.95753479003906,59.86116027832031,-84.95320129394531
1776814972622414800,8.822414794921874,-67.49208068847656,59.83209228515625,-85.14468383789062
1776814972632516900,8.832516845703125,-67.30549621582031,59.76707458496094,-85.08047485351562
1776814972642621000,8.842620849609375,-67.59107971191406,60.13111877441406,-85.11917114257812
1776814972652723700,8.8527236328125,-67.56668090820312,60.04713439941406,-85.01481628417969
1776814972662826800,8.86282666015625,-67.64216613769531,60.07121276855469,-84.90126037597656
1776814972672928800,8.8729287109375,-67.67916870117188,59.97648620605469,-85.10902404785156
1776814972683030800,8.88303076171875,-67.59233093261719,60.01971435546875,-85.00665283203125
1776814972693133800,8.8931337890625,-67.58395385742188,59.945953369140625,-84.8046875
1776814972703235800,8.90323583984375,-67.77838134765625,59.781402587890625,-84.93693542480469
1776814972713339000,8.9133388671875,-67.66055297851562,60.07185363769531,-84.94857788085938
1776814972723441000,8.92344091796875,-68.30699157714844,59.94453430175781,-84.89907836914062
1776814972733541600,8.933541748046874,-68.12921142578125,59.79927062988281,-84.97416687011719
1776814972743644700,8.943644775390625,-68.30032348632812,59.474456787109375,-84.9114990234375
1776814972753748700,8.953748779296875,-68.29737854003906,59.72038269042969,-84.94468688964844
1776814972763850800,8.963850830078124,-68.3154296875,59.96159362792969,-84.87782287597656
1776814972773952800,8.973952880859375,-68.73965454101562,59.6949462890625,-84.88446044921875
1776814972784054800,8.9840546875,-68.57778930664062,59.51896667480469,-84.8076171875
1776814972794156800,8.99415673828125,-68.73857116699219,59.981964111328125,-84.88325500488281
1776814972804258800,9.0042587890625,-68.80694580078125,59.667938232421875,-84.58283996582031
1776814972814359600,9.014359619140626,-69.02787780761719,59.681549072265625,-84.74943542480469
1776814972824460800,9.024460693359375,-69.1275634765625,59.815155029296875,-84.72810363769531
1776814972834563800,9.034563720703124,-69.15054321289062,59.572784423828125,-84.53884887695312
1776814972844666600,9.04466650390625,-69.62841796875,59.48689270019531,-84.47819519042969
1776814972854769700,9.054769775390625,-69.49224853515625,59.5670166015625,-84.39096069335938
1776814972864872700,9.064872802734374,-69.67762756347656,59.43571472167969,-84.52749633789062
1776814972874974700,9.074974609375,-70.21708679199219,59.49525451660156,-84.51283264160156
1776814972885078800,9.085078857421875,-70.87931823730469,59.26579284667969,-84.45439147949219
1776814972895182800,9.095182861328125,-70.75198364257812,59.308685302734375,-84.53443908691406
1776814972905287000,9.105286865234374,-71.04205322265625,59.06793212890625,-84.43869018554688
1776814972915389000,9.115388916015625,-71.50921630859375,58.779205322265625,-84.4102783203125
1776814972925491000,9.125490966796875,-71.76856994628906,58.83842468261719,-84.40122985839844
1776814972935594800,9.1355947265625,-71.87039184570312,58.81306457519531,-84.30015563964844
1776814972945697800,9.14569775390625,-72.16633605957031,58.57568359375,-84.13917541503906
1776814972955800800,9.15580078125,-72.78382873535156,58.324676513671875,-84.24490356445312
1776814972965904000,9.16590380859375,-73.15638732910156,58.37745666503906,-84.34207153320312
1776814972976006000,9.176005859375,-73.38252258300781,58.049224853515625,-84.2965087890625
1776814972986108000,9.18610791015625,-73.68331909179688,57.96092224121094,-84.13662719726562
1776814972996208600,9.196208740234376,-73.61288452148438,57.83168029785156,-84.02597045898438
1776814973006309600,9.2063095703125,-74.000244140625,57.23762512207031,-84.17501831054688
1776814973016411000,9.216410888671875,-74.84686279296875,57.062347412109375,-84.07600402832031
1776814973026511600,9.22651171875,-74.99880981445312,56.56242370605469,-84.24557495117188
1776814973036614700,9.23661474609375,-75.53239440917969,56.46458435058594,-84.40838623046875
1776814973046715600,9.246715576171875,-75.54473876953125,56.13569641113281,-84.28433227539062
1776814973056817700,9.256817626953126,-75.93405151367188,55.94053649902344,-84.53421020507812
1776814973066919000,9.2669189453125,-76.33831787109375,55.191314697265625,-84.50949096679688
1776814973077022000,9.27702197265625,-76.060791015625,54.8502197265625,-84.53677368164062
1776814973087124700,9.287124755859375,-76.60469055175781,54.778289794921875,-84.525634765625
1776814973097226800,9.297226806640625,-77.16096496582031,54.60133361816406,-84.47434997558594
1776814973107329800,9.307329833984374,-77.35498046875,54.28581237792969,-84.36665344238281
1776814973117432800,9.317432861328125,-77.82516479492188,54.138153076171875,-84.22813415527344
1776814973127534800,9.327534912109375,-78.37773132324219,53.896697998046875,-83.89544677734375
1776814973137636600,9.33763671875,-78.36918640136719,53.849090576171875,-83.78981018066406
1776814973147740000,9.347739990234375,-78.9774169921875,53.41729736328125,-83.79045104980469
1776814973157843000,9.357843017578125,-79.24992370605469,53.25611877441406,-83.69973754882812
1776814973167946000,9.367946044921876,-79.65873718261719,53.19561767578125,-83.60760498046875
1776814973178049800,9.3780498046875,-79.79637145996094,52.78480529785156,-83.12355041503906
1776814973188154600,9.388154541015625,-80.27000427246094,52.54093933105469,-82.94583129882812
1776814973198257700,9.398257568359375,-80.94596862792969,52.390380859375,-82.96199035644531
1776814973208360700,9.408360595703124,-81.17593383789062,52.142333984375,-82.62733459472656
1776814973218462700,9.418462646484375,-81.40484619140625,52.07084655761719,-82.47813415527344
1776814973228565800,9.428565673828125,-81.94573974609375,51.46771240234375,-82.13107299804688
1776814973238669800,9.438669921875,-82.41474914550781,51.215240478515625,-81.96218872070312
1776814973248774700,9.448774658203124,-82.73171997070312,50.87147521972656,-81.720947265625
1776814973258878700,9.458878662109376,-83.32905578613281,50.49537658691406,-81.43902587890625
1776814973268982800,9.468982666015625,-83.43389892578125,50.22981262207031,-81.27816772460938
1776814973279086800,9.4790869140625,-83.90690612792969,49.651519775390625,-81.03746032714844
1776814973289190000,9.48918994140625,-84.18173217773438,49.30647277832031,-81.02919006347656
1776814973299293000,9.49929296875,-84.45639038085938,48.75440979003906,-80.92393493652344
1776814973309395700,9.509395751953125,-84.5916748046875,48.371246337890625,-80.67231750488281
1776814973319497700,9.519497802734374,-85.27215576171875,47.90580749511719,-80.66835021972656
1776814973329599700,9.529599853515625,-85.26307678222656,47.301605224609375,-80.32003784179688
1776814973339702800,9.539702880859375,-85.86589050292969,46.85443115234375,-80.62261962890625
1776814973349806800,9.549806884765625,-85.92259216308594,46.32960510253906,-80.51533508300781
1776814973359910000,9.559909912109376,-86.29032897949219,45.79408264160156,-80.610107421875
1776814973370012700,9.5700126953125,-86.262939453125,45.124298095703125,-80.38343811035156
1776814973380116700,9.58011669921875,-86.49018859863281,44.62236022949219,-80.27655029296875
1776814973390218800,9.59021875,-86.67539978027344,44.0804443359375,-80.34059143066406
1776814973400322600,9.600322509765626,-87.10308837890625,43.7144775390625,-80.22183227539062
1776814973410424800,9.6104248046875,-87.38069152832031,43.16011047363281,-80.19879150390625
1776814973420528600,9.620528564453124,-87.61502075195312,42.675079345703125,-80.05220031738281
1776814973430632000,9.6306318359375,-87.93978881835938,41.9638671875,-80.05412292480469
1776814973440735700,9.64073583984375,-87.8115234375,41.520843505859375,-80.00424194335938
1776814973450837800,9.650837646484375,-87.92152404785156,40.922332763671875,-79.91621398925781
1776814973460941800,9.66094189453125,-88.20208740234375,40.41455078125,-79.85443115234375
1776814973471044900,9.671044921875,-88.13937377929688,39.93919372558594,-79.78860473632812
1776814973481147000,9.68114697265625,-87.88249206542969,39.04618835449219,-79.59695434570312
1776814973491249000,9.691248779296876,-88.22703552246094,38.40306091308594,-79.86390686035156
1776814973501351000,9.701350830078125,-88.26429748535156,37.82569885253906,-79.62315368652344
1776814973511454000,9.711453857421875,-88.18562316894531,37.06135559082031,-79.63983154296875
1776814973521555700,9.7215556640625,-87.82266235351562,36.64051818847656,-79.29389953613281
1776814973531657700,9.73165771484375,-88.44386291503906,35.697662353515625,-79.44718933105469
1776814973541760800,9.7417607421875,-88.30570983886719,35.29335021972656,-79.329345703125
1776814973551862800,9.75186279296875,-88.59271240234375,34.522491455078125,-79.16004943847656
1776814973561964800,9.76196484375,-88.30941772460938,33.84184265136719,-79.2208251953125
1776814973572065800,9.772065673828125,-88.020263671875,33.07325744628906,-78.95335388183594
1776814973582167800,9.782167724609375,-88.21000671386719,32.29693603515625,-79.06427001953125
1776814973592269600,9.79226953125,-88.33523559570312,31.652389526367188,-79.04942321777344
1776814973602371600,9.80237158203125,-87.97421264648438,30.953781127929688,-78.81626892089844
1776814973612476000,9.812475830078125,-87.80555725097656,30.4315185546875,-78.933837890625
1776814973622577000,9.822576904296875,-87.7127685546875,30.0262451171875,-78.86123657226562
1776814973632680000,9.832679931640625,-87.44305419921875,29.172882080078125,-78.33428955078125
1776814973642782000,9.842781982421876,-87.72340393066406,28.613479614257812,-78.55511474609375
1776814973652884000,9.852884033203125,-87.40574645996094,28.042617797851562,-78.47749328613281
1776814973662987000,9.862987060546875,-87.3326416015625,27.475997924804688,-78.19044494628906
1776814973673090000,9.873090087890626,-87.04637145996094,27.122467041015625,-78.11106872558594
1776814973683193000,9.883193115234375,-87.01054382324219,26.49737548828125,-78.46554565429688
1776814973693297000,9.893296875,-86.96299743652344,26.177276611328125,-78.33314514160156
1776814973703399000,9.90339892578125,-86.77401733398438,25.6475830078125,-78.38821411132812
1776814973713502000,9.913501953125,-86.17013549804688,25.087982177734375,-78.03598022460938
1776814973723605000,9.92360498046875,-86.28169250488281,24.88336181640625,-78.13064575195312
1776814973733708000,9.9337080078125,-86.22026062011719,24.283279418945312,-78.17237854003906
1776814973743810000,9.94381005859375,-86.09895324707031,23.773056030273438,-78.25527954101562
1776814973753912000,9.953912109375,-86.11029052734375,23.734954833984375,-78.34870910644531
1776814973764014000,9.96401416015625,-85.61689758300781,23.253097534179688,-78.18064880371094
1776814973774115800,9.97411572265625,-85.80038452148438,22.800704956054688,-78.1756591796875
1776814973784216800,9.984216796875,-85.50155639648438,22.598114013671875,-78.20890808105469
1776814973794320000,9.99431982421875,-85.75506591796875,22.458480834960938,-78.32298278808594
1776814973804422000,10.004421875,-85.53701782226562,22.255569458007812,-78.22048950195312
1776814973814524000,10.01452392578125,-85.02720642089844,22.130081176757812,-77.95370483398438
1776814973824627000,10.024626953125,-85.08049011230469,21.7718505859375,-77.88885498046875
1776814973834730000,10.03472998046875,-84.86236572265625,21.69476318359375,-77.97085571289062
1776814973844833000,10.0448330078125,-85.229248046875,21.468460083007812,-78.10870361328125
1776814973854936800,10.054936767578125,-84.84233093261719,21.317520141601562,-77.86322021484375
1776814973865038800,10.065038818359374,-84.80476379394531,21.159271240234375,-77.79476928710938
1776814973875142000,10.075141845703126,-84.7283935546875,20.861663818359375,-77.98406982421875
1776814973885244000,10.085243896484375,-84.85708618164062,20.607070922851562,-78.03993225097656
1776814973895347700,10.09534765625,-84.50267028808594,20.517623901367188,-77.98765563964844
1776814973905450800,10.10545068359375,-84.52853393554688,20.5416259765625,-77.92373657226562
1776814973915552800,10.115552734375,-84.86549377441406,20.655426025390625,-78.17845153808594
1776814973925655800,10.12565576171875,-84.59779357910156,20.719757080078125,-78.12507629394531
1776814973935758800,10.1357587890625,-84.73808288574219,20.461181640625,-78.24467468261719
1776814973945862000,10.14586181640625,-84.44630432128906,20.415206909179688,-78.01066589355469
1776814973955965000,10.15596484375,-84.59625244140625,20.584320068359375,-78.09307861328125
1776814973966067700,10.166067626953126,-84.48341369628906,20.3851318359375,-78.07530212402344
1776814973976169700,10.176169677734375,-84.56814575195312,20.64599609375,-78.10820007324219
1776814973986272800,10.186272705078125,-84.48590087890625,20.44482421875,-77.87739562988281
1776814973996375800,10.196375732421876,-84.79743957519531,20.801971435546875,-77.92601013183594
1776814974006476800,10.206476806640625,-84.67893981933594,20.858795166015625,-77.98634338378906
1776814974016578800,10.216578857421876,-84.74008178710938,21.00775146484375,-78.11044311523438
1776814974026680800,10.226680908203125,-84.567626953125,20.903549194335938,-78.15130615234375
1776814974036783000,10.236783203125,-84.89382934570312,21.127212524414062,-78.2071533203125
1776814974046884900,10.246884765625,-84.65585327148438,21.401458740234375,-77.96357727050781
1776814974056985900,10.25698583984375,-84.95396423339844,21.683975219726562,-78.1607666015625
1776814974067088000,10.267087890625,-84.81314086914062,21.7939453125,-78.24046325683594
1776814974077188900,10.27718896484375,-84.82077026367188,21.930679321289062,-78.18565368652344
1776814974087291000,10.287290771484376,-85.22917175292969,22.270645141601562,-78.37567138671875
1776814974097393000,10.297392822265625,-85.13725280761719,22.510787963867188,-78.27761840820312
1776814974107495000,10.307494873046876,-85.20574951171875,22.855392456054688,-78.57371520996094
1776814974117596000,10.317595947265625,-85.40484619140625,23.018844604492188,-78.48530578613281
1776814974127698000,10.327697998046874,-85.38002014160156,23.374557495117188,-78.46334838867188
1776814974137800000,10.337800048828125,-85.8255615234375,23.701568603515625,-78.4619140625
1776814974147902000,10.34790185546875,-85.75016784667969,24.053924560546875,-78.54122924804688
1776814974158006000,10.358006103515624,-85.61073303222656,24.310348510742188,-78.68702697753906
1776814974168108000,10.36810791015625,-85.927978515625,24.793716430664062,-79.02984619140625
1776814974178211000,10.378211181640625,-86.10237121582031,24.913360595703125,-78.974853515625
1776814974188313900,10.38831396484375,-85.60615539550781,25.29840087890625,-78.76971435546875
1776814974198416000,10.398415771484375,-86.32853698730469,25.83880615234375,-79.13648986816406
1776814974208518000,10.408517822265624,-86.2490234375,26.438507080078125,-79.11888122558594
1776814974218620700,10.41862060546875,-86.40322875976562,26.98370361328125,-79.209716796875
1776814974228722000,10.428721923828125,-86.76937866210938,27.281845092773438,-79.29071044921875
1776814974238824000,10.438823974609376,-86.67015075683594,27.76251220703125,-79.35649108886719
1776814974248926000,10.448926025390625,-86.95343017578125,28.230316162109375,-79.269775390625
1776814974259028000,10.459028076171874,-87.17074584960938,28.716842651367188,-79.54917907714844
1776814974269128700,10.469128662109375,-87.3570556640625,28.954025268554688,-79.61068725585938
1776814974279230700,10.479230712890624,-87.2100830078125,29.493240356445312,-79.52165222167969
1776814974289332000,10.48933203125,-87.05210876464844,30.385757446289062,-79.29806518554688
1776814974299434000,10.49943408203125,-87.07591247558594,31.01849365234375,-79.45964050292969
1776814974309534700,10.50953466796875,-87.03567504882812,31.292724609375,-79.47853088378906
1776814974319636700,10.51963671875,-87.44473266601562,32.0787353515625,-79.69410705566406
1776814974329738800,10.52973876953125,-87.63204956054688,32.86553955078125,-79.63960266113281
1776814974339840800,10.5398408203125,-87.65878295898438,33.27583312988281,-79.5848388671875
1776814974349943800,10.54994384765625,-87.45050048828125,33.69775390625,-79.59756469726562
1776814974360045000,10.560045166015625,-87.86529541015625,34.38133239746094,-79.77243041992188
1776814974370145800,10.570145751953126,-87.55079650878906,35.01837158203125,-79.72465515136719
1776814974380246800,10.580246826171875,-87.54916381835938,35.64741516113281,-79.55693054199219
1776814974390348800,10.590348876953126,-87.56657409667969,36.36061096191406,-79.94087219238281
1776814974400451000,10.600451171875,-87.75253295898438,37.051361083984375,-79.70709228515625
1776814974410551800,10.6105517578125,-87.76544189453125,37.437255859375,-79.91343688964844
1776814974420653800,10.62065380859375,-87.64622497558594,37.9227294921875,-79.72972106933594
1776814974430755800,10.630755859375,-87.21430969238281,38.67323303222656,-79.5714111328125
1776814974440856800,10.64085693359375,-87.27748107910156,39.34098815917969,-79.70489501953125
1776814974450957800,10.650957763671874,-87.77670288085938,39.534332275390625,-79.83009338378906
1776814974461059800,10.661059814453125,-87.11427307128906,40.185821533203125,-79.80210876464844
1776814974471160800,10.671160888671874,-87.11749267578125,40.61344909667969,-79.67660522460938
1776814974481262800,10.681262939453125,-87.15483093261719,41.52659606933594,-79.83058166503906
1776814974491366000,10.691365966796875,-87.17835998535156,41.910552978515625,-79.99295043945312
1776814974501468000,10.701468017578126,-86.87657165527344,42.614715576171875,-80.04603576660156
1776814974511570000,10.71156982421875,-86.56501770019531,42.89833068847656,-79.88511657714844
1776814974521672000,10.721671875,-86.36189270019531,43.47703552246094,-80.03721618652344
1776814974531776000,10.73177587890625,-86.82449340820312,44.05921936035156,-80.17268371582031
1776814974541878000,10.7418779296875,-86.35150146484375,44.411041259765625,-80.14909362792969
1776814974551981800,10.75198193359375,-86.06753540039062,44.81098937988281,-80.36268615722656
1776814974562084900,10.7620849609375,-86.02552795410156,45.329193115234375,-80.46119689941406
1776814974572187000,10.772186767578125,-85.13801574707031,45.9027099609375,-80.32516479492188
1776814974582288000,10.782287841796874,-85.53407287597656,46.35499572753906,-80.70942687988281
1776814974592388900,10.792388916015625,-85.33219909667969,46.8515625,-80.74296569824219
1776814974602489900,10.80248974609375,-85.00102233886719,46.91966247558594,-80.80271911621094
1776814974612590800,10.8125908203125,-84.67410278320312,47.55165100097656,-80.98245239257812
1776814974622690300,10.822690185546875,-84.22111511230469,48.08119201660156,-81.00863647460938
1776814974632793000,10.83279296875,-84.01545715332031,48.55157470703125,-81.28062438964844
1776814974642896100,10.842896240234374,-83.96417236328125,48.84674072265625,-81.49851989746094
1776814974652998100,10.852998046875,-83.53669738769531,49.162139892578125,-81.83985900878906
1776814974663100200,10.86310009765625,-83.07887268066406,49.45550537109375,-81.71171569824219
1776814974673201400,10.873201416015625,-82.77413940429688,49.80523681640625,-82.08772277832031
1776814974683303400,10.883303466796875,-82.4847412109375,50.196807861328125,-82.13438415527344
1776814974693406500,10.893406494140624,-82.19937133789062,50.63883972167969,-82.45480346679688
1776814974703507200,10.903507080078125,-81.767822265625,50.991546630859375,-82.69888305664062
1776814974713609200,10.913609130859374,-81.11297607421875,51.37522888183594,-82.74775695800781
1776814974723711200,10.923711181640625,-81.03517150878906,51.75108337402344,-83.0386962890625
1776814974733814300,10.933814208984375,-80.4588623046875,52.02619934082031,-83.29478454589844
1776814974743916300,10.943916259765626,-80.11613464355469,52.369140625,-83.24659729003906
1776814974754018300,10.954018310546875,-79.37384033203125,52.68348693847656,-83.35588073730469
1776814974764120300,10.964120361328124,-79.24024963378906,53.0435791015625,-83.4635009765625
1776814974774224400,10.974224365234376,-78.61212158203125,53.538177490234375,-83.61871337890625
1776814974784325400,10.984325439453125,-78.28857421875,54.08335876464844,-83.75798034667969
1776814974794425300,10.99442529296875,-77.83963012695312,54.45030212402344,-83.96005249023438
1776814974804526300,11.0045263671875,-77.07264709472656,55.062591552734375,-83.93797302246094
1776814974814627000,11.014626953125,-76.62803649902344,55.39910888671875,-84.03114318847656
1776814974824729000,11.02472900390625,-76.03514099121094,55.75465393066406,-84.06463623046875
1776814974834830300,11.034830322265625,-75.36868286132812,55.91206359863281,-84.10415649414062
1776814974844932400,11.044932373046874,-75.10569763183594,56.50447082519531,-84.20085144042969
1776814974855034400,11.055034423828126,-74.63798522949219,56.820556640625,-84.2471923828125
1776814974865137400,11.065137451171875,-74.26005554199219,57.01554870605469,-84.34396362304688
1776814974875239400,11.075239501953124,-73.69252014160156,57.62678527832031,-84.6268310546875
1776814974885342500,11.085342529296875,-72.95709228515625,57.77281188964844,-84.57327270507812
1776814974895443200,11.095443115234374,-72.821533203125,57.815399169921875,-84.52394104003906
1776814974905544200,11.105544189453125,-71.98770141601562,58.31256103515625,-84.59425354003906
1776814974915646200,11.115646240234375,-71.62020874023438,58.53662109375,-84.69664001464844
1776814974925747200,11.125747314453125,-71.18885803222656,58.5299072265625,-84.74667358398438
1776814974935850500,11.1358505859375,-70.55918884277344,58.91868591308594,-84.86231994628906
1776814974945953300,11.145953369140624,-70.04161071777344,59.09344482421875,-84.98066711425781
1776814974956056300,11.156056396484376,-69.46183776855469,59.17626953125,-84.98567199707031
1776814974966159400,11.166159423828125,-69.18785095214844,59.223968505859375,-85.16744995117188
1776814974976262400,11.176262451171874,-68.650634765625,59.39656066894531,-85.12773132324219
1776814974986365400,11.186365478515626,-68.42704772949219,59.35296630859375,-85.04542541503906
1776814974996468200,11.19646826171875,-67.92608642578125,59.65074157714844,-85.20664978027344
1776814975006570200,11.2065703125,-68.09854125976562,59.67924499511719,-85.34336853027344
1776814975016673300,11.21667333984375,-67.31585693359375,59.57804870605469,-85.216552734375
1776814975026777300,11.22677734375,-67.27577209472656,59.8975830078125,-85.24037170410156
1776814975036880100,11.236880126953125,-67.08619689941406,59.95062255859375,-85.26783752441406
1776814975046981400,11.2469814453125,-66.4244384765625,60.388214111328125,-85.1669921875
1776814975057083400,11.25708349609375,-66.18742370605469,60.12617492675781,-85.37269592285156
1776814975067185200,11.26718505859375,-66.03085327148438,60.25389099121094,-85.17732238769531
1776814975077286100,11.2772861328125,-65.69764709472656,60.37176513671875,-85.19554138183594
1776814975087387400,11.287387451171876,-65.67814636230469,60.49224853515625,-85.18742370605469
1776814975097489400,11.297489501953125,-65.23063659667969,60.89476013183594,-85.13966369628906
1776814975107591200,11.307591064453124,-65.53067016601562,60.60650634765625,-85.02877807617188
1776814975117694500,11.317694580078125,-65.35147094726562,60.71235656738281,-85.19905090332031
1776814975127796200,11.327796142578125,-65.53205871582031,60.71855163574219,-85.18698120117188
1776814975137897200,11.337897216796875,-65.32215881347656,60.74090576171875,-85.21585083007812
1776814975147999200,11.347999267578125,-65.36912536621094,60.76222229003906,-85.23258972167969
1776814975158100500,11.3581005859375,-65.63116455078125,60.65985107421875,-85.38533020019531
1776814975168202200,11.3682021484375,-66.33346557617188,60.44093322753906,-85.15946960449219
1776814975178304300,11.37830419921875,-66.92431640625,60.51502990722656,-85.0599365234375
1776814975188405200,11.3884052734375,-66.80950927734375,60.36924743652344,-84.8037109375
1776814975198506200,11.39850634765625,-67.6507568359375,60.27186584472656,-84.97491455078125
1776814975208607200,11.408607177734375,-67.65937805175781,60.34379577636719,-84.8499755859375
1776814975218708200,11.418708251953126,-67.55361938476562,60.25813293457031,-84.76922607421875
1776814975228810200,11.428810302734375,-68.01406860351562,60.299957275390625,-84.6240234375
1776814975238911200,11.4389111328125,-67.70594787597656,60.465789794921875,-84.29740905761719
1776814975249014300,11.44901416015625,-68.26509094238281,60.311187744140625,-84.49301147460938
1776814975259116300,11.4591162109375,-67.91316223144531,60.5367431640625,-84.63020324707031
1776814975269218300,11.46921826171875,-68.07525634765625,60.60992431640625,-84.46507263183594
1776814975279321000,11.479321044921875,-67.84422302246094,60.84596252441406,-84.53768920898438
1776814975289423000,11.489423095703126,-67.93888854980469,60.640533447265625,-84.55027770996094
1776814975299526100,11.499526123046875,-67.8302001953125,60.58421325683594,-84.3944091796875
1776814975309629200,11.509629150390625,-67.89912414550781,60.52537536621094,-84.46159362792969
1776814975319730200,11.519730224609376,-67.60446166992188,60.351318359375,-84.47032165527344
1776814975329832200,11.529832275390625,-67.88948059082031,60.63145446777344,-84.64285278320312
1776814975339935200,11.539935302734374,-67.77638244628906,60.67655944824219,-84.6739501953125
1776814975350037200,11.550037353515625,-67.70155334472656,60.69725036621094,-84.68814086914062
1776814975360138200,11.56013818359375,-67.5068359375,60.66545104980469,-84.76606750488281
1776814975370239200,11.5702392578125,-67.84243774414062,60.71697998046875,-84.62434387207031
1776814975380339500,11.58033935546875,-67.75,60.60557556152344,-84.65025329589844
1776814975390441200,11.590441162109375,-67.34376525878906,60.56932067871094,-84.81671142578125
1776814975400543200,11.600543212890624,-67.89407348632812,60.5965576171875,-84.78129577636719
1776814975410644200,11.610644287109375,-67.83322143554688,60.639190673828125,-84.7489013671875
1776814975420745500,11.620745361328124,-67.433837890625,60.54258728027344,-84.66195678710938
1776814975430846200,11.63084619140625,-67.46441650390625,60.78431701660156,-84.48977661132812
1776814975440947200,11.640947265625,-67.64027404785156,60.60369873046875,-84.77104187011719
1776814975451049200,11.65104931640625,-67.54037475585938,60.661651611328125,-84.735107421875
1776814975461151500,11.6611513671875,-67.29917907714844,60.743896484375,-84.79292297363281
1776814975471252200,11.671252197265625,-67.33357238769531,60.74961853027344,-84.874755859375
1776814975481352400,11.6813525390625,-67.42266845703125,60.68511962890625,-84.71127319335938
1776814975491453200,11.691453125,-67.34146118164062,60.67201232910156,-84.86143493652344
1776814975501556200,11.70155615234375,-68.07177734375,60.61137390136719,-84.68675231933594
1776814975511658200,11.711658203125,-67.71035766601562,60.79338073730469,-84.88987731933594
1776814975521760300,11.72176025390625,-67.87716674804688,60.53416442871094,-84.59323120117188
1776814975531862300,11.7318623046875,-67.89633178710938,60.612884521484375,-84.78363037109375
1776814975541964300,11.74196435546875,-67.76622009277344,60.44276428222656,-84.63490295410156
1776814975552067300,11.7520673828125,-67.52850341796875,60.836669921875,-84.70974731445312
1776814975562170400,11.76217041015625,-68.01109313964844,60.69081115722656,-84.51029968261719
1776814975572273200,11.772273193359375,-67.63905334472656,60.82505798339844,-84.35055541992188
1776814975582377200,11.782377197265625,-67.76300048828125,60.57011413574219,-84.56571960449219
1776814975592479200,11.792479248046876,-67.838623046875,60.58831787109375,-84.58041381835938
1776814975602582300,11.802582275390625,-67.66758728027344,60.440460205078125,-84.51364135742188
1776814975612684300,11.812684326171874,-68.17633056640625,60.54730224609375,-84.83670043945312
1776814975622787800,11.822787841796876,-67.85989379882812,60.66249084472656,-84.56059265136719
1776814975632889900,11.832889892578125,-67.87936401367188,60.467193603515625,-84.68130493164062
1776814975642991900,11.842991943359374,-68.02323913574219,60.47857666015625,-84.65670776367188
1776814975653094000,11.853093994140625,-68.145263671875,60.52009582519531,-84.735595703125
1776814975663197700,11.86319775390625,-67.85307312011719,60.36492919921875,-84.42657470703125
1776814975673300700,11.87330078125,-67.84182739257812,60.362548828125,-84.57862854003906
1776814975683404000,11.883404052734376,-68.25631713867188,60.624267578125,-84.62216186523438
1776814975693507800,11.8935078125,-68.4803466796875,60.651458740234375,-84.64295959472656
1776814975703611000,11.90361083984375,-68.28646850585938,60.57716369628906,-84.50459289550781
1776814975713714000,11.9137138671875,-68.38410949707031,60.527496337890625,-84.53213500976562
1776814975723816000,11.92381591796875,-68.19499206542969,60.533905029296875,-84.623291015625
1776814975733919700,11.933919677734375,-68.08964538574219,60.768951416015625,-84.6187744140625
1776814975744022000,11.94402197265625,-68.18875122070312,60.56904602050781,-84.68167114257812
1776814975754125800,11.954125732421875,-68.33364868164062,60.53248596191406,-84.70742797851562
1776814975764227800,11.964227783203125,-68.06805419921875,60.64295959472656,-84.39715576171875
1776814975774328800,11.974328857421876,-67.969482421875,60.64280700683594,-84.65821838378906
1776814975784431900,11.984431884765625,-68.70658874511719,60.55278015136719,-84.60409545898438
1776814975794534000,11.994533935546874,-68.33204650878906,60.51533508300781,-84.56886291503906
1776814975804635600,12.0046357421875,-68.61109924316406,60.64208984375,-84.631103515625
1776814975814738700,12.01473876953125,-68.58210754394531,60.359954833984375,-84.5450439453125
1776814975824840700,12.0248408203125,-68.57666015625,60.313720703125,-84.58155822753906
1776814975834942700,12.034942626953125,-68.62649536132812,60.31440734863281,-84.5408935546875
1776814975845044700,12.045044677734374,-68.33804321289062,60.42982482910156,-84.66476440429688
1776814975855148800,12.055148681640626,-68.38044738769531,60.281463623046875,-84.36634826660156
1776814975865251800,12.065251953125,-68.78974914550781,60.366119384765625,-84.51913452148438
1776814975875353900,12.075353759765624,-68.53302001953125,60.17079162597656,-84.54656982421875
1776814975885454800,12.085454833984375,-68.63037109375,60.23747253417969,-84.53596496582031
1776814975895555800,12.095555908203124,-68.57334899902344,60.308380126953125,-84.61148071289062
1776814975905656800,12.10565673828125,-68.57435607910156,60.55926513671875,-84.52926635742188
1776814975915758800,12.1157587890625,-68.79713439941406,60.279815673828125,-84.76611328125
1776814975925860900,12.12586083984375,-69.030029296875,60.17942810058594,-84.65376281738281
1776814975935963000,12.135962890625,-68.99905395507812,60.10552978515625,-84.60212707519531
1776814975946064000,12.14606396484375,-69.26544189453125,60.00428771972656,-84.49237060546875
1776814975956166000,12.156165771484375,-69.17381286621094,60.113525390625,-84.55824279785156
1776814975966268000,12.166267822265626,-69.46781921386719,59.96839904785156,-84.51199340820312
1776814975976369000,12.176368896484375,-69.28923034667969,59.77256774902344,-84.51907348632812
1776814975986471000,12.186470947265626,-69.85346984863281,59.825408935546875,-84.51254272460938
1776814975996572000,12.196572021484375,-70.19952392578125,60.05372619628906,-84.6357421875
1776814976006672000,12.206671875,-70.104248046875,59.70622253417969,-84.54592895507812
1776814976016771800,12.216771728515624,-70.58918762207031,59.81178283691406,-84.48245239257812
1776814976026873900,12.226873779296875,-70.84237670898438,59.544158935546875,-84.41169738769531
1776814976036974800,12.236974853515624,-71.40789794921875,59.46614074707031,-84.27098083496094
1776814976047073800,12.24707373046875,-71.4232177734375,59.41755676269531,-84.023193359375
1776814976057175000,12.257175048828126,-71.88926696777344,59.290985107421875,-84.15045166015625
1776814976067275800,12.26727587890625,-72.14888000488281,59.4007568359375,-84.00088500976562
1776814976077377800,12.277377685546876,-72.52293395996094,58.804595947265625,-84.18798828125
1776814976087478800,12.287478759765625,-73.09629821777344,58.73394775390625,-83.90972900390625
1776814976097580000,12.297580078125,-73.01036071777344,58.79835510253906,-84.00260925292969
1776814976107681800,12.307681884765625,-72.81210327148438,58.48609924316406,-84.19488525390625
1776814976117784800,12.317784912109374,-73.48451232910156,58.29473876953125,-84.36186218261719
1776814976127886800,12.327886962890625,-73.85818481445312,57.976165771484375,-84.24310302734375
1776814976137988900,12.33798876953125,-73.70443725585938,57.71003723144531,-84.257080078125
1776814976148091000,12.3480908203125,-73.99589538574219,57.74516296386719,-84.19477844238281
1776814976158193000,12.35819287109375,-74.07928466796875,57.634368896484375,-84.50343322753906
1776814976168294000,12.3682939453125,-74.33222961425781,57.41853332519531,-84.46414184570312
1776814976178395000,12.378394775390625,-74.63734436035156,57.246612548828125,-84.32664489746094
1776814976188496000,12.388495849609376,-75.04350280761719,57.144805908203125,-84.41151428222656
1776814976198598000,12.398597900390625,-75.44734191894531,56.734466552734375,-84.45606994628906
1776814976208700000,12.408699951171876,-75.38400268554688,56.38993835449219,-84.35296630859375
1776814976218801700,12.4188017578125,-76.17259216308594,56.14732360839844,-84.46694946289062
1776814976228903700,12.428903564453124,-76.143798828125,56.01295471191406,-84.41911315917969
1776814976239006700,12.4390068359375,-76.22860717773438,55.89439392089844,-84.29692077636719
1776814976249107700,12.449107666015625,-76.45974731445312,55.55967712402344,-84.27076721191406
1776814976259210800,12.459210693359376,-76.99671936035156,55.2113037109375,-84.18156433105469
1776814976269312800,12.469312744140625,-77.56483459472656,54.62493896484375,-84.04551696777344
1776814976279414000,12.4794140625,-77.76272583007812,54.52203369140625,-83.98054504394531
1776814976289516800,12.489516845703125,-78.0186767578125,54.36518859863281,-83.60943603515625
1776814976299619800,12.499619873046875,-78.60319519042969,54.392974853515625,-83.72419738769531
1776814976309723000,12.509722900390624,-79.10566711425781,54.07771301269531,-83.46464538574219
1776814976319825000,12.519824951171875,-79.498291015625,53.76622009277344,-83.29220581054688
1776814976329927000,12.529927001953125,-79.50482177734375,53.807647705078125,-83.07122802734375
1776814976340031000,12.540031005859374,-79.75025939941406,53.519012451171875,-82.93928527832031
1776814976350133000,12.550133056640625,-80.57119750976562,53.20079040527344,-82.742919921875
1776814976360233700,12.560233642578124,-80.9459228515625,52.81117248535156,-82.66561889648438
1776814976370335000,12.5703349609375,-81.10548400878906,52.620758056640625,-82.50199890136719
1776814976380437000,12.58043701171875,-81.392333984375,52.30670166015625,-82.3106689453125
1776814976390539000,12.5905390625,-82.09645080566406,52.1763916015625,-82.34629821777344
1776814976400639700,12.6006396484375,-82.18318176269531,52.05242919921875,-82.19610595703125
1776814976410741800,12.61074169921875,-82.47047424316406,51.6995849609375,-81.82173156738281
1776814976420843800,12.62084375,-82.96665954589844,51.227020263671875,-81.81948852539062
1776814976430945800,12.63094580078125,-82.9815673828125,51.035675048828125,-81.62200927734375
1776814976441047000,12.641047119140625,-83.5396728515625,50.702545166015625,-81.69699096679688
1776814976451147800,12.651147705078126,-83.55911254882812,50.56341552734375,-81.62187194824219
1776814976461249800,12.661249755859375,-83.94097900390625,50.255096435546875,-81.51092529296875
1776814976471351800,12.671351806640626,-84.20843505859375,49.72218322753906,-81.32939147949219
1776814976481453800,12.681453857421875,-84.0360107421875,49.51103210449219,-81.03292846679688
1776814976491553800,12.6915537109375,-84.56417846679688,49.40180969238281,-81.27436828613281
1776814976501655800,12.70165576171875,-84.74447631835938,49.16087341308594,-80.95352172851562
1776814976511760000,12.711759765625,-85.03411865234375,48.85792541503906,-80.74040222167969
1776814976521862700,12.721862548828126,-85.56463623046875,48.366729736328125,-80.55792236328125
1776814976531964700,12.731964599609375,-85.733154296875,47.915740966796875,-80.39320373535156
1776814976542067700,12.742067626953125,-85.58847045898438,47.53717041015625,-80.46696472167969
1776814976552170800,12.752170654296876,-85.88285827636719,47.110870361328125,-80.41818237304688
1776814976562271700,12.762271728515625,-86.02244567871094,46.93495178222656,-80.4681396484375
1776814976572374800,12.772374755859374,-85.96368408203125,46.667877197265625,-80.35377502441406
1776814976582475000,12.78247509765625,-86.52680969238281,45.97947692871094,-80.42630004882812
1776814976592578000,12.792578125,-86.62066650390625,45.595947265625,-80.31303405761719
1776814976602680800,12.802680908203126,-86.70979309082031,45.08317565917969,-80.32638549804688
1776814976612783900,12.812783935546875,-86.42991638183594,44.75239562988281,-80.55992126464844
1776814976622885600,12.8228857421875,-86.2952880859375,44.34062194824219,-80.05044555664062
1776814976632988700,12.83298876953125,-86.9525146484375,43.598052978515625,-80.28465270996094
1776814976643091700,12.843091796875,-87.36763000488281,43.37968444824219,-80.42353820800781
1776814976653194800,12.85319482421875,-87.16452026367188,42.81591796875,-80.32142639160156
1776814976663297500,12.863297607421876,-87.69773864746094,42.441009521484375,-80.21473693847656
1776814976673399800,12.87339990234375,-87.33233642578125,42.026092529296875,-80.0191650390625
1776814976683500500,12.88350048828125,-87.79998779296875,41.69676208496094,-80.22463989257812
1776814976693603600,12.893603515625,-87.61320495605469,41.01533508300781,-80.19281005859375
1776814976703705600,12.90370556640625,-87.49742126464844,40.63191223144531,-80.16423034667969
1776814976713807600,12.9138076171875,-87.61209106445312,40.315216064453125,-80.1934814453125
1776814976723907600,12.923907470703124,-87.91780090332031,39.619842529296875,-80.13081359863281
1776814976734008600,12.934008544921875,-87.91484069824219,39.124664306640625,-80.01116943359375
1776814976744108800,12.94410888671875,-87.76829528808594,38.48509216308594,-80.08454895019531
1776814976754210800,12.9542109375,-88.08819580078125,37.94683837890625,-79.89227294921875
1776814976764311600,12.9643115234375,-88.18260192871094,37.45306396484375,-79.73590087890625
1776814976774412500,12.97441259765625,-88.29475402832031,36.64656066894531,-79.76898193359375
1776814976784514600,12.9845146484375,-88.07833862304688,36.40571594238281,-79.94305419921875
1776814976794615600,12.994615478515625,-88.0789794921875,35.8447265625,-79.79463195800781
1776814976804718600,13.004718505859374,-88.05155944824219,35.14826965332031,-79.58937072753906
1776814976814819600,13.014819580078125,-88.04191589355469,34.90928649902344,-79.42427062988281
1776814976824920600,13.024920654296874,-88.11640930175781,34.260528564453125,-79.37355041503906
1776814976835023600,13.035023681640626,-88.2254638671875,33.65400695800781,-79.73233032226562
1776814976845125600,13.045125732421875,-88.07672119140625,32.98606872558594,-79.60177612304688
1776814976855227600,13.0552275390625,-87.744140625,32.541717529296875,-79.39163208007812
1776814976865329400,13.065329345703125,-87.51325988769531,31.8553466796875,-79.14541625976562
1776814976875431400,13.075431396484374,-87.54534912109375,31.4493408203125,-79.01945495605469
1776814976885532700,13.08553271484375,-87.64970397949219,30.532882690429688,-79.22032165527344
1776814976895633700,13.095633544921874,-87.63215637207031,30.514617919921875,-78.91825866699219
1776814976905734700,13.105734619140625,-88.02195739746094,29.85858154296875,-78.98785400390625
1776814976915836700,13.115836669921874,-87.11265563964844,29.690277099609375,-78.7586669921875
1776814976925937700,13.125937744140625,-87.61477661132812,29.186553955078125,-78.91513061523438
