time,seconds_elapsed,z,y,x
1776870883345646300,0.071646240234375,-0.9183807373046875,-0.214752197265625,0.1300048828125
1776870883355685400,0.081685302734375,-0.9167633056640625,-0.2039642333984375,0.1533660888671875
1776870883365723400,0.091723388671875,-0.895599365234375,-0.2249908447265625,0.186004638671875
1776870883375761400,0.101761474609375,-0.8455047607421875,-0.2182464599609375,0.2117156982421875
1776870883385799400,0.11179931640625,-0.816131591796875,-0.1912689208984375,0.1830291748046875
1776870883395838500,0.12183837890625,-0.7883148193359375,-0.15618896484375,0.095672607421875
1776870883405876500,0.13187646484375,-0.755615234375,-0.070831298828125,0.03204345703125
1776870883415914200,0.141914306640625,-0.7808990478515625,-0.0206451416015625,0.083343505859375
1776870883425953300,0.151953369140625,-0.80169677734375,-0.0418548583984375,0.151397705078125
1776870883435991300,0.1619912109375,-0.81109619140625,-0.0303802490234375,0.1539306640625
1776870883446029300,0.172029296875,-0.8287506103515625,0.00299072265625,0.0965728759765625
1776870883456068400,0.182068359375,-0.8577728271484375,-0.01556396484375,0.0913238525390625
1776870883466106400,0.1921064453125,-0.933441162109375,-0.061676025390625,0.20819091796875
1776870883476144400,0.202144287109375,-0.8283233642578125,-0.178466796875,0.53717041015625
1776870883486183400,0.212183349609375,-0.5702362060546875,-0.3951263427734375,0.7778472900390625
1776870883496221200,0.22222119140625,-0.573638916015625,-0.488067626953125,0.72540283203125
1776870883506259500,0.232259521484375,-0.692108154296875,-0.4635467529296875,0.5344696044921875
1776870883516298500,0.242298583984375,-1.001251220703125,-0.1561737060546875,0.3874359130859375
1776870883526336500,0.25233642578125,-1.1246337890625,0.0980987548828125,0.2892913818359375
1776870883536374500,0.26237451171875,-1.130462646484375,0.1191253662109375,0.2293853759765625
1776870883546413300,0.272413330078125,-1.2015380859375,-0.0139312744140625,0.36212158203125
1776870883556451600,0.28245166015625,-1.0005035400390625,-0.27069091796875,0.6573944091796875
1776870883566489300,0.2924892578125,-0.5301055908203125,-0.4403533935546875,1.14373779296875
1776870883576528600,0.302528564453125,-0.9683380126953125,0.1312103271484375,1.1042022705078125
1776870883586566400,0.31256640625,-0.9274749755859375,0.1520538330078125,1.0485687255859375
1776870883596604700,0.322604736328125,-0.6722869873046875,0.0670623779296875,0.9719696044921875
1776870883606643500,0.3326435546875,-0.61004638671875,0.0360107421875,0.8100433349609375
1776870883616681500,0.342681396484375,-0.6246337890625,0.02825927734375,0.8694000244140625
1776870883626719500,0.352719482421875,-0.538787841796875,-0.134429931640625,0.880218505859375
1776870883636758500,0.362758544921875,-0.43414306640625,-0.0989990234375,0.6876068115234375
1776870883646796500,0.372796630859375,-0.4119415283203125,0.0612030029296875,0.6123504638671875
1776870883656834600,0.38283447265625,-0.4238128662109375,0.0514984130859375,0.605377197265625
1776870883666873300,0.392873291015625,-0.4010772705078125,0.0382232666015625,0.5577392578125
1776870883676911600,0.40291162109375,-0.39996337890625,0.06793212890625,0.4888458251953125
1776870883686949400,0.412949462890625,-0.401336669921875,0.0836944580078125,0.4184112548828125
1776870883696987600,0.422987548828125,-0.3682403564453125,0.107940673828125,0.3117218017578125
1776870883707026400,0.4330263671875,-0.3318634033203125,0.1722259521484375,0.2310333251953125
1776870883717064700,0.443064697265625,-0.35137939453125,0.20294189453125,0.18988037109375
1776870883727102500,0.4531025390625,-0.382293701171875,0.185333251953125,0.1604156494140625
1776870883737141500,0.4631416015625,-0.397979736328125,0.162628173828125,0.097869873046875
1776870883747179500,0.473179443359375,-0.3415069580078125,0.1658782958984375,-0.0078887939453125
1776870883757217300,0.48321728515625,-0.400848388671875,0.29315185546875,-0.0928497314453125
1776870883767256600,0.493256591796875,-0.4927215576171875,0.419586181640625,-0.09356689453125
1776870883777294600,0.503294677734375,-0.5740509033203125,0.5400238037109375,-0.019439697265625
1776870883787332600,0.51333251953125,-0.530914306640625,0.6903228759765625,0.0988922119140625
1776870883797371600,0.52337158203125,-0.33526611328125,0.5978240966796875,0.1402130126953125
1776870883807409400,0.533409423828125,-0.3911285400390625,0.536407470703125,0.1461944580078125
1776870883817447400,0.543447509765625,-0.405853271484375,0.601470947265625,0.0805206298828125
1776870883827486500,0.553486572265625,-0.38397216796875,0.6915740966796875,0.0019378662109375
1776870883837524500,0.5635244140625,-0.3776397705078125,0.73468017578125,0.0179290771484375
1776870883847562500,0.5735625,-0.37664794921875,0.8087310791015625,0.0665740966796875
1776870883857601300,0.583601318359375,-0.43353271484375,0.8947906494140625,0.12359619140625
1776870883867639600,0.5936396484375,-0.4447021484375,0.92449951171875,0.158203125
1776870883877677600,0.603677490234375,-0.3990325927734375,0.9748077392578125,0.1586456298828125
1776870883887716600,0.613716552734375,-0.3107452392578125,1.032379150390625,0.1031036376953125
1776870883897754400,0.62375439453125,-0.212493896484375,1.0418243408203125,0.0756683349609375
1776870883907792600,0.633792724609375,-0.3997650146484375,1.4263458251953125,0.17852783203125
1776870883917831400,0.64383154296875,-0.5137176513671875,1.6500091552734375,0.22552490234375
1776870883927869400,0.653869384765625,-0.5290985107421875,1.580535888671875,0.2763214111328125
1776870883937907500,0.663907470703125,-0.63134765625,1.493316650390625,0.3612823486328125
1776870883947946500,0.673946533203125,-0.6877288818359375,1.5457916259765625,0.397613525390625
1776870883957984500,0.683984619140625,-0.71038818359375,1.5553436279296875,0.4823760986328125
1776870883968022500,0.6940224609375,-0.659942626953125,1.5883941650390625,0.582672119140625
1776870883978061300,0.704061279296875,-0.5706024169921875,1.7636566162109375,0.6226806640625
1776870883988099600,0.714099609375,-0.5172119140625,1.852996826171875,0.697906494140625
1776870883998137600,0.7241376953125,-0.5179443359375,1.847076416015625,0.8000030517578125
1776870884008176600,0.7341767578125,-0.5680694580078125,1.842559814453125,0.9183502197265625
1776870884018214400,0.74421435546875,-0.63232421875,1.8503570556640625,1.015289306640625
1776870884028252700,0.754252685546875,-0.664642333984375,1.854736328125,1.107696533203125
1776870884038290400,0.76429052734375,-0.7891845703125,1.8192596435546875,1.2635498046875
1776870884048329500,0.77432958984375,-0.8062744140625,1.7030792236328125,1.3876800537109375
1776870884058367500,0.784367431640625,-0.7568511962890625,1.5535888671875,1.473388671875
1776870884068405500,0.794405517578125,-0.6655120849609375,1.47589111328125,1.4452972412109375
1776870884078444500,0.804444580078125,-0.540252685546875,1.4849090576171875,1.2997894287109375
1776870884088482600,0.814482666015625,-0.44256591796875,1.456939697265625,1.239532470703125
1776870884098520600,0.8245205078125,-0.40380859375,1.3756561279296875,1.2748565673828125
1776870884108559600,0.8345595703125,-0.419677734375,1.3095703125,1.3315582275390625
1776870884118597600,0.84459765625,-0.5012054443359375,1.238128662109375,1.3762664794921875
1776870884128635400,0.854635498046875,-0.5745849609375,1.2021331787109375,1.4340972900390625
1776870884138674400,0.86467431640625,-0.61865234375,1.1714324951171875,1.4532470703125
1776870884148712700,0.874712646484375,-0.6284332275390625,1.14727783203125,1.3939056396484375
1776870884158750500,0.88475048828125,-0.630889892578125,1.078033447265625,1.3401031494140625
1776870884168789500,0.89478955078125,-0.573028564453125,1.0240631103515625,1.2261505126953125
1776870884178827500,0.90482763671875,-0.559295654296875,0.9673919677734375,1.102294921875
1776870884188865500,0.914865478515625,-0.5511627197265625,0.90234375,0.9658203125
1776870884198904600,0.924904541015625,-0.526458740234375,0.928741455078125,0.648681640625
1776870884208942300,0.9349423828125,-0.636810302734375,0.8597412109375,0.0153961181640625
1776870884218980600,0.944980712890625,-0.757049560546875,0.6867218017578125,-0.5498046875
1776870884229019400,0.955019287109375,-0.829193115234375,0.47125244140625,-0.738189697265625
1776870884239057700,0.9650576171875,-0.6880645751953125,0.106170654296875,-0.4352874755859375
1776870884249095400,0.975095458984375,-0.554534912109375,0.2992706298828125,-0.05615234375
1776870884259134500,0.985134521484375,-0.43890380859375,0.5811614990234375,0.2491607666015625
1776870884269172500,0.99517236328125,-0.1950225830078125,0.5736083984375,0.472808837890625
1776870884279210500,1.00521044921875,0.02001953125,0.6017303466796875,0.5740966796875
1776870884289249500,1.01524951171875,0.1231536865234375,0.6437530517578125,0.6866455078125
1776870884299287600,1.02528759765625,0.1619110107421875,0.69598388671875,0.7822265625
1776870884309325600,1.03532568359375,0.22216796875,0.853179931640625,0.6278076171875
1776870884319364600,1.045364501953125,0.3241119384765625,0.80084228515625,0.501983642578125
1776870884329402400,1.05540234375,0.14666748046875,0.648681640625,0.7720794677734375
1776870884339440600,1.065440673828125,0.0049591064453125,0.57489013671875,1.075408935546875
1776870884349479400,1.0754794921875,0.0954132080078125,0.5705718994140625,1.2013397216796875
1776870884359517700,1.085517578125,0.2089691162109375,0.709136962890625,1.057952880859375
1776870884369555500,1.095555419921875,0.2594451904296875,0.66595458984375,1.0800018310546875
1776870884379594500,1.105594482421875,0.3547210693359375,0.7090606689453125,0.9827117919921875
1776870884389632500,1.115632568359375,0.412078857421875,0.818756103515625,0.7989959716796875
1776870884399670500,1.12567041015625,0.36712646484375,0.7469635009765625,0.7546539306640625
1776870884409709600,1.13570947265625,0.2827301025390625,0.6696319580078125,0.852813720703125
1776870884419747600,1.14574755859375,0.294189453125,0.75970458984375,0.6737518310546875
1776870884429785600,1.15578564453125,0.3782501220703125,0.6722412109375,0.519989013671875
1776870884439823600,1.16582373046875,0.371612548828125,0.643157958984375,0.373748779296875
1776870884449862400,1.1758623046875,0.338897705078125,0.57525634765625,0.2259063720703125
1776870884459900700,1.185900634765625,0.22564697265625,0.5134735107421875,0.0935516357421875
1776870884469938400,1.1959384765625,-0.003997802734375,0.48931884765625,0.021820068359375
1776870884479977700,1.205977783203125,-0.06756591796875,0.5326995849609375,0.024566650390625
1776870884490015500,1.216015380859375,-0.01873779296875,0.4105224609375,0.2161865234375
1776870884500053500,1.226053466796875,0.038543701171875,0.5279388427734375,0.255828857421875
1776870884510092500,1.236092529296875,0.0995635986328125,0.589630126953125,0.3418426513671875
1776870884520130600,1.246130615234375,0.2004241943359375,0.5863494873046875,0.5070037841796875
1776870884530168600,1.25616845703125,0.26129150390625,0.67132568359375,0.651275634765625
1776870884540207600,1.26620751953125,0.2822265625,0.792633056640625,0.799652099609375
1776870884550245600,1.27624560546875,0.164459228515625,0.8910064697265625,0.824188232421875
1776870884560283400,1.286283447265625,-0.1221466064453125,0.8387908935546875,0.7839202880859375
1776870884570322400,1.296322509765625,-0.371795654296875,0.6644134521484375,0.7363128662109375
1776870884580360400,1.3063603515625,-0.510528564453125,0.8789825439453125,0.5882415771484375
1776870884590398500,1.3163984375,-0.435943603515625,0.9721527099609375,0.478485107421875
1776870884600437500,1.3264375,-0.295745849609375,0.8971710205078125,0.4424896240234375
1776870884610475500,1.3364755859375,-0.21685791015625,0.8234405517578125,0.5544891357421875
1776870884620513500,1.346513427734375,-0.2023162841796875,0.8047332763671875,0.6604156494140625
1776870884630552600,1.356552490234375,-0.2803802490234375,0.8459930419921875,0.645904541015625
1776870884640590300,1.36659033203125,-0.187744140625,0.9405975341796875,0.559539794921875
1776870884650628600,1.376628662109375,-0.1322479248046875,1.008209228515625,0.50830078125
1776870884660667400,1.38666748046875,-0.132904052734375,1.0150909423828125,0.48004150390625
1776870884670705700,1.39670556640625,-0.0418701171875,0.9561614990234375,0.4303741455078125
1776870884680743400,1.406743408203125,0.07196044921875,0.883087158203125,0.417327880859375
1776870884690782500,1.416782470703125,-0.0352935791015625,0.944000244140625,0.5402984619140625
1776870884700820500,1.426820556640625,-0.1410980224609375,1.0394744873046875,0.677764892578125
1776870884710858500,1.4368583984375,0.0017852783203125,0.8616485595703125,0.7028045654296875
1776870884720897500,1.4468974609375,0.0800933837890625,0.7245025634765625,0.7459869384765625
1776870884730935600,1.456935546875,0.0640411376953125,0.6975250244140625,0.7612457275390625
1776870884740973600,1.4669736328125,0.0530242919921875,0.6692047119140625,0.7770843505859375
1776870884751012600,1.4770126953125,0.075042724609375,0.5782623291015625,0.792694091796875
1776870884761050400,1.48705029296875,-0.0137481689453125,0.5531463623046875,0.7671051025390625
1776870884771088600,1.497088623046875,-0.110198974609375,0.5787506103515625,0.6900177001953125
1776870884781127400,1.50712744140625,-0.0919036865234375,0.6474609375,0.59881591796875
1776870884791165700,1.517165771484375,-0.056365966796875,0.7041473388671875,0.5558929443359375
1776870884801203500,1.527203369140625,-0.3072357177734375,0.8733978271484375,0.5965728759765625
1776870884811242500,1.537242431640625,-0.505859375,1.1168060302734375,0.6525421142578125
1776870884821280500,1.547280517578125,-0.3454742431640625,1.189453125,0.684844970703125
1776870884831318500,1.557318603515625,-0.380950927734375,1.2192840576171875,0.737884521484375
1776870884841357600,1.567357666015625,-0.2769622802734375,1.04595947265625,0.6808319091796875
1776870884851395600,1.5773955078125,-0.143280029296875,0.9352874755859375,0.6306304931640625
1776870884861433600,1.58743359375,-0.199371337890625,1.0370025634765625,0.619781494140625
1776870884871472600,1.59747265625,-0.1579132080078125,1.0358734130859375,0.5653076171875
1776870884881510400,1.607510498046875,-0.1407623291015625,0.942291259765625,0.5579833984375
1776870884891548700,1.617548583984375,-0.1061859130859375,0.859771728515625,0.58258056640625
1776870884901587500,1.62758740234375,-0.058441162109375,0.756378173828125,0.57806396484375
1776870884911625700,1.637625732421875,-0.061065673828125,0.8976898193359375,0.5617218017578125
1776870884921663500,1.64766357421875,-0.134429931640625,1.2306365966796875,0.573272705078125
1776870884931701500,1.657701416015625,-0.23516845703125,1.48651123046875,0.5484619140625
1776870884941740500,1.667740478515625,-0.1299591064453125,1.431365966796875,0.418853759765625
1776870884951778300,1.6777783203125,0.2393951416015625,1.0920562744140625,0.38623046875
1776870884961816600,1.687816650390625,0.250274658203125,0.8377685546875,0.3541259765625
1776870884971855400,1.69785546875,0.1956787109375,0.7093658447265625,0.2655487060546875
1776870884981893600,1.7078935546875,0.09710693359375,0.7134246826171875,0.2237548828125
1776870884991931400,1.717931396484375,-0.0940399169921875,0.806793212890625,0.2325897216796875
1776870885001970400,1.727970458984375,-0.14678955078125,0.8803253173828125,0.25592041015625
1776870885012008400,1.738008544921875,-0.1591949462890625,0.9416351318359375,0.247802734375
1776870885022046500,1.74804638671875,-0.1841888427734375,1.0057373046875,0.2489471435546875
1776870885032085500,1.75808544921875,-0.097564697265625,1.120086669921875,0.21636962890625
1776870885042123500,1.76812353515625,0.007904052734375,1.094146728515625,0.2337493896484375
1776870885052161500,1.77816162109375,-0.2180633544921875,1.161376953125,0.1965179443359375
1776870885062200600,1.78820068359375,-0.2837982177734375,1.145599365234375,0.219451904296875
1776870885072238300,1.79823828125,-0.2934722900390625,1.1250152587890625,0.3026275634765625
1776870885082276600,1.808276611328125,-0.40087890625,1.157135009765625,0.5424346923828125
1776870885092315400,1.8183154296875,-0.2229461669921875,0.95977783203125,0.8766326904296875
1776870885102353700,1.828353759765625,-0.26153564453125,0.78167724609375,0.815765380859375
1776870885112391400,1.838391357421875,-0.400146484375,0.84356689453125,0.5912933349609375
1776870885122430500,1.848430419921875,-0.267608642578125,1.1320648193359375,0.326904296875
1776870885132468500,1.858468505859375,0.0215606689453125,1.345733642578125,0.2230682373046875
1776870885142506500,1.868506591796875,0.2315673828125,1.4036407470703125,0.0811767578125
1776870885152545500,1.878545654296875,0.2085113525390625,1.182586669921875,-0.0502777099609375
1776870885162583600,1.88858349609375,-0.2032012939453125,1.001373291015625,-0.128936767578125
1776870885172621600,1.89862158203125,0.0494537353515625,0.905914306640625,-0.2044219970703125
1776870885182660600,1.90866064453125,0.3372039794921875,0.7073516845703125,-0.2305145263671875
1776870885192698400,1.918698486328125,0.3787384033203125,0.4701690673828125,-0.1855926513671875
1776870885202736600,1.928736572265625,0.404266357421875,0.2899017333984375,-0.1112213134765625
1776870885212775400,1.938775390625,0.1559600830078125,0.20428466796875,-0.010498046875
1776870885222813700,1.948813720703125,0.0798797607421875,0.33062744140625,-0.0585784912109375
1776870885232851500,1.9588515625,0.19195556640625,0.506744384765625,-0.0833892822265625
1776870885242890500,1.968890380859375,0.3078460693359375,0.7183837890625,-0.0720672607421875
1776870885252928500,1.978928466796875,0.384063720703125,0.940338134765625,-0.2012176513671875
1776870885262966500,1.988966552734375,0.324493408203125,1.0792694091796875,-0.326873779296875
1776870885273005600,1.999005615234375,0.196624755859375,1.2090301513671875,-0.51788330078125
1776870885283043600,2.009043701171875,-0.0781402587890625,1.296844482421875,-0.599517822265625
1776870885293081600,2.01908154296875,-0.3833770751953125,1.354705810546875,-0.5614471435546875
1776870885303120600,2.02912060546875,-0.482666015625,1.385223388671875,-0.4178314208984375
1776870885313158400,2.039158447265625,-0.4794464111328125,1.29638671875,-0.2906036376953125
1776870885323196400,2.049196533203125,-0.4899444580078125,1.082000732421875,-0.1668548583984375
1776870885333235500,2.0592353515625,-0.4705047607421875,0.96966552734375,0.0177459716796875
1776870885343273500,2.0692734375,-0.281097412109375,0.9745025634765625,0.1249542236328125
1776870885353311500,2.0793115234375,-0.06536865234375,0.993408203125,0.0267791748046875
1776870885363350500,2.0893505859375,0.0630035400390625,1.0649566650390625,-0.2583770751953125
1776870885373388500,2.099388427734375,0.287322998046875,1.05523681640625,-0.466400146484375
1776870885383426300,2.10942626953125,0.363983154296875,0.9591217041015625,-0.488922119140625
1776870885393465600,2.119465576171875,0.2625885009765625,0.993072509765625,-0.5174713134765625
1776870885403503400,2.12950341796875,0.2290802001953125,0.927886962890625,-0.466949462890625
1776870885413541600,2.139541748046875,0.0837860107421875,0.8042449951171875,-0.326324462890625
1776870885423580400,2.149580322265625,-0.1710205078125,0.7859649658203125,-0.24444580078125
1776870885433618400,2.159618408203125,-0.354339599609375,0.826171875,-0.1867218017578125
1776870885443656400,2.169656494140625,-0.3960723876953125,0.87347412109375,-0.076812744140625
1776870885453695500,2.179695556640625,-0.2513580322265625,0.9810333251953125,0.0334320068359375
1776870885463733500,2.1897333984375,-0.131011962890625,1.04180908203125,-0.043212890625
1776870885473771500,2.199771484375,-0.0441131591796875,1.09423828125,-0.065887451171875
1776870885483810300,2.209810302734375,-0.0251922607421875,1.111328125,-0.06024169921875
1776870885493848600,2.2198486328125,-0.067901611328125,1.0522918701171875,-0.0507049560546875
1776870885503886300,2.22988623046875,-0.0862274169921875,1.0775299072265625,-0.02984619140625
1776870885513925600,2.239925537109375,-0.1690826416015625,1.0321044921875,0.056488037109375
1776870885523963400,2.24996337890625,-0.2503662109375,1.04864501953125,0.1073150634765625
1776870885534001700,2.260001708984375,-0.2552032470703125,1.1140899658203125,0.0388641357421875
1776870885544040400,2.27004052734375,-0.168914794921875,1.1022186279296875,-0.145721435546875
1776870885554078500,2.280078369140625,0.0632171630859375,0.95745849609375,-0.2623291015625
1776870885564116500,2.290116455078125,0.2016143798828125,0.846527099609375,-0.32244873046875
1776870885574155500,2.300155517578125,0.1976165771484375,0.80169677734375,-0.3428802490234375
1776870885584193500,2.310193603515625,0.0789794921875,0.820159912109375,-0.32440185546875
1776870885594231600,2.3202314453125,-0.0262603759765625,0.89483642578125,-0.2922210693359375
1776870885604270300,2.330270263671875,-0.14312744140625,0.9787139892578125,-0.2371673583984375
1776870885614308600,2.34030859375,-0.2274322509765625,1.00531005859375,-0.210235595703125
1776870885624346400,2.350346435546875,-0.2476348876953125,1.0125732421875,-0.184234619140625
1776870885634385700,2.3603857421875,-0.2051849365234375,0.98974609375,-0.1320343017578125
1776870885644423400,2.37042333984375,-0.1627197265625,0.9607391357421875,-0.112518310546875
1776870885654461700,2.380461669921875,-0.138397216796875,0.98846435546875,-0.120758056640625
1776870885664499500,2.39049951171875,-0.1016998291015625,1.0641937255859375,-0.1389007568359375
1776870885674538500,2.40053857421875,-0.1115264892578125,1.051025390625,-0.1087799072265625
1776870885684576500,2.410576416015625,-0.121124267578125,1.034393310546875,-0.0764617919921875
1776870885694615600,2.420615478515625,-0.116912841796875,1.0292816162109375,-0.053375244140625
1776870885704653600,2.430653564453125,-0.106719970703125,1.0179901123046875,-0.0831756591796875
1776870885714691300,2.44069140625,-0.0940399169921875,1.035552978515625,-0.098480224609375
1776870885724729600,2.4507294921875,-0.0939178466796875,1.0235443115234375,-0.1018829345703125
1776870885734768600,2.4607685546875,-0.1014862060546875,0.984100341796875,-0.1019744873046875
1776870885744806700,2.470806640625,-0.122161865234375,0.992919921875,-0.11077880859375
1776870885754844400,2.480844482421875,-0.1334686279296875,1.008514404296875,-0.1217803955078125
1776870885764883500,2.490883544921875,-0.1259613037109375,1.04791259765625,-0.1353759765625
1776870885774921500,2.50092138671875,-0.1132354736328125,1.0853729248046875,-0.1455841064453125
1776870885784959500,2.51095947265625,-0.1085968017578125,1.077117919921875,-0.1631317138671875
1776870885794998500,2.52099853515625,-0.1110992431640625,0.996307373046875,-0.1653900146484375
1776870885805036500,2.53103662109375,-0.0900421142578125,0.863555908203125,-0.1311492919921875
1776870885815074600,2.541074462890625,-0.0621185302734375,0.761016845703125,-0.1110992431640625
1776870885825113600,2.551113525390625,-0.046783447265625,0.7779083251953125,-0.18670654296875
1776870885835151400,2.5611513671875,-0.0443572998046875,0.8600616455078125,-0.271728515625
1776870885845189600,2.571189697265625,-0.0570831298828125,0.903076171875,-0.303253173828125
1776870885855228400,2.581228515625,-0.0497589111328125,0.955169677734375,-0.310882568359375
1776870885865266700,2.5912666015625,-0.0662841796875,1.040374755859375,-0.28662109375
1776870885875304400,2.601304443359375,-0.131622314453125,1.16778564453125,-0.2597198486328125
1776870885885343500,2.611343505859375,-0.1773681640625,1.1504669189453125,-0.1918182373046875
1776870885895381500,2.621381591796875,-0.1571197509765625,1.0131683349609375,-0.151458740234375
1776870885905419500,2.63141943359375,-0.0986175537109375,0.933990478515625,-0.1312408447265625
1776870885915458600,2.64145849609375,-0.0507354736328125,0.90423583984375,-0.12213134765625
1776870885925496600,2.65149658203125,-0.0414581298828125,0.9608154296875,-0.162078857421875
1776870885935534600,2.66153466796875,-0.03662109375,1.006072998046875,-0.1703948974609375
1776870885945573600,2.67157373046875,-0.03411865234375,1.00042724609375,-0.1220245361328125
1776870885955611400,2.681611328125,-0.0599365234375,0.94219970703125,-0.0400390625
1776870885965649700,2.691649658203125,-0.1826324462890625,0.9266510009765625,-0.0460662841796875
1776870885975688400,2.7016884765625,-0.13079833984375,1.0277862548828125,-0.1723175048828125
1776870885985726700,2.711726806640625,-0.0333709716796875,0.9727020263671875,-0.1953887939453125
1776870885995764500,2.721764404296875,-0.0435791015625,0.92401123046875,-0.1668548583984375
1776870886005803500,2.731803466796875,-0.0762939453125,0.8807220458984375,-0.2166900634765625
1776870886015841500,2.741841552734375,-0.0874176025390625,0.800018310546875,-0.30133056640625
1776870886025879600,2.751879638671875,-0.038726806640625,0.665771484375,-0.2993316650390625
1776870886035918600,2.761918701171875,-0.034576416015625,0.6488037109375,-0.28582763671875
1776870886045956600,2.77195654296875,-0.116455078125,0.7172698974609375,-0.3220062255859375
1776870886055994600,2.78199462890625,-0.2184600830078125,0.879547119140625,-0.398040771484375
1776870886066033700,2.79203369140625,-0.176177978515625,1.1129302978515625,-0.383544921875
1776870886076071400,2.802071533203125,-0.0214996337890625,1.278289794921875,-0.3060150146484375
1776870886086109400,2.812109375,0.0801544189453125,1.200347900390625,-0.2042083740234375
1776870886096148500,2.8221484375,0.0630340576171875,0.97576904296875,-0.1304931640625
1776870886106186800,2.832186767578125,-0.063262939453125,0.884979248046875,-0.0870819091796875
1776870886116224500,2.842224609375,-0.1898040771484375,1.092987060546875,-0.06072998046875
1776870886126263600,2.852263671875,-0.3333740234375,1.1678009033203125,-0.0078582763671875
1776870886136301600,2.862301513671875,-0.4303436279296875,1.1178436279296875,0.036163330078125
1776870886146339300,2.87233935546875,-0.333953857421875,1.091583251953125,0.1190032958984375
1776870886156378600,2.882378662109375,-0.1548309326171875,1.0302734375,0.1751861572265625
1776870886166416400,2.89241650390625,-0.0103912353515625,1.117828369140625,0.158111572265625
1776870886176454700,2.90245458984375,-0.0839691162109375,1.12493896484375,0.177093505859375
1776870886186493700,2.91249365234375,-0.1147308349609375,1.2100677490234375,0.103302001953125
1776870886196531500,2.922531494140625,-0.07342529296875,0.9549560546875,0.152099609375
1776870886206569500,2.932569580078125,-0.0287628173828125,0.7257080078125,0.2020416259765625
1776870886216608500,2.9426083984375,0.0255889892578125,0.58502197265625,0.124267578125
1776870886226646500,2.952646484375,0.267333984375,0.6279449462890625,-0.050933837890625
1776870886236684500,2.9626845703125,0.3832244873046875,0.51910400390625,-0.166717529296875
1776870886246723300,2.972723388671875,0.3454437255859375,0.7608184814453125,-0.327178955078125
1776870886256761600,2.98276171875,0.189178466796875,1.125640869140625,-0.52679443359375
1776870886266799400,2.99279931640625,-0.033172607421875,1.2807464599609375,-0.667938232421875
1776870886276838700,3.002838623046875,0.0050048828125,1.39373779296875,-0.7713470458984375
1776870886286876400,3.01287646484375,0.080078125,1.1890106201171875,-0.6546478271484375
1776870886296914700,3.022914794921875,0.2166595458984375,0.8938446044921875,-0.4098052978515625
1776870886306953500,3.032953369140625,0.272186279296875,0.8931427001953125,-0.2235107421875
1776870886316991500,3.042991455078125,0.102081298828125,1.0178680419921875,-0.139984130859375
1776870886327029500,3.053029541015625,-0.0994110107421875,1.094207763671875,-0.130096435546875
1776870886337068500,3.063068603515625,-0.1099090576171875,1.1523895263671875,-0.180938720703125
1776870886347106600,3.0731064453125,-0.0485687255859375,1.190887451171875,-0.3065643310546875
1776870886357144600,3.08314453125,0.1497955322265625,1.1819915771484375,-0.335418701171875
1776870886367183400,3.093183349609375,0.3777923583984375,1.15234375,-0.224212646484375
1776870886377221600,3.1032216796875,0.4346160888671875,1.15240478515625,-0.1818695068359375
1776870886387259400,3.11325927734375,0.2112884521484375,1.188812255859375,-0.201171875
1776870886397297700,3.123297607421875,-0.0998992919921875,1.134124755859375,-0.1343536376953125
1776870886407336400,3.13333642578125,-0.1138916015625,1.0814208984375,-0.048675537109375
1776870886417374700,3.143374755859375,-0.0359954833984375,1.14385986328125,-0.0704803466796875
1776870886427413500,3.15341357421875,0.039215087890625,1.2649993896484375,-0.163818359375
1776870886437451500,3.163451416015625,0.07977294921875,1.3305816650390625,-0.2701568603515625
1776870886447489500,3.173489501953125,0.0621490478515625,1.2960052490234375,-0.3494415283203125
1776870886457527300,3.18352734375,0.016845703125,1.1023406982421875,-0.374755859375
1776870886467566600,3.193566650390625,0.0330047607421875,0.8831329345703125,-0.34503173828125
1776870886477604600,3.2036044921875,0.0678253173828125,0.7978515625,-0.30865478515625
1776870886487642600,3.213642578125,0.0876007080078125,0.7962493896484375,-0.326629638671875
1776870886497681700,3.223681640625,0.02685546875,0.7755889892578125,-0.3592071533203125
1776870886507720200,3.23372021484375,-0.047882080078125,0.759765625,-0.3436431884765625
1776870886517758500,3.243758544921875,-0.097137451171875,0.6954193115234375,-0.2961883544921875
1776870886527797200,3.25379736328125,-0.247711181640625,0.586761474609375,-0.241363525390625
1776870886537835300,3.263835205078125,-0.3101806640625,0.665435791015625,-0.2195892333984375
1776870886547873300,3.273873291015625,-0.202606201171875,0.824981689453125,-0.256683349609375
1776870886557912300,3.283912353515625,-0.05908203125,0.9555511474609375,-0.303802490234375
1776870886567950300,3.293950439453125,0.071136474609375,1.0200042724609375,-0.3333587646484375
1776870886577988400,3.30398828125,0.153564453125,1.0300140380859375,-0.3412017822265625
1776870886588027100,3.314027099609375,0.1396026611328125,0.994964599609375,-0.3350830078125
1776870886598065400,3.3240654296875,0.0594940185546875,0.9169769287109375,-0.295166015625
1776870886608103200,3.334103271484375,-0.023590087890625,0.859771728515625,-0.2445220947265625
1776870886618142500,3.344142578125,-0.099639892578125,0.8535003662109375,-0.19232177734375
1776870886628180200,3.35418017578125,-0.134002685546875,0.865753173828125,-0.16998291015625
1776870886638218200,3.36421826171875,-0.1165008544921875,0.9506988525390625,-0.2408599853515625
1776870886648257300,3.37425732421875,-0.029632568359375,0.9954833984375,-0.3013916015625
1776870886658295000,3.384294921875,0.045013427734375,0.9894866943359375,-0.332366943359375
1776870886668333300,3.394333251953125,0.0276947021484375,0.9588470458984375,-0.3431396484375
1776870886678372400,3.404372314453125,0.0331573486328125,0.940643310546875,-0.3630828857421875
1776870886688410400,3.414410400390625,0.0160675048828125,0.9704742431640625,-0.3914337158203125
1776870886698448100,3.4244482421875,-0.0831451416015625,0.9712066650390625,-0.39581298828125
1776870886708487200,3.434487060546875,-0.187835693359375,0.928009033203125,-0.3714447021484375
1776870886718525200,3.444525146484375,-0.2133331298828125,0.9307098388671875,-0.3493499755859375
1776870886728563200,3.454563232421875,-0.154998779296875,0.9489898681640625,-0.3202972412109375
1776870886738602200,3.464602294921875,-0.0351715087890625,0.9485931396484375,-0.31451416015625
1776870886748640300,3.47464013671875,0.0370025634765625,0.950714111328125,-0.3188934326171875
1776870886758678300,3.48467822265625,0.0367584228515625,0.95538330078125,-0.313385009765625
1776870886768717300,3.49471728515625,0.0093231201171875,0.963958740234375,-0.311767578125
1776870886778755000,3.504755126953125,-0.0240936279296875,0.9614105224609375,-0.314605712890625
1776870886788793300,3.51479345703125,-0.0470428466796875,0.9445648193359375,-0.3201446533203125
1776870886798832000,3.52483203125,-0.054229736328125,0.933197021484375,-0.3225860595703125
1776870886808870400,3.534870361328125,-0.0463104248046875,0.9319305419921875,-0.325439453125
1776870886818908200,3.544908203125,-0.0321044921875,0.9369354248046875,-0.3295440673828125
1776870886828947200,3.554947265625,-0.0237274169921875,0.9480133056640625,-0.3373870849609375
1776870886838985200,3.564985107421875,-0.02899169921875,0.95245361328125,-0.3406982421875
1776870886849023200,3.575023193359375,-0.0421295166015625,0.94708251953125,-0.335113525390625
1776870886859062300,3.585062255859375,-0.04632568359375,0.9353179931640625,-0.31988525390625
1776870886869100300,3.595100341796875,-0.0408935546875,0.934661865234375,-0.3054656982421875
1776870886879138300,3.60513818359375,-0.0331268310546875,0.945953369140625,-0.3016510009765625
1776870886889177300,3.61517724609375,-0.0310821533203125,0.9615020751953125,-0.3071136474609375
1776870886899215000,3.625215087890625,-0.0291900634765625,0.971405029296875,-0.310791015625
1776870886909253400,3.63525341796875,-0.0313568115234375,0.9708709716796875,-0.3091888427734375
1776870886919292200,3.645292236328125,-0.03546142578125,0.962554931640625,-0.3065948486328125
1776870886929330400,3.655330322265625,-0.0347900390625,0.9534454345703125,-0.3056640625
1776870886939368200,3.6653681640625,-0.0310821533203125,0.9441680908203125,-0.30438232421875
1776870886949407200,3.6754072265625,-0.0266571044921875,0.9421234130859375,-0.308349609375
1776870886959445200,3.6854453125,-0.0236358642578125,0.943939208984375,-0.314453125
1776870886969483300,3.695483154296875,-0.0211181640625,0.944305419921875,-0.321258544921875
1776870886979522300,3.705522216796875,-0.0129852294921875,0.9482879638671875,-0.33538818359375
1776870886989560300,3.715560302734375,-0.0115814208984375,0.9599761962890625,-0.3552093505859375
1776870886999598300,3.725598388671875,-0.0164642333984375,0.968719482421875,-0.3740081787109375
1776870887009637400,3.735637451171875,-0.0152740478515625,0.9533538818359375,-0.378265380859375
1776870887019675100,3.745675048828125,-0.0059814453125,0.923980712890625,-0.3714599609375
1776870887029713200,3.755713134765625,0.0033111572265625,0.9044189453125,-0.373382568359375
1776870887039752200,3.765752197265625,0.0038909912109375,0.9008026123046875,-0.38458251953125
1776870887049790500,3.77579052734375,-0.0018310546875,0.9123382568359375,-0.398956298828125
1776870887059828200,3.785828125,-0.001190185546875,0.9284515380859375,-0.4107513427734375
1776870887069867300,3.7958671875,0.0113677978515625,0.944610595703125,-0.4215545654296875
1776870887079905300,3.8059052734375,0.0108642578125,0.9518585205078125,-0.4296875
1776870887089943300,3.815943359375,-0.0023956298828125,0.9388885498046875,-0.42279052734375
1776870887099982300,3.825982421875,-0.0208282470703125,0.9136199951171875,-0.405731201171875
1776870887110020000,3.83602001953125,-0.029937744140625,0.8954925537109375,-0.3913726806640625
1776870887120058400,3.846058349609375,-0.0236053466796875,0.89373779296875,-0.386566162109375
1776870887130097200,3.85609716796875,0.006805419921875,0.8996429443359375,-0.388427734375
1776870887140135200,3.86613525390625,0.0381317138671875,0.9129791259765625,-0.4064178466796875
1776870887150173200,3.876173095703125,0.035003662109375,0.9245758056640625,-0.43121337890625
1776870887160212200,3.886212158203125,0.0178985595703125,0.9274444580078125,-0.4388275146484375
1776870887170250200,3.896250244140625,-0.013824462890625,0.9304656982421875,-0.424072265625
1776870887180288300,3.906288330078125,-0.0657501220703125,0.92327880859375,-0.3997650146484375
1776870887190327000,3.9163271484375,-0.1216278076171875,0.8924407958984375,-0.384063720703125
1776870887200365300,3.926365234375,-0.1560211181640625,0.86358642578125,-0.3653564453125
1776870887210403300,3.9364033203125,-0.1214599609375,0.851806640625,-0.3546295166015625
1776870887220442400,3.9464423828125,-0.0461883544921875,0.86651611328125,-0.3668365478515625
1776870887230480100,3.956480224609375,0.016326904296875,0.898590087890625,-0.3834991455078125
1776870887240518400,3.966518310546875,0.04248046875,0.9176177978515625,-0.3919219970703125
1776870887250557200,3.97655712890625,0.0232086181640625,0.931610107421875,-0.365509033203125
1776870887260595200,3.98659521484375,-0.0167999267578125,0.9504547119140625,-0.314544677734375
1776870887270633200,3.99663330078125,-0.07421875,0.958282470703125,-0.2811737060546875
1776870887280672300,4.00667236328125,-0.130859375,0.96856689453125,-0.2484893798828125
1776870887290710300,4.016710205078125,-0.144744873046875,0.980438232421875,-0.246490478515625
1776870887300748300,4.026748291015625,-0.0857086181640625,0.987823486328125,-0.291717529296875
1776870887310786300,4.036786376953125,-0.02471923828125,0.9991455078125,-0.3109893798828125
1776870887320825300,4.046825439453125,-0.0015869140625,0.9809112548828125,-0.2931365966796875
1776870887330863400,4.05686328125,-0.0583648681640625,0.9749755859375,-0.3152008056640625
1776870887340902400,4.06690234375,-0.1376800537109375,0.9668121337890625,-0.354461669921875
1776870887350940200,4.076940185546875,-0.1906890869140625,0.921905517578125,-0.343353271484375
1776870887360978400,4.086978515625,-0.164093017578125,0.8828125,-0.3275604248046875
1776870887371016200,4.09701611328125,-0.0770263671875,0.87200927734375,-0.3338470458984375
1776870887381055200,4.10705517578125,-0.009521484375,0.897216796875,-0.3545684814453125
1776870887391093200,4.11709326171875,-0.021484375,0.922271728515625,-0.3818359375
1776870887401131300,4.12713134765625,-0.1246185302734375,0.9330596923828125,-0.3683319091796875
1776870887411170300,4.13717041015625,-0.2438201904296875,0.9517669677734375,-0.3241119384765625
1776870887421208300,4.147208251953125,-0.2981109619140625,0.964019775390625,-0.293060302734375
1776870887431247400,4.157247314453125,-0.2523040771484375,0.965576171875,-0.2643280029296875
1776870887441285400,4.167285400390625,-0.129730224609375,0.968170166015625,-0.264923095703125
1776870887451323400,4.177323486328125,0.000518798828125,0.9659271240234375,-0.2763824462890625
1776870887461361200,4.187361083984375,0.0790863037109375,0.959564208984375,-0.247528076171875
1776870887471400200,4.197400146484375,0.0913238525390625,0.9550323486328125,-0.2175445556640625
1776870887481438200,4.207438232421875,-0.0124664306640625,0.9794921875,-0.219451904296875
1776870887491476200,4.217476318359375,-0.200592041015625,0.984039306640625,-0.22296142578125
1776870887501515300,4.227515380859375,-0.39300537109375,0.929931640625,-0.228607177734375
1776870887511553300,4.23755322265625,-0.4036407470703125,0.8556976318359375,-0.2198638916015625
1776870887521591600,4.247591552734375,-0.24017333984375,0.8143463134765625,-0.2194976806640625
1776870887531630300,4.25763037109375,-0.134521484375,0.8165740966796875,-0.252288818359375
1776870887541668400,4.26766845703125,-0.1170654296875,0.8419189453125,-0.2938995361328125
1776870887551706400,4.277706298828125,-0.1240997314453125,0.8837890625,-0.3342742919921875
1776870887561745400,4.287745361328125,-0.109771728515625,0.9203643798828125,-0.392822265625
1776870887571783400,4.297783447265625,-0.0713653564453125,0.9047088623046875,-0.456756591796875
1776870887581821200,4.3078212890625,0.0001068115234375,0.845611572265625,-0.516357421875
1776870887591860200,4.317860107421875,0.0731201171875,0.770843505859375,-0.56561279296875
1776870887601898200,4.327898193359375,0.1192474365234375,0.7279052734375,-0.6069793701171875
1776870887611936300,4.337936279296875,0.1622161865234375,0.6843414306640625,-0.6484832763671875
1776870887621975300,4.347975341796875,0.21807861328125,0.649200439453125,-0.6810760498046875
1776870887632013300,4.358013427734375,0.272857666015625,0.62646484375,-0.7218780517578125
1776870887642051300,4.36805126953125,0.306610107421875,0.6138153076171875,-0.7595977783203125
1776870887652090400,4.37809033203125,0.36846923828125,0.627777099609375,-0.8149871826171875
1776870887662128000,4.388128173828125,0.4295806884765625,0.641754150390625,-0.857269287109375
1776870887672166400,4.39816650390625,0.4702301025390625,0.6287841796875,-0.8719329833984375
1776870887682205200,4.408205078125,0.4692535400390625,0.5918426513671875,-0.8494720458984375
1776870887692243500,4.418243408203125,0.4456787109375,0.5518951416015625,-0.813934326171875
1776870887702281200,4.42828125,0.4232177734375,0.5334930419921875,-0.791961669921875
1776870887712320300,4.4383203125,0.4195404052734375,0.516693115234375,-0.7728118896484375
1776870887722358300,4.448358154296875,0.4259185791015625,0.50140380859375,-0.7548675537109375
1776870887732396300,4.458396240234375,0.4373016357421875,0.48944091796875,-0.742218017578125
1776870887742435300,4.468435302734375,0.441802978515625,0.4750518798828125,-0.7365875244140625
1776870887752473300,4.478473388671875,0.4342498779296875,0.46185302734375,-0.7351531982421875
1776870887762511400,4.488511474609375,0.4157867431640625,0.45806884765625,-0.7337799072265625
1776870887772550400,4.49855029296875,0.4013671875,0.4620361328125,-0.7448883056640625
1776870887782588200,4.508588134765625,0.3922271728515625,0.4732513427734375,-0.77435302734375
1776870887792626400,4.51862646484375,0.3921661376953125,0.492706298828125,-0.8167877197265625
1776870887802665200,4.528665283203125,0.4024810791015625,0.4840850830078125,-0.8450927734375
1776870887812703500,4.538703369140625,0.415740966796875,0.4636688232421875,-0.867523193359375
1776870887822741200,4.5487412109375,0.437591552734375,0.4488067626953125,-0.89007568359375
1776870887832780300,4.5587802734375,0.4581756591796875,0.405181884765625,-0.895843505859375
1776870887842818300,4.568818359375,0.4908447265625,0.345611572265625,-0.8856201171875
1776870887852856300,4.578856201171875,0.5210723876953125,0.2899169921875,-0.87652587890625
1776870887862895400,4.588895263671875,0.56298828125,0.263641357421875,-0.891265869140625
1776870887872933400,4.598933349609375,0.5970458984375,0.2608795166015625,-0.9198150634765625
1776870887882971400,4.608971435546875,0.6373748779296875,0.2935943603515625,-0.964202880859375
1776870887893010400,4.619010498046875,0.6356048583984375,0.3683929443359375,-0.984527587890625
1776870887903048200,4.629048095703125,0.56817626953125,0.4414215087890625,-0.978485107421875
1776870887913086500,4.63908642578125,0.4830780029296875,0.4682464599609375,-0.9566497802734375
1776870887923125200,4.649125244140625,0.451507568359375,0.47039794921875,-0.9373016357421875
1776870887933163500,4.65916357421875,0.4509735107421875,0.477325439453125,-0.9162445068359375
1776870887943201300,4.669201171875,0.4639892578125,0.4904022216796875,-0.890380859375
1776870887953240300,4.679240234375,0.4745941162109375,0.5009613037109375,-0.857330322265625
1776870887963278300,4.6892783203125,0.4797515869140625,0.50579833984375,-0.8216552734375
1776870887973316000,4.699316162109375,0.48638916015625,0.5083770751953125,-0.7939300537109375
1776870887983355400,4.70935546875,0.4939422607421875,0.5142669677734375,-0.7825775146484375
1776870887993393400,4.719393310546875,0.505126953125,0.519927978515625,-0.777862548828125
1776870888003431400,4.729431396484375,0.513671875,0.5257568359375,-0.7741851806640625
1776870888013470500,4.739470458984375,0.510162353515625,0.5250091552734375,-0.7664947509765625
1776870888023508200,4.74950830078125,0.4952239990234375,0.5217742919921875,-0.753204345703125
1776870888033546200,4.759546142578125,0.47222900390625,0.5185089111328125,-0.742919921875
1776870888043585300,4.769585205078125,0.4449310302734375,0.5130615234375,-0.7362060546875
1776870888053623300,4.779623291015625,0.4260101318359375,0.5139923095703125,-0.73681640625
1776870888063661300,4.789661376953125,0.4160308837890625,0.5153656005859375,-0.7381744384765625
1776870888073700400,4.799700439453125,0.4153900146484375,0.5138702392578125,-0.73724365234375
1776870888083738400,4.80973828125,0.4207611083984375,0.5120697021484375,-0.734344482421875
1776870888093776100,4.819776123046875,0.4230499267578125,0.5104522705078125,-0.727752685546875
1776870888103815400,4.8298154296875,0.4195709228515625,0.507781982421875,-0.71136474609375
1776870888113853200,4.839853271484375,0.4047698974609375,0.500579833984375,-0.6843414306640625
1776870888123891500,4.849891357421875,0.379364013671875,0.4926910400390625,-0.64630126953125
1776870888133930200,4.85993017578125,0.34918212890625,0.4968109130859375,-0.61639404296875
1776870888143968300,4.86996826171875,0.329803466796875,0.5177001953125,-0.6130523681640625
1776870888154006300,4.88000634765625,0.3212127685546875,0.5549163818359375,-0.6385040283203125
1776870888164045300,4.89004541015625,0.3219451904296875,0.6042938232421875,-0.6728973388671875
1776870888174083300,4.900083251953125,0.32366943359375,0.6557769775390625,-0.69866943359375
1776870888184121300,4.910121337890625,0.3230438232421875,0.7020263671875,-0.712890625
1776870888194160000,4.92016015625,0.321624755859375,0.737213134765625,-0.706878662109375
1776870888204198400,4.930198486328125,0.31939697265625,0.7640228271484375,-0.68389892578125
1776870888214236200,4.940236083984375,0.3277587890625,0.7746124267578125,-0.663055419921875
1776870888224275500,4.950275390625,0.3586578369140625,0.763946533203125,-0.6538238525390625
1776870888234313200,4.960313232421875,0.40667724609375,0.719879150390625,-0.65435791015625
1776870888244351500,4.9703515625,0.4468231201171875,0.663421630859375,-0.663177490234375
1776870888254390300,4.980390380859375,0.469512939453125,0.6100616455078125,-0.686248779296875
1776870888264428300,4.99042822265625,0.4732818603515625,0.571319580078125,-0.7203521728515625
1776870888274466300,5.00046630859375,0.458251953125,0.5512847900390625,-0.7661895751953125
1776870888284505300,5.01050537109375,0.42913818359375,0.537353515625,-0.8153228759765625
1776870888294543400,5.02054345703125,0.38507080078125,0.522491455078125,-0.8575439453125
1776870888304581400,5.030581298828125,0.33941650390625,0.498809814453125,-0.885528564453125
1776870888314619400,5.040619384765625,0.3087921142578125,0.4631805419921875,-0.8952789306640625
1776870888324658400,5.050658447265625,0.2911834716796875,0.4238128662109375,-0.894927978515625
1776870888334696200,5.0606962890625,0.2908172607421875,0.3822174072265625,-0.8888702392578125
1776870888344735500,5.070735595703125,0.3070526123046875,0.34307861328125,-0.8871002197265625
1776870888354773200,5.080773193359375,0.3359527587890625,0.315948486328125,-0.89495849609375
1776870888364811500,5.0908115234375,0.36273193359375,0.296051025390625,-0.912078857421875
1776870888374849300,5.100849365234375,0.38983154296875,0.2796478271484375,-0.92889404296875
1776870888384888300,5.110888427734375,0.4211883544921875,0.27423095703125,-0.9501495361328125
1776870888394926300,5.12092626953125,0.4398193359375,0.2768402099609375,-0.9673004150390625
1776870888404964000,5.130964111328125,0.467498779296875,0.2829132080078125,-0.979766845703125
1776870888415003400,5.14100341796875,0.488311767578125,0.28692626953125,-0.9876251220703125
1776870888425041200,5.151041259765625,0.5047149658203125,0.279998779296875,-0.982086181640625
1776870888435079400,5.161079345703125,0.490478515625,0.2769317626953125,-0.9615631103515625
1776870888445118500,5.171118408203125,0.439453125,0.285888671875,-0.930633544921875
1776870888455156200,5.18115625,0.3624267578125,0.3128204345703125,-0.8973388671875
1776870888465194200,5.1911943359375,0.2815093994140625,0.3544158935546875,-0.8692626953125
1776870888475233300,5.2012333984375,0.2257537841796875,0.3945770263671875,-0.8488006591796875
1776870888485271300,5.211271240234375,0.2171783447265625,0.4226531982421875,-0.8380584716796875
1776870888495309300,5.221309326171875,0.2383880615234375,0.4526824951171875,-0.834381103515625
1776870888505347800,5.231347900390625,0.26824951171875,0.4829254150390625,-0.8326263427734375
1776870888515386000,5.24138623046875,0.29644775390625,0.51116943359375,-0.8177947998046875
1776870888525424000,5.251424072265625,0.3153533935546875,0.5356597900390625,-0.79449462890625
1776870888535463200,5.261463134765625,0.3260498046875,0.547943115234375,-0.7621612548828125
1776870888545501000,5.2715009765625,0.3416748046875,0.5485382080078125,-0.725677490234375
1776870888555539200,5.281539306640625,0.36761474609375,0.545196533203125,-0.69549560546875
1776870888565578000,5.291577880859375,0.4081573486328125,0.54742431640625,-0.678924560546875
1776870888575616000,5.301615966796875,0.4537353515625,0.548492431640625,-0.6717987060546875
1776870888585654000,5.311654052734375,0.4851837158203125,0.5509185791015625,-0.6678314208984375
1776870888595693000,5.321693115234375,0.4995269775390625,0.558074951171875,-0.66497802734375
1776870888605731000,5.33173095703125,0.50128173828125,0.5676422119140625,-0.665924072265625
1776870888615768800,5.341768798828125,0.4891357421875,0.577239990234375,-0.6707611083984375
1776870888625808100,5.35180810546875,0.4657135009765625,0.584075927734375,-0.679351806640625
1776870888635846000,5.361845947265625,0.438446044921875,0.5787353515625,-0.6944732666015625
1776870888645884200,5.37188427734375,0.407562255859375,0.5680694580078125,-0.712371826171875
1776870888655923200,5.381923095703125,0.37420654296875,0.557098388671875,-0.732421875
1776870888665961000,5.3919609375,0.3481903076171875,0.546142578125,-0.748626708984375
1776870888675999000,5.4019990234375,0.3245697021484375,0.5352325439453125,-0.7613372802734375
1776870888686038000,5.4120380859375,0.3067474365234375,0.524322509765625,-0.773895263671875
1776870888696076000,5.422075927734375,0.2936248779296875,0.51300048828125,-0.785736083984375
1776870888706114000,5.432114013671875,0.28399658203125,0.503326416015625,-0.798614501953125
1776870888716152800,5.44215283203125,0.2793731689453125,0.49609375,-0.8085174560546875
1776870888726191000,5.452191162109375,0.2842559814453125,0.4959564208984375,-0.817230224609375
1776870888736228900,5.462228759765625,0.293365478515625,0.5042266845703125,-0.8171539306640625
1776870888746268200,5.47226806640625,0.3077239990234375,0.5124664306640625,-0.8070526123046875
1776870888756306000,5.482305908203125,0.3286895751953125,0.518157958984375,-0.7910003662109375
1776870888766344200,5.49234423828125,0.3509674072265625,0.52227783203125,-0.7761077880859375
1776870888776383000,5.502383056640625,0.375030517578125,0.523345947265625,-0.7644500732421875
1776870888786421000,5.5124208984375,0.395965576171875,0.5227203369140625,-0.7535858154296875
1776870888796459000,5.522458984375,0.4095458984375,0.52423095703125,-0.7401580810546875
1776870888806498000,5.532498046875,0.4200286865234375,0.525726318359375,-0.725311279296875
1776870888816536000,5.5425361328125,0.426055908203125,0.52740478515625,-0.7096710205078125
1776870888826574000,5.552573974609375,0.4293670654296875,0.5321044921875,-0.698211669921875
1776870888836612900,5.56261279296875,0.4350433349609375,0.5374908447265625,-0.69049072265625
1776870888846651100,5.572651123046875,0.441986083984375,0.539794921875,-0.689117431640625
1776870888856689000,5.58268896484375,0.4508514404296875,0.5396881103515625,-0.69183349609375
1776870888866728200,5.592728271484375,0.451904296875,0.5406494140625,-0.695037841796875
1776870888876766000,5.602765869140625,0.4385223388671875,0.5406646728515625,-0.6978759765625
1776870888886804200,5.61280419921875,0.4161834716796875,0.541839599609375,-0.7007904052734375
1776870888896843000,5.622843017578125,0.395050048828125,0.541748046875,-0.7047576904296875
1776870888906881000,5.632881103515625,0.379730224609375,0.538543701171875,-0.7143402099609375
1776870888916919000,5.6429189453125,0.3753204345703125,0.5321807861328125,-0.7293853759765625
1776870888926958000,5.6529580078125,0.3779296875,0.524932861328125,-0.746185302734375
1776870888936996000,5.66299609375,0.38092041015625,0.51910400390625,-0.760986328125
1776870888947034000,5.6730341796875,0.3768463134765625,0.51348876953125,-0.7672271728515625
1776870888957073000,5.683072998046875,0.3669281005859375,0.5036773681640625,-0.7658233642578125
1776870888967111200,5.693111083984375,0.3579254150390625,0.4944305419921875,-0.75946044921875
1776870888977149000,5.70314892578125,0.356903076171875,0.4881591796875,-0.754547119140625
1776870888987188200,5.713188232421875,0.3648223876953125,0.489837646484375,-0.7553558349609375
1776870888997226000,5.72322607421875,0.3821868896484375,0.4949493408203125,-0.7618560791015625
1776870889007264000,5.733263916015625,0.404296875,0.4989471435546875,-0.766754150390625
1776870889017303000,5.743302978515625,0.4243011474609375,0.4969635009765625,-0.7647247314453125
1776870889027341000,5.753341064453125,0.436065673828125,0.4877471923828125,-0.756317138671875
1776870889037379000,5.763379150390625,0.438751220703125,0.4761962890625,-0.7451019287109375
1776870889047418000,5.773418212890625,0.437042236328125,0.467803955078125,-0.7393341064453125
1776870889057456000,5.7834560546875,0.436309814453125,0.4666748046875,-0.7386474609375
1776870889067494000,5.793493896484375,0.4355316162109375,0.4656524658203125,-0.73919677734375
1776870889077533000,5.803532958984375,0.4325714111328125,0.4645233154296875,-0.740203857421875
1776870889087571000,5.813571044921875,0.435546875,0.467132568359375,-0.7454833984375
1776870889097609000,5.82360888671875,0.440155029296875,0.47491455078125,-0.7572784423828125
1776870889107648300,5.833648193359375,0.4468841552734375,0.4895477294921875,-0.7727203369140625
1776870889117686000,5.84368603515625,0.4532318115234375,0.512115478515625,-0.7969818115234375
1776870889127724000,5.85372412109375,0.4603118896484375,0.5334625244140625,-0.82598876953125
1776870889137763000,5.86376318359375,0.470947265625,0.5455474853515625,-0.852508544921875
1776870889147800800,5.87380078125,0.482208251953125,0.5521087646484375,-0.8761444091796875
1776870889157839000,5.883839111328125,0.4941558837890625,0.55169677734375,-0.8903961181640625
1776870889167878000,5.8938779296875,0.50640869140625,0.5439300537109375,-0.8925628662109375
1776870889177916200,5.903916259765625,0.507476806640625,0.5233612060546875,-0.8773040771484375
1776870889187954000,5.913953857421875,0.50091552734375,0.49359130859375,-0.848785400390625
1776870889197993000,5.923992919921875,0.4970703125,0.4684600830078125,-0.8207855224609375
1776870889208031000,5.934031005859375,0.5078582763671875,0.4438323974609375,-0.8043212890625
1776870889218069000,5.944069091796875,0.535186767578125,0.418609619140625,-0.7982025146484375
1776870889228108000,5.95410791015625,0.5655364990234375,0.394378662109375,-0.79833984375
1776870889238146000,5.96414599609375,0.5898284912109375,0.3686065673828125,-0.802337646484375
1776870889248184000,5.97418408203125,0.608978271484375,0.344451904296875,-0.80731201171875
1776870889258223000,5.98422314453125,0.6126556396484375,0.3229217529296875,-0.8077545166015625
1776870889268260900,5.9942607421875,0.6069793701171875,0.298492431640625,-0.8038482666015625
1776870889278299100,6.004299072265625,0.5933837890625,0.2752685546875,-0.7988128662109375
1776870889288337000,6.0143369140625,0.5715484619140625,0.2631988525390625,-0.7958221435546875
1776870889298376200,6.024376220703125,0.54534912109375,0.27227783203125,-0.7931671142578125
1776870889308414000,6.0344140625,0.5200958251953125,0.292266845703125,-0.78814697265625
1776870889318453000,6.044452880859375,0.49298095703125,0.3195648193359375,-0.77911376953125
1776870889328491000,6.054490966796875,0.462646484375,0.3474884033203125,-0.772064208984375
1776870889338529000,6.064529052734375,0.4339752197265625,0.376678466796875,-0.7723846435546875
1776870889348567000,6.074567138671875,0.4115142822265625,0.4061279296875,-0.778045654296875
1776870889358606000,6.084606201171875,0.3926239013671875,0.437469482421875,-0.790130615234375
1776870889368644000,6.09464404296875,0.3725128173828125,0.467742919921875,-0.8033294677734375
1776870889378682000,6.10468212890625,0.354034423828125,0.4965362548828125,-0.8159332275390625
1776870889388721000,6.114720947265625,0.338775634765625,0.519989013671875,-0.823638916015625
1776870889398759200,6.12475927734375,0.3279876708984375,0.534942626953125,-0.8228607177734375
1776870889408797000,6.134796875,0.3161163330078125,0.548492431640625,-0.816619873046875
1776870889418836200,6.144836181640625,0.30364990234375,0.55511474609375,-0.8045654296875
1776870889428874000,6.1548740234375,0.294464111328125,0.5594940185546875,-0.7919769287109375
1776870889438912000,6.164912109375,0.2847747802734375,0.564453125,-0.778228759765625
1776870889448951000,6.174950927734375,0.2763671875,0.56829833984375,-0.763458251953125
1776870889458988800,6.18498876953125,0.2640533447265625,0.5652008056640625,-0.7425994873046875
1776870889469027000,6.195027099609375,0.2505645751953125,0.562286376953125,-0.7143096923828125
1776870889479066000,6.205066162109375,0.2554931640625,0.552276611328125,-0.687347412109375
1776870889489104100,6.215104248046875,0.289764404296875,0.53509521484375,-0.67291259765625
1776870889499142000,6.225141845703125,0.3265533447265625,0.523895263671875,-0.6733551025390625
1776870889509180400,6.235180419921875,0.360321044921875,0.523529052734375,-0.6868743896484375
1776870889519218200,6.24521826171875,0.385162353515625,0.5296783447265625,-0.7045135498046875
1776870889529256400,6.25525634765625,0.401763916015625,0.5378570556640625,-0.7250213623046875
1776870889539295200,6.265295166015625,0.4088592529296875,0.54327392578125,-0.74755859375
1776870889549333200,6.275333251953125,0.4072723388671875,0.5396575927734375,-0.7669830322265625
1776870889559371300,6.285371337890625,0.4069671630859375,0.5272216796875,-0.7886810302734375
1776870889569410300,6.295410400390625,0.407470703125,0.5096893310546875,-0.810302734375
1776870889579448300,6.3054482421875,0.4041748046875,0.4935150146484375,-0.82952880859375
1776870889589486300,6.315486328125,0.3959197998046875,0.4872589111328125,-0.8451080322265625
1776870889599525000,6.325525146484375,0.38751220703125,0.4871826171875,-0.85369873046875
1776870889609563400,6.3355634765625,0.3792266845703125,0.478179931640625,-0.849853515625
1776870889619601200,6.34560107421875,0.3793487548828125,0.458648681640625,-0.8386383056640625
1776870889629640400,6.355640380859375,0.3865966796875,0.4391937255859375,-0.8272247314453125
1776870889639678200,6.36567822265625,0.4012298583984375,0.4209442138671875,-0.816253662109375
1776870889649716500,6.375716552734375,0.413848876953125,0.407745361328125,-0.8044891357421875
1776870889659755300,6.38575537109375,0.4307708740234375,0.398773193359375,-0.7975006103515625
1776870889669793300,6.395793212890625,0.44677734375,0.39752197265625,-0.7972564697265625
1776870889679831300,6.405831298828125,0.4601287841796875,0.39971923828125,-0.802947998046875
1776870889689870300,6.415870361328125,0.46990966796875,0.398956298828125,-0.805908203125
1776870889699908400,6.425908447265625,0.4658355712890625,0.3999786376953125,-0.801910400390625
1776870889709946400,6.4359462890625,0.4610595703125,0.3990631103515625,-0.7916259765625
1776870889719985200,6.445985107421875,0.4578094482421875,0.3983154296875,-0.772796630859375
1776870889730023400,6.4560234375,0.4510955810546875,0.387786865234375,-0.744598388671875
1776870889740061200,6.466061279296875,0.4310455322265625,0.36578369140625,-0.6978302001953125
1776870889750100500,6.4761005859375,0.4053955078125,0.339935302734375,-0.6435699462890625
1776870889760138200,6.48613818359375,0.37982177734375,0.3150482177734375,-0.588226318359375
1776870889770176500,6.496176513671875,0.35687255859375,0.30023193359375,-0.5440826416015625
1776870889780215300,6.50621533203125,0.342681884765625,0.3036041259765625,-0.52520751953125
1776870889790253300,6.51625341796875,0.3468017578125,0.3369140625,-0.5426177978515625
1776870889800291300,6.526291259765625,0.3683624267578125,0.3996734619140625,-0.5892333984375
1776870889810330400,6.536330322265625,0.392730712890625,0.473236083984375,-0.64691162109375
1776870889820368400,6.546368408203125,0.40350341796875,0.554962158203125,-0.69677734375
1776870889830406400,6.556406494140625,0.400482177734375,0.634521484375,-0.7418365478515625
1776870889840445200,6.566445068359375,0.38507080078125,0.7050628662109375,-0.77789306640625
1776870889850483500,6.5764833984375,0.3594512939453125,0.7714996337890625,-0.8038177490234375
1776870889860521200,6.586521240234375,0.3292083740234375,0.8330535888671875,-0.8336944580078125
1776870889870560500,6.596560546875,0.2239532470703125,0.915924072265625,-0.8582000732421875
1776870889880598300,6.606598388671875,0.008209228515625,1.0211334228515625,-0.84613037109375
1776870889890636300,6.61663623046875,0.0405120849609375,1.007781982421875,-0.8240814208984375
1776870889900675300,6.62667529296875,0.22344970703125,0.858551025390625,-0.81915283203125
1776870889910713000,6.636713134765625,0.4032135009765625,0.7197265625,-0.8072357177734375
1776870889920751400,6.64675146484375,0.534088134765625,0.6372528076171875,-0.7501220703125
1776870889930790400,6.656790283203125,0.565643310546875,0.5567474365234375,-0.6667022705078125
1776870889940828400,6.666828369140625,0.53619384765625,0.4523773193359375,-0.5939788818359375
1776870889950866200,6.6768662109375,0.50469970703125,0.3616485595703125,-0.550079345703125
1776870889960905200,6.6869052734375,0.5079193115234375,0.285186767578125,-0.5410003662109375
1776870889970943200,6.696943115234375,0.5451812744140625,0.2228546142578125,-0.57232666015625
1776870889980981200,6.706981201171875,0.5816650390625,0.1699066162109375,-0.642791748046875
1776870889991020300,6.717020263671875,0.6208953857421875,0.1391754150390625,-0.734710693359375
1776870890001058300,6.727058349609375,0.6443634033203125,0.128265380859375,-0.8196868896484375
1776870890011096300,6.737096435546875,0.6927947998046875,0.1345977783203125,-0.9017791748046875
1776870890021135400,6.74713525390625,0.744659423828125,0.141632080078125,-0.95831298828125
1776870890031173000,6.757173095703125,0.8330535888671875,0.1419525146484375,-0.9793243408203125
1776870890041211400,6.76721142578125,0.891693115234375,0.138458251953125,-0.9623565673828125
1776870890051250200,6.777250244140625,0.8783416748046875,0.1279754638671875,-0.9081878662109375
1776870890061288400,6.787288330078125,0.77227783203125,0.150115966796875,-0.8352508544921875
1776870890071326200,6.797326171875,0.652130126953125,0.2317352294921875,-0.8009185791015625
1776870890081365200,6.807365234375,0.575531005859375,0.324127197265625,-0.7980804443359375
1776870890091403300,6.8174033203125,0.529693603515625,0.403350830078125,-0.8084564208984375
1776870890101441300,6.827441162109375,0.4933013916015625,0.4712371826171875,-0.819549560546875
1776870890111479300,6.837479248046875,0.46209716796875,0.526611328125,-0.824859619140625
1776870890121518300,6.847518310546875,0.4329986572265625,0.5634002685546875,-0.81561279296875
1776870890131556400,6.857556396484375,0.40594482421875,0.5748138427734375,-0.7936248779296875
1776870890141595400,6.867595458984375,0.39501953125,0.571746826171875,-0.7617340087890625
1776870890151633200,6.877633056640625,0.4014434814453125,0.5676422119140625,-0.7225799560546875
1776870890161671400,6.88767138671875,0.416229248046875,0.5646514892578125,-0.6872100830078125
1776870890171710200,6.897710205078125,0.4318389892578125,0.5689239501953125,-0.66156005859375
1776870890181748500,6.90774853515625,0.449951171875,0.5695343017578125,-0.640533447265625
1776870890191786200,6.9177861328125,0.4682769775390625,0.557403564453125,-0.61517333984375
1776870890201824500,6.927824462890625,0.4824066162109375,0.52978515625,-0.587738037109375
1776870890211863300,6.93786328125,0.4882965087890625,0.502349853515625,-0.564208984375
1776870890221901300,6.9479013671875,0.4922027587890625,0.4840087890625,-0.5530242919921875
1776870890231940400,6.9579404296875,0.5023193359375,0.476593017578125,-0.554840087890625
1776870890241978400,6.967978271484375,0.5131988525390625,0.474700927734375,-0.57025146484375
1776870890252016400,6.978016357421875,0.5356597900390625,0.4847259521484375,-0.60107421875
1776870890262054100,6.98805419921875,0.555908203125,0.5021209716796875,-0.640960693359375
1776870890272093200,6.99809326171875,0.5652618408203125,0.51458740234375,-0.6820526123046875
1776870890282131200,7.008131103515625,0.56927490234375,0.510955810546875,-0.7146453857421875
1776870890292169200,7.018169189453125,0.5610809326171875,0.49359130859375,-0.7377777099609375
1776870890302208500,7.02820849609375,0.5412750244140625,0.4664306640625,-0.749298095703125
1776870890312246300,7.038246337890625,0.498565673828125,0.4411163330078125,-0.749969482421875
1776870890322284300,7.0482841796875,0.45556640625,0.4328765869140625,-0.748260498046875
1776870890332323300,7.0583232421875,0.4332275390625,0.436737060546875,-0.746307373046875
1776870890342361000,7.068361083984375,0.423065185546875,0.4363861083984375,-0.7409210205078125
1776870890352399400,7.0783994140625,0.418548583984375,0.4264373779296875,-0.730743408203125
1776870890362438100,7.088438232421875,0.420013427734375,0.4040374755859375,-0.7150115966796875
1776870890372476400,7.098476318359375,0.430328369140625,0.38519287109375,-0.7001953125
1776870890382514200,7.10851416015625,0.4481658935546875,0.3781890869140625,-0.6888427734375
1776870890392553200,7.11855322265625,0.4715576171875,0.380218505859375,-0.6798248291015625
1776870890402591200,7.12859130859375,0.494415283203125,0.390533447265625,-0.6656341552734375
1776870890412629200,7.138629150390625,0.51318359375,0.39886474609375,-0.638214111328125
1776870890422668300,7.148668212890625,0.5269775390625,0.3984527587890625,-0.599945068359375
1776870890432706300,7.158706298828125,0.5395355224609375,0.386566162109375,-0.5519561767578125
1776870890442744300,7.168744384765625,0.5572662353515625,0.37054443359375,-0.5039215087890625
1776870890452783400,7.178783447265625,0.586273193359375,0.3648223876953125,-0.4651336669921875
1776870890462821000,7.188821044921875,0.6322479248046875,0.3797149658203125,-0.443084716796875
1776870890472859400,7.198859375,0.693511962890625,0.4060211181640625,-0.4373626708984375
1776870890482898200,7.208898193359375,0.76171875,0.4387054443359375,-0.4403533935546875
1776870890492936400,7.2189365234375,0.81207275390625,0.459747314453125,-0.439056396484375
1776870890502974200,7.22897412109375,0.8421783447265625,0.461456298828125,-0.435211181640625
1776870890513013500,7.239013427734375,0.8495330810546875,0.4497833251953125,-0.4358367919921875
1776870890523051500,7.249051513671875,0.8462677001953125,0.4329376220703125,-0.4571533203125
1776870890533089300,7.25908935546875,0.8293304443359375,0.41387939453125,-0.50067138671875
1776870890543128600,7.269128662109375,0.8133392333984375,0.407928466796875,-0.5649566650390625
1776870890553166600,7.27916650390625,0.792388916015625,0.405426025390625,-0.6372833251953125
1776870890563204600,7.28920458984375,0.76129150390625,0.390350341796875,-0.7014923095703125
1776870890573243600,7.29924365234375,0.7276611328125,0.3594512939453125,-0.7599029541015625
1776870890583281400,7.309281494140625,0.68939208984375,0.325347900390625,-0.8083648681640625
1776870890593319400,7.3193193359375,0.6396026611328125,0.2946929931640625,-0.8432159423828125
1776870890603358500,7.3293583984375,0.5931549072265625,0.273406982421875,-0.868499755859375
1776870890613396500,7.339396484375,0.5576629638671875,0.259735107421875,-0.88134765625
1776870890623434500,7.3494345703125,0.5445556640625,0.24664306640625,-0.881561279296875
1776870890633473500,7.3594736328125,0.544189453125,0.22320556640625,-0.86041259765625
1776870890643511600,7.369511474609375,0.5630950927734375,0.1859283447265625,-0.8289642333984375
1776870890653549300,7.37954931640625,0.5872955322265625,0.1489105224609375,-0.7960357666015625
1776870890663588600,7.389588623046875,0.6114349365234375,0.1164093017578125,-0.767913818359375
1776870890673626400,7.39962646484375,0.6275634765625,0.0975189208984375,-0.74066162109375
1776870890683664600,7.40966455078125,0.6419677734375,0.107208251953125,-0.7165985107421875
1776870890693703400,7.419703369140625,0.6498565673828125,0.15484619140625,-0.706024169921875
1776870890703741400,7.429741455078125,0.66705322265625,0.2079925537109375,-0.7054290771484375
1776870890713779500,7.439779541015625,0.6879730224609375,0.2519073486328125,-0.700531005859375
1776870890723818500,7.449818603515625,0.7077484130859375,0.2838897705078125,-0.6886749267578125
1776870890733856500,7.4598564453125,0.7269439697265625,0.3050079345703125,-0.6688232421875
1776870890743894500,7.46989453125,0.747833251953125,0.3174896240234375,-0.646453857421875
1776870890753933300,7.479933349609375,0.7754058837890625,0.3228912353515625,-0.624114990234375
1776870890763971600,7.4899716796875,0.80877685546875,0.3217315673828125,-0.6039886474609375
1776870890774009300,7.50000927734375,0.84661865234375,0.3159942626953125,-0.5904541015625
1776870890784048600,7.510048583984375,0.87408447265625,0.3027496337890625,-0.582733154296875
1776870890794086400,7.52008642578125,0.8825225830078125,0.28704833984375,-0.58062744140625
1776870890804124700,7.530124755859375,0.869781494140625,0.276611328125,-0.5908966064453125
1776870890814163500,7.54016357421875,0.8521728515625,0.260772705078125,-0.6072540283203125
1776870890824201500,7.550201416015625,0.847900390625,0.2418060302734375,-0.629791259765625
1776870890834239500,7.560239501953125,0.8486328125,0.2258758544921875,-0.6566619873046875
1776870890844278500,7.570278564453125,0.843292236328125,0.2083892822265625,-0.68157958984375
1776870890854316500,7.580316650390625,0.825958251953125,0.187042236328125,-0.6983642578125
1776870890864354600,7.5903544921875,0.8009796142578125,0.1706390380859375,-0.7077484130859375
1776870890874393300,7.600393310546875,0.78009033203125,0.162628173828125,-0.7156829833984375
1776870890884431600,7.610431640625,0.7675018310546875,0.1637420654296875,-0.7193603515625
1776870890894469400,7.620469482421875,0.7554779052734375,0.1673431396484375,-0.711517333984375
1776870890904508700,7.6305087890625,0.7446136474609375,0.168670654296875,-0.6962432861328125
1776870890914546400,7.64054638671875,0.739288330078125,0.16998291015625,-0.680389404296875
1776870890924584700,7.650584716796875,0.737213134765625,0.179046630859375,-0.6668701171875
1776870890934623500,7.66062353515625,0.7323455810546875,0.1905364990234375,-0.6548614501953125
1776870890944661500,7.67066162109375,0.7279510498046875,0.1985321044921875,-0.6435089111328125
1776870890954699500,7.680699462890625,0.7339324951171875,0.20184326171875,-0.633453369140625
1776870890964738600,7.690738525390625,0.756561279296875,0.2030029296875,-0.6317596435546875
1776870890974776600,7.700776611328125,0.7859649658203125,0.197967529296875,-0.6339874267578125
1776870890984814300,7.710814453125,0.807098388671875,0.187744140625,-0.6419830322265625
1776870890994853400,7.720853271484375,0.813873291015625,0.177459716796875,-0.655364990234375
1776870891004891600,7.7308916015625,0.809600830078125,0.17218017578125,-0.6739654541015625
1776870891014929400,7.740929443359375,0.798736572265625,0.1709747314453125,-0.6892547607421875
1776870891024968700,7.75096875,0.784454345703125,0.1704864501953125,-0.698089599609375
1776870891035006500,7.76100634765625,0.7712249755859375,0.1668701171875,-0.694610595703125
1776870891045044500,7.77104443359375,0.7596893310546875,0.1593780517578125,-0.681549072265625
1776870891055083500,7.78108349609375,0.750030517578125,0.1444091796875,-0.65863037109375
1776870891065121500,7.79112158203125,0.73541259765625,0.131988525390625,-0.633514404296875
1776870891075159600,7.80115966796875,0.71673583984375,0.1251678466796875,-0.6107635498046875
1776870891085198300,7.8111982421875,0.6968841552734375,0.128448486328125,-0.595550537109375
1776870891095236600,7.821236572265625,0.6883087158203125,0.1436614990234375,-0.5917510986328125
1776870891105274400,7.8312744140625,0.6957550048828125,0.166107177734375,-0.5967254638671875
1776870891115313400,7.8413134765625,0.7197265625,0.183990478515625,-0.6047210693359375
1776870891125351400,7.851351318359375,0.7481536865234375,0.19482421875,-0.60736083984375
1776870891135389400,7.861389404296875,0.776641845703125,0.1939544677734375,-0.6041412353515625
1776870891145428500,7.871428466796875,0.8033599853515625,0.186126708984375,-0.5981292724609375
1776870891155466500,7.881466552734375,0.8306884765625,0.1792449951171875,-0.5968475341796875
1776870891165504500,7.89150439453125,0.8533782958984375,0.17626953125,-0.60858154296875
1776870891175543600,7.90154345703125,0.8605194091796875,0.173583984375,-0.63177490234375
1776870891185581600,7.91158154296875,0.84637451171875,0.1718292236328125,-0.6578521728515625
1776870891195619600,7.92161962890625,0.8217926025390625,0.165069580078125,-0.679779052734375
1776870891205658400,7.931658447265625,0.8017120361328125,0.1544342041015625,-0.696014404296875
1776870891215696600,7.941696533203125,0.791534423828125,0.1427764892578125,-0.7069549560546875
1776870891225734400,7.951734375,0.7810821533203125,0.13006591796875,-0.7090301513671875
1776870891235773400,7.9617734375,0.7748565673828125,0.119598388671875,-0.7079620361328125
1776870891245811500,7.9718115234375,0.775146484375,0.1134033203125,-0.709716796875
1776870891255849500,7.981849365234375,0.78497314453125,0.11480712890625,-0.7129974365234375
1776870891265888500,7.991888427734375,0.8018035888671875,0.1198272705078125,-0.7187957763671875
1776870891275926500,8.001926513671876,0.8127899169921875,0.1253204345703125,-0.722198486328125
1776870891285964500,8.011964599609374,0.8167266845703125,0.1292572021484375,-0.7220611572265625
1776870891296003600,8.022003662109375,0.8226470947265625,0.1309967041015625,-0.7147369384765625
1776870891306041600,8.03204150390625,0.8276519775390625,0.1315155029296875,-0.6995849609375
1776870891316079600,8.04207958984375,0.8242034912109375,0.129547119140625,-0.6761016845703125
1776870891326118400,8.052118408203125,0.8079833984375,0.1296234130859375,-0.65106201171875
1776870891336156700,8.06215673828125,0.7913055419921875,0.1391448974609375,-0.6394195556640625
1776870891346194400,8.0721943359375,0.7834625244140625,0.1588287353515625,-0.6452484130859375
1776870891356233500,8.0822333984375,0.7856292724609375,0.1832275390625,-0.6651153564453125
1776870891366271500,8.092271484375,0.7924957275390625,0.198394775390625,-0.683746337890625
1776870891376309800,8.102309814453125,0.79925537109375,0.20654296875,-0.696319580078125
1776870891386348500,8.1123486328125,0.80218505859375,0.206451416015625,-0.7028656005859375
1776870891396386600,8.122386474609375,0.7998504638671875,0.2008819580078125,-0.70623779296875
1776870891406424600,8.132424560546875,0.797088623046875,0.1977081298828125,-0.709686279296875
1776870891416463600,8.142463623046876,0.8031005859375,0.197418212890625,-0.7109832763671875
1776870891426501600,8.152501708984374,0.815032958984375,0.19171142578125,-0.7081451416015625
1776870891436539400,8.162539306640625,0.8219757080078125,0.1834716796875,-0.6965484619140625
1776870891446578400,8.172578369140625,0.8217315673828125,0.171905517578125,-0.682281494140625
1776870891456616400,8.182616455078126,0.819091796875,0.166015625,-0.67388916015625
1776870891466654500,8.192654541015624,0.816436767578125,0.17205810546875,-0.675445556640625
1776870891476693500,8.202693603515625,0.8069915771484375,0.1855621337890625,-0.682586669921875
1776870891486731500,8.2127314453125,0.793487548828125,0.198699951171875,-0.6842193603515625
1776870891496769500,8.22276953125,0.776702880859375,0.2050628662109375,-0.6767120361328125
1776870891506809300,8.232809326171875,0.7625885009765625,0.20697021484375,-0.662628173828125
1776870891516847400,8.242847412109375,0.751068115234375,0.206451416015625,-0.6480560302734375
1776870891526885400,8.252885498046876,0.746368408203125,0.209320068359375,-0.63482666015625
1776870891536924400,8.26292431640625,0.7503814697265625,0.22119140625,-0.629364013671875
1776870891546962200,8.272962158203125,0.7591705322265625,0.2373046875,-0.633941650390625
1776870891557000200,8.283000244140625,0.7655181884765625,0.2521514892578125,-0.640472412109375
1776870891567039200,8.293039306640624,0.7656097412109375,0.263275146484375,-0.6489410400390625
1776870891577077200,8.3030771484375,0.7603302001953125,0.269622802734375,-0.653564453125
1776870891587115300,8.313115234375,0.7540130615234375,0.2742767333984375,-0.6577606201171875
1776870891597154300,8.323154296875,0.74639892578125,0.2755584716796875,-0.6602630615234375
1776870891607192300,8.3331923828125,0.7371368408203125,0.27777099609375,-0.6580352783203125
1776870891617230000,8.34322998046875,0.72314453125,0.282745361328125,-0.6532135009765625
1776870891627269400,8.353269287109375,0.7115325927734375,0.2952728271484375,-0.6517333984375
1776870891637307100,8.36330712890625,0.7077789306640625,0.31024169921875,-0.655853271484375
1776870891647345400,8.373345458984375,0.7096099853515625,0.324310302734375,-0.6616668701171875
1776870891657384200,8.38338427734375,0.70831298828125,0.3323211669921875,-0.662384033203125
1776870891667422200,8.393422119140626,0.69964599609375,0.33837890625,-0.6631317138671875
1776870891677460200,8.403460205078124,0.6880340576171875,0.344207763671875,-0.6655426025390625
1776870891687499300,8.413499267578125,0.67742919921875,0.34771728515625,-0.6680145263671875
1776870891697537300,8.423537353515625,0.66876220703125,0.348114013671875,-0.6682281494140625
1776870891707575300,8.4335751953125,0.6630096435546875,0.342498779296875,-0.6661834716796875
1776870891717614000,8.443614013671874,0.66192626953125,0.3375396728515625,-0.6623382568359375
1776870891727652400,8.45365234375,0.65850830078125,0.33245849609375,-0.655120849609375
1776870891737690000,8.463690185546875,0.6518402099609375,0.3314361572265625,-0.6482696533203125
1776870891747729400,8.4737294921875,0.645263671875,0.3396759033203125,-0.6440277099609375
1776870891757767200,8.48376708984375,0.637786865234375,0.3529815673828125,-0.6443328857421875
1776870891767805400,8.493805419921875,0.63037109375,0.3657989501953125,-0.646392822265625
1776870891777844200,8.50384423828125,0.621490478515625,0.3757781982421875,-0.646148681640625
1776870891787882200,8.51388232421875,0.6104583740234375,0.382720947265625,-0.6434326171875
1776870891797920300,8.523920166015625,0.5997161865234375,0.3886566162109375,-0.63800048828125
1776870891807959300,8.533959228515625,0.5879974365234375,0.392730712890625,-0.62994384765625
1776870891817997300,8.543997314453126,0.5772705078125,0.3961181640625,-0.618133544921875
1776870891828035300,8.554035400390624,0.56878662109375,0.4003753662109375,-0.608367919921875
1776870891838074000,8.56407421875,0.5568084716796875,0.40301513671875,-0.5970306396484375
1776870891848112400,8.5741123046875,0.5435943603515625,0.404815673828125,-0.5891876220703125
1776870891858150100,8.584150146484374,0.527801513671875,0.4106292724609375,-0.583953857421875
1776870891868189400,8.594189453125,0.5102081298828125,0.4193878173828125,-0.5843505859375
1776870891878227200,8.604227294921875,0.4933013916015625,0.4329833984375,-0.5885009765625
1776870891888265500,8.614265380859376,0.4788818359375,0.4495086669921875,-0.5961456298828125
1776870891898304300,8.62430419921875,0.4698333740234375,0.4671630859375,-0.6053009033203125
1776870891908342300,8.63434228515625,0.4633636474609375,0.4817352294921875,-0.616180419921875
1776870891918380300,8.64438037109375,0.456207275390625,0.4984283447265625,-0.6256866455078125
1776870891928419300,8.65441943359375,0.4512786865234375,0.5113525390625,-0.6322174072265625
1776870891938457300,8.664457275390625,0.4481201171875,0.5208740234375,-0.635498046875
1776870891948495000,8.6744951171875,0.4422149658203125,0.52337646484375,-0.63592529296875
1776870891958534100,8.6845341796875,0.4452667236328125,0.5204620361328125,-0.6387786865234375
1776870891968572400,8.694572509765624,0.4553070068359375,0.515716552734375,-0.642303466796875
1776870891978610200,8.704610107421875,0.4649200439453125,0.51385498046875,-0.646087646484375
1776870891988649500,8.7146494140625,0.4681854248046875,0.512115478515625,-0.647857666015625
1776870891998687200,8.724687255859376,0.4709930419921875,0.5090179443359375,-0.646636962890625
1776870892008725200,8.734725341796874,0.4725189208984375,0.50048828125,-0.6452178955078125
1776870892018764300,8.744764404296875,0.4751129150390625,0.4955291748046875,-0.64581298828125
1776870892028802000,8.754802001953125,0.4821014404296875,0.4913482666015625,-0.64892578125
1776870892038840300,8.76484033203125,0.4904327392578125,0.4829864501953125,-0.6555328369140625
1776870892048879400,8.77487939453125,0.4982147216796875,0.4754486083984375,-0.6680145263671875
1776870892058917400,8.78491748046875,0.496612548828125,0.4684600830078125,-0.6827239990234375
1776870892068955100,8.794955078125,0.4913330078125,0.46820068359375,-0.6991729736328125
1776870892078994200,8.804994140625,0.4791259765625,0.472320556640625,-0.710723876953125
1776870892089032200,8.8150322265625,0.464324951171875,0.4761962890625,-0.718597412109375
1776870892099070200,8.8250703125,0.4518280029296875,0.477508544921875,-0.72418212890625
1776870892109109200,8.835109130859376,0.43878173828125,0.473968505859375,-0.730865478515625
1776870892119147300,8.845147216796875,0.42840576171875,0.4715423583984375,-0.7381134033203125
1776870892129185300,8.855185302734375,0.425933837890625,0.4728546142578125,-0.749542236328125
1776870892139224300,8.865224365234376,0.4311065673828125,0.479736328125,-0.7600250244140625
1776870892149262000,8.875261962890624,0.4348297119140625,0.4861297607421875,-0.76513671875
1776870892159300400,8.88530029296875,0.4369659423828125,0.485565185546875,-0.763824462890625
1776870892169339100,8.895339111328125,0.4386138916015625,0.4822235107421875,-0.758575439453125
1776870892179377400,8.90537744140625,0.4373626708984375,0.4795379638671875,-0.751739501953125
1776870892189415200,8.915415283203124,0.43572998046875,0.4766387939453125,-0.7432861328125
1776870892199454200,8.9254541015625,0.43701171875,0.4769439697265625,-0.733245849609375
1776870892209492200,8.9354921875,0.442047119140625,0.4736175537109375,-0.718109130859375
1776870892219530200,8.9455302734375,0.4500732421875,0.464385986328125,-0.6965789794921875
1776870892229569300,8.9555693359375,0.460723876953125,0.455078125,-0.6768341064453125
1776870892239607300,8.965607177734375,0.47589111328125,0.4549560546875,-0.66656494140625
1776870892249645300,8.975645263671876,0.4947662353515625,0.463653564453125,-0.6668243408203125
1776870892259684400,8.985684326171874,0.5157012939453125,0.4777984619140625,-0.6754913330078125
1776870892269722000,8.99572216796875,0.529327392578125,0.488555908203125,-0.685394287109375
1776870892279760400,9.005760498046875,0.5288543701171875,0.494140625,-0.692108154296875
1776870892289799200,9.015799072265626,0.5149993896484375,0.4962005615234375,-0.6980743408203125
1776870892299837400,9.02583740234375,0.4994354248046875,0.495330810546875,-0.702789306640625
1776870892309875200,9.035875244140625,0.4851226806640625,0.4929046630859375,-0.7096405029296875
1776870892319914200,9.045914306640626,0.4774322509765625,0.4903564453125,-0.7205352783203125
1776870892329952300,9.0559521484375,0.475189208984375,0.490081787109375,-0.73345947265625
1776870892339990300,9.065990234375,0.4754791259765625,0.4919586181640625,-0.74664306640625
1776870892350029300,9.076029296875,0.4766998291015625,0.4931182861328125,-0.75634765625
1776870892360067300,9.0860673828125,0.4795074462890625,0.4881439208984375,-0.7622528076171875
1776870892370105300,9.096105224609374,0.485260009765625,0.4769439697265625,-0.7647705078125
1776870892380144400,9.106144287109375,0.4979095458984375,0.4635772705078125,-0.7655792236328125
1776870892390182100,9.11618212890625,0.5074005126953125,0.4513092041015625,-0.7671051025390625
1776870892400220200,9.12622021484375,0.5137939453125,0.44085693359375,-0.766937255859375
1776870892410259200,9.13625927734375,0.51898193359375,0.4365386962890625,-0.766021728515625
1776870892420297500,9.14629736328125,0.5200347900390625,0.4384002685546875,-0.763580322265625
1776870892430335200,9.156335205078125,0.520782470703125,0.442047119140625,-0.7569122314453125
1776870892440374300,9.166374267578124,0.514495849609375,0.4456329345703125,-0.7461090087890625
1776870892450412300,9.176412353515625,0.50653076171875,0.4506988525390625,-0.7385406494140625
1776870892460450000,9.186449951171875,0.5029144287109375,0.458404541015625,-0.732421875
1776870892470489300,9.1964892578125,0.49951171875,0.465789794921875,-0.7275390625
1776870892480527000,9.206527099609374,0.4946441650390625,0.4726104736328125,-0.7201690673828125
1776870892490565400,9.2165654296875,0.490386962890625,0.479400634765625,-0.7140960693359375
1776870892500604200,9.226604248046876,0.4912109375,0.48663330078125,-0.7092437744140625
1776870892510642200,9.23664208984375,0.4968719482421875,0.4919586181640625,-0.706207275390625
1776870892520680000,9.246679931640625,0.50146484375,0.4979705810546875,-0.7047119140625
1776870892530719000,9.256718994140625,0.5020294189453125,0.5029754638671875,-0.7057952880859375
1776870892540757000,9.266757080078126,0.499298095703125,0.508819580078125,-0.7069091796875
1776870892550795000,9.276794921875,0.500762939453125,0.511749267578125,-0.7098541259765625
1776870892560834000,9.286833984375,0.5103302001953125,0.5110015869140625,-0.7133941650390625
1776870892570872000,9.2968720703125,0.52001953125,0.506439208984375,-0.7151641845703125
1776870892580910000,9.30691015625,0.52215576171875,0.4944610595703125,-0.7128753662109375
1776870892590949000,9.31694921875,0.51763916015625,0.4810028076171875,-0.70892333984375
1776870892600987000,9.32698681640625,0.511138916015625,0.4696197509765625,-0.707672119140625
1776870892611025200,9.337025146484375,0.507476806640625,0.4626007080078125,-0.7125244140625
1776870892621064000,9.34706396484375,0.504791259765625,0.4590301513671875,-0.7183074951171875
1776870892631102200,9.357102294921875,0.5030364990234375,0.4596405029296875,-0.7238922119140625
1776870892641140000,9.367139892578125,0.4990997314453125,0.464111328125,-0.733367919921875
1776870892651179000,9.377178955078126,0.4892120361328125,0.46990966796875,-0.743408203125
1776870892661217000,9.387217041015624,0.477813720703125,0.4704742431640625,-0.74603271484375
1776870892671255000,9.397255126953125,0.4669952392578125,0.466949462890625,-0.74365234375
1776870892681294000,9.407294189453125,0.4624176025390625,0.464019775390625,-0.7386474609375
1776870892691332000,9.41733203125,0.4686126708984375,0.4654693603515625,-0.7351837158203125
1776870892701370000,9.4273701171875,0.4801177978515625,0.4681243896484375,-0.735931396484375
1776870892711409200,9.4374091796875,0.489990234375,0.47100830078125,-0.7359771728515625
1776870892721447000,9.447447021484376,0.495513916015625,0.4760284423828125,-0.73443603515625
1776870892731485200,9.457485107421874,0.4957427978515625,0.47930908203125,-0.7345428466796875
1776870892741524000,9.46752392578125,0.495147705078125,0.481414794921875,-0.7293548583984375
1776870892751562200,9.477562255859375,0.4919891357421875,0.4811859130859375,-0.720489501953125
1776870892761600000,9.48760009765625,0.490814208984375,0.4797515869140625,-0.7072906494140625
1776870892771639000,9.49763916015625,0.4905853271484375,0.4786834716796875,-0.69586181640625
1776870892781677000,9.507677001953125,0.488555908203125,0.4794769287109375,-0.6858367919921875
1776870892791715000,9.517715087890625,0.48388671875,0.481292724609375,-0.6771392822265625
1776870892801754000,9.527754150390624,0.48016357421875,0.4806060791015625,-0.67083740234375
1776870892811792100,9.537792236328125,0.4771575927734375,0.477264404296875,-0.665863037109375
1776870892821830100,9.547830078125,0.4713287353515625,0.4706878662109375,-0.663177490234375
1776870892831869200,9.557869140625,0.46197509765625,0.467010498046875,-0.6626434326171875
1776870892841907000,9.567906982421874,0.452301025390625,0.4679412841796875,-0.666473388671875
1776870892851945200,9.5779453125,0.449371337890625,0.47601318359375,-0.676513671875
1776870892861984000,9.58798388671875,0.4500732421875,0.4876861572265625,-0.6873016357421875
1776870892872022300,9.598022216796876,0.448822021484375,0.4972991943359375,-0.69586181640625
1776870892882060000,9.60806005859375,0.4508209228515625,0.5008087158203125,-0.697845458984375
1776870892892099000,9.61809912109375,0.448150634765625,0.4935455322265625,-0.6921844482421875
1776870892902137000,9.62813720703125,0.4442596435546875,0.4846343994140625,-0.6822662353515625
1776870892912175000,9.638175048828124,0.439361572265625,0.480010986328125,-0.67388916015625
1776870892922214100,9.648214111328125,0.4370574951171875,0.476409912109375,-0.6669769287109375
1776870892932252200,9.658252197265625,0.4391326904296875,0.47674560546875,-0.664031982421875
1776870892942290200,9.668290283203126,0.44671630859375,0.4793853759765625,-0.6654205322265625
1776870892952329200,9.6783291015625,0.4549713134765625,0.4831085205078125,-0.668212890625
1776870892962367000,9.688366943359375,0.463165283203125,0.4829559326171875,-0.6678314208984375
1776870892972405000,9.698405029296875,0.4673004150390625,0.475982666015625,-0.6640167236328125
1776870892982444000,9.708444091796874,0.467376708984375,0.46484375,-0.66064453125
1776870892992482000,9.71848193359375,0.470611572265625,0.4539947509765625,-0.6597137451171875
1776870893002520000,9.72852001953125,0.476043701171875,0.4449005126953125,-0.6606292724609375
1776870893012559000,9.73855908203125,0.482147216796875,0.439544677734375,-0.6632232666015625
1776870893022597000,9.74859716796875,0.4900054931640625,0.4377593994140625,-0.669952392578125
1776870893032635000,9.758634765625,0.4946136474609375,0.438323974609375,-0.676239013671875
1776870893042674200,9.768674072265625,0.495635986328125,0.4385986328125,-0.6803436279296875
1776870893052712000,9.7787119140625,0.4958953857421875,0.4381866455078125,-0.68328857421875
1776870893062750200,9.788750244140624,0.492645263671875,0.434234619140625,-0.6800689697265625
1776870893072789000,9.7987890625,0.4909210205078125,0.4253997802734375,-0.676055908203125
1776870893082827000,9.808826904296875,0.501708984375,0.41571044921875,-0.6777496337890625
1776870893092865000,9.818864990234376,0.517822265625,0.409698486328125,-0.688232421875
1776870893102904000,9.828904052734375,0.533721923828125,0.4094390869140625,-0.7042694091796875
1776870893112942000,9.838942138671875,0.5425872802734375,0.4149627685546875,-0.7162628173828125
1776870893122980000,9.84897998046875,0.540679931640625,0.418243408203125,-0.721282958984375
1776870893133019000,9.859018798828124,0.5316619873046875,0.4175567626953125,-0.7183990478515625
1776870893143057200,9.86905712890625,0.527435302734375,0.40576171875,-0.7103729248046875
1776870893153095000,9.879094970703125,0.5302886962890625,0.385009765625,-0.698211669921875
1776870893163134200,9.88913427734375,0.539886474609375,0.35809326171875,-0.6865234375
1776870893173172000,9.899171875,0.5497589111328125,0.33441162109375,-0.678253173828125
1776870893183210200,9.909210205078125,0.5634918212890625,0.316925048828125,-0.670379638671875
1776870893193249000,9.9192490234375,0.5857086181640625,0.309173583984375,-0.668975830078125
1776870893203287000,9.929287109375,0.6098480224609375,0.310760498046875,-0.671722412109375
1776870893213325000,9.939324951171875,0.626251220703125,0.3194427490234375,-0.6768341064453125
1776870893223364000,9.949364013671875,0.63323974609375,0.3325653076171875,-0.6800689697265625
1776870893233402000,9.959402099609376,0.63079833984375,0.3459930419921875,-0.681610107421875
1776870893243440000,9.969440185546874,0.62603759765625,0.35125732421875,-0.6824798583984375
1776870893253479000,9.97947900390625,0.623443603515625,0.3491363525390625,-0.6816558837890625
1776870893263517200,9.98951708984375,0.630035400390625,0.3459930419921875,-0.681243896484375
1776870893273555000,9.999554931640626,0.640289306640625,0.3430938720703125,-0.6805419921875
1776870893283593200,10.00959326171875,0.6570281982421875,0.33880615234375,-0.6802825927734375
1776870893293632000,10.019632080078125,0.677886962890625,0.3336944580078125,-0.682708740234375
1776870893303670300,10.029670166015626,0.70111083984375,0.3285980224609375,-0.687347412109375
1776870893313709000,10.039708984375,0.7199249267578125,0.3212890625,-0.6926116943359375
1776870893323747000,10.0497470703125,0.7275390625,0.307281494140625,-0.6947479248046875
1776870893333785000,10.05978515625,0.727874755859375,0.2863311767578125,-0.69451904296875
1776870893343822800,10.06982275390625,0.725250244140625,0.26153564453125,-0.6940155029296875
1776870893353862100,10.079862060546875,0.7253265380859375,0.2362518310546875,-0.6987152099609375
1776870893363900000,10.08989990234375,0.7233734130859375,0.217620849609375,-0.7047882080078125
1776870893373938200,10.099938232421875,0.7185821533203125,0.2083740234375,-0.7148895263671875
1776870893383977200,10.109977294921874,0.7161102294921875,0.205352783203125,-0.7314300537109375
1776870893394015000,10.120014892578125,0.7062225341796875,0.2087860107421875,-0.7515411376953125
1776870893404053000,10.130052978515625,0.6857147216796875,0.2175445556640625,-0.7657470703125
1776870893414092000,10.140092041015626,0.6759033203125,0.2249908447265625,-0.7796478271484375
1776870893424130000,10.150130126953124,0.6769256591796875,0.2219085693359375,-0.7811279296875
1776870893434168000,10.16016796875,0.6883087158203125,0.2142791748046875,-0.771728515625
1776870893444206800,10.170206787109375,0.702178955078125,0.21478271484375,-0.7537689208984375
1776870893454245000,10.1802451171875,0.7182769775390625,0.2187347412109375,-0.7299652099609375
1776870893464283000,10.190282958984374,0.7305450439453125,0.2230682373046875,-0.7026824951171875
1776870893474322200,10.200322265625,0.747222900390625,0.2261810302734375,-0.6792755126953125
1776870893484360000,10.21035986328125,0.7744293212890625,0.2318267822265625,-0.6631927490234375
1776870893494398200,10.220398193359374,0.8024139404296875,0.2314300537109375,-0.650787353515625
1776870893504437000,10.23043701171875,0.819671630859375,0.2239532470703125,-0.637481689453125
1776870893514474500,10.240474609375,0.8225555419921875,0.21600341796875,-0.6230010986328125
1776870893524512300,10.25051220703125,0.8155670166015625,0.2110748291015625,-0.61102294921875
1776870893534551300,10.26055126953125,0.800323486328125,0.2071990966796875,-0.6007843017578125
1776870893544589300,10.27058935546875,0.772369384765625,0.204559326171875,-0.5910186767578125
1776870893554627300,10.28062744140625,0.74493408203125,0.20306396484375,-0.5875701904296875
1776870893564666600,10.29066650390625,0.7274322509765625,0.207977294921875,-0.595123291015625
1776870893574704400,10.300704345703124,0.71563720703125,0.212554931640625,-0.607940673828125
1776870893584742400,10.310742431640625,0.709930419921875,0.2119903564453125,-0.62030029296875
1776870893594781400,10.320781494140626,0.7165985107421875,0.2143096923828125,-0.6332244873046875
1776870893604819200,10.330819091796876,0.722808837890625,0.2140350341796875,-0.64642333984375
1776870893614857500,10.340857421875,0.7230377197265625,0.2132568359375,-0.6666717529296875
1776870893624896300,10.350896240234375,0.7380523681640625,0.207305908203125,-0.6871185302734375
1776870893634934500,10.3609345703125,0.7682647705078125,0.186004638671875,-0.693695068359375
1776870893644972300,10.37097216796875,0.799041748046875,0.1517486572265625,-0.6801605224609375
1776870893655011300,10.38101123046875,0.8237457275390625,0.1341552734375,-0.6646270751953125
1776870893665049300,10.39104931640625,0.835357666015625,0.08441162109375,-0.6192779541015625
1776870893675087400,10.40108740234375,0.85791015625,0.0351715087890625,-0.5735626220703125
1776870893685126400,10.41112646484375,0.8581695556640625,0.0244903564453125,-0.5416259765625
1776870893695164400,10.421164306640625,0.9284820556640625,0.0157318115234375,-0.535430908203125
1776870893705202400,10.431202392578125,0.9713287353515625,0.020233154296875,-0.518035888671875
1776870893715241500,10.441241455078124,0.98822021484375,0.0369720458984375,-0.516632080078125
1776870893725279200,10.451279296875,0.9762115478515625,0.066070556640625,-0.522003173828125
1776870893735317500,10.4613173828125,0.9534912109375,0.0897064208984375,-0.527801513671875
1776870893745356300,10.471356201171876,0.92950439453125,0.09564208984375,-0.523468017578125
1776870893755394600,10.48139453125,0.902252197265625,0.1073760986328125,-0.512359619140625
1776870893765432300,10.491432373046875,0.8748321533203125,0.072113037109375,-0.486480712890625
1776870893775470600,10.501470703125,0.8841552734375,0.0372772216796875,-0.46075439453125
1776870893785509400,10.51150927734375,0.8941497802734375,0.0377197265625,-0.467620849609375
1776870893795547400,10.52154736328125,0.9119110107421875,0.02911376953125,-0.4825592041015625
1776870893805585400,10.53158544921875,0.918731689453125,0.01080322265625,-0.4849700927734375
1776870893815624400,10.54162451171875,0.939453125,0.0010986328125,-0.4940338134765625
1776870893825662500,10.551662353515624,0.9510040283203125,0.004791259765625,-0.4955291748046875
1776870893835700500,10.561700439453125,0.9527740478515625,0.0053253173828125,-0.4768829345703125
1776870893845739300,10.5717392578125,0.9524688720703125,0.009490966796875,-0.44671630859375
1776870893855777500,10.581777587890626,0.9313812255859375,0.01910400390625,-0.4244537353515625
1776870893865815300,10.591815185546874,0.9102783203125,0.0285491943359375,-0.418975830078125
1776870893875854600,10.6018544921875,0.9019622802734375,0.026885986328125,-0.42059326171875
1776870893885892400,10.611892333984375,0.9203948974609375,0.0391693115234375,-0.4439239501953125
1776870893895930400,10.621930419921876,0.935791015625,0.0395965576171875,-0.4604034423828125
1776870893905969400,10.631969482421875,0.9618072509765625,0.0247802734375,-0.4575347900390625
1776870893916007200,10.642007080078125,0.9840240478515625,0.0101165771484375,-0.44085693359375
1776870893926045400,10.65204541015625,1.0043182373046875,0.010345458984375,-0.4300384521484375
1776870893936084500,10.66208447265625,1.0156707763671875,0.0217132568359375,-0.427459716796875
1776870893946122500,10.67212255859375,1.008148193359375,0.0294036865234375,-0.4261474609375
1776870893956160300,10.68216015625,0.988861083984375,0.0261077880859375,-0.4319915771484375
1776870893966199300,10.69219921875,0.9701995849609375,0.0194091796875,-0.44403076171875
1776870893976237300,10.7022373046875,0.9542999267578125,0.019287109375,-0.455535888671875
1776870893986275300,10.712275390625,0.9456787109375,0.0220947265625,-0.464935302734375
1776870893996314400,10.722314453125,0.9418182373046875,0.0263824462890625,-0.4746551513671875
1776870894006352400,10.732352294921874,0.9432220458984375,0.0273895263671875,-0.48712158203125
1776870894016390400,10.742390380859375,0.941131591796875,0.02880859375,-0.5033111572265625
1776870894026429400,10.752429443359375,0.93560791015625,0.028900146484375,-0.51898193359375
1776870894036467200,10.76246728515625,0.9256439208984375,0.033599853515625,-0.5355987548828125
1776870894046505500,10.77250537109375,0.9103851318359375,0.0418853759765625,-0.548248291015625
1776870894056544300,10.782544189453125,0.878326416015625,0.048095703125,-0.555023193359375
1776870894066582500,10.79258251953125,0.8753204345703125,0.05865478515625,-0.5662841796875
1776870894076620300,10.802620361328126,0.8433074951171875,0.056854248046875,-0.560760498046875
1776870894086659300,10.812659423828125,0.8358306884765625,0.0571136474609375,-0.566741943359375
1776870894096697300,10.822697265625,0.8161773681640625,0.05474853515625,-0.567626953125
1776870894106735400,10.8327353515625,0.82867431640625,0.0606689453125,-0.5813140869140625
1776870894116773400,10.8427734375,0.821868896484375,0.0675048828125,-0.58966064453125
1776870894126812400,10.8528125,0.8493804931640625,0.0882415771484375,-0.608184814453125
1776870894136850400,10.862850341796875,0.8401641845703125,0.0987396240234375,-0.6170806884765625
1776870894146888400,10.872888427734376,0.8686065673828125,0.1239471435546875,-0.643890380859375
1776870894156927200,10.88292724609375,0.8675689697265625,0.1363525390625,-0.656219482421875
1776870894166965500,10.892965576171875,0.8457794189453125,0.1337432861328125,-0.655914306640625
1776870894177003300,10.903003173828125,0.8403167724609375,0.1375885009765625,-0.65863037109375
1776870894187042600,10.91304248046875,0.839996337890625,0.145599365234375,-0.6578369140625
1776870894197080300,10.923080322265625,0.8287506103515625,0.14300537109375,-0.65185546875
1776870894207118600,10.93311865234375,0.821258544921875,0.1413116455078125,-0.6491241455078125
1776870894217157400,10.943157470703126,0.829986572265625,0.1428070068359375,-0.6578369140625
1776870894227195400,10.9531953125,0.8383331298828125,0.13800048828125,-0.6691741943359375
1776870894237233400,10.9632333984375,0.8402557373046875,0.1310272216796875,-0.6717681884765625
1776870894247272400,10.9732724609375,0.841522216796875,0.1305389404296875,-0.674102783203125
1776870894257310500,10.983310546875,0.8372650146484375,0.12603759765625,-0.6726531982421875
1776870894267348200,10.99334814453125,0.832916259765625,0.1293487548828125,-0.669830322265625
1776870894277387300,11.00338720703125,0.833221435546875,0.137664794921875,-0.6647796630859375
1776870894287425300,11.01342529296875,0.8318634033203125,0.1566162109375,-0.6662139892578125
1776870894297463300,11.02346337890625,0.8287811279296875,0.1762542724609375,-0.6686553955078125
1776870894307502600,11.033502685546875,0.824127197265625,0.193817138671875,-0.6695404052734375
1776870894317540400,11.043540283203125,0.8146514892578125,0.2059326171875,-0.6678314208984375
1776870894327578400,11.053578369140626,0.8026123046875,0.2123260498046875,-0.6657562255859375
1776870894337617400,11.063617431640624,0.7911529541015625,0.2157440185546875,-0.6632232666015625
1776870894347655400,11.073655517578125,0.78125,0.215728759765625,-0.6601409912109375
1776870894357693400,11.083693359375,0.7695159912109375,0.2102203369140625,-0.6515655517578125
1776870894367732200,11.093732177734376,0.757232666015625,0.20526123046875,-0.6405181884765625
1776870894377770500,11.1037705078125,0.749114990234375,0.2007598876953125,-0.627899169921875
1776870894387808300,11.113808349609375,0.74639892578125,0.199188232421875,-0.6154937744140625
1776870894397846500,11.123846435546875,0.7469635009765625,0.2086639404296875,-0.6085205078125
1776870894407885300,11.13388525390625,0.7457733154296875,0.2183685302734375,-0.60272216796875
1776870894417923300,11.14392333984375,0.738250732421875,0.2303924560546875,-0.60150146484375
1776870894427961300,11.15396142578125,0.7231903076171875,0.24615478515625,-0.6048431396484375
1776870894438000400,11.16400048828125,0.70556640625,0.260009765625,-0.6092071533203125
1776870894448038400,11.174038330078124,0.6903839111328125,0.270477294921875,-0.61309814453125
1776870894458076400,11.184076416015625,0.677825927734375,0.2830963134765625,-0.6172943115234375
1776870894468115500,11.194115478515625,0.6721954345703125,0.2968292236328125,-0.624725341796875
1776870894478153500,11.204153564453126,0.6673126220703125,0.3094482421875,-0.630462646484375
1776870894488191500,11.21419140625,0.6597137451171875,0.3200531005859375,-0.634979248046875
1776870894498230500,11.22423046875,0.652313232421875,0.328094482421875,-0.6352996826171875
1776870894508269000,11.23426904296875,0.6426544189453125,0.3319854736328125,-0.6348876953125
1776870894518307300,11.244307373046874,0.634368896484375,0.33758544921875,-0.6330413818359375
1776870894528346000,11.25434619140625,0.63385009765625,0.34033203125,-0.6326751708984375
1776870894538384100,11.264384033203125,0.63519287109375,0.341705322265625,-0.63287353515625
1776870894548422100,11.274422119140626,0.634002685546875,0.3472900390625,-0.6325225830078125
1776870894558461200,11.284461181640625,0.6302032470703125,0.3506927490234375,-0.63128662109375
1776870894568499200,11.294499267578125,0.627227783203125,0.3544158935546875,-0.6295928955078125
1776870894578537200,11.304537109375,0.6265411376953125,0.3592376708984375,-0.6332550048828125
1776870894588576000,11.314575927734374,0.6246337890625,0.365631103515625,-0.6368560791015625
1776870894598614300,11.3246142578125,0.621673583984375,0.372222900390625,-0.640380859375
1776870894608652000,11.334652099609375,0.618988037109375,0.3789520263671875,-0.6429443359375
1776870894618690300,11.344690185546876,0.6132049560546875,0.3848724365234375,-0.6434326171875
1776870894628729000,11.35472900390625,0.60711669921875,0.38934326171875,-0.64117431640625
1776870894638767400,11.364767333984375,0.5973968505859375,0.3911590576171875,-0.6356353759765625
1776870894648805000,11.37480517578125,0.586517333984375,0.389739990234375,-0.6273345947265625
1776870894658844200,11.38484423828125,0.57403564453125,0.3865203857421875,-0.6210784912109375
1776870894668882200,11.394882080078125,0.5621185302734375,0.38433837890625,-0.6207275390625
1776870894678920000,11.404919921875,0.55364990234375,0.3843231201171875,-0.6266021728515625
1776870894688959200,11.414959228515626,0.5485687255859375,0.38800048828125,-0.63763427734375
1776870894698997200,11.424997314453124,0.5463409423828125,0.394744873046875,-0.651275634765625
1776870894709035300,11.43503515625,0.542755126953125,0.402923583984375,-0.666351318359375
1776870894719074300,11.44507421875,0.5347747802734375,0.4102783203125,-0.6765289306640625
1776870894729112000,11.455112060546876,0.515838623046875,0.414459228515625,-0.6799163818359375
1776870894739150000,11.465150146484374,0.490386962890625,0.4154815673828125,-0.677459716796875
1776870894749189000,11.475189208984375,0.4694366455078125,0.4192047119140625,-0.6730499267578125
1776870894759227100,11.48522705078125,0.4554595947265625,0.419921875,-0.66729736328125
1776870894769265200,11.49526513671875,0.4494171142578125,0.4195556640625,-0.6641082763671875
1776870894779304000,11.505303955078125,0.4429779052734375,0.4200286865234375,-0.664642333984375
1776870894789342200,11.51534228515625,0.4429168701171875,0.4280548095703125,-0.6679534912109375
1776870894799380000,11.5253798828125,0.4485321044921875,0.4398345947265625,-0.6745758056640625
1776870894809418200,11.535418212890624,0.4522857666015625,0.4530792236328125,-0.6791534423828125
1776870894819457000,11.54545703125,0.4591522216796875,0.4663238525390625,-0.6812286376953125
1776870894829495300,11.555495361328125,0.4661102294921875,0.484527587890625,-0.6803741455078125
1776870894839533000,11.565532958984376,0.4681396484375,0.4966888427734375,-0.673583984375
1776870894849572000,11.575572021484374,0.4728546142578125,0.501739501953125,-0.6656494140625
1776870894859610000,11.585610107421875,0.4776153564453125,0.5092620849609375,-0.6590576171875
1776870894869648100,11.595648193359375,0.4892425537109375,0.52099609375,-0.6591033935546875
1776870894879687200,11.605687255859374,0.5181121826171875,0.532318115234375,-0.6670379638671875
1776870894889725200,11.61572509765625,0.5416412353515625,0.5404205322265625,-0.6730499267578125
1776870894899763200,11.62576318359375,0.5540924072265625,0.5386810302734375,-0.6751708984375
1776870894909802200,11.63580224609375,0.559326171875,0.522613525390625,-0.675323486328125
1776870894919840000,11.645840087890624,0.5572052001953125,0.5007171630859375,-0.675933837890625
1776870894929878300,11.655878173828125,0.54437255859375,0.484130859375,-0.6819305419921875
1776870894939917000,11.6659169921875,0.529693603515625,0.4799957275390625,-0.693084716796875
1776870894949955300,11.675955322265626,0.51373291015625,0.48638916015625,-0.708038330078125
1776870894959993000,11.6859931640625,0.5009307861328125,0.4925537109375,-0.72314453125
1776870894970031400,11.69603125,0.49041748046875,0.4967498779296875,-0.7346038818359375
1776870894980070100,11.706070068359375,0.4838104248046875,0.498046875,-0.741729736328125
1776870894990108200,11.716108154296874,0.4766998291015625,0.49542236328125,-0.74139404296875
1776870895000146200,11.726146240234375,0.46966552734375,0.4874267578125,-0.73291015625
1776870895010185200,11.736185302734375,0.4657745361328125,0.4754791259765625,-0.72137451171875
1776870895020223200,11.74622314453125,0.466888427734375,0.4633026123046875,-0.7132110595703125
1776870895030261000,11.756260986328124,0.4721832275390625,0.45361328125,-0.70916748046875
1776870895040300000,11.766300048828125,0.4793701171875,0.4475250244140625,-0.7067108154296875
1776870895050338000,11.776338134765625,0.482330322265625,0.4469146728515625,-0.7061614990234375
1776870895060376000,11.7863759765625,0.4851837158203125,0.4538421630859375,-0.70745849609375
1776870895070415400,11.796415283203125,0.4904327392578125,0.4635162353515625,-0.7119293212890625
1776870895080453000,11.806453125,0.4918975830078125,0.4688262939453125,-0.7168426513671875
1776870895090491100,11.8164912109375,0.492919921875,0.47149658203125,-0.7208404541015625
1776870895100530200,11.8265302734375,0.4928131103515625,0.4711456298828125,-0.7232513427734375
1776870895110568000,11.83656787109375,0.490814208984375,0.4717864990234375,-0.7224578857421875
1776870895120606200,11.846606201171875,0.48529052734375,0.4753265380859375,-0.722320556640625
1776870895130644000,11.85664404296875,0.4832763671875,0.4882354736328125,-0.726165771484375
1776870895140683300,11.866683349609374,0.4877471923828125,0.5023345947265625,-0.7340240478515625
1776870895150721000,11.876720947265625,0.490753173828125,0.513153076171875,-0.7375640869140625
1776870895160759300,11.88675927734375,0.4907073974609375,0.5181732177734375,-0.7362823486328125
1776870895170798000,11.896798095703126,0.49078369140625,0.523712158203125,-0.730377197265625
1776870895180836000,11.906836181640625,0.4931793212890625,0.5187225341796875,-0.718017578125
1776870895190874000,11.9168740234375,0.4867706298828125,0.50384521484375,-0.6986541748046875
1776870895200913200,11.9269130859375,0.476898193359375,0.4864959716796875,-0.6811981201171875
1776870895210951200,11.936951171875,0.467803955078125,0.4778289794921875,-0.6753387451171875
1776870895220989200,11.9469892578125,0.4651947021484375,0.4827117919921875,-0.679443359375
1776870895231028000,11.957028076171875,0.4610748291015625,0.4969024658203125,-0.688690185546875
1776870895241066200,11.967066162109376,0.45928955078125,0.511444091796875,-0.69793701171875
1776870895251104000,11.97710400390625,0.46221923828125,0.5164794921875,-0.70587158203125
1776870895261142300,11.987142333984375,0.46148681640625,0.5174713134765625,-0.7125396728515625
1776870895271181000,11.99718115234375,0.457763671875,0.51776123046875,-0.7168426513671875
1776870895281219300,12.00721923828125,0.449676513671875,0.5189056396484375,-0.7171783447265625
1776870895291257000,12.017257080078124,0.4513397216796875,0.518798828125,-0.7155609130859375
1776870895301296000,12.027296142578125,0.4591217041015625,0.5164642333984375,-0.7151031494140625
1776870895311334100,12.037334228515626,0.4649810791015625,0.513671875,-0.71759033203125
1776870895321372200,12.0473720703125,0.46575927734375,0.51318359375,-0.7213287353515625
1776870895331411200,12.0574111328125,0.4640655517578125,0.512847900390625,-0.723907470703125
1776870895341449200,12.06744921875,0.4644622802734375,0.510955810546875,-0.7247772216796875
1776870895351487200,12.0774873046875,0.46636962890625,0.5064697265625,-0.7215118408203125
1776870895361526300,12.0875263671875,0.4687957763671875,0.4993438720703125,-0.715179443359375
1776870895371564000,12.09756396484375,0.470123291015625,0.4910736083984375,-0.7109375
1776870895381602000,12.10760205078125,0.469757080078125,0.486358642578125,-0.712066650390625
1776870895391641000,12.11764111328125,0.4712677001953125,0.48577880859375,-0.71820068359375
1776870895401679000,12.12767919921875,0.471649169921875,0.4878082275390625,-0.728485107421875
1776870895411717000,12.137717041015625,0.469573974609375,0.4917144775390625,-0.7363739013671875
1776870895421755100,12.147755126953125,0.462249755859375,0.4950714111328125,-0.741058349609375
1776870895431794200,12.157794189453124,0.45404052734375,0.492340087890625,-0.740509033203125
1776870895441832200,12.167832275390625,0.445831298828125,0.4896697998046875,-0.7393646240234375
1776870895451870200,12.1778701171875,0.4421844482421875,0.4861602783203125,-0.7370452880859375
1776870895461909000,12.187908935546876,0.4459075927734375,0.4867706298828125,-0.734619140625
1776870895471947300,12.197947265625,0.4536285400390625,0.489654541015625,-0.7327880859375
1776870895481985000,12.207985107421875,0.4627838134765625,0.491973876953125,-0.7324371337890625
1776870895492024000,12.218024169921875,0.465606689453125,0.4908447265625,-0.73248291015625
1776870895502062000,12.22806201171875,0.4634246826171875,0.488006591796875,-0.730377197265625
1776870895512099800,12.238099853515624,0.4609375,0.48516845703125,-0.727691650390625
1776870895522137600,12.2481376953125,0.454010009765625,0.483795166015625,-0.72698974609375
1776870895532176600,12.2581767578125,0.4508514404296875,0.48675537109375,-0.73052978515625
1776870895542214700,12.268214599609376,0.4512176513671875,0.490478515625,-0.7372589111328125
1776870895552252400,12.27825244140625,0.45001220703125,0.4978485107421875,-0.7462921142578125
1776870895562291700,12.288291748046875,0.4499053955078125,0.4981842041015625,-0.7493743896484375
1776870895572329700,12.298329833984376,0.4541473388671875,0.49676513671875,-0.750335693359375
1776870895582367700,12.30836767578125,0.459381103515625,0.492767333984375,-0.747467041015625
1776870895592406800,12.31840673828125,0.4613037109375,0.48687744140625,-0.7431793212890625
1776870895602444500,12.328444580078125,0.4601593017578125,0.480316162109375,-0.740264892578125
1776870895612482600,12.338482666015626,0.458831787109375,0.4694366455078125,-0.73785400390625
1776870895622521600,12.348521484375,0.45294189453125,0.459808349609375,-0.735870361328125
1776870895632559600,12.3585595703125,0.4477996826171875,0.457763671875,-0.739837646484375
1776870895642597600,12.36859765625,0.442962646484375,0.4594879150390625,-0.7418365478515625
1776870895652635600,12.3786357421875,0.4378204345703125,0.4625091552734375,-0.742462158203125
1776870895662674700,12.3886748046875,0.4350128173828125,0.47021484375,-0.74444580078125
1776870895672712400,12.39871240234375,0.4297637939453125,0.469635009765625,-0.740814208984375
1776870895682750700,12.408750732421876,0.42767333984375,0.467437744140625,-0.7363128662109375
1776870895692789500,12.41878955078125,0.431060791015625,0.47052001953125,-0.7338104248046875
1776870895702827800,12.428827880859375,0.4365081787109375,0.474853515625,-0.7319183349609375
1776870895712865500,12.438865478515625,0.441436767578125,0.478912353515625,-0.730255126953125
1776870895722904600,12.448904541015626,0.4464263916015625,0.481964111328125,-0.7305450439453125
1776870895732942600,12.458942626953124,0.450439453125,0.483551025390625,-0.7309112548828125
1776870895742980600,12.468980712890625,0.448089599609375,0.4808807373046875,-0.7279815673828125
1776870895753018600,12.4790185546875,0.4432373046875,0.47198486328125,-0.7221527099609375
1776870895763057700,12.4890576171875,0.4355010986328125,0.4645843505859375,-0.716033935546875
1776870895773095700,12.499095703125,0.430023193359375,0.4600830078125,-0.714630126953125
1776870895783133700,12.5091337890625,0.4241485595703125,0.45709228515625,-0.7153778076171875
1776870895793172500,12.51917236328125,0.4215545654296875,0.4583282470703125,-0.715118408203125
1776870895803210800,12.529210693359374,0.4184722900390625,0.4640960693359375,-0.7146453857421875
1776870895813248500,12.53924853515625,0.413421630859375,0.470550537109375,-0.7122802734375
1776870895823287800,12.549287841796875,0.4173431396484375,0.4762115478515625,-0.70880126953125
1776870895833325600,12.55932568359375,0.420745849609375,0.4799041748046875,-0.705169677734375
1776870895843363800,12.56936376953125,0.4219207763671875,0.4916839599609375,-0.6999664306640625
1776870895853401600,12.579401611328125,0.42333984375,0.5025482177734375,-0.6936187744140625
1776870895863440600,12.589440673828125,0.42578125,0.5033111572265625,-0.6813507080078125
1776870895873478700,12.599478759765624,0.4303741455078125,0.4987030029296875,-0.6688385009765625
1776870895883516700,12.6095166015625,0.4332275390625,0.4919891357421875,-0.6609649658203125
1776870895893555700,12.6195556640625,0.431854248046875,0.487152099609375,-0.6586456298828125
1776870895903593500,12.629593505859376,0.426361083984375,0.4875946044921875,-0.6644287109375
1776870895913631700,12.6396318359375,0.4229278564453125,0.4915313720703125,-0.67144775390625
1776870895923670500,12.64967041015625,0.420928955078125,0.49884033203125,-0.679718017578125
1776870895933708500,12.65970849609375,0.42120361328125,0.5087432861328125,-0.6872711181640625
1776870895943746600,12.66974658203125,0.42120361328125,0.503997802734375,-0.688201904296875
1776870895953784800,12.679784912109374,0.419158935546875,0.4825286865234375,-0.6798553466796875
1776870895963823600,12.68982373046875,0.4222412109375,0.4580078125,-0.66973876953125
1776870895973861600,12.699861572265625,0.432830810546875,0.4434356689453125,-0.6680755615234375
1776870895983899600,12.709899658203126,0.4481964111328125,0.440093994140625,-0.6774444580078125
1776870895993938700,12.719938720703125,0.460845947265625,0.4449920654296875,-0.6929931640625
1776870896003976700,12.729976806640625,0.4674530029296875,0.45074462890625,-0.7064666748046875
1776870896014014700,12.7400146484375,0.4720001220703125,0.4484405517578125,-0.7127685546875
1776870896024053500,12.750053466796874,0.472747802734375,0.434539794921875,-0.7073822021484375
1776870896034091800,12.760091796875,0.4831390380859375,0.4115753173828125,-0.7012481689453125
1776870896044129500,12.770129638671875,0.4969940185546875,0.3887481689453125,-0.6971282958984375
1776870896054167800,12.780167724609376,0.5142364501953125,0.370513916015625,-0.6990814208984375
1776870896064206600,12.79020654296875,0.5331878662109375,0.35699462890625,-0.7055511474609375
1776870896074244900,12.800244873046875,0.55560302734375,0.35296630859375,-0.7206573486328125
1776870896084282600,12.81028271484375,0.5807342529296875,0.35369873046875,-0.743377685546875
1776870896094321700,12.82032177734375,0.598480224609375,0.3628387451171875,-0.7669219970703125
1776870896104359700,12.830359619140625,0.59698486328125,0.37384033203125,-0.7816925048828125
1776870896114397400,12.8403974609375,0.5872039794921875,0.3790740966796875,-0.7836456298828125
1776870896124436700,12.850436767578126,0.58172607421875,0.37451171875,-0.7744140625
1776870896134474800,12.860474853515624,0.5862579345703125,0.3544158935546875,-0.7606048583984375
1776870896144512800,12.8705126953125,0.6043701171875,0.3255615234375,-0.7488861083984375
1776870896154550500,12.880550537109375,0.63006591796875,0.304443359375,-0.7449188232421875
1776870896164589600,12.890589599609376,0.65765380859375,0.29620361328125,-0.74560546875
1776870896174627600,12.900627685546874,0.68060302734375,0.2965087890625,-0.746917724609375
1776870896184665600,12.91066552734375,0.7007598876953125,0.29638671875,-0.739898681640625
1776870896194704600,12.92070458984375,0.7168426513671875,0.291229248046875,-0.722930908203125
1776870896204742700,12.93074267578125,0.7225799560546875,0.27984619140625,-0.698516845703125
1776870896214780700,12.94078076171875,0.7255401611328125,0.2649688720703125,-0.6764678955078125
1776870896224819700,12.95081982421875,0.7266387939453125,0.2548675537109375,-0.6658172607421875
1776870896234857500,12.960857421875,0.7248382568359375,0.2510223388671875,-0.674774169921875
1776870896244895700,12.970895751953124,0.7167205810546875,0.2556610107421875,-0.6967926025390625
1776870896254933500,12.98093359375,0.7009124755859375,0.2659759521484375,-0.7236785888671875
1776870896264972800,12.990972900390625,0.6892547607421875,0.2781219482421875,-0.7485198974609375
1776870896275010600,13.001010498046876,0.6773834228515625,0.28411865234375,-0.7641754150390625
1776870896285048800,13.011048828125,0.670867919921875,0.28277587890625,-0.770355224609375
1776870896295087600,13.021087646484375,0.6785430908203125,0.2852783203125,-0.777435302734375
1776870896305125600,13.031125732421875,0.6652069091796875,0.275848388671875,-0.7703094482421875
1776870896315163600,13.04116357421875,0.6517181396484375,0.2685089111328125,-0.763671875
1776870896325202700,13.05120263671875,0.641937255859375,0.270782470703125,-0.7657012939453125
1776870896335240700,13.06124072265625,0.6274871826171875,0.276153564453125,-0.772064208984375
1776870896345278700,13.07127880859375,0.6092376708984375,0.279541015625,-0.77398681640625
1776870896355316700,13.081316650390624,0.5871734619140625,0.2770538330078125,-0.767547607421875
1776870896365355800,13.091355712890625,0.5672607421875,0.2691192626953125,-0.751983642578125
