time,seconds_elapsed,z,y,x
1776870883350665200,0.076665283203125,0.27980050444602966,0.7281386256217957,-0.27797943353652954
1776870883360704500,0.08670458984375,0.27570322155952454,0.735824465751648,-0.27431783080101013
1776870883370742300,0.0967421875,0.26000040769577026,0.7688841819763184,-0.3540688753128052
1776870883380780500,0.106780517578125,0.21002700924873352,0.8044107556343079,-0.5133975148200989
1776870883390819300,0.1168193359375,0.16277053952217102,0.8172775506973267,-0.646527111530304
1776870883400857300,0.126857421875,0.10295514017343521,0.8878755569458008,-0.725945234298706
1776870883410895400,0.136895263671875,0.13635490834712982,0.9499365091323853,-0.6998637914657593
1776870883420934400,0.146934326171875,0.3824586868286133,0.9042763113975525,-0.6592586040496826
1776870883430972400,0.156972412109375,0.7734839916229248,0.7263063192367554,-0.6743480563163757
1776870883441010400,0.167010498046875,1.2032151222229004,0.7004275918006897,-0.7847328782081604
1776870883451049200,0.17704931640625,1.611416220664978,1.0579407215118408,-1.0197315216064453
1776870883461087500,0.18708740234375,1.925603985786438,1.860556721687317,-1.3413585424423218
1776870883471125200,0.197125244140625,1.9296610355377197,3.298854112625122,-1.6155755519866943
1776870883481164500,0.20716455078125,1.686087965965271,5.153355121612549,-1.7272841930389404
1776870883491202300,0.217202392578125,1.3315544128417969,6.538931369781494,-1.8284003734588623
1776870883501240600,0.227240478515625,1.0206255912780762,6.696695327758789,-2.179103374481201
1776870883511279600,0.237279541015625,0.3872462511062622,5.955421447753906,-2.543704032897949
1776870883521317400,0.2473173828125,-0.5307485461235046,5.401835918426514,-2.267975330352783
1776870883531355600,0.257355712890625,-1.390053391456604,5.164628982543945,-1.5328699350357056
1776870883541393400,0.267393310546875,-2.197683811187744,5.060125350952148,-0.6173551082611084
1776870883551432700,0.2774326171875,-2.9387335777282715,5.040311336517334,0.04596562683582306
1776870883561470500,0.287470458984375,-2.7790844440460205,5.508430004119873,-0.22403550148010254
1776870883571508500,0.297508544921875,-2.6437275409698486,4.332518100738525,-0.32654428482055664
1776870883581547500,0.307547607421875,-1.873746633529663,3.3071322441101074,-0.34494033455848694
1776870883591585500,0.31758544921875,-0.9175570011138916,2.6120717525482178,-0.019992349669337273
1776870883601623600,0.32762353515625,-0.06710979342460632,1.924041748046875,0.6024943590164185
1776870883611662600,0.33766259765625,0.18277034163475037,0.832119882106781,0.8477131724357605
1776870883621700600,0.34770068359375,0.09544450044631958,-0.725651741027832,0.6008387207984924
1776870883631738400,0.35773828125,0.026377545669674873,-2.105921745300293,0.21755416691303253
1776870883641777400,0.36777734375,0.026997795328497887,-2.8186423778533936,-0.042280346155166626
1776870883651815400,0.3778154296875,0.16113829612731934,-2.9369707107543945,-0.19461555778980255
1776870883661853400,0.387853515625,0.31113603711128235,-2.323835849761963,-0.3232446312904358
1776870883671892500,0.397892578125,0.3932735323905945,-1.4921035766601562,-0.42088809609413147
1776870883681930500,0.407930419921875,0.35532426834106445,-0.9053698182106018,-0.5046613216400146
1776870883691968500,0.417968505859375,0.2739790976047516,-0.5021557807922363,-0.661099374294281
1776870883702007600,0.428007568359375,0.21581459045410156,-0.200336292386055,-0.9119877815246582
1776870883712045300,0.43804541015625,0.19447892904281616,-0.11016698181629181,-1.2392988204956055
1776870883722083600,0.44808349609375,0.18225635588169098,-0.21127602458000183,-1.5121338367462158
1776870883732122400,0.458122314453125,0.08512900769710541,-0.38414207100868225,-1.6954994201660156
1776870883742160600,0.46816064453125,-0.03863554447889328,-0.44263386726379395,-1.6630990505218506
1776870883752198400,0.478198486328125,-0.2826239764690399,-0.5404667258262634,-1.6263383626937866
1776870883762237400,0.488237548828125,-0.6482685208320618,-0.7565465569496155,-1.7101906538009644
1776870883772275500,0.498275390625,-1.0992985963821411,-1.1524502038955688,-1.851434588432312
1776870883782313500,0.5083134765625,-1.5943660736083984,-1.2609883546829224,-2.083028554916382
1776870883792352500,0.5183525390625,-1.797242522239685,-1.0021235942840576,-2.3713419437408447
1776870883802390500,0.528390625,-1.8864672183990479,-0.8009321093559265,-2.5851845741271973
1776870883812428500,0.538428466796875,-2.0876355171203613,-0.571058988571167,-2.625828266143799
1776870883822467600,0.548467529296875,-2.3942348957061768,-0.4347197711467743,-2.6028966903686523
1776870883832505300,0.55850537109375,-2.6657602787017822,-0.39412519335746765,-2.6899361610412598
1776870883842543600,0.568543701171875,-2.8316071033477783,-0.34204229712486267,-2.812619686126709
1776870883852582400,0.57858251953125,-2.927428960800171,-0.4377048909664154,-2.9184205532073975
1776870883862620700,0.58862060546875,-2.930927276611328,-0.59130859375,-2.936177968978882
1776870883872658400,0.598658447265625,-2.930341958999634,-0.7829160690307617,-2.9377384185791016
1776870883882696700,0.60869677734375,-2.9968698024749756,-0.8861125111579895,-3.0821340084075928
1776870883892735500,0.618735595703125,-2.8868517875671387,-0.6859530806541443,-3.0946269035339355
1776870883902773500,0.6287734375,-3.171452522277832,-0.7185909152030945,-3.3591830730438232
1776870883912811500,0.6388115234375,-3.5823538303375244,-0.9860020875930786,-3.901853322982788
1776870883922850600,0.6488505859375,-3.705221176147461,-1.2230138778686523,-4.331115245819092
1776870883932888600,0.658888671875,-3.6459476947784424,-1.5369973182678223,-4.387027740478516
1776870883942926300,0.66892626953125,-3.621243715286255,-1.746579647064209,-4.225758075714111
1776870883952965400,0.67896533203125,-3.5270001888275146,-1.7867573499679565,-3.949545383453369
1776870883963003600,0.689003662109375,-3.3326408863067627,-1.4209144115447998,-3.7603306770324707
1776870883973041400,0.69904150390625,-3.309640407562256,-0.7270368337631226,-3.8341562747955322
1776870883983080700,0.709080810546875,-3.424612522125244,0.08326958864927292,-4.09553861618042
1776870883993118500,0.719118408203125,-3.482144594192505,0.8038224577903748,-4.327669143676758
1776870884003156500,0.729156494140625,-3.3844926357269287,1.2222639322280884,-4.42346715927124
1776870884013195500,0.739195556640625,-3.161236524581909,1.3179638385772705,-4.467763900756836
1776870884023233500,0.749233642578125,-2.86503005027771,1.1889272928237915,-4.556634902954102
1776870884033271600,0.759271484375,-2.401667594909668,0.7504023313522339,-4.393163681030273
1776870884043310300,0.769310302734375,-1.6722086668014526,0.3196144700050354,-3.941868543624878
1776870884053348600,0.7793486328125,-0.7999877333641052,-0.2569686770439148,-3.490355968475342
1776870884063386400,0.789386474609375,0.014240454882383347,-0.7851105332374573,-3.285494327545166
1776870884073425400,0.79942529296875,0.6261137127876282,-0.9184368848800659,-3.286623239517212
1776870884083463400,0.80946337890625,1.0046108961105347,-0.4864508807659149,-3.293854236602783
1776870884093501400,0.81950146484375,1.2708998918533325,0.4649098813533783,-3.2492053508758545
1776870884103540500,0.82954052734375,1.532739520072937,1.5785194635391235,-3.1283864974975586
1776870884113578500,0.83957861328125,1.886918067932129,2.374366521835327,-2.9346835613250732
1776870884123616500,0.849616455078125,2.4530394077301025,2.621903419494629,-2.6578140258789062
1776870884133655600,0.859655517578125,3.1307532787323,2.3673195838928223,-2.3940939903259277
1776870884143693600,0.869693603515625,3.762164354324341,1.9833968877792358,-2.1929988861083984
1776870884153731600,0.879731689453125,4.306502342224121,1.7389004230499268,-1.9277589321136475
1776870884163770400,0.889770263671875,4.646068096160889,1.8027774095535278,-1.5403739213943481
1776870884173808600,0.89980859375,4.7252583503723145,1.9896851778030396,-1.1441283226013184
1776870884183846400,0.909846435546875,4.635525703430176,2.122251510620117,-0.807020366191864
1776870884193885400,0.919885498046875,4.071593284606934,2.4492175579071045,-0.3915078341960907
1776870884203923500,0.92992333984375,2.7164933681488037,2.839843273162842,0.08401021361351013
1776870884213961700,0.939961669921875,1.0065516233444214,3.166801691055298,0.5887413024902344
1776870884224000500,0.95000048828125,-0.23237837851047516,2.9972281455993652,0.969086766242981
1776870884234038500,0.96003857421875,-0.2067774087190628,2.1240832805633545,0.9741986989974976
1776870884244076500,0.97007666015625,0.39342665672302246,0.8738521337509155,1.230377197265625
1776870884254114600,0.980114501953125,0.995529294013977,-0.6152395009994507,1.6850647926330566
1776870884264153600,0.990153564453125,1.4628338813781738,-1.70137619972229,1.790530800819397
1776870884274191600,1.000191650390625,1.8227633237838745,-1.9031018018722534,1.59573233127594
1776870884284229600,1.010229736328125,2.102466344833374,-1.31314218044281,1.3860653638839722
1776870884294268700,1.0202685546875,2.2057838439941406,-0.5167336463928223,1.1059119701385498
1776870884304306400,1.030306396484375,1.8495187759399414,0.015215171501040459,0.6506808400154114
1776870884314344400,1.040344482421875,1.5951051712036133,0.51957768201828,0.3613928258419037
1776870884324383500,1.050383544921875,1.7236593961715698,0.8767594695091248,0.6529945731163025
1776870884334421800,1.060421875,2.0039548873901367,0.4953732490539551,0.7557752728462219
1776870884344459500,1.07045947265625,2.2366011142730713,-0.24478578567504883,0.5407114624977112
1776870884354498600,1.08049853515625,2.4590446949005127,-0.5416725873947144,0.5475869178771973
1776870884364536600,1.09053662109375,2.5945873260498047,-0.6025955677032471,0.6127361059188843
1776870884374574300,1.10057421875,2.5076587200164795,-0.5943352580070496,0.420134961605072
1776870884384613600,1.110613525390625,2.232699155807495,-0.3692435622215271,0.15094131231307983
1776870884394651400,1.1206513671875,2.1320855617523193,-0.12147369980812073,0.08679109066724777
1776870884404689700,1.130689697265625,2.109905242919922,-0.20400533080101013,-0.04935823008418083
1776870884414728400,1.140728515625,1.9582045078277588,-0.5778518915176392,-0.1875469982624054
1776870884424766500,1.150766357421875,1.8342798948287964,-0.8479041457176208,-0.3287893235683441
1776870884434804500,1.160804443359375,1.7284038066864014,-0.9326360821723938,-0.4119049906730652
1776870884444843500,1.170843505859375,1.5485693216323853,-0.8986786603927612,-0.4140333831310272
1776870884454881500,1.180881591796875,1.3502471446990967,-0.8153680562973022,-0.31589964032173157
1776870884464919600,1.19091943359375,1.0862213373184204,-0.952418327331543,-0.08774103969335556
1776870884474958300,1.200958251953125,0.8131904006004333,-1.0800050497055054,0.2576073110103607
1776870884484996600,1.21099658203125,0.739858090877533,-1.256610631942749,0.40600156784057617
1776870884495034400,1.221034423828125,0.4422178864479065,-1.1153353452682495,0.6327958106994629
1776870884505073700,1.23107373046875,0.058823633939027786,-0.6864795684814453,1.0052762031555176
1776870884515111400,1.241111328125,-0.2519147992134094,-0.13650165498256683,1.3110281229019165
1776870884525149700,1.251149658203125,-0.41400331258773804,-0.049016278237104416,1.4741110801696777
1776870884535188500,1.2611884765625,-0.4248780608177185,-0.30271458625793457,1.3622044324874878
1776870884545226500,1.2712265625,-0.41860097646713257,-0.633909285068512,1.1867895126342773
1776870884555264500,1.281264404296875,-0.7052825689315796,-1.2389168739318848,1.266075849533081
1776870884565303600,1.291303466796875,-1.1290266513824463,-1.7025083303451538,1.405442237854004
1776870884575341600,1.301341552734375,-1.5921343564987183,-1.7674095630645752,1.1915602684020996
1776870884585379600,1.311379638671875,-1.9225205183029175,-1.3194383382797241,0.6166954040527344
1776870884595418400,1.32141845703125,-1.8617266416549683,-0.94778972864151,0.38775065541267395
1776870884605456600,1.33145654296875,-1.6357433795928955,-1.2727159261703491,0.5590760707855225
1776870884615494400,1.341494384765625,-1.5927820205688477,-1.9479726552963257,0.8572787642478943
1776870884625533700,1.35153369140625,-1.7213752269744873,-2.7542550563812256,1.0267127752304077
1776870884635571500,1.361571533203125,-1.6988253593444824,-3.139679193496704,1.0598640441894531
1776870884645609700,1.371609619140625,-1.662552833557129,-3.07716703414917,0.9011088013648987
1776870884655648500,1.3816484375,-1.667924404144287,-2.5330655574798584,0.44925156235694885
1776870884665686500,1.3916865234375,-1.5585920810699463,-1.7163604497909546,-0.024401746690273285
1776870884675724500,1.401724609375,-1.4553989171981812,-0.8609967827796936,-0.024150343611836433
1776870884685762300,1.41176220703125,-1.5192060470581055,-0.6427779197692871,0.13794614374637604
1776870884695801600,1.421801513671875,-1.6758774518966675,-0.7950012683868408,-0.021164674311876297
1776870884705839600,1.431839599609375,-1.475616216659546,-0.6117592453956604,-0.2275652438402176
1776870884715877600,1.441877685546875,-1.277298092842102,-0.16154175996780396,-0.3234827220439911
1776870884725916700,1.451916748046875,-1.1088204383850098,0.42069530487060547,-0.1530982106924057
1776870884735954400,1.461954345703125,-0.9823421239852905,1.3528671264648438,0.20808368921279907
1776870884745992400,1.471992431640625,-0.8438572287559509,2.4649789333343506,0.5715188980102539
1776870884756031500,1.482031494140625,-0.6764026880264282,3.1572515964508057,0.801271378993988
1776870884766069500,1.492069580078125,-0.5846890211105347,3.4053232669830322,0.6609840393066406
1776870884776107500,1.502107421875,-0.5602787733078003,3.535856246948242,0.2112845480442047
1776870884786146300,1.512146240234375,-0.5931368470191956,3.672663450241089,-0.32855045795440674
1776870884796184600,1.5221845703125,-0.9792134165763855,3.1847875118255615,-0.838395357131958
1776870884806222300,1.532222412109375,-1.5797327756881714,2.8175196647644043,-1.085779070854187
1776870884816261600,1.54226171875,-2.0702242851257324,3.2137084007263184,-0.9121773838996887
1776870884826299400,1.55229931640625,-2.522244930267334,3.3234481811523438,-0.7878085970878601
1776870884836337700,1.562337646484375,-2.8260321617126465,3.238280773162842,-0.7343125939369202
1776870884846376400,1.57237646484375,-3.1926429271698,3.0760111808776855,-0.6721150279045105
1776870884856414500,1.58241455078125,-3.6722471714019775,2.5557565689086914,-0.6945455074310303
1776870884866452500,1.592452392578125,-3.997126817703247,2.1737987995147705,-0.5674999356269836
1776870884876491500,1.602491455078125,-3.940140724182129,1.7145140171051025,-0.35997655987739563
1776870884886529500,1.612529541015625,-3.4202942848205566,1.1722630262374878,-0.1925870180130005
1776870884896567600,1.622567626953125,-2.3747615814208984,0.5870222449302673,-0.037462420761585236
1776870884906606300,1.6326064453125,-1.281997799873352,-0.010647851042449474,0.08933600783348083
1776870884916644600,1.64264453125,-0.5574758052825928,-0.6148740649223328,0.20790205895900726
1776870884926682400,1.652682373046875,-0.17362931370735168,-1.2266871929168701,0.2967216968536377
1776870884936721700,1.6627216796875,-0.09343007951974869,-1.2861363887786865,0.5044511556625366
1776870884946759400,1.672759521484375,-0.1975245326757431,-0.4963011145591736,0.802842915058136
1776870884956797700,1.682797607421875,-0.1743856519460678,0.057378336787223816,0.8448585271835327
1776870884966836500,1.69283642578125,0.032516397535800934,0.36052170395851135,0.758090078830719
1776870884976874500,1.70287451171875,0.13086692988872528,0.4297998547554016,0.6277502179145813
1776870884986912500,1.71291259765625,0.11784887313842773,0.17986829578876495,0.5092954635620117
1776870884996951600,1.72295166015625,0.04063637554645538,0.018995529040694237,0.5129624009132385
1776870885006989600,1.732989501953125,-0.00005858954318682663,-0.06309321522712708,0.5755679607391357
1776870885017027600,1.743027587890625,0.017842913046479225,-0.15753556787967682,0.536692202091217
1776870885027066400,1.75306640625,-0.028724055737257004,0.011986088939011097,0.444004088640213
1776870885037104600,1.763104736328125,-0.2250022292137146,0.2930081784725189,0.21260014176368713
1776870885047142400,1.773142333984375,-0.5838621258735657,-0.04170563444495201,-0.1591569036245346
1776870885057181700,1.783181640625,-0.8225963711738586,-0.5084688067436218,-0.35516634583473206
1776870885067219500,1.793219482421875,-0.8833478689193726,-1.128542184829712,-0.4320981502532959
1776870885077257700,1.8032578125,-1.219610333442688,-2.0298643112182617,-0.5170732140541077
1776870885087296500,1.813296630859375,-1.7260860204696655,-2.5240888595581055,-0.4849701523780823
1776870885097334500,1.82333447265625,-2.352834701538086,-3.195277690887451,-0.5471576452255249
1776870885107372500,1.83337255859375,-2.8155362606048584,-4.058881759643555,-0.6383799314498901
1776870885117411600,1.84341162109375,-3.2777395248413086,-4.347488880157471,-0.6291632652282715
1776870885127449600,1.85344970703125,-3.7583136558532715,-3.9654603004455566,-0.4794518053531647
1776870885137487400,1.8634873046875,-4.122602939605713,-3.218045473098755,-0.2694876790046692
1776870885147526400,1.8735263671875,-4.2410502433776855,-2.739746570587158,-0.18675416707992554
1776870885157564400,1.883564453125,-4.207093715667725,-3.6521682739257812,-0.5905389189720154
1776870885167602400,1.8936025390625,-4.105344772338867,-3.6929221153259277,-0.7840679287910461
1776870885177641700,1.903641845703125,-3.7324318885803223,-3.109274387359619,-0.5838738083839417
1776870885187679500,1.913679443359375,-2.9868617057800293,-2.2539076805114746,-0.13478338718414307
1776870885197717500,1.923717529296875,-2.014665126800537,-1.4568630456924438,0.29868283867836
1776870885207756500,1.933756591796875,-1.0120515823364258,-1.315761923789978,0.4243672490119934
1776870885217794300,1.943794189453125,-0.25109320878982544,-1.148176670074463,0.5083159804344177
1776870885227832600,1.95383251953125,0.20148278772830963,-0.5693015456199646,0.6347713470458984
1776870885237870300,1.963870361328125,0.3092409372329712,0.36163464188575745,0.7497035264968872
1776870885247909600,1.97390966796875,0.22695432603359222,1.433239459991455,0.7912507057189941
1776870885257947400,1.983947509765625,0.06770554184913635,2.2485883235931396,0.6789721250534058
1776870885267985700,1.993985595703125,-0.006228867452591658,2.755150079727173,0.4482555389404297
1776870885278024400,2.0040244140625,-0.03256832808256149,2.6663331985473633,0.10200146585702896
1776870885288062500,2.0140625,-0.03226472809910774,2.063065767288208,-0.3254862129688263
1776870885298100500,2.0241005859375,0.02653360553085804,1.5230426788330078,-0.593864917755127
1776870885308139500,2.034139404296875,0.009226255118846893,0.9838862419128418,-0.4970633089542389
1776870885318177500,2.044177490234375,-0.0803518295288086,0.25461310148239136,-0.23841097950935364
1776870885328215600,2.054215576171875,-0.12243536859750748,-0.698675274848938,-0.09143617004156113
1776870885338254300,2.06425439453125,-0.05681667849421501,-1.3318498134613037,-0.010641459375619888
1776870885348292600,2.074292724609375,-0.025177525356411934,-1.558546543121338,0.04044169932603836
1776870885358330400,2.084330322265625,-0.06095283105969429,-1.534027338027954,0.05001789331436157
1776870885368369700,2.09436962890625,0.01865837350487709,-0.9642549753189087,0.1197034940123558
1776870885378407400,2.104407470703125,0.15020494163036346,-0.3024839758872986,0.19179660081863403
1776870885388445700,2.11444580078125,0.09188491851091385,0.22382164001464844,0.2238786369562149
1776870885398484500,2.124484375,0.05073641240596771,0.8692118525505066,0.3297816216945648
1776870885408522500,2.1345224609375,0.12452781200408936,1.3375015258789062,0.3885762393474579
1776870885418560500,2.144560546875,0.23727327585220337,1.3738571405410767,0.2773996591567993
1776870885428599600,2.154599609375,0.3092515766620636,1.0624796152114868,0.0009084042394533753
1776870885438637600,2.164637451171875,0.26620611548423767,0.7471889853477478,-0.26918086409568787
1776870885448675600,2.174675537109375,0.029744314029812813,0.6659958362579346,-0.36126792430877686
1776870885458714400,2.18471435546875,-0.11251695454120636,0.6569001078605652,-0.33663448691368103
1776870885468752600,2.194752685546875,-0.13336391746997833,0.6694247126579285,-0.21685588359832764
1776870885478790400,2.204790283203125,-0.06652070581912994,0.5296404361724854,-0.09110593795776367
1776870885488829700,2.21482958984375,-0.027179423719644547,0.22474177181720734,-0.02412131428718567
1776870885498867500,2.224867431640625,0.10764843225479126,-0.030970431864261627,0.06318855285644531
1776870885508905500,2.234905517578125,0.1544143408536911,-0.30635300278663635,0.13481587171554565
1776870885518944500,2.244944580078125,0.07815738767385483,-0.5417096018791199,0.15110616385936737
1776870885528982500,2.254982421875,-0.06404263526201248,-0.8153078556060791,0.10393385589122772
1776870885539020500,2.2650205078125,-0.18537677824497223,-0.9025905728340149,0.06807838380336761
1776870885549059600,2.2750595703125,-0.11269166320562363,-0.5047414898872375,0.11223413050174713
1776870885559097600,2.28509765625,-0.008946623653173447,0.11891599744558334,0.13313807547092438
1776870885569135400,2.29513525390625,0.15286757051944733,0.6367807388305664,0.10518527776002884
1776870885579174400,2.30517431640625,0.2081364244222641,0.8819001913070679,0.08958075195550919
1776870885589212400,2.31521240234375,0.1400095671415329,0.9895052313804626,0.09673932939767838
1776870885599250400,2.32525048828125,0.06725999712944031,1.0177741050720215,0.03828027844429016
1776870885609289500,2.33528955078125,0.03459872305393219,0.9973157644271851,-0.08400249481201172
1776870885619327500,2.345327392578125,0.040592700242996216,0.9017386436462402,-0.20733214914798737
1776870885629365500,2.355365478515625,0.09797822684049606,0.8161957263946533,-0.2752925455570221
1776870885639404500,2.365404541015625,0.17495423555374146,0.6784722208976746,-0.270845890045166
1776870885649442600,2.375442626953125,0.20209211111068726,0.4900541305541992,-0.21308350563049316
1776870885659480600,2.38548046875,0.12884639203548431,0.3168570399284363,-0.12283830344676971
1776870885669519400,2.395519287109375,0.08025649189949036,0.12219008803367615,0.012915532104671001
1776870885679557600,2.4055576171875,0.021076256409287453,-0.01925997994840145,0.11861772835254669
1776870885689595400,2.415595458984375,-0.04730493202805519,-0.09079035371541977,0.13615091145038605
1776870885699634400,2.425634521484375,-0.25234144926071167,-0.11603046208620071,0.04677789285778999
1776870885709672400,2.43567236328125,-0.4286882281303406,-0.11930482089519501,-0.0514456145465374
1776870885719710500,2.44571044921875,-0.5132566690444946,-0.14180400967597961,-0.08517295122146606
1776870885729749500,2.45574951171875,-0.5154074430465698,-0.2300153523683548,-0.04075329005718231
1776870885739787500,2.46578759765625,-0.4493487775325775,-0.4220542907714844,0.014393586665391922
1776870885749825500,2.475825439453125,-0.324386864900589,-0.6142282485961914,0.056048355996608734
1776870885759864600,2.485864501953125,-0.18735390901565552,-0.6503164768218994,0.12550918757915497
1776870885769902600,2.495902587890625,-0.09084681421518326,-0.5635837316513062,0.19202563166618347
1776870885779940600,2.505940673828125,-0.1537695825099945,-0.4618067741394043,0.2185419201850891
1776870885789979400,2.5159794921875,-0.22811944782733917,-0.39641818404197693,0.23356029391288757
1776870885800017700,2.526017578125,-0.17326126992702484,-0.3531636595726013,0.24827159941196442
1776870885810055400,2.536055419921875,0.015046327374875546,-0.409448504447937,0.20602214336395264
1776870885820094500,2.546094482421875,0.1711864024400711,-0.4520875811576843,0.11010999232530594
1776870885830132500,2.556132568359375,0.2625322937965393,-0.39525437355041504,0.016165653243660927
1776870885840170500,2.56617041015625,0.3274729251861572,-0.2897689640522003,-0.07422416657209396
1776870885850209500,2.57620947265625,0.3611251711845398,-0.09322288632392883,-0.12622131407260895
1776870885860247600,2.58624755859375,0.21693789958953857,0.0351923406124115,-0.13400201499462128
1776870885870285600,2.59628564453125,-0.035885829478502274,0.07101665437221527,-0.08394656330347061
1776870885880324600,2.60632470703125,-0.1640922725200653,-0.08386693894863129,-0.023689083755016327
1776870885890362600,2.616362548828125,-0.16450293362140656,-0.28183674812316895,0.02480095438659191
1776870885900400400,2.626400390625,-0.09094881266355515,-0.37290194630622864,0.0539199560880661
1776870885910439400,2.636439453125,0.0268971286714077,-0.35855334997177124,0.026259034872055054
1776870885920477700,2.646477783203125,0.04147420451045036,-0.2857308089733124,0.011444934643805027
1776870885930515500,2.656515380859375,0.025711221620440483,-0.2072748839855194,0.003176884725689888
1776870885940554500,2.666554443359375,0.0580313466489315,-0.13857758045196533,-0.0010266485624015331
1776870885950592500,2.676592529296875,0.15119431912899017,-0.08434391021728516,-0.009034774266183376
1776870885960630500,2.686630615234375,0.12195973098278046,-0.26064756512641907,0.025557024404406548
1776870885970669600,2.696669677734375,-0.11290284991264343,-0.19462966918945312,0.32212263345718384
1776870885980707300,2.706707275390625,-0.27189889550209045,-0.01991858147084713,0.6302304267883301
1776870885990745600,2.71674560546875,-0.3161560893058777,0.01732173189520836,0.7054458260536194
1776870886000784600,2.72678466796875,-0.1252972036600113,-0.04373869299888611,0.4601806402206421
1776870886010822700,2.73682275390625,0.11664965003728867,-0.07455998659133911,0.012473180890083313
1776870886020860400,2.7468603515625,0.1783479005098343,0.09362316131591797,-0.3551216125488281
1776870886030898700,2.756898681640625,0.07969802618026733,0.28437232971191406,-0.42854762077331543
1776870886040937500,2.7669375,-0.009048355743288994,0.2915559411048889,-0.4113342761993408
1776870886050975500,2.7769755859375,-0.0332287922501564,0.06421760469675064,-0.4538939893245697
1776870886061014500,2.7870146484375,-0.18350431323051453,-0.06947547942399979,-0.47417983412742615
1776870886071052500,2.797052490234375,-0.49805718660354614,0.11392576992511749,-0.43303585052490234
1776870886081090600,2.807090576171875,-0.6630336046218872,0.4458200931549072,-0.46667715907096863
1776870886091128600,2.817128662109375,-0.45750871300697327,0.6860425472259521,-0.6563014388084412
1776870886101167400,2.82716748046875,-0.1644454002380371,0.6498445868492126,-0.8586646318435669
1776870886111205600,2.83720556640625,-0.1378907561302185,0.34892868995666504,-0.8746393322944641
1776870886121243400,2.847243408203125,-0.12427188456058502,-0.3309938907623291,-0.8335369229316711
1776870886131282700,2.85728271484375,0.12212856858968735,-1.0641003847122192,-0.6841943264007568
1776870886141320400,2.867320556640625,0.40052902698516846,-1.3900177478790283,-0.4590887427330017
1776870886151358700,2.877358642578125,0.5129067301750183,-1.3756608963012695,-0.33920949697494507
1776870886161397500,2.8873974609375,0.5294236540794373,-1.1446181535720825,-0.2766720652580261
1776870886171435500,2.897435546875,0.7014566659927368,-1.246681571006775,-0.26871854066848755
1776870886181473500,2.9074736328125,0.6993804574012756,-1.4062834978103638,-0.018279138952493668
1776870886191512600,2.9175126953125,0.8795478343963623,-1.540441632270813,0.33136114478111267
1776870886201550600,2.927550537109375,1.1403826475143433,-1.690476655960083,0.6075583696365356
1776870886211588600,2.937588623046875,1.346393346786499,-1.9237927198410034,0.5720560550689697
1776870886221627400,2.94762744140625,1.4494760036468506,-1.6880054473876953,0.3267973065376282
1776870886231665700,2.957665771484375,1.6978753805160522,-1.2611173391342163,-0.22856846451759338
1776870886241703400,2.967703369140625,1.723960518836975,-0.8513726592063904,-0.7528801560401917
1776870886251742700,2.97774267578125,1.3561053276062012,-0.8615286350250244,-1.2094477415084839
1776870886261780500,2.987780517578125,0.7312395572662354,-1.3586769104003906,-1.711405634880066
1776870886271818500,2.997818603515625,-0.030949126929044724,-1.5416749715805054,-2.0289316177368164
1776870886281857500,3.007857421875,-0.4952142536640167,-1.2633274793624878,-2.3082327842712402
1776870886291895600,3.0178955078125,-0.5500426292419434,-0.26659199595451355,-2.362170696258545
1776870886301933600,3.02793359375,-0.6352366209030151,0.8851692080497742,-2.1021766662597656
1776870886311972600,3.03797265625,-0.8758244514465332,1.3374402523040771,-1.4384061098098755
1776870886322010600,3.0480107421875,-1.2014113664627075,0.7997062802314758,-0.47913888096809387
1776870886332048400,3.05804833984375,-1.6765576601028442,-0.19685447216033936,0.5209441184997559
1776870886342087400,3.06808740234375,-2.26037335395813,-1.1900553703308105,1.4192315340042114
1776870886352125400,3.07812548828125,-2.8551480770111084,-1.5971347093582153,2.0012259483337402
1776870886362163500,3.08816357421875,-3.210831642150879,-1.1292612552642822,2.3285696506500244
1776870886372202800,3.09820263671875,-3.206176519393921,-0.37289074063301086,2.385495185852051
1776870886382240500,3.108240478515625,-2.515033483505249,0.3214057385921478,1.858736276626587
1776870886392278500,3.118278564453125,-1.5035035610198975,0.8486157655715942,0.8728670477867126
1776870886402317600,3.128317626953125,-0.6624597311019897,1.2295314073562622,-0.006395847536623478
1776870886412355300,3.138355224609375,-0.2127375602722168,1.1979784965515137,-0.44941774010658264
1776870886422393600,3.1483935546875,-0.12694409489631653,1.0509859323501587,-0.5934391021728516
1776870886432432400,3.158432373046875,-0.20426206290721893,1.0138667821884155,-0.6035463213920593
1776870886442470700,3.168470703125,-0.2783410847187042,1.0087649822235107,-0.5196439623832703
1776870886452508400,3.17850830078125,-0.2541148364543915,1.0168495178222656,-0.35910943150520325
1776870886462547500,3.18854736328125,-0.17515318095684052,1.1265099048614502,-0.06532121449708939
1776870886472585500,3.19858544921875,-0.1524694263935089,1.318466305732727,0.39099839329719543
1776870886482623500,3.20862353515625,-0.1180451437830925,1.4668755531311035,0.8206384181976318
1776870886492662500,3.21866259765625,-0.008203601464629173,1.4405217170715332,1.0322487354278564
1776870886502701300,3.228701416015625,0.042574092745780945,1.2748552560806274,1.0355195999145508
1776870886512739000,3.238739013671875,-0.00010972223390126601,1.122337818145752,0.9279811382293701
1776870886522778400,3.2487783203125,-0.056544769555330276,0.6887381672859192,0.5290140509605408
1776870886532816100,3.258816162109375,-0.20811884105205536,0.06997109204530716,0.0518253818154335
1776870886542854400,3.2688544921875,-0.23554487526416779,-0.43628251552581787,-0.24843430519104004
1776870886552893200,3.27889306640625,-0.18895713984966278,-0.555525541305542,-0.3022075295448303
1776870886562931200,3.28893115234375,-0.21343106031417847,-0.31978678703308105,-0.22717216610908508
1776870886572969200,3.29896923828125,-0.332232266664505,0.1400524377822876,-0.16226772964000702
1776870886583008300,3.30900830078125,-0.4408913850784302,0.5617977976799011,-0.11926381289958954
1776870886593046300,3.31904638671875,-0.42898279428482056,0.8034128546714783,-0.12639150023460388
1776870886603084300,3.329084228515625,-0.256499707698822,0.8620743155479431,-0.17719554901123047
1776870886613123000,3.339123046875,0.011607120744884014,0.7342265844345093,-0.2451559603214264
1776870886623161300,3.349161376953125,0.23898781836032867,0.5534490942955017,-0.23926851153373718
1776870886633199000,3.35919921875,0.2725079655647278,0.3808394968509674,-0.22815167903900146
1776870886643238400,3.36923828125,0.1894378364086151,0.36428821086883545,-0.24870409071445465
1776870886653276200,3.379276123046875,0.13340891897678375,0.48729854822158813,-0.2954833209514618
1776870886663314400,3.389314453125,0.14197871088981628,0.5921309590339661,-0.36192038655281067
1776870886673353200,3.399353271484375,0.14823633432388306,0.7397563457489014,-0.4596778452396393
1776870886683391200,3.40939111328125,0.10126270353794098,0.8885889649391174,-0.5315030217170715
1776870886693429200,3.41942919921875,0.03061703033745289,0.8508176207542419,-0.4952978789806366
1776870886703468300,3.42946826171875,0.009265935979783535,0.5930199027061462,-0.33670878410339355
1776870886713506300,3.43950634765625,-0.01124839298427105,0.2840559482574463,-0.11501367390155792
1776870886723544300,3.44954443359375,-0.027033215388655663,0.04201056808233261,0.03164341300725937
1776870886733583000,3.4595830078125,-0.03874499723315239,0.010100305080413818,0.046171221882104874
1776870886743621400,3.469621337890625,-0.043832436203956604,0.10217457264661789,-0.005184642039239407
1776870886753659100,3.4796591796875,-0.03790104389190674,0.1871456503868103,-0.051955077797174454
1776870886763698400,3.489698486328125,-0.04351312294602394,0.2527145445346832,-0.07652140408754349
1776870886773736200,3.499736083984375,-0.03869599848985672,0.29369473457336426,-0.09340637922286987
1776870886783774500,3.5097744140625,-0.03368046507239342,0.306937575340271,-0.11406904458999634
1776870886793813200,3.519813232421875,-0.03923289105296135,0.3064264953136444,-0.13895948231220245
1776870886803851300,3.529851318359375,-0.035660792142152786,0.29957446455955505,-0.1471116840839386
1776870886813889300,3.53988916015625,-0.03982517868280411,0.298910528421402,-0.14397715032100677
1776870886823928300,3.54992822265625,-0.049372609704732895,0.3107118010520935,-0.13250504434108734
1776870886833966300,3.55996630859375,-0.06749728322029114,0.3288061022758484,-0.12827648222446442
1776870886844004000,3.570004150390625,-0.07293945550918579,0.3389120101928711,-0.13474157452583313
1776870886854043100,3.580043212890625,-0.07452190667390823,0.3269091546535492,-0.14205700159072876
1776870886864081400,3.590081298828125,-0.07794113457202911,0.29486972093582153,-0.14192891120910645
1776870886874119200,3.600119140625,-0.08617349714040756,0.2594219744205475,-0.1252623200416565
1776870886884158500,3.610158447265625,-0.09391557425260544,0.22662967443466187,-0.09775372594594955
1776870886894196200,3.6201962890625,-0.09859368205070496,0.2167823761701584,-0.08150524646043777
1776870886904234200,3.630234130859375,-0.1019015982747078,0.22700625658035278,-0.082347072660923
1776870886914272300,3.640272216796875,-0.10413758456707001,0.23440025746822357,-0.09652920067310333
1776870886924311000,3.65031103515625,-0.10078493505716324,0.24006159603595734,-0.11392710357904434
1776870886934349300,3.660349365234375,-0.09737901389598846,0.2202141284942627,-0.11956501007080078
1776870886944387000,3.670386962890625,-0.10031009465456009,0.19227489829063416,-0.11802943795919418
1776870886954426400,3.68042626953125,-0.10464198887348175,0.1491633802652359,-0.09416192024946213
1776870886964464000,3.690464111328125,-0.10600552707910538,0.10582949221134186,-0.06669913232326508
1776870886974502400,3.70050244140625,-0.11231562495231628,0.07878375798463821,-0.0391647145152092
1776870886984541200,3.710541259765625,-0.13004188239574432,0.0712888240814209,-0.023304257541894913
1776870886994579200,3.7205791015625,-0.14724457263946533,0.07628598064184189,-0.01750948466360569
1776870887004617200,3.7306171875,-0.15694648027420044,0.10335808247327805,-0.022420354187488556
1776870887014656300,3.74065625,-0.1515043079853058,0.14964301884174347,-0.04294906556606293
1776870887024694300,3.7506943359375,-0.14430764317512512,0.19901935756206512,-0.07164063304662704
1776870887034732300,3.760732177734375,-0.1409454047679901,0.24542361497879028,-0.09377176314592361
1776870887044771000,3.77077099609375,-0.1379309743642807,0.2698749005794525,-0.09404367208480835
1776870887054809300,3.780809326171875,-0.14197364449501038,0.29611873626708984,-0.07457223534584045
1776870887064847000,3.79084716796875,-0.158943310379982,0.32375356554985046,-0.04836566746234894
1776870887074886400,3.800886474609375,-0.18612752854824066,0.34032589197158813,-0.028658809140324593
1776870887084924200,3.810924072265625,-0.20059408247470856,0.3510688245296478,-0.019992083311080933
1776870887094962400,3.82096240234375,-0.18996141850948334,0.3767850995063782,-0.03092782199382782
1776870887105001200,3.831001220703125,-0.17202582955360413,0.4143383204936981,-0.05241420492529869
1776870887115039200,3.841039306640625,-0.14840012788772583,0.4366247355937958,-0.0851721540093422
1776870887125077200,3.8510771484375,-0.11873064190149307,0.4649048447608948,-0.11685125529766083
1776870887135116300,3.8611162109375,-0.10316366702318192,0.4823107123374939,-0.14647625386714935
1776870887145154300,3.871154296875,-0.12944906949996948,0.45567992329597473,-0.1525631695985794
1776870887155192300,3.8811923828125,-0.18900108337402344,0.418383926153183,-0.1575198471546173
1776870887165231000,3.891231201171875,-0.24164457619190216,0.41449519991874695,-0.1593792736530304
1776870887175269400,3.901269287109375,-0.2587239742279053,0.4390218257904053,-0.13216336071491241
1776870887185307400,3.911307373046875,-0.24212874472141266,0.45901790261268616,-0.07794220000505447
1776870887195346400,3.921346435546875,-0.1938815861940384,0.41780123114585876,-0.016388559713959694
1776870887205384200,3.93138427734375,-0.1906660944223404,0.35527899861335754,0.004382231738418341
1776870887215422200,3.941422119140625,-0.2707281708717346,0.28527382016181946,-0.034271687269210815
1776870887225461200,3.951461181640625,-0.3902239501476288,0.2169102132320404,-0.08262909948825836
1776870887235499300,3.961499267578125,-0.5001834630966187,0.1389075517654419,-0.10757199674844742
1776870887245537300,3.971537353515625,-0.5703809261322021,0.05846916884183884,-0.10097668319940567
1776870887255576300,3.981576416015625,-0.5688309669494629,0.08925877511501312,-0.047445014119148254
1776870887265614300,3.9916142578125,-0.5301551818847656,0.16425392031669617,0.01919153705239296
1776870887275652000,4.001652099609375,-0.46898800134658813,0.15386971831321716,0.054662179201841354
1776870887285691100,4.011691162109375,-0.41073933243751526,0.064780592918396,0.0529622845351696
1776870887295729200,4.021729248046875,-0.41305655241012573,-0.023452861234545708,-0.022899722680449486
1776870887305767400,4.031767333984375,-0.43273118138313293,-0.046660978347063065,-0.10955578833818436
1776870887315806200,4.04180615234375,-0.46138226985931396,-0.011856392957270145,-0.15973852574825287
1776870887325844200,4.05184423828125,-0.47640782594680786,0.019962256774306297,-0.142227441072464
1776870887335882200,4.06188232421875,-0.5100635290145874,0.022912239655852318,-0.09543491154909134
1776870887345921300,4.07192138671875,-0.5258123874664307,-0.0398896262049675,-0.08307677507400513
1776870887355959300,4.081959228515625,-0.5367401242256165,-0.10698051005601883,-0.14773380756378174
1776870887365997300,4.091997314453125,-0.6133124232292175,-0.09717155992984772,-0.28802379965782166
1776870887376036000,4.1020361328125,-0.707276463508606,-0.02496207505464554,-0.42834389209747314
1776870887386074400,4.112074462890625,-0.8306474089622498,0.031554196029901505,-0.5046234726905823
1776870887396112100,4.122112060546875,-0.9060161709785461,0.02798183262348175,-0.4931447207927704
1776870887406151200,4.132151123046875,-0.936587929725647,-0.031014375388622284,-0.4038742482662201
1776870887416189200,4.142189208984375,-0.9662744402885437,-0.19089432060718536,-0.3456660509109497
1776870887426227500,4.1522275390625,-1.056413173675537,-0.4342856705188751,-0.4067336618900299
1776870887436266200,4.162266357421875,-1.211918592453003,-0.6223040223121643,-0.5875577926635742
1776870887446304300,4.17230419921875,-1.3715695142745972,-0.7036076784133911,-0.7954726219177246
1776870887456342300,4.18234228515625,-1.419708013534546,-0.5790486931800842,-0.8888838291168213
1776870887466381300,4.19238134765625,-1.3513158559799194,-0.27519693970680237,-0.833611249923706
1776870887476419300,4.20241943359375,-1.300010323524475,-0.014916631393134594,-0.6555290818214417
1776870887486457300,4.212457275390625,-1.2851661443710327,0.013226322829723358,-0.5103405117988586
1776870887496496000,4.22249609375,-1.3450294733047485,-0.3632250726222992,-0.5240509510040283
1776870887506534400,4.232534423828125,-1.4311904907226562,-0.726333498954773,-0.7372891902923584
1776870887516572200,4.242572265625,-1.507637858390808,-0.7689025402069092,-1.0167213678359985
1776870887526611500,4.252611572265625,-1.5625354051589966,-0.6478655934333801,-1.213793396949768
1776870887536649200,4.262649169921875,-1.5988469123840332,-0.5424838066101074,-1.2488044500350952
1776870887546687500,4.2726875,-1.6510040760040283,-0.5352876782417297,-1.1444602012634277
1776870887556726300,4.282726318359375,-1.7215850353240967,-0.6471673250198364,-0.9778131246566772
1776870887566764300,4.292764404296875,-1.732925534248352,-0.8560483455657959,-0.8216943740844727
1776870887576802300,4.30280224609375,-1.634812355041504,-1.0558093786239624,-0.6994875073432922
1776870887586841300,4.31284130859375,-1.4370657205581665,-1.2106698751449585,-0.5971121191978455
1776870887596879400,4.32287939453125,-1.3093881607055664,-1.3691654205322266,-0.5147128701210022
1776870887606917400,4.33291748046875,-1.2247028350830078,-1.4963539838790894,-0.45065903663635254
1776870887616956200,4.3429560546875,-1.160287618637085,-1.5530353784561157,-0.43165794014930725
1776870887626994400,4.352994384765625,-1.129509449005127,-1.532157301902771,-0.4363671839237213
1776870887637032200,4.3630322265625,-1.1340117454528809,-1.5038849115371704,-0.47259336709976196
1776870887647071500,4.373071533203125,-1.1987239122390747,-1.3787776231765747,-0.5220980644226074
1776870887657109200,4.383109130859375,-1.3135669231414795,-1.160365343093872,-0.5720152854919434
1776870887667147500,4.3931474609375,-1.3923379182815552,-0.8978837132453918,-0.6169372200965881
1776870887677186300,4.403186279296875,-1.3831987380981445,-0.6738423109054565,-0.6185380816459656
1776870887687224300,4.413224365234375,-1.2620089054107666,-0.5483714938163757,-0.5914731621742249
1776870887697262300,4.423262451171875,-1.0612667798995972,-0.5429293513298035,-0.5367814302444458
1776870887707301400,4.43330126953125,-0.8203662633895874,-0.6036317944526672,-0.4602759778499603
1776870887717339400,4.44333935546875,-0.5623629689216614,-0.6955282092094421,-0.3663926422595978
1776870887727377400,4.45337744140625,-0.33491194248199463,-0.7770126461982727,-0.28801316022872925
1776870887737416200,4.463416259765625,-0.17743124067783356,-0.8388115763664246,-0.22267462313175201
1776870887747454500,4.473454345703125,-0.08035475760698318,-0.9226492047309875,-0.1786067634820938
1776870887757492200,4.4834921875,-0.044262804090976715,-1.0016322135925293,-0.12833799421787262
1776870887767531500,4.493531494140625,-0.0893368050456047,-1.0638742446899414,-0.06685119867324829
1776870887777569300,4.5035693359375,-0.21404410898685455,-1.112614393234253,0.006043245084583759
1776870887787607300,4.513607177734375,-0.4416666328907013,-1.1542925834655762,0.07513469457626343
1776870887797646300,4.523646240234375,-0.6993104219436646,-1.1798349618911743,0.13555462658405304
1776870887807684400,4.533684326171875,-0.950553297996521,-1.1920415163040161,0.18688680231571198
1776870887817722400,4.543722412109375,-1.1905509233474731,-1.1794480085372925,0.22627201676368713
1776870887827761400,4.553761474609375,-1.3392610549926758,-1.1468749046325684,0.2548631727695465
1776870887837799400,4.56379931640625,-1.3120694160461426,-1.0731223821640015,0.28691565990448
1776870887847837200,4.573837158203125,-1.1352235078811646,-0.9574722051620483,0.3122346103191376
1776870887857875500,4.58387548828125,-0.8230384588241577,-0.7753098607063293,0.3230006992816925
1776870887867914200,4.593914306640625,-0.4462038576602936,-0.5341272950172424,0.2898850739002228
1776870887877952300,4.6039521484375,-0.08780548721551895,-0.20158344507217407,0.20568685233592987
1776870887887991600,4.613991455078125,0.049128662794828415,0.1279720813035965,0.06565917283296585
1776870887898029300,4.624029296875,-0.020441092550754547,0.2534911334514618,-0.05187278613448143
1776870887908067300,4.6340673828125,-0.11193639039993286,0.1497088074684143,-0.10583189129829407
1776870887918105300,4.644105224609375,-0.13180649280548096,-0.012720322236418724,-0.11140988022089005
1776870887928144100,4.65414404296875,-0.10499832034111023,-0.13822871446609497,-0.08794955909252167
1776870887938182400,4.664182373046875,-0.07280416786670685,-0.1707453727722168,-0.059356532990932465
1776870887948220200,4.67422021484375,-0.05002055689692497,-0.1317199468612671,-0.03435610979795456
1776870887958259500,4.684259521484375,-0.04508065804839134,-0.04945197328925133,-0.02882072888314724
1776870887968297200,4.694297119140625,-0.04291897267103195,0.046416234225034714,-0.029454028233885765
1776870887978335500,4.70433544921875,-0.03885498642921448,0.14822515845298767,-0.035231757909059525
1776870887988374300,4.714374267578125,-0.036497555673122406,0.25196993350982666,-0.06094404309988022
1776870887998412300,4.724412353515625,-0.05068501457571983,0.3496091365814209,-0.10444624722003937
1776870888008450300,4.7344501953125,-0.08484458178281784,0.42510148882865906,-0.16923163831233978
1776870888018489300,4.7444892578125,-0.12774758040905,0.471166729927063,-0.2339555025100708
1776870888028527400,4.75452734375,-0.17698436975479126,0.48078447580337524,-0.284374475479126
1776870888038565400,4.7645654296875,-0.21763591468334198,0.4467657804489136,-0.29529502987861633
1776870888048604200,4.774604248046875,-0.2609895169734955,0.37931138277053833,-0.27534955739974976
1776870888058642400,4.784642333984375,-0.3181963562965393,0.2960830628871918,-0.22839482128620148
1776870888068680200,4.79468017578125,-0.3711397349834442,0.23167237639427185,-0.16462649405002594
1776870888078719500,4.804719482421875,-0.4235680401325226,0.19412313401699066,-0.10107388347387314
1776870888088757200,4.81475732421875,-0.4645402431488037,0.1877129077911377,-0.04031866043806076
1776870888098795500,4.82479541015625,-0.4917071461677551,0.19855277240276337,0.008057127706706524
1776870888108834300,4.834834228515625,-0.5113348960876465,0.2078235000371933,0.04560104012489319
1776870888118872300,4.844872314453125,-0.5231870412826538,0.19704276323318481,0.06992635130882263
1776870888128910300,4.854910400390625,-0.5294516086578369,0.1494358330965042,0.09211687743663788
1776870888138949400,4.864949462890625,-0.5154902338981628,0.07459647208452225,0.13267016410827637
1776870888148987400,4.8749873046875,-0.4522137939929962,-0.01455870270729065,0.20200209319591522
1776870888159025200,4.885025146484375,-0.3475201427936554,-0.11122772097587585,0.3160698115825653
1776870888169064200,4.895064208984375,-0.21913528442382812,-0.22029481828212738,0.46603721380233765
1776870888179102500,4.9051025390625,-0.09652840346097946,-0.3408345580101013,0.6337189078330994
1776870888189140200,4.91514013671875,-0.00914502888917923,-0.4596821069717407,0.7963240146636963
1776870888199179500,4.925179443359375,0.02570003643631935,-0.5682024359703064,0.9413816332817078
1776870888209217300,4.93521728515625,-0.0033308155834674835,-0.6465012431144714,1.0573101043701172
1776870888219255300,4.94525537109375,-0.07307660579681396,-0.6464394927024841,1.1280841827392578
1776870888229294300,4.95529443359375,-0.12205799669027328,-0.5289831757545471,1.1120582818984985
1776870888239332000,4.96533203125,-0.11912426352500916,-0.3223103880882263,1.0067249536514282
1776870888249370400,4.975370361328125,-0.06626050919294357,-0.06238001957535744,0.8300476670265198
1776870888259409400,4.985409423828125,0.010402306914329529,0.20254698395729065,0.6040592789649963
1776870888269447400,4.995447509765625,0.08588321506977081,0.4130283296108246,0.35722044110298157
1776870888279485200,5.005485107421875,0.14139707386493683,0.5282363891601562,0.10616078972816467
1776870888289524200,5.015524169921875,0.17606690526008606,0.5130148530006409,-0.12645886838436127
1776870888299562200,5.025562255859375,0.20299465954303741,0.37342044711112976,-0.32585108280181885
1776870888309600300,5.035600341796875,0.20306603610515594,0.13913552463054657,-0.5016500353813171
1776870888319639300,5.045639404296875,0.18702182173728943,-0.16693225502967834,-0.6310192346572876
1776870888329677300,5.05567724609375,0.15818457305431366,-0.5118609070777893,-0.7141708731651306
1776870888339715300,5.06571533203125,0.12163642048835754,-0.8314375281333923,-0.7496601343154907
1776870888349754400,5.07575439453125,0.06168520078063011,-1.0907710790634155,-0.730208158493042
1776870888359792000,5.085792236328125,-0.009996441192924976,-1.2799501419067383,-0.6504651308059692
1776870888369830400,5.095830322265625,-0.06543227285146713,-1.3824613094329834,-0.5283898115158081
1776870888379869200,5.105869140625,-0.10985007137060165,-1.3761488199234009,-0.3627867102622986
1776870888389907500,5.115907470703125,-0.15116581320762634,-1.262040376663208,-0.17011287808418274
1776870888399945200,5.1259453125,-0.18925274908542633,-1.0243500471115112,0.014549647457897663
1776870888409984300,5.135984375,-0.22908511757850647,-0.677696704864502,0.17216138541698456
1776870888420022300,5.146022216796875,-0.23320715129375458,-0.23244841396808624,0.2828868329524994
1776870888430060300,5.156060302734375,-0.19409197568893433,0.24701884388923645,0.34878090023994446
1776870888440099300,5.166099365234375,-0.12891750037670135,0.6539101600646973,0.38677486777305603
1776870888450137300,5.176137451171875,-0.08404882997274399,0.9090689420700073,0.4064495265483856
1776870888460175400,5.18617529296875,-0.07123742997646332,0.9664244055747986,0.419238805770874
1776870888470214400,5.19621435546875,-0.0757506862282753,0.8587424159049988,0.4335311949253082
1776870888480252200,5.206252197265625,-0.05131005868315697,0.6819657683372498,0.4499397277832031
1776870888490290400,5.21629052734375,-0.008918393403291702,0.5149741172790527,0.46018651127815247
1776870888500329200,5.2263291015625,0.031670842319726944,0.3764069378376007,0.4549051821231842
1776870888510367000,5.236366943359375,0.05967531353235245,0.2562173902988434,0.4339306652545929
1776870888520405000,5.246405029296875,0.0604175366461277,0.14102929830551147,0.39440643787384033
1776870888530444000,5.256444091796875,0.046665504574775696,-0.007610515225678682,0.3297922909259796
1776870888540482000,5.26648193359375,0.028374116867780685,-0.17723576724529266,0.24021047353744507
1776870888550520000,5.27652001953125,0.024583905935287476,-0.3201068937778473,0.14392122626304626
1776870888560559000,5.28655908203125,0.015419436618685722,-0.39124393463134766,0.04965383931994438
1776870888570596900,5.296596923828125,0.006162022240459919,-0.36511513590812683,-0.03907176852226257
1776870888580635100,5.30663525390625,0.01804318279027939,-0.27993178367614746,-0.10971424728631973
1776870888590674000,5.316673828125,0.042868103832006454,-0.17548340559005737,-0.14179974794387817
1776870888600712000,5.3267119140625,0.06718196719884872,-0.0643310546875,-0.12364204972982407
1776870888610750000,5.33675,0.07239164412021637,0.03710795193910599,-0.07227552682161331
1776870888620789000,5.3467890625,0.06506581604480743,0.10479192435741425,0.0008356999605894089
1776870888630827000,5.356826904296875,0.04917233809828758,0.14292679727077484,0.05760390684008598
1776870888640865000,5.366864990234375,0.03873701021075249,0.1530018001794815,0.08526456356048584
1776870888650904000,5.376904052734375,0.04202574864029884,0.14564162492752075,0.09268972277641296
1776870888660942000,5.386942138671875,0.046848732978105545,0.12689536809921265,0.07801836729049683
1776870888670980000,5.39697998046875,0.047863397747278214,0.11172333359718323,0.03717027232050896
1776870888681019100,5.40701904296875,0.045760296285152435,0.09248252958059311,-0.019704729318618774
1776870888691057000,5.417056884765625,0.05012867972254753,0.07585694640874863,-0.08673596382141113
1776870888701095200,5.42709521484375,0.05676048621535301,0.06125110760331154,-0.1573060005903244
1776870888711134000,5.437134033203125,0.07163077592849731,0.057679276913404465,-0.22163385152816772
1776870888721172000,5.447171875,0.0863276943564415,0.0546475313603878,-0.27314525842666626
1776870888731210000,5.4572099609375,0.09408149123191833,0.0524914376437664,-0.3015387952327728
1776870888741249000,5.4672490234375,0.08800975233316422,0.033198434859514236,-0.3093637228012085
1776870888751287000,5.477287109375,0.07210668176412582,0.01654328964650631,-0.3052733540534973
1776870888761325000,5.487324951171875,0.04754647985100746,0.01492275670170784,-0.2949219048023224
1776870888771364000,5.497364013671875,0.028133632615208626,0.010584733448922634,-0.27885931730270386
1776870888781402000,5.507402099609375,0.01666313223540783,0.006539125461131334,-0.25899773836135864
1776870888791440100,5.517440185546875,0.011624698527157307,-0.0075971996411681175,-0.23018206655979156
1776870888801479200,5.527479248046875,0.006984139792621136,-0.05059260502457619,-0.1932469606399536
1776870888811517000,5.537516845703125,-0.0008761800127103925,-0.09766077995300293,-0.16286508738994598
1776870888821555000,5.547554931640625,-0.020229371264576912,-0.1611233800649643,-0.12068434059619904
1776870888831593000,5.557593017578125,-0.03993836045265198,-0.21774165332317352,-0.07823648303747177
1776870888841632000,5.567632080078125,-0.059542421251535416,-0.24160383641719818,-0.034091390669345856
1776870888851670000,5.577669921875,-0.06634626537561417,-0.22107991576194763,0.002814695006236434
1776870888861708000,5.5877080078125,-0.06198401004076004,-0.15755127370357513,0.02558072656393051
1776870888871747000,5.5977470703125,-0.05535939708352089,-0.09527405351400375,0.0364067442715168
1776870888881784800,5.607784912109375,-0.053396910429000854,-0.05393034219741821,0.03483894094824791
1776870888891823000,5.617822998046875,-0.06557554751634598,-0.04697230085730553,0.017770474776625633
1776870888901862000,5.62786181640625,-0.07944928854703903,-0.06351852416992188,-0.005106877535581589
1776870888911900200,5.637900146484375,-0.0843268632888794,-0.07481991499662399,-0.03585360571742058
1776870888921938000,5.64793798828125,-0.075820192694664,-0.0787494033575058,-0.07077191025018692
1776870888931977000,5.65797705078125,-0.0737471878528595,-0.07523083686828613,-0.10382626205682755
1776870888942015000,5.668014892578125,-0.07561646401882172,-0.07219057530164719,-0.13698768615722656
1776870888952053000,5.678052978515625,-0.07737760990858078,-0.09289877861738205,-0.15781626105308533
1776870888962092000,5.688092041015625,-0.08431008458137512,-0.12727007269859314,-0.17770874500274658
1776870888972130000,5.698130126953125,-0.09500214457511902,-0.16327600181102753,-0.18355464935302734
1776870888982168000,5.70816796875,-0.1038355827331543,-0.1848369538784027,-0.17602136731147766
1776870888992207000,5.71820703125,-0.11527119576931,-0.1905832588672638,-0.15650679171085358
1776870889002244900,5.728244873046875,-0.12159088253974915,-0.1669764667749405,-0.13101793825626373
1776870889012283100,5.738283203125,-0.12750282883644104,-0.1325700283050537,-0.1232694685459137
1776870889022322000,5.748322021484375,-0.1277555674314499,-0.09986747801303864,-0.13206802308559418
1776870889032360200,5.758360107421875,-0.12446390092372894,-0.08205518871545792,-0.15392698347568512
1776870889042398000,5.76839794921875,-0.12392088025808334,-0.08387519419193268,-0.17942115664482117
1776870889052437000,5.77843701171875,-0.12581385672092438,-0.09999717026948929,-0.1962323635816574
1776870889062475000,5.78847509765625,-0.1354323923587799,-0.1199548989534378,-0.20274192094802856
1776870889072513000,5.798512939453125,-0.14179015159606934,-0.14483867585659027,-0.19647657871246338
1776870889082552000,5.808552001953125,-0.14058028161525726,-0.17222262918949127,-0.1715318113565445
1776870889092590000,5.818590087890625,-0.1345146745443344,-0.1832563728094101,-0.132102370262146
1776870889102628000,5.828628173828125,-0.11752635985612869,-0.17979319393634796,-0.07906872034072876
1776870889112667100,5.838667236328125,-0.10809637606143951,-0.1629449725151062,-0.02269146405160427
1776870889122705000,5.848704833984375,-0.09378214925527573,-0.15028351545333862,0.024598820134997368
1776870889132743200,5.8587431640625,-0.06033764407038689,-0.1464962363243103,0.05390743911266327
1776870889142782000,5.868781982421875,-0.007000651676207781,-0.1474917232990265,0.058220695704221725
1776870889152820200,5.8788203125,0.0529998354613781,-0.146108478307724,0.03195873275399208
1776870889162858000,5.88885791015625,0.10253303498029709,-0.1324206292629242,-0.02959890477359295
1776870889172897000,5.89889697265625,0.15453924238681793,-0.12292911857366562,-0.10912542045116425
1776870889182935000,5.90893505859375,0.20320264995098114,-0.13250797986984253,-0.18205289542675018
1776870889192973000,5.91897314453125,0.24186348915100098,-0.15389129519462585,-0.23046250641345978
1776870889203012000,5.92901220703125,0.257779598236084,-0.16562491655349731,-0.2666945457458496
1776870889213050000,5.939050048828125,0.2578251361846924,-0.1446879357099533,-0.29136818647384644
1776870889223088000,5.949088134765625,0.25932344794273376,-0.09271076321601868,-0.2956409752368927
1776870889233127200,5.959127197265625,0.2672988176345825,-0.015002917498350143,-0.2744688391685486
1776870889243165000,5.9691650390625,0.2719974219799042,0.07830678671598434,-0.23258396983146667
1776870889253203000,5.979202880859375,0.25424373149871826,0.16536685824394226,-0.18097883462905884
1776870889263242000,5.989241943359375,0.21321320533752441,0.22839988768100739,-0.13690271973609924
1776870889273280000,5.999280029296875,0.15482047200202942,0.277167946100235,-0.10219907015562057
1776870889283318000,6.009318115234375,0.1011900007724762,0.3125413954257965,-0.05311594903469086
1776870889293357000,6.019357177734375,0.08295533806085587,0.37224918603897095,0.02304246835410595
1776870889303395000,6.02939501953125,0.07465506345033646,0.43835365772247314,0.10004483908414841
1776870889313432800,6.039432861328125,0.045694250613451004,0.4900549352169037,0.1621239185333252
1776870889323472100,6.04947216796875,-0.0007158577209338546,0.5015683174133301,0.21348538994789124
1776870889333510000,6.059510009765625,-0.0571541003882885,0.4748767614364624,0.2518865764141083
1776870889343548200,6.069548095703125,-0.10971824079751968,0.41722172498703003,0.2905934751033783
1776870889353587000,6.0795869140625,-0.1575651317834854,0.34242790937423706,0.32196366786956787
1776870889363625000,6.089625,-0.2007027417421341,0.24043311178684235,0.3549509048461914
1776870889373663000,6.0996630859375,-0.23020870983600616,0.11799880862236023,0.3840904235839844
1776870889383702000,6.109701904296875,-0.24305126070976257,-0.0019206717843189836,0.4102157652378082
1776870889393740000,6.119739990234375,-0.24722790718078613,-0.09122951328754425,0.42336270213127136
1776870889403778000,6.129778076171875,-0.2420312762260437,-0.15297037363052368,0.4268602430820465
1776870889413816800,6.13981689453125,-0.227067768573761,-0.17160078883171082,0.4236285090446472
1776870889423855000,6.149855224609375,-0.21131543815135956,-0.1558130383491516,0.4120091199874878
1776870889433892900,6.159892822265625,-0.1881621778011322,-0.11195582896471024,0.3887064754962921
1776870889443932200,6.16993212890625,-0.1575361043214798,-0.05879141017794609,0.35028156638145447
1776870889453970000,6.179969970703125,-0.11146686971187592,-0.02748941443860531,0.28885549306869507
1776870889464008200,6.19000830078125,-0.06413264572620392,-0.01757499948143959,0.20855720341205597
1776870889474047000,6.200046875,-0.0182836651802063,-0.011049721390008926,0.1015375405550003
1776870889484085000,6.2100849609375,0.026606310158967972,0.046128347516059875,-0.012385829351842403
1776870889494123000,6.220123046875,0.08236491680145264,0.1443244218826294,-0.10408751666545868
1776870889504161300,6.230161376953125,0.1359700858592987,0.26281192898750305,-0.1828574389219284
1776870889514199300,6.24019921875,0.17592789232730865,0.38417935371398926,-0.2418011724948883
1776870889524237300,6.2502373046875,0.1940898448228836,0.4876282513141632,-0.2890155613422394
1776870889534276400,6.2602763671875,0.19929765164852142,0.537287175655365,-0.33052411675453186
1776870889544314400,6.270314453125,0.19596710801124573,0.5215665102005005,-0.37800055742263794
1776870889554352400,6.280352294921875,0.20157945156097412,0.4508252441883087,-0.4301718771457672
1776870889564391400,6.290391357421875,0.22810479998588562,0.33875009417533875,-0.4818859398365021
1776870889574429200,6.30042919921875,0.27452078461647034,0.2053920328617096,-0.531542956829071
1776870889584467500,6.310467529296875,0.31206974387168884,0.06514278054237366,-0.5601349472999573
1776870889594506200,6.32050634765625,0.31090247631073,-0.0634109303355217,-0.5780659914016724
1776870889604544500,6.33054443359375,0.29670250415802,-0.18146540224552155,-0.5680810213088989
1776870889614582300,6.340582275390625,0.284785658121109,-0.2714293897151947,-0.5320902466773987
1776870889624621300,6.350621337890625,0.27934855222702026,-0.3219921588897705,-0.46655866503715515
1776870889634659300,6.360659423828125,0.2757468819618225,-0.32317033410072327,-0.3773616552352905
1776870889644697300,6.370697265625,0.26387372612953186,-0.2852221429347992,-0.27480944991111755
1776870889654736400,6.380736328125,0.2259545624256134,-0.21385875344276428,-0.1625489592552185
1776870889664774400,6.3907744140625,0.16665422916412354,-0.12191445380449295,-0.04583166912198067
1776870889674812400,6.4008125,0.09067664295434952,-0.02556421607732773,0.05578044056892395
1776870889684851500,6.4108515625,0.014405304566025734,0.06256377696990967,0.11942572891712189
1776870889694889200,6.42088916015625,-0.06476487964391708,0.0930820032954216,0.12858593463897705
1776870889704927200,6.43092724609375,-0.15474696457386017,0.07362548261880875,0.07603617757558823
1776870889714966300,6.44096630859375,-0.2577524483203888,0.028734441846609116,-0.021881330758333206
1776870889725004300,6.45100439453125,-0.3608655035495758,0.002665557898581028,-0.13778263330459595
1776870889735042300,6.461042236328125,-0.46520283818244934,-0.02129783108830452,-0.23939980566501617
1776870889745080300,6.471080322265625,-0.5731071829795837,-0.05818207934498787,-0.3140937387943268
1776870889755119400,6.481119384765625,-0.6680126786231995,-0.1296762377023697,-0.34774279594421387
1776870889765157000,6.4911572265625,-0.7144126892089844,-0.25336596369743347,-0.3162650167942047
1776870889775195400,6.5011953125,-0.686428427696228,-0.43711528182029724,-0.2103404551744461
1776870889785234200,6.511234130859375,-0.5872991681098938,-0.6297270655632019,-0.04386572539806366
1776870889795272400,6.5212724609375,-0.4315740466117859,-0.8001310229301453,0.17031128704547882
1776870889805310200,6.531310302734375,-0.25394439697265625,-0.8828184604644775,0.38952380418777466
1776870889815349200,6.541349365234375,-0.11103996634483337,-0.8618630766868591,0.5763069987297058
1776870889825387300,6.55138720703125,-0.01824291981756687,-0.7678892016410828,0.7161863446235657
1776870889835425300,6.56142529296875,0.03627518191933632,-0.642349123954773,0.8174048066139221
1776870889845464300,6.57146435546875,0.06868212670087814,-0.5368126034736633,0.8974258899688721
1776870889855502300,6.58150244140625,0.0881359875202179,-0.47115179896354675,0.9907172322273254
1776870889865540400,6.591540283203125,0.09079408645629883,-0.6451361179351807,0.9867914319038391
1776870889875579400,6.601579345703125,0.0008633967954665422,-1.2863541841506958,0.7450984120368958
1776870889885617200,6.6116171875,-0.036788374185562134,-1.7864670753479004,0.4311450123786926
1776870889895655400,6.621655517578125,0.05842309445142746,-1.8317784070968628,0.13110928237438202
1776870889905694200,6.631694091796875,0.2444038838148117,-1.410893201828003,-0.09975508600473404
1776870889915732500,6.641732421875,0.36958256363868713,-0.6638730764389038,-0.2684690058231354
1776870889925770200,6.651770263671875,0.4345639646053314,0.1127832755446434,-0.43331414461135864
1776870889935809300,6.661809326171875,0.4617772102355957,0.7105478644371033,-0.6376283764839172
1776870889945847300,6.671847412109375,0.4385017156600952,1.0480377674102783,-0.904295802116394
1776870889955885300,6.68188525390625,0.39158400893211365,1.160001277923584,-1.241195797920227
1776870889965924400,6.69192431640625,0.3460221290588379,1.1208419799804688,-1.5682647228240967
1776870889975962400,6.70196240234375,0.36454734206199646,0.9173913598060608,-1.8010563850402832
1776870889986000400,6.71200048828125,0.4369911849498749,0.5994325280189514,-1.8619821071624756
1776870889996039400,6.722039306640625,0.4985179305076599,0.09014054387807846,-1.7341517210006714
1776870890006077200,6.7320771484375,0.4775069057941437,-0.4437641203403473,-1.458184838294983
1776870890016115500,6.742115478515625,0.39354702830314636,-0.8641097545623779,-1.0480351448059082
1776870890026154200,6.752154296875,0.23908981680870056,-0.9762921929359436,-0.5910270810127258
1776870890036192500,6.762192626953125,0.04483405128121376,-0.7990750670433044,-0.13360120356082916
1776870890046230300,6.772230224609375,-0.08366826176643372,-0.45883336663246155,0.27157557010650635
1776870890056269300,6.782269287109375,-0.10710515081882477,-0.1796981245279312,0.5986059308052063
1776870890066307300,6.792307373046875,-0.11415799707174301,-0.02057718113064766,0.8523183465003967
1776870890076345000,6.802344970703125,-0.1307433694601059,0.06326206028461456,1.0377875566482544
1776870890086384400,6.81238427734375,-0.1459156572818756,0.10821515321731567,1.1556942462921143
1776870890096422100,6.822422119140625,-0.16825638711452484,0.1182187870144844,1.2156184911727905
1776870890106460400,6.83246044921875,-0.18804234266281128,0.0982687771320343,1.212125301361084
1776870890116499500,6.84249951171875,-0.1926450878381729,0.022762037813663483,1.1453185081481934
1776870890126537200,6.852537109375,-0.1630094200372696,-0.12294083833694458,1.0064713954925537
1776870890136575200,6.8625751953125,-0.09767622500658035,-0.3046134412288666,0.7786175012588501
1776870890146614300,6.8726142578125,-0.028316592797636986,-0.4848298132419586,0.4862372875213623
1776870890156652300,6.88265234375,0.04306784272193909,-0.594973623752594,0.1854761242866516
1776870890166690300,6.892690185546875,0.0771070346236229,-0.6437240839004517,-0.06256857514381409
1776870890176729000,6.90272900390625,0.08857966959476471,-0.6325314044952393,-0.2344692349433899
1776870890186767400,6.912767333984375,0.1059139147400856,-0.5818631649017334,-0.3309158682823181
1776870890196805000,6.92280517578125,0.13181395828723907,-0.5131556987762451,-0.38403981924057007
1776870890206844400,6.932844482421875,0.1517234891653061,-0.4595513343811035,-0.4113835394382477
1776870890216882200,6.942882080078125,0.16096092760562897,-0.41974854469299316,-0.39069053530693054
1776870890226920400,6.95292041015625,0.16792988777160645,-0.3783598244190216,-0.31057730317115784
1776870890236959200,6.962959228515625,0.19331300258636475,-0.32246458530426025,-0.1842140406370163
1776870890246997200,6.972997314453125,0.2015586793422699,-0.2324364334344864,-0.052508480846881866
1776870890257035300,6.98303515625,0.17987681925296783,-0.12454698979854584,0.028854550793766975
1776870890267074300,6.99307421875,0.12808473408222198,-0.028082234784960747,0.030474020168185234
1776870890277112300,7.0031123046875,0.06375101953744888,0.03602644428610802,-0.05993710458278656
1776870890287150300,7.013150390625,0.014591459184885025,0.06257283687591553,-0.21391043066978455
1776870890297189000,7.023189208984375,-0.002487658755853772,0.04192587733268738,-0.3970200717449188
1776870890307227400,7.033227294921875,0.012650014832615852,-0.033178459852933884,-0.547236979007721
1776870890317265200,7.04326513671875,0.012645487673580647,-0.12150859087705612,-0.6353194713592529
1776870890327304400,7.053304443359375,-0.03266553580760956,-0.1848529428243637,-0.6801953315734863
1776870890337342200,7.06334228515625,-0.1120799332857132,-0.22358009219169617,-0.7014793157577515
1776870890347380500,7.07338037109375,-0.19011667370796204,-0.24694028496742249,-0.7144172191619873
1776870890357419300,7.083419189453125,-0.24822711944580078,-0.2790217697620392,-0.733055830001831
1776870890367457300,7.093457275390625,-0.2910515367984772,-0.30784037709236145,-0.7632414698600769
1776870890377495300,7.103495361328125,-0.32391735911369324,-0.31435129046440125,-0.7986098527908325
1776870890387534300,7.113534423828125,-0.3588279187679291,-0.2956859767436981,-0.8300034403800964
1776870890397572400,7.123572265625,-0.3960557281970978,-0.2641299068927765,-0.8404347896575928
1776870890407610400,7.1336103515625,-0.4503740966320038,-0.2432941496372223,-0.8208267092704773
1776870890417649200,7.143649169921875,-0.5082171559333801,-0.25964170694351196,-0.7759668231010437
1776870890427687400,7.1536875,-0.5395753383636475,-0.3310069441795349,-0.7144821882247925
1776870890437725200,7.16372509765625,-0.5326148867607117,-0.4477229118347168,-0.6333582997322083
1776870890447764500,7.173764404296875,-0.49325817823410034,-0.5880821347236633,-0.5456271171569824
1776870890457802200,7.18380224609375,-0.4433633089065552,-0.7120301723480225,-0.44687655568122864
1776870890467840300,7.19384033203125,-0.3967907726764679,-0.7789179086685181,-0.3521716296672821
1776870890477879300,7.20387939453125,-0.37518319487571716,-0.7535129189491272,-0.25601527094841003
1776870890487917300,7.213917236328125,-0.3674517869949341,-0.6774927377700806,-0.1590578258037567
1776870890497955300,7.223955322265625,-0.36983343958854675,-0.5793762803077698,-0.06536249816417694
1776870890507994400,7.233994384765625,-0.36822035908699036,-0.4681892991065979,0.0201026052236557
1776870890518032600,7.24403271484375,-0.34290462732315063,-0.31786131858825684,0.053998786956071854
1776870890528070400,7.2540703125,-0.2969485819339752,-0.13667981326580048,0.01992577128112316
1776870890538109400,7.264109375,-0.2591428756713867,0.0627368837594986,-0.06416673213243484
1776870890548147500,7.2741474609375,-0.24177028238773346,0.24199451506137848,-0.1644989252090454
1776870890558185500,7.284185546875,-0.22293081879615784,0.34972044825553894,-0.263415664434433
1776870890568224500,7.294224609375,-0.2024282068014145,0.37000468373298645,-0.37377679347991943
1776870890578262500,7.304262451171875,-0.17030702531337738,0.2930116355419159,-0.4836020767688751
1776870890588300500,7.314300537109375,-0.13133059442043304,0.12838247418403625,-0.5859686732292175
1776870890598339600,7.324339599609375,-0.10734749585390091,-0.10116496682167053,-0.6583941578865051
1776870890608377300,7.33437744140625,-0.10610859096050262,-0.34633851051330566,-0.6842819452285767
1776870890618415600,7.34441552734375,-0.14755482971668243,-0.5569564700126648,-0.6717216372489929
1776870890628454400,7.354454345703125,-0.21800343692302704,-0.7054879069328308,-0.6365556716918945
1776870890638492700,7.36449267578125,-0.28906989097595215,-0.7500295042991638,-0.5959608554840088
1776870890648530400,7.374530517578125,-0.32192638516426086,-0.6925081610679626,-0.5478905439376831
1776870890658569500,7.384569580078125,-0.3198206126689911,-0.5497304797172546,-0.4982052743434906
1776870890668607500,7.394607421875,-0.29464441537857056,-0.37286651134490967,-0.4526721239089966
1776870890678645500,7.4046455078125,-0.27549389004707336,-0.23856064677238464,-0.4051259160041809
1776870890688683500,7.41468359375,-0.27303099632263184,-0.18128269910812378,-0.3271549642086029
1776870890698722600,7.42472265625,-0.2816055715084076,-0.1757981926202774,-0.2357344925403595
1776870890708760600,7.434760498046875,-0.2972330152988434,-0.20647674798965454,-0.14626187086105347
1776870890718799600,7.444799560546875,-0.3142487406730652,-0.27360889315605164,-0.08735328167676926
1776870890728837400,7.45483740234375,-0.3295249044895172,-0.3751262128353119,-0.06451507657766342
1776870890738875600,7.464875732421875,-0.34287744760513306,-0.5098387598991394,-0.0892244204878807
1776870890748914400,7.47491455078125,-0.3497697114944458,-0.6437432765960693,-0.15442365407943726
1776870890758952700,7.48495263671875,-0.3368408679962158,-0.7208428382873535,-0.24183712899684906
1776870890768990500,7.494990478515625,-0.3032118082046509,-0.6925398707389832,-0.32881757616996765
1776870890779029500,7.505029541015625,-0.25341442227363586,-0.553950846195221,-0.40557733178138733
1776870890789067500,7.515067626953125,-0.20714598894119263,-0.3586098253726959,-0.4501594305038452
1776870890799105300,7.525105224609375,-0.17553560435771942,-0.16849899291992188,-0.44050389528274536
1776870890809144600,7.53514453125,-0.15770414471626282,-0.028724588453769684,-0.3949523866176605
1776870890819182600,7.5451826171875,-0.1490776240825653,0.060997575521469116,-0.36566001176834106
1776870890829220600,7.555220703125,-0.14956818521022797,0.11425253748893738,-0.36147618293762207
1776870890839258400,7.56525830078125,-0.15348516404628754,0.1451510637998581,-0.37230750918388367
1776870890849297400,7.57529736328125,-0.15389955043792725,0.15048298239707947,-0.38737913966178894
1776870890859335400,7.58533544921875,-0.14413906633853912,0.1250186413526535,-0.39345860481262207
1776870890869373400,7.59537353515625,-0.13691523671150208,0.07503563165664673,-0.3812064826488495
1776870890879412500,7.60541259765625,-0.1351815164089203,0.028082501143217087,-0.3421786427497864
1776870890889450500,7.615450439453125,-0.14035683870315552,-0.016222113743424416,-0.2897077202796936
1776870890899489300,7.6254892578125,-0.1404966562986374,-0.046776026487350464,-0.23151445388793945
1776870890909527600,7.635527587890625,-0.12659895420074463,-0.056408148258924484,-0.18239644169807434
1776870890919565300,7.6455654296875,-0.10471842437982559,-0.050564639270305634,-0.1537240445613861
1776870890929604600,7.6556044921875,-0.08941216766834259,-0.054314371198415756,-0.15717071294784546
1776870890939642400,7.665642333984375,-0.09805386513471603,-0.07460366189479828,-0.1857357770204544
1776870890949680600,7.6756806640625,-0.11869655549526215,-0.10252264887094498,-0.22195370495319366
1776870890959719400,7.685719482421875,-0.1331939995288849,-0.08909045904874802,-0.24242569506168365
1776870890969757400,7.69575732421875,-0.13121527433395386,-0.029561353847384453,-0.24639034271240234
1776870890979795500,7.70579541015625,-0.10363584756851196,0.06253661215305328,-0.22820307314395905
1776870890989833500,7.71583349609375,-0.06788317859172821,0.13961488008499146,-0.21130850911140442
1776870890999872500,7.72587255859375,-0.04508225619792938,0.16209489107131958,-0.2096424400806427
1776870891009910500,7.73591064453125,-0.045640986412763596,0.14212092757225037,-0.2249356508255005
1776870891019949300,7.74594921875,-0.06346206367015839,0.07367289066314697,-0.24205496907234192
1776870891029987600,7.755987548828125,-0.09654171764850616,-0.00592659879475832,-0.25715988874435425
1776870891040025600,7.766025634765625,-0.12414884567260742,-0.06407485902309418,-0.2666820287704468
1776870891050064600,7.776064697265625,-0.1272687464952469,-0.07360231876373291,-0.26524844765663147
1776870891060102400,7.786102294921875,-0.11415053904056549,-0.047680437564849854,-0.2515787184238434
1776870891070140700,7.796140625,-0.09604344516992569,-0.010661432519555092,-0.23819978535175323
1776870891080179500,7.806179443359375,-0.08730720728635788,0.004631503485143185,-0.21541990339756012
1776870891090217500,7.816217529296875,-0.08854611217975616,-0.008081895299255848,-0.1710396558046341
1776870891100255500,7.82625537109375,-0.08659347891807556,-0.042867839336395264,-0.1008501797914505
1776870891110293500,7.83629345703125,-0.08339022845029831,-0.09533637017011642,-0.023014770820736885
1776870891120332500,7.84633251953125,-0.0791747123003006,-0.15427638590335846,0.03972770646214485
1776870891130370600,7.85637060546875,-0.0760849118232727,-0.20362183451652527,0.0643576830625534
1776870891140409300,7.866409423828125,-0.07935047894716263,-0.2350013256072998,0.04008057340979576
1776870891150447600,7.876447509765625,-0.0799475610256195,-0.21926631033420563,-0.008345281705260277
1776870891160485600,7.886485595703125,-0.06663841754198074,-0.14754365384578705,-0.0345182940363884
1776870891170524700,7.896524658203125,-0.038717035204172134,-0.05902603641152382,-0.018251707777380943
1776870891180562400,7.9065625,-0.006940730381757021,-0.006077599711716175,0.021811556071043015
1776870891190600700,7.9166005859375,0.014689197763800621,-0.016628244891762733,0.06247802451252937
1776870891200638500,7.926638427734375,0.02219291962683201,-0.04481354355812073,0.07400684803724289
1776870891210677500,7.936677490234375,0.020494356751441956,-0.06389882415533066,0.07102198153734207
1776870891220715500,7.946715576171875,0.0178141500800848,-0.067963607609272,0.0649971067905426
1776870891230754600,7.956754638671875,0.015030881389975548,-0.03846004232764244,0.05934774503111839
1776870891240792600,7.96679248046875,0.022360166534781456,0.01954547129571438,0.06427779048681259
1776870891250830300,7.976830322265625,0.042516302317380905,0.09827623516321182,0.06810501962900162
1776870891260869400,7.986869384765625,0.06171955540776253,0.16787874698638916,0.06479577720165253
1776870891270907400,7.996907470703125,0.07861465215682983,0.17956043779850006,0.0550515353679657
1776870891280945700,8.006945556640625,0.08896582573652267,0.12414725124835968,0.0521223247051239
1776870891290984700,8.016984619140626,0.10251066088676453,0.05494873598217964,0.06885070353746414
1776870891301022500,8.0270224609375,0.1060824915766716,0.018876485526561737,0.09522425383329391
1776870891311060500,8.037060546875,0.10054684430360794,0.030733944848179817,0.11918338388204575
1776870891321099500,8.047099609375,0.11519689857959747,0.09124815464019775,0.14262080192565918
1776870891331137500,8.057137451171876,0.14392627775669098,0.16426430642604828,0.17738783359527588
1776870891341175600,8.067175537109375,0.181132510304451,0.20684772729873657,0.2387033849954605
1776870891351214300,8.07721435546875,0.21979334950447083,0.20616941154003143,0.30987370014190674
1776870891361252600,8.087252685546876,0.24539270997047424,0.17949838936328888,0.3602021336555481
1776870891371290400,8.097290283203124,0.25427010655403137,0.14875778555870056,0.3686813712120056
1776870891381329700,8.10732958984375,0.24681538343429565,0.13584332168102264,0.33276116847991943
1776870891391367400,8.117367431640625,0.2394629269838333,0.11711783707141876,0.2790292501449585
1776870891401405700,8.12740576171875,0.24336685240268707,0.09189236909151077,0.2558022141456604
1776870891411444500,8.137444580078125,0.2592161297798157,0.061211958527565,0.27995362877845764
1776870891421482500,8.147482421875,0.2720363140106201,0.04283801093697548,0.32428619265556335
1776870891431520500,8.1575205078125,0.27483290433883667,0.04658348113298416,0.35715654492378235
1776870891441559600,8.1675595703125,0.26937180757522583,0.06562241911888123,0.37549880146980286
1776870891451597600,8.17759765625,0.2776326835155487,0.11501633375883102,0.38694077730178833
1776870891461635600,8.187635498046875,0.30118754506111145,0.16098888218402863,0.4213203489780426
1776870891471674400,8.19767431640625,0.3327223062515259,0.18071411550045013,0.4738543927669525
1776870891481712600,8.207712646484374,0.3570023477077484,0.15778003633022308,0.5306705236434937
1776870891491750400,8.21775048828125,0.36116060614585876,0.11134196817874908,0.5577359795570374
1776870891501789700,8.227789794921875,0.35175883769989014,0.06927547603845596,0.5537401437759399
1776870891511828200,8.237828125,0.3493790328502655,0.053890395909547806,0.5487754940986633
1776870891521866200,8.2478662109375,0.3634466528892517,0.06076161935925484,0.5646607279777527
1776870891531905300,8.2579052734375,0.3802264332771301,0.10548993945121765,0.6008474826812744
1776870891541943300,8.267943359375,0.389761358499527,0.17182129621505737,0.6430122256278992
1776870891551981300,8.277981201171874,0.39274513721466064,0.23530253767967224,0.6793292164802551
1776870891562020400,8.288020263671875,0.39280641078948975,0.2778840661048889,0.6962384581565857
1776870891572058000,8.29805810546875,0.3987942636013031,0.28866642713546753,0.688974142074585
1776870891582096400,8.308096435546876,0.3999391496181488,0.2729734778404236,0.6695621013641357
1776870891592135200,8.31813525390625,0.40579918026924133,0.24907080829143524,0.6376241445541382
1776870891602173400,8.32817333984375,0.41184002161026,0.22188952565193176,0.6214725971221924
1776870891612211200,8.338211181640625,0.4173479676246643,0.1886380910873413,0.6136823296546936
1776870891622250200,8.348250244140624,0.418378621339798,0.16432689130306244,0.6267163753509521
1776870891632288300,8.358288330078125,0.41679614782333374,0.1638461947441101,0.6577440500259399
1776870891642326300,8.368326171875,0.4169175922870636,0.19069431722164154,0.6983708739280701
1776870891652365300,8.378365234375,0.4190047085285187,0.22896873950958252,0.7232714295387268
1776870891662403300,8.3884033203125,0.4152747094631195,0.25636759400367737,0.7179128527641296
1776870891672441300,8.39844140625,0.40756165981292725,0.2733958661556244,0.6905012130737305
1776870891682480400,8.40848046875,0.3973316550254822,0.27921274304389954,0.6442335844039917
1776870891692518100,8.41851806640625,0.398174524307251,0.2802862524986267,0.6105709671974182
1776870891702556400,8.428556396484375,0.40646469593048096,0.27423688769340515,0.5878406167030334
1776870891712595200,8.43859521484375,0.41516417264938354,0.28504371643066406,0.5850469470024109
1776870891722633500,8.448633544921876,0.41240647435188293,0.31515955924987793,0.5837553143501282
1776870891732671200,8.458671142578124,0.40812650322914124,0.34846317768096924,0.580039918422699
1776870891742710300,8.468710205078125,0.39437898993492126,0.3837793469429016,0.577798068523407
1776870891752748300,8.478748291015625,0.37128114700317383,0.42432597279548645,0.5739514231681824
1776870891762786000,8.4887861328125,0.34844985604286194,0.45415765047073364,0.5648154616355896
1776870891772825300,8.498825439453125,0.32769665122032166,0.4733843505382538,0.5517651438713074
1776870891782863400,8.50886328125,0.30792373418807983,0.48216718435287476,0.542155921459198
1776870891792901400,8.5189013671875,0.29037830233573914,0.485363245010376,0.5276177525520325
1776870891802940400,8.5289404296875,0.2726011574268341,0.4876684546470642,0.5082059502601624
1776870891812978200,8.538978271484375,0.25431376695632935,0.48772040009498596,0.4885004460811615
1776870891823016200,8.54901611328125,0.23282365500926971,0.4889949858188629,0.46381106972694397
1776870891833055200,8.55905517578125,0.20692920684814453,0.49468135833740234,0.4349791705608368
1776870891843093200,8.56909326171875,0.184722438454628,0.5060690641403198,0.40905940532684326
1776870891853131300,8.57913134765625,0.16250689327716827,0.5152694582939148,0.3836810886859894
1776870891863170300,8.58917041015625,0.13976775109767914,0.5288279056549072,0.36349165439605713
1776870891873208300,8.599208251953126,0.1158783957362175,0.5383100509643555,0.3573165833950043
1776870891883246000,8.60924609375,0.09068143367767334,0.5335786938667297,0.36307433247566223
1776870891893285400,8.619285400390625,0.07078948616981506,0.5285040736198425,0.3783329129219055
1776870891903323100,8.6293232421875,0.05457456037402153,0.5238935947418213,0.39185699820518494
1776870891913361400,8.639361328125,0.03997111693024635,0.5117809772491455,0.40473470091819763
1776870891923400200,8.649400146484375,0.01278903242200613,0.5029706954956055,0.39944887161254883
1776870891933438200,8.659438232421875,-0.02418096922338009,0.49414366483688354,0.36913275718688965
1776870891943476200,8.669476318359376,-0.0544523224234581,0.4728282690048218,0.3298356831073761
1776870891953515300,8.679515380859375,-0.06356512755155563,0.44634366035461426,0.26967862248420715
1776870891963553300,8.68955322265625,-0.05528482794761658,0.42474544048309326,0.19813838601112366
1776870891973591300,8.69959130859375,-0.03664536401629448,0.40434908866882324,0.11603659391403198
1776870891983630000,8.709630126953124,-0.026008430868387222,0.38039448857307434,0.029134448617696762
1776870891993668400,8.71966845703125,-0.011893144808709621,0.3531244993209839,-0.051528170704841614
1776870892003706000,8.7297060546875,0.007510646712034941,0.32256045937538147,-0.10145791620016098
1776870892013745400,8.739745361328126,0.030712638050317764,0.2993323802947998,-0.12416376173496246
1776870892023783200,8.749783203125,0.03790104389190674,0.3046768009662628,-0.12336507439613342
1776870892033821400,8.759821533203125,0.03735136613249779,0.33808696269989014,-0.12338105589151382
1776870892043860200,8.769860107421875,0.04243320971727371,0.39441362023353577,-0.12281913310289383
1776870892053898200,8.779898193359376,0.06400907784700394,0.44291192293167114,-0.11107166111469269
1776870892063936300,8.789936279296874,0.09426471590995789,0.46692776679992676,-0.09611960500478745
1776870892073975300,8.799975341796875,0.10136976093053818,0.47337794303894043,-0.0768154188990593
1776870892084013300,8.810013427734376,0.08397532999515533,0.465899258852005,-0.07245715707540512
1776870892094051300,8.82005126953125,0.04621729627251625,0.4421848654747009,-0.08552528917789459
1776870892104090000,8.830090087890625,0.01426522247493267,0.401049941778183,-0.09886452555656433
1776870892114128400,8.84012841796875,0.006690925918519497,0.34086012840270996,-0.10640180855989456
1776870892124166100,8.850166259765626,0.023911723867058754,0.27016252279281616,-0.10570193082094193
1776870892134205400,8.860205322265625,0.03638836741447449,0.1871509850025177,-0.10008399188518524
1776870892144243200,8.8702431640625,0.035240013152360916,0.12317413091659546,-0.09794334322214127
1776870892154281500,8.880281494140625,0.028661472722887993,0.07161852717399597,-0.09773880988359451
1776870892164320300,8.8903203125,0.022913571447134018,0.042268093675374985,-0.09538803994655609
1776870892174358300,8.900358154296875,0.020253606140613556,0.021037373691797256,-0.09406391531229019
1776870892184396300,8.910396240234375,0.020538032054901123,-0.004485561978071928,-0.0875258520245552
1776870892194435300,8.920435302734376,0.01961418054997921,-0.04501328244805336,-0.07501459121704102
1776870892204473300,8.930473388671874,0.013687049970030785,-0.09304738789796829,-0.0643979012966156
1776870892214511000,8.940510986328125,0.005327120888978243,-0.13461293280124664,-0.05664064362645149
1776870892224550100,8.950550048828125,0.0010692591313272715,-0.15856806933879852,-0.04891481250524521
1776870892234588400,8.96058837890625,-0.0036693033762276173,-0.1505034863948822,-0.03381974995136261
1776870892244626200,8.970626220703124,-0.009277920238673687,-0.11222134530544281,-0.01104679238051176
1776870892254665500,8.98066552734375,-0.0121839614585042,-0.04892519861459732,0.015398130752146244
1776870892264703200,8.990703125,-0.012137356214225292,0.018012290820479393,0.03153608739376068
1776870892274741200,9.0007412109375,0.001181644620373845,0.05330396816134453,0.04247928410768509
1776870892284780300,9.0107802734375,0.014828747138381004,0.04278767853975296,0.049862366169691086
1776870892294818000,9.020818115234375,0.026514165103435516,0.0013440974289551377,0.046431414783000946
1776870892304856300,9.030856201171876,0.033312417566776276,-0.040277913212776184,0.033845581114292145
1776870892314895000,9.04089501953125,0.04396559298038483,-0.07527744024991989,0.01944160833954811
1776870892324933400,9.050933349609375,0.05553356558084488,-0.09621628373861313,0.008857940323650837
1776870892334971100,9.06097119140625,0.06346872448921204,-0.10425503551959991,0.006188920233398676
1776870892345010200,9.07101025390625,0.054553523659706116,-0.10331307351589203,0.0049404301680624485
1776870892355048200,9.081048095703125,0.03946804627776146,-0.10293756425380707,0.006322610657662153
1776870892365086200,9.091086181640625,0.03148495405912399,-0.10750941187143326,0.002257561543956399
1776870892375125200,9.101125244140626,0.0213010273873806,-0.10595040023326874,-0.01786102168262005
1776870892385163300,9.111163330078124,0.020735105499625206,-0.10842394828796387,-0.03927816450595856
1776870892395201300,9.121201171875,0.030524352565407753,-0.10838772356510162,-0.06285326182842255
1776870892405240300,9.131240234375,0.04909910261631012,-0.09935694932937622,-0.07117244601249695
1776870892415278000,9.141278076171876,0.05867316573858261,-0.0796910971403122,-0.06586316972970963
1776870892425316400,9.15131640625,0.05144082009792328,-0.04289153963327408,-0.04839283227920532
1776870892435355100,9.161355224609375,0.04165796563029289,-0.0067780110985040665,-0.019869312644004822
1776870892445393400,9.171393310546875,0.03326394781470299,0.01128088403493166,0.008467520587146282
1776870892455431200,9.18143115234375,0.022523151710629463,0.016640229150652885,0.03352626785635948
1776870892465470200,9.19147021484375,0.012713132426142693,0.017104418948292732,0.04459303244948387
1776870892475508200,9.20150830078125,0.00780572509393096,0.0013137373607605696,0.05192418396472931
1776870892485546200,9.211546142578126,0.0030000510159879923,-0.029050294309854507,0.06548446416854858
1776870892495585300,9.221585205078124,0.0008154599345289171,-0.04952733963727951,0.07454667240381241
1776870892505623300,9.231623291015625,-0.0015504923649132252,-0.05765637010335922,0.07701808214187622
1776870892515661000,9.2416611328125,-0.005638711154460907,-0.05030844360589981,0.07438022643327713
1776870892525700000,9.2517001953125,-0.007789745926856995,-0.037211284041404724,0.06889890879392624
1776870892535738000,9.261738037109374,-0.010536530055105686,-0.03484533354640007,0.06940730661153793
1776870892545776000,9.271776123046875,-0.012026036158204079,-0.033184584230184555,0.06623441725969315
1776870892555815000,9.28181494140625,-0.012009791098535061,-0.0324423611164093,0.051056258380413055
1776870892565853200,9.291853271484374,-0.004280765075236559,-0.03207990527153015,0.023124227300286293
1776870892575891000,9.301890869140625,0.005910885985940695,-0.035950545221567154,-0.0204544086009264
1776870892585930000,9.311929931640625,0.01996944658458233,-0.04284892976284027,-0.06119544804096222
1776870892595968000,9.321968017578126,0.031509190797805786,-0.02924337238073349,-0.07639198005199432
1776870892606006300,9.33200634765625,0.03645947575569153,-0.0012322446564212441,-0.07102198153734207
1776870892616045000,9.342045166015625,0.04320872202515602,0.04296024888753891,-0.04556109383702278
1776870892626083000,9.3520830078125,0.045646313577890396,0.08499957621097565,-0.018255436792969704
1776870892636121000,9.36212109375,0.03827894479036331,0.11233533173799515,0.0020732709672302008
1776870892646160100,9.37216015625,0.02611549012362957,0.1175423413515091,0.002766491612419486
1776870892656198100,9.3821982421875,0.020616328343749046,0.09131473302841187,-0.0022602248936891556
1776870892666236200,9.392236083984375,0.018385399132966995,0.0410425066947937,-0.01612277701497078
1776870892676275000,9.40227490234375,0.013641510158777237,-0.012587164528667927,-0.022970829159021378
1776870892686313200,9.412313232421875,0.007812649011611938,-0.040463801473379135,-0.03552550449967384
1776870892696351000,9.42235107421875,-0.0036163064651191235,-0.035098597407341,-0.03975779935717583
1776870892706390000,9.43239013671875,-0.01257864199578762,-0.002799514913931489,-0.03051156923174858
1776870892716428000,9.442427978515624,-0.021674402058124542,0.029820213094353676,-0.014416489750146866
1776870892726466000,9.452466064453125,-0.024880848824977875,0.046780288219451904,0.0006852313526906073
1776870892736504000,9.462504150390625,-0.033123333007097244,0.04350433498620987,-0.0038221688009798527
1776870892746543000,9.472543212890624,-0.03451989218592644,0.017014669254422188,-0.011126686818897724
1776870892756581000,9.4825810546875,-0.03810930252075195,-0.016744624823331833,-0.030366428196430206
1776870892766620200,9.4926201171875,-0.03502323105931282,-0.050459444522857666,-0.039619848132133484
1776870892776658200,9.502658203125,-0.03638197481632233,-0.06545863300561905,-0.03629302605986595
1776870892786696000,9.512696044921874,-0.039384424686431885,-0.0629454106092453,-0.019832560792565346
1776870892796734200,9.522734130859375,-0.04664446786046028,-0.04603540152311325,-0.0037055222783237696
1776870892806773000,9.53277294921875,-0.050571564584970474,-0.013710485771298409,0.0054693338461220264
1776870892816811000,9.54281103515625,-0.052086636424064636,0.009363940916955471,0.0005850964807905257
1776870892826850000,9.55285009765625,-0.051240552216768265,0.02100248634815216,-0.009310411289334297
1776870892836888000,9.56288818359375,-0.04667802155017853,0.011594871059060097,-0.018193650990724564
1776870892846926000,9.572926025390625,-0.044618599116802216,-0.0036373452749103308,-0.025855565443634987
1776870892856965000,9.582965087890624,-0.050521496683359146,-0.018745724111795425,-0.0338788703083992
1776870892867003000,9.5930029296875,-0.0631326287984848,-0.047028496861457825,-0.04086887091398239
1776870892877041200,9.603041259765625,-0.08468559384346008,-0.08242376893758774,-0.05940873175859451
1776870892887079000,9.613078857421876,-0.10326647013425827,-0.10834591090679169,-0.08709948509931564
1776870892897118200,9.6231181640625,-0.11845926940441132,-0.1374199092388153,-0.1170555129647255
1776870892907156000,9.633156005859375,-0.13498471677303314,-0.1614895612001419,-0.13022245466709137
1776870892917194200,9.6431943359375,-0.14229989051818848,-0.19512608647346497,-0.12807035446166992
1776870892927233000,9.65323291015625,-0.14370577037334442,-0.23017647862434387,-0.10378258675336838
1776870892937271000,9.66327099609375,-0.14125379920005798,-0.2540746331214905,-0.07007815688848495
1776870892947309000,9.67330908203125,-0.1450543999671936,-0.26902854442596436,-0.04300445690751076
1776870892957348000,9.68334814453125,-0.16042935848236084,-0.2670929431915283,-0.040158871561288834
1776870892967386000,9.69338623046875,-0.1770418882369995,-0.2669142484664917,-0.059293150901794434
1776870892977424100,9.703424072265625,-0.1941058188676834,-0.2765149474143982,-0.099290631711483
1776870892987463000,9.713462890625,-0.19908088445663452,-0.2902398109436035,-0.14856310188770294
1776870892997501200,9.723501220703126,-0.20662428438663483,-0.3029255270957947,-0.19793865084648132
1776870893007539000,9.7335390625,-0.20584796369075775,-0.3038661479949951,-0.23845438659191132
1776870893017578200,9.743578125,-0.2049664705991745,-0.2981502115726471,-0.2721976935863495
1776870893027616000,9.753615966796875,-0.20564930140972137,-0.2883484363555908,-0.28593987226486206
1776870893037654300,9.763654296875,-0.21172796189785004,-0.27800658345222473,-0.2901950776576996
1776870893047693000,9.773693115234375,-0.23012322187423706,-0.27509602904319763,-0.2917588949203491
1776870893057731000,9.78373095703125,-0.25378432869911194,-0.29308459162712097,-0.295731782913208
1776870893067769000,9.79376904296875,-0.2848290801048279,-0.32330694794654846,-0.30977970361709595
1776870893077808000,9.80380810546875,-0.3082539737224579,-0.3434194028377533,-0.3343327045440674
1776870893087846100,9.81384619140625,-0.30568456649780273,-0.35588592290878296,-0.36157312989234924
1776870893097884200,9.82388427734375,-0.2873702645301819,-0.34235522150993347,-0.38094520568847656
1776870893107923000,9.8339228515625,-0.26670441031455994,-0.32748517394065857,-0.3960637152194977
1776870893117961200,9.843961181640625,-0.26503831148147583,-0.3269432485103607,-0.4034867584705353
1776870893127999000,9.8539990234375,-0.28714150190353394,-0.3529607355594635,-0.41527149081230164
1776870893138038300,9.864038330078126,-0.3319670259952545,-0.3967159390449524,-0.4350939393043518
1776870893148076000,9.874075927734374,-0.3685934841632843,-0.4518904983997345,-0.46546676754951477
1776870893158114000,9.884114013671875,-0.3852728605270386,-0.5004287362098694,-0.5067188739776611
1776870893168153000,9.894153076171875,-0.381399005651474,-0.5400163531303406,-0.5425218343734741
1776870893178190800,9.90419091796875,-0.36736735701560974,-0.5600638389587402,-0.5555388331413269
1776870893188229000,9.91422900390625,-0.3486485183238983,-0.5543662905693054,-0.5583477020263672
1776870893198268200,9.92426806640625,-0.3335558772087097,-0.5192740559577942,-0.5380014181137085
1776870893208306200,9.93430615234375,-0.3248840868473053,-0.4654931128025055,-0.496086448431015
1776870893218344000,9.944343994140626,-0.328348845243454,-0.41732320189476013,-0.42786213755607605
1776870893228383000,9.954383056640625,-0.34710708260536194,-0.3984778821468353,-0.35736238956451416
1776870893238421000,9.9644208984375,-0.3678147792816162,-0.41588348150253296,-0.3001425266265869
1776870893248459000,9.974458984375,-0.37701520323753357,-0.4773777425289154,-0.2700325548648834
1776870893258498000,9.984498046875,-0.3749448359012604,-0.5620010495185852,-0.26475176215171814
1776870893268536000,9.9945361328125,-0.36555320024490356,-0.6545360088348389,-0.2761240005493164
1776870893278574000,10.004573974609375,-0.3544377088546753,-0.7187640070915222,-0.2951352298259735
1776870893288613000,10.014613037109376,-0.33427438139915466,-0.7412427067756653,-0.31660404801368713
1776870893298651000,10.02465087890625,-0.3081469237804413,-0.710564374923706,-0.3356376588344574
1776870893308689200,10.034689208984375,-0.2874877154827118,-0.6343809366226196,-0.3606215715408325
1776870893318728000,10.04472802734375,-0.2672356963157654,-0.5462905168533325,-0.3892393708229065
1776870893328766200,10.05476611328125,-0.2472633272409439,-0.4690718948841095,-0.4306778907775879
1776870893338804000,10.064803955078125,-0.22790320217609406,-0.4077073335647583,-0.4840819835662842
1776870893348843000,10.074843017578125,-0.20441998541355133,-0.3613901436328888,-0.5388908982276917
1776870893358881000,10.084881103515626,-0.18063609302043915,-0.31587672233581543,-0.5918611884117126
1776870893368919000,10.0949189453125,-0.1592722088098526,-0.27378255128860474,-0.6160359978675842
1776870893378958000,10.1049580078125,-0.15610091388225555,-0.21347792446613312,-0.6150623559951782
1776870893388996000,10.11499609375,-0.18024887144565582,-0.1708545684814453,-0.598490834236145
1776870893399034000,10.1250341796875,-0.20711377263069153,-0.18568997085094452,-0.5601650476455688
1776870893409073200,10.1350732421875,-0.2419433891773224,-0.23662719130516052,-0.5093085169792175
1776870893419111000,10.14511083984375,-0.2675158679485321,-0.3244909942150116,-0.4675256609916687
1776870893429149200,10.155149169921875,-0.27601906657218933,-0.4014022946357727,-0.4315231740474701
1776870893439188000,10.16518798828125,-0.2778931260108948,-0.4498167037963867,-0.39849919080734253
1776870893449226200,10.175226318359375,-0.2862352132797241,-0.4709978699684143,-0.3745805323123932
1776870893459264000,10.185263916015625,-0.30970513820648193,-0.48029711842536926,-0.369585782289505
1776870893469303000,10.195302978515626,-0.3266731798648834,-0.4785577952861786,-0.3728273808956146
1776870893479341000,10.205341064453124,-0.32031434774398804,-0.45133522152900696,-0.39028438925743103
1776870893489379000,10.215379150390625,-0.2957592308521271,-0.3927518129348755,-0.4201256334781647
1776870893499418000,10.225418212890625,-0.2593388855457306,-0.3248433470726013,-0.44993627071380615
1776870893509455400,10.235455322265626,-0.21822820603847504,-0.2687140107154846,-0.4716458320617676
1776870893519493400,10.245493408203124,-0.1889568716287613,-0.22970269620418549,-0.48297303915023804
1776870893529531400,10.255531494140625,-0.1846177875995636,-0.21182729303836823,-0.4937838912010193
1776870893539570400,10.2655703125,-0.19327865540981293,-0.20865626633167267,-0.5050978064537048
1776870893549608400,10.2756083984375,-0.20581814646720886,-0.2085268497467041,-0.5033672451972961
1776870893559647200,10.285647216796875,-0.20639631152153015,-0.19899939000606537,-0.46947163343429565
1776870893569685500,10.295685546875,-0.19069431722164154,-0.22617188096046448,-0.4247411787509918
1776870893579723300,10.30572314453125,-0.1756378710269928,-0.3049021065235138,-0.39706534147262573
1776870893589761500,10.315761474609374,-0.17358644306659698,-0.40912172198295593,-0.39349883794784546
1776870893599800300,10.32580029296875,-0.1889861673116684,-0.6113062500953674,-0.46092313528060913
1776870893609838600,10.335838623046875,-0.23056823015213013,-0.9569512605667114,-0.6249874234199524
1776870893619876400,10.34587646484375,-0.29017749428749084,-1.2963634729385376,-0.7884773015975952
1776870893629915400,10.355915283203124,-0.3491089940071106,-1.4677362442016602,-0.8471797704696655
1776870893639953400,10.365953369140625,-0.3815697431564331,-1.4769837856292725,-0.7984782457351685
1776870893649991200,10.3759912109375,-0.4435763657093048,-1.4477252960205078,-0.7219464778900146
1776870893660030500,10.386030517578124,-0.4485040307044983,-1.4647703170776367,-0.6784653067588806
1776870893670068500,10.396068359375,-0.3947950005531311,-1.4686132669448853,-0.6538494229316711
1776870893680106500,10.4061064453125,-0.3281930685043335,-1.5141921043395996,-0.6352148056030273
1776870893690145500,10.4161455078125,-0.2846341133117676,-1.3271328210830688,-0.6201974749565125
1776870893700183300,10.426183349609374,-0.22316837310791016,-1.084157943725586,-0.6192100048065186
1776870893710221300,10.43622119140625,-0.17112460732460022,-0.8572603464126587,-0.6194882988929749
1776870893720260400,10.44626025390625,-0.1597108393907547,-0.7274088859558105,-0.6146868467330933
1776870893730298400,10.45629833984375,-0.16748008131980896,-0.6707621216773987,-0.5778521299362183
1776870893740336400,10.46633642578125,-0.1962568610906601,-0.6471180319786072,-0.5240552425384521
1776870893750375400,10.47637548828125,-0.2442488819360733,-0.6607584953308105,-0.4702777564525604
1776870893760413400,10.486413330078125,-0.2554762363433838,-0.67962646484375,-0.4375224709510803
1776870893770451200,10.496451171875,-0.2431761622428894,-0.6440447568893433,-0.4201994240283966
1776870893780490500,10.506490478515625,-0.22458571195602417,-0.6273949146270752,-0.4195197820663452
1776870893790528300,10.5165283203125,-0.19939832389354706,-0.6028152704238892,-0.4124296307563782
1776870893800566500,10.52656640625,-0.15602022409439087,-0.6219940781593323,-0.3974807858467102
1776870893810605300,10.536605224609374,-0.12541250884532928,-0.5586190819740295,-0.30975839495658875
1776870893820643300,10.546643310546875,-0.08646245300769806,-0.5500655174255371,-0.2077830284833908
1776870893830681300,10.556681396484375,-0.06019596382975578,-0.5176212787628174,-0.13346537947654724
1776870893840720400,10.566720458984374,-0.03858787193894386,-0.4242021441459656,-0.11661689728498459
1776870893850758400,10.57675830078125,-0.029293706640601158,-0.366115927696228,-0.12333604693412781
1776870893860796400,10.58679638671875,-0.0287589430809021,-0.34323564171791077,-0.12119194120168686
1776870893870835200,10.596835205078126,-0.03361628204584122,-0.34481996297836304,-0.10682018846273422
1776870893880873500,10.60687353515625,-0.038952991366386414,-0.28024178743362427,-0.053535930812358856
1776870893890911200,10.6169111328125,-0.04308595135807991,-0.24093911051750183,-0.014253238216042519
1776870893900950500,10.626950439453125,-0.04096128046512604,-0.13961301743984222,0.0008942894637584686
1776870893910988300,10.63698828125,-0.022530343383550644,-0.007601726800203323,0.005888515617698431
1776870893921026600,10.647026611328124,-0.006109557580202818,0.15436694025993347,0.012687832117080688
1776870893931065300,10.6570654296875,-0.000467118457891047,0.3301558196544647,0.03320908546447754
1776870893941103400,10.667103271484375,-0.006503705866634846,0.4880322515964508,0.05898742005228996
1776870893951141400,10.677141357421876,-0.005644303746521473,0.6296684741973877,0.07837603241205215
1776870893961179400,10.687179443359375,0.002900448627769947,0.7477189302444458,0.08406028151512146
1776870893971218400,10.697218505859375,0.013526993803679943,0.8430667519569397,0.09045293182134628
1776870893981256400,10.70725634765625,0.03015364147722721,0.9213163256645203,0.11409967392683029
1776870893991294500,10.71729443359375,0.05235162004828453,0.9848420023918152,0.16061151027679443
1776870894001333500,10.72733349609375,0.07868336141109467,1.049415946006775,0.22055208683013916
1776870894011371300,10.737371337890625,0.12677551805973053,1.1025617122650146,0.2996287941932678
1776870894021409500,10.747409423828126,0.18833182752132416,1.1311806440353394,0.3777238428592682
1776870894031448300,10.7574482421875,0.25175634026527405,1.1613123416900635,0.44762545824050903
1776870894041486600,10.767486572265625,0.30249834060668945,1.1807729005813599,0.4944337010383606
1776870894051524400,10.7775244140625,0.330923855304718,1.1539509296417236,0.5340215563774109
1776870894061563400,10.7875634765625,0.3118857145309448,1.1537684202194214,0.5424094796180725
1776870894071601400,10.797601318359375,0.30564194917678833,1.0989017486572266,0.5622990131378174
1776870894081639200,10.80763916015625,0.28724217414855957,1.0492955446243286,0.5563604235649109
1776870894091678500,10.817678466796876,0.2972572445869446,0.9523189663887024,0.5670239925384521
1776870894101716200,10.82771630859375,0.3123645484447479,0.9168493747711182,0.5756486654281616
1776870894111754500,10.83775439453125,0.334546834230423,0.8284273743629456,0.5997928977012634
1776870894121793500,10.84779345703125,0.3252233564853668,0.784915566444397,0.6169961094856262
1776870894131831300,10.857831298828126,0.3234052360057831,0.6940863728523254,0.6405640244483948
1776870894141869300,10.867869384765624,0.2889692187309265,0.5984809994697571,0.6285491585731506
1776870894151908400,10.877908447265625,0.26334989070892334,0.48793503642082214,0.6180145144462585
1776870894161946400,10.8879462890625,0.27437350153923035,0.3410356044769287,0.6119190454483032
1776870894171984400,10.897984375,0.26871615648269653,0.20212380588054657,0.5920057892799377
1776870894182023200,10.908023193359375,0.26287370920181274,0.09366071224212646,0.557015061378479
1776870894192061400,10.9180615234375,0.2664434015750885,0.019540145993232727,0.5370975136756897
1776870894202099200,10.92809912109375,0.2802865207195282,0.0026463831309229136,0.5234320759773254
1776870894212138500,10.938138427734375,0.29291656613349915,0.06559951603412628,0.5135927200317383
1776870894222176300,10.94817626953125,0.30146902799606323,0.1716388612985611,0.49560123682022095
1776870894232214500,10.958214599609375,0.31844082474708557,0.25853994488716125,0.4754951596260071
1776870894242252300,10.968252197265626,0.33523446321487427,0.3157270550727844,0.46470215916633606
1776870894252291300,10.978291259765625,0.34606125950813293,0.32818347215652466,0.47454360127449036
1776870894262329300,10.988329345703125,0.35362836718559265,0.31375473737716675,0.4942033290863037
1776870894272367400,10.998367431640625,0.3540491461753845,0.3087812662124634,0.5155413746833801
1776870894282406400,11.008406494140624,0.3436947762966156,0.3207505941390991,0.5464223027229309
1776870894292444400,11.0184443359375,0.3295336961746216,0.34503889083862305,0.5821694135665894
1776870894302482400,11.028482421875,0.32654881477355957,0.37381646037101746,0.6145946979522705
1776870894312521500,11.038521484375,0.3271717429161072,0.39246100187301636,0.6318783760070801
1776870894322559200,11.048559326171874,0.33666908740997314,0.392155259847641,0.6275951862335205
1776870894332597500,11.058597412109375,0.34649109840393066,0.3788042962551117,0.6063637137413025
1776870894342636300,11.06863623046875,0.3468000292778015,0.3622026741504669,0.5630351305007935
1776870894352674600,11.078674560546874,0.3476352095603943,0.34339332580566406,0.5178111791610718
1776870894362712300,11.08871240234375,0.3516310155391693,0.32595279812812805,0.4913257956504822
1776870894372751400,11.09875146484375,0.3659457564353943,0.31399255990982056,0.4938419461250305
1776870894382789400,11.108789306640626,0.386326402425766,0.3139038681983948,0.50785893201828
1776870894392827400,11.118827392578124,0.3993377983570099,0.34466469287872314,0.5466516017913818
1776870894402866400,11.128866455078125,0.4130280613899231,0.3992086350917816,0.591015636920929
1776870894412904400,11.138904541015625,0.4134823977947235,0.4704439342021942,0.6140573024749756
1776870894422942500,11.1489423828125,0.40332669019699097,0.5239444375038147,0.6134397387504578
1776870894432981500,11.1589814453125,0.3905658721923828,0.5497483611106873,0.6033724546432495
1776870894443019300,11.169019287109375,0.3877871334552765,0.5425103902816772,0.5958082675933838
1776870894453057300,11.179057373046875,0.39718571305274963,0.5115000605583191,0.5936164855957031
1776870894463096300,11.189096435546874,0.40958911180496216,0.4790312945842743,0.593187153339386
1776870894473134300,11.19913427734375,0.4231848120689392,0.45070698857307434,0.5950023531913757
1776870894483172400,11.20917236328125,0.4197722375392914,0.43839094042778015,0.5879937410354614
1776870894493210400,11.21921044921875,0.4119795560836792,0.4336680769920349,0.5713934302330017
1776870894503249400,11.22924951171875,0.40083611011505127,0.41737034916877747,0.5599067211151123
1776870894513288200,11.2392880859375,0.38810405135154724,0.37824076414108276,0.5570123791694641
1776870894523326200,11.249326171875,0.3814839720726013,0.3382720649242401,0.5618353486061096
1776870894533365200,11.259365234375,0.38324299454689026,0.30400702357292175,0.556192934513092
1776870894543403300,11.2694033203125,0.38165920972824097,0.2898395359516144,0.5507923364639282
1776870894553441000,11.27944091796875,0.3785102963447571,0.28984886407852173,0.5509795546531677
1776870894563480000,11.28947998046875,0.3731307089328766,0.30922654271125793,0.5490668416023254
1776870894573518000,11.29951806640625,0.36484667658805847,0.3351207375526428,0.5396328568458557
1776870894583556000,11.30955615234375,0.3529258370399475,0.3596087694168091,0.5379998087882996
1776870894593595100,11.31959521484375,0.3528118431568146,0.3699871003627777,0.5348806977272034
1776870894603633200,11.329633056640626,0.3490447998046875,0.37377917766571045,0.533707320690155
1776870894613671200,11.339671142578124,0.3505566716194153,0.36130306124687195,0.5419260859489441
1776870894623710200,11.349710205078125,0.35088080167770386,0.3520936071872711,0.5490143895149231
1776870894633748000,11.359748046875,0.334623783826828,0.34719550609588623,0.548581600189209
1776870894643786200,11.3697861328125,0.31198638677597046,0.3445533812046051,0.5307344198226929
1776870894653825000,11.379824951171875,0.28808051347732544,0.35049968957901,0.5038274526596069
1776870894663863300,11.38986328125,0.2788955569267273,0.36224237084388733,0.4683381915092468
1776870894673901000,11.399901123046876,0.2754392921924591,0.38196948170661926,0.43679091334342957
1776870894683940000,11.409940185546875,0.2890227437019348,0.41349196434020996,0.4101414382457733
1776870894693978000,11.41997802734375,0.2988191843032837,0.4650648832321167,0.386628657579422
1776870894704016100,11.43001611328125,0.29347848892211914,0.5293692946434021,0.3499087393283844
1776870894714054100,11.44005419921875,0.2747061252593994,0.6015492081642151,0.3092454671859741
1776870894724093200,11.45009326171875,0.23611639440059662,0.6546609401702881,0.2620832920074463
1776870894734131200,11.460131103515625,0.20163512229919434,0.6674425005912781,0.22012171149253845
1776870894744169200,11.470169189453125,0.16015291213989258,0.629874050617218,0.18681728839874268
1776870894754208000,11.4802080078125,0.10927056521177292,0.5762678384780884,0.1485295593738556
1776870894764246300,11.490246337890625,0.059420451521873474,0.504494845867157,0.10755202919244766
1776870894774284000,11.500283935546875,0.01937343180179596,0.42801472544670105,0.07539941370487213
1776870894784323300,11.5103232421875,0.00044821001938544214,0.3488091230392456,0.05655995011329651
1776870894794361000,11.520361083984374,-0.00911360327154398,0.2725929021835327,0.05325230211019516
1776870894804399400,11.5303994140625,-0.007668039761483669,0.20716144144535065,0.06339015811681747
1776870894814438100,11.540438232421875,-0.00777536490932107,0.15580637753009796,0.08467467129230499
1776870894824476200,11.55047607421875,-0.014957111328840256,0.11930588632822037,0.11516866832971573
1776870894834514200,11.56051416015625,-0.0302047748118639,0.09321116656064987,0.15324734151363373
1776870894844553200,11.57055322265625,-0.05172977223992348,0.07283133268356323,0.19855757057666779
1776870894854591200,11.58059130859375,-0.06723469495773315,0.04206489399075508,0.2547672986984253
1776870894864629000,11.59062890625,-0.06781766563653946,0.011060906574130058,0.32190585136413574
1776870894874668000,11.60066796875,-0.0567500963807106,0.015125690028071404,0.3894292414188385
1776870894884706300,11.610706298828125,-0.04086514189839363,0.04843118041753769,0.44346025586128235
1776870894894744000,11.620744140625,-0.019270634278655052,0.09575315564870834,0.4594956934452057
1776870894904782000,11.630781982421874,0.002020007697865367,0.15625591576099396,0.41737112402915955
1776870894914821000,11.640821044921875,0.0485994927585125,0.21493680775165558,0.3238302767276764
1776870894924859100,11.650859130859375,0.11257687956094742,0.2558259069919586,0.2141498476266861
1776870894934897200,11.660897216796876,0.16072337329387665,0.2810143530368805,0.10885164886713028
1776870894944936000,11.67093603515625,0.18604949116706848,0.2890949249267578,0.01769297756254673
1776870894954974200,11.68097412109375,0.19453060626983643,0.27979037165641785,-0.04650678113102913
1776870894965012000,11.691011962890625,0.18796829879283905,0.25310495495796204,-0.080629862844944
1776870894975051300,11.70105126953125,0.17854177951812744,0.215450257062912,-0.103204146027565
1776870894985089000,11.711089111328125,0.15565644204616547,0.17832739651203156,-0.10790596157312393
1776870894995127300,11.721127197265625,0.12927569448947906,0.13806332647800446,-0.10404437780380249
1776870895005166000,11.731166015625,0.09744000434875488,0.1036883145570755,-0.09721922874450684
1776870895015204000,11.7412041015625,0.07569742202758789,0.0907948836684227,-0.08652530610561371
1776870895025242000,11.7512421875,0.06479816883802414,0.09622906148433685,-0.06547940522432327
1776870895035281200,11.76128125,0.06198081374168396,0.1208486557006836,-0.031081752851605415
1776870895045319200,11.771319091796874,0.06642536073923111,0.14622831344604492,0.014452708885073662
1776870895055357200,11.781357177734375,0.05697140842676163,0.169049471616745,0.054245129227638245
1776870895065395200,11.791395263671875,0.0385306142270565,0.18202146887779236,0.08480756729841232
1776870895075434200,11.801434326171876,0.014839133247733116,0.18940427899360657,0.09948477894067764
1776870895085472000,11.811471923828124,-0.0014775217277929187,0.18106192350387573,0.09697555005550385
1776870895095510300,11.82151025390625,-0.009794307872653008,0.1739661991596222,0.0799502283334732
1776870895105549000,11.831549072265625,-0.003305515507236123,0.1528923362493515,0.05983323976397514
1776870895115587300,11.84158740234375,0.0007741809240542352,0.12580212950706482,0.04066513851284981
1776870895125625000,11.851625,0.00009054747351910919,0.09427403658628464,0.031098797917366028
1776870895135664000,11.8616640625,-0.014448448084294796,0.075258269906044,0.03159654140472412
1776870895145702100,11.8717021484375,-0.02580416575074196,0.06693802028894424,0.043781034648418427
1776870895155740200,11.881740234375,-0.027157317847013474,0.06541788578033447,0.06808744370937347
1776870895165779200,11.891779296875,-0.027995148673653603,0.06774016469717026,0.08779456466436386
1776870895175817200,11.901817138671875,-0.04332563653588295,0.09291555732488632,0.07954276353120804
1776870895185855200,11.911855224609376,-0.049483928829431534,0.11491113901138306,0.04085475578904152
1776870895195893000,11.92189306640625,-0.04216929152607918,0.12005982547998428,-0.0023936491925269365
1776870895205932000,11.93193212890625,-0.013435647822916508,0.1171729639172554,-0.04060867801308632
1776870895215970000,11.941969970703125,0.006622748915106058,0.1160413846373558,-0.06404822319746017
1776870895226008000,11.952008056640626,0.01689775660634041,0.11078430712223053,-0.06742111593484879
1776870895236047000,11.962047119140625,0.008016914129257202,0.10587290674448013,-0.0624077171087265
1776870895246085000,11.972085205078125,-0.0057465690188109875,0.11141067743301392,-0.058341335505247116
1776870895256123100,11.982123046875,-0.009639311581850052,0.12341541051864624,-0.0508490651845932
1776870895266162200,11.992162109375,-0.013173059560358524,0.1328805536031723,-0.04553952068090439
1776870895276200000,12.002199951171875,-0.007470166776329279,0.12117276340723038,-0.02582360804080963
1776870895286238200,12.01223828125,-0.00640889722853899,0.12304816395044327,-0.01047447882592678
1776870895296277000,12.022277099609376,-0.007497597485780716,0.14487916231155396,-0.005347627215087414
1776870895306315300,12.032315185546874,-0.004523911513388157,0.17280586063861847,-0.018872756510972977
1776870895316353000,12.04235302734375,0.002948119305074215,0.19293776154518127,-0.03419818356633186
1776870895326392000,12.05239208984375,0.010636398568749428,0.19757859408855438,-0.045158423483371735
1776870895336430000,12.06243017578125,0.011419367976486683,0.1833684891462326,-0.05740337073802948
1776870895346468000,12.072468017578124,0.009127984754741192,0.15810655057430267,-0.07916805893182755
1776870895356506000,12.082506103515625,0.004457066301256418,0.13784681260585785,-0.1029660627245903
1776870895366545200,12.092545166015626,0.003620301140472293,0.11656682938337326,-0.12254109233617783
1776870895376583200,12.102583251953124,0.004816593136638403,0.1110178604722023,-0.13045388460159302
1776870895386621200,12.11262109375,0.006648048758506775,0.11750798672437668,-0.12214268743991852
1776870895396660000,12.122659912109375,0.004544417839497328,0.1371527910232544,-0.10503773391246796
1776870895406698200,12.1326982421875,-0.0026439863722771406,0.15762904286384583,-0.08869577944278717
1776870895416736000,12.142736083984374,-0.015280685387551785,0.1602562516927719,-0.07215382158756256
1776870895426775300,12.152775390625,-0.021800903603434563,0.13833416998386383,-0.06510123610496521
1776870895436813000,12.16281298828125,-0.02570270001888275,0.09659045189619064,-0.05447283014655113
1776870895446851300,12.172851318359376,-0.02369840443134308,0.04884610325098038,-0.04519703984260559
1776870895456889000,12.18288916015625,-0.022902918979525566,0.005130579695105553,-0.033067937940359116
1776870895466928000,12.19292822265625,-0.023570572957396507,-0.018260229378938675,-0.020290624350309372
1776870895476966100,12.202966064453125,-0.03104633279144764,-0.004746552091091871,-0.014474812895059586
1776870895487004200,12.213004150390624,-0.026645192876458168,0.01558481901884079,-0.0070464578457176685
1776870895497043200,12.223043212890625,-0.019364377483725548,0.04061799868941307,-0.0019680759869515896
1776870895507081000,12.2330810546875,-0.010367952287197113,0.06278935074806213,-0.002814428647980094
1776870895517118700,12.24311865234375,0.0005821670056320727,0.07550088316202164,-0.01076795905828476
1776870895527157500,12.253157470703124,0.009337042458355427,0.08234041184186935,-0.01907489076256752
1776870895537195800,12.26319580078125,0.015633821487426758,0.07872889935970306,-0.034565698355436325
1776870895547233500,12.273233642578125,0.0153163718059659,0.06434783339500427,-0.040640369057655334
1776870895557272600,12.2832724609375,0.016398681327700615,0.043898213654756546,-0.047925978899002075
1776870895567310600,12.293310546875,0.016112390905618668,0.029980802908539772,-0.05173856019973755
1776870895577348600,12.3033486328125,0.007112238090485334,0.023737553507089615,-0.06177574768662453
1776870895587386600,12.31338671875,-0.001609348226338625,0.01601065881550312,-0.07204809784889221
1776870895597425700,12.32342578125,-0.014934740960597992,0.010697385296225548,-0.07738560438156128
1776870895607463700,12.333463623046875,-0.013332849368453026,0.005050152540206909,-0.07543376833200455
1776870895617501700,12.343501708984375,-0.006343383342027664,0.0019313243683427572,-0.06927494704723358
1776870895627540500,12.35354052734375,-0.0018556906143203378,-0.0002921487612184137,-0.05871311575174332
1776870895637578800,12.363578857421874,0.0033843449782580137,-0.011244664900004864,-0.038714904338121414
1776870895647616500,12.373616455078125,0.0010072075529024005,-0.025141306221485138,-0.024338362738490105
1776870895657655800,12.38365576171875,-0.012837501242756844,-0.04310539364814758,-0.0052229915745556355
1776870895667693600,12.393693603515626,-0.025587651878595352,-0.0751781091094017,0.012853747233748436
1776870895677731800,12.40373193359375,-0.024388164281845093,-0.10462334752082825,0.0335363894701004
1776870895687770600,12.4137705078125,-0.01805836334824562,-0.1215147152543068,0.04927034303545952
