time,seconds_elapsed,z,y,x
1776870883368231400,0.0942314453125,0.2511042058467865,0.7604150176048279,-0.32463642954826355
1776870883378269400,0.10426953125,0.2136806845664978,0.8035656809806824,-0.4677525758743286
1776870883388307500,0.114307373046875,0.16066588461399078,0.8157732486724854,-0.6169463992118835
1776870883398346500,0.124346435546875,0.11368505656719208,0.8701485991477966,-0.7073021531105042
1776870883408384300,0.13438427734375,0.09948364645242691,0.9475964307785034,-0.7099714875221252
1776870883418422500,0.144422607421875,0.2898772954940796,0.9300262331962585,-0.6620540618896484
1776870883428461300,0.15446142578125,0.658037006855011,0.7712330222129822,-0.6580777764320374
1776870883438499300,0.164499267578125,1.082183599472046,0.6736971735954285,-0.7398149967193604
1776870883448537300,0.174537353515625,1.5019395351409912,0.9292250275611877,-0.9482696652412415
1776870883458576400,0.184576416015625,1.851704478263855,1.6316168308258057,-1.2562565803527832
1776870883468614400,0.194614501953125,1.9532564878463745,2.86958909034729,-1.566894769668579
1776870883478652400,0.20465234375,1.7438596487045288,4.695578575134277,-1.6998661756515503
1776870883488691500,0.21469140625,1.377305030822754,6.290747165679932,-1.7705811262130737
1776870883498729500,0.2247294921875,1.1247023344039917,6.807267665863037,-2.079554319381714
1776870883508767500,0.234767578125,0.5715166330337524,6.18589448928833,-2.488374948501587
1776870883518806500,0.244806640625,-0.3098847568035126,5.475516319274902,-2.4013185501098633
1776870883528844500,0.254844482421875,-1.2006072998046875,5.241351127624512,-1.7307634353637695
1776870883538882600,0.264882568359375,-2.018380641937256,5.037098407745361,-0.867723286151886
1776870883548921600,0.274921630859375,-2.792877674102783,5.069109916687012,-0.06634941697120667
1776870883558959400,0.28495947265625,-2.80887770652771,5.487974166870117,-0.11390309035778046
1776870883568997600,0.29499755859375,-2.7799501419067383,4.702208518981934,-0.3161035180091858
1776870883579036400,0.305036376953125,-2.1072466373443604,3.513461112976074,-0.3612249195575714
1776870883589074700,0.31507470703125,-1.1756831407546997,2.759509325027466,-0.13095416128635406
1776870883599112400,0.325112548828125,-0.24731801450252533,2.1376936435699463,0.456635057926178
1776870883609151500,0.3351513671875,0.16493764519691467,1.1357921361923218,0.8509161472320557
1776870883619189500,0.345189453125,0.10721389204263687,-0.3153901994228363,0.6941699385643005
1776870883629227500,0.3552275390625,0.03135816380381584,-1.8130685091018677,0.30650094151496887
1776870883639266600,0.3652666015625,-0.003612603060901165,-2.700103759765625,0.012854941189289093
1776870883649304600,0.3753046875,0.11008437722921371,-2.985283851623535,-0.15156666934490204
1776870883659342600,0.385342529296875,0.2593846321105957,-2.5251755714416504,-0.2889775335788727
1776870883669381600,0.395381591796875,0.3725886642932892,-1.6826504468917847,-0.4014005661010742
1776870883679419400,0.40541943359375,0.3594598174095154,-1.0236499309539795,-0.47801387310028076
1776870883689457400,0.41545751953125,0.2792643904685974,-0.5946736931800842,-0.6091647744178772
1776870883699495700,0.42549560546875,0.2173011600971222,-0.25326472520828247,-0.8448888659477234
1776870883709534500,0.435534423828125,0.17834576964378357,-0.10701481997966766,-1.1626574993133545
1776870883719572500,0.445572509765625,0.17678116261959076,-0.15787532925605774,-1.4417320489883423
1776870883729610500,0.455610595703125,0.09800957888364792,-0.35122400522232056,-1.6726462841033936
1776870883739649500,0.4656494140625,-0.004878185223788023,-0.41943344473838806,-1.6747114658355713
1776870883749687600,0.4756875,-0.22033697366714478,-0.4911110997200012,-1.6240919828414917
1776870883759725600,0.4857255859375,-0.5673044919967651,-0.7055144309997559,-1.6700626611709595
1776870883769764400,0.495764404296875,-0.9854055643081665,-1.034193515777588,-1.8162893056869507
1776870883779802600,0.505802734375,-1.4984099864959717,-1.2914077043533325,-2.003136396408081
1776870883789840400,0.51584033203125,-1.7878092527389526,-1.0601736307144165,-2.3031814098358154
1776870883799879400,0.52587939453125,-1.8688817024230957,-0.8515152335166931,-2.5405819416046143
1776870883809917400,0.53591748046875,-2.03865909576416,-0.6238228678703308,-2.627322196960449
1776870883819955700,0.545955810546875,-2.323049306869507,-0.44816824793815613,-2.5964391231536865
1776870883829994500,0.555994384765625,-2.6220548152923584,-0.4131055772304535,-2.6571972370147705
1776870883840032500,0.566032470703125,-2.808960199356079,-0.33879831433296204,-2.77913761138916
1776870883850070500,0.576070556640625,-2.925323963165283,-0.40162497758865356,-2.895634889602661
1776870883860109600,0.586109619140625,-2.9481594562530518,-0.5463107824325562,-2.939375877380371
1776870883870147600,0.596147705078125,-2.9403440952301025,-0.7287330627441406,-2.926985740661621
1776870883880185600,0.606185546875,-2.9979805946350098,-0.8800195455551147,-3.038928508758545
1776870883890224400,0.616224365234375,-2.8848979473114014,-0.7003450393676758,-3.077974796295166
1776870883900262700,0.6262626953125,-3.0880978107452393,-0.6882947683334351,-3.261040210723877
1776870883910300400,0.636300537109375,-3.4933223724365234,-0.9034335017204285,-3.7453670501708984
1776870883920339700,0.646339599609375,-3.7219085693359375,-1.1505223512649536,-4.259205341339111
1776870883930377500,0.65637744140625,-3.672544240951538,-1.4588139057159424,-4.394903659820557
1776870883940415700,0.666415771484375,-3.63881516456604,-1.6998047828674316,-4.277756690979004
1776870883950454500,0.67645458984375,-3.5795891284942627,-1.8120760917663574,-4.018125057220459
1776870883960492500,0.686492431640625,-3.384650468826294,-1.5470409393310547,-3.782177209854126
1776870883970530600,0.696530517578125,-3.306544542312622,-0.9149873852729797,-3.7885024547576904
1776870883980569600,0.706569580078125,-3.4097602367401123,-0.11600653827190399,-4.024502277374268
1776870883990607600,0.716607666015625,-3.4937238693237305,0.6473370790481567,-4.278705596923828
1776870884000645400,0.726645263671875,-3.436467170715332,1.1575100421905518,-4.406940460205078
1776870884010684400,0.736684326171875,-3.2345941066741943,1.3202569484710693,-4.451539039611816
1776870884020722700,0.74672265625,-2.95394229888916,1.271350622177124,-4.541358947753906
1776870884030760400,0.756760498046875,-2.553985118865967,0.874700129032135,-4.469235897064209
1776870884040798500,0.766798583984375,-1.8935909271240234,0.43876543641090393,-4.060492038726807
1776870884050837500,0.77683740234375,-1.033682942390442,-0.10189710557460785,-3.5853307247161865
1776870884060875500,0.78687548828125,-0.18475878238677979,-0.6765063405036926,-3.3091108798980713
1776870884070913500,0.79691357421875,0.48747268319129944,-0.932510256767273,-3.276386022567749
1776870884080952300,0.806952392578125,0.9122794270515442,-0.6425476670265198,-3.293442726135254
1776870884090990600,0.816990478515625,1.194885015487671,0.1932111382484436,-3.261373519897461
1776870884101028400,0.8270283203125,1.450262188911438,1.3210870027542114,-3.1589040756225586
1776870884111067600,0.837067626953125,1.7649651765823364,2.220038414001465,-2.986161708831787
1776870884121105400,0.84710546875,2.282670021057129,2.6206822395324707,-2.728290319442749
1776870884131143700,0.857143798828125,2.944791555404663,2.4583568572998047,-2.448410749435425
1776870884141182500,0.867182373046875,3.5992839336395264,2.0810134410858154,-2.241323232650757
1776870884151220500,0.877220458984375,4.170644760131836,1.773455262184143,-2.008673667907715
1776870884161258500,0.887258544921875,4.577298641204834,1.7743560075759888,-1.6392014026641846
1776870884171297500,0.897297607421875,4.713122844696045,1.948707938194275,-1.2346651554107666
1776870884181335600,0.90733544921875,4.657758712768555,2.1002485752105713,-0.8809501528739929
1776870884191373600,0.91737353515625,4.303913593292236,2.318422555923462,-0.529016375541687
1776870884201412400,0.927412353515625,3.075723886489868,2.7622532844543457,-0.01819547452032566
1776870884211450600,0.93745068359375,1.425587773323059,3.103832244873047,0.45691564679145813
1776870884221488400,0.94748828125,-0.03539149835705757,3.119863748550415,0.9196926355361938
1776870884231527700,0.957527587890625,-0.3343963921070099,2.3743627071380615,0.9702845215797424
1776870884241565400,0.9675654296875,0.22442613542079926,1.2256665229797363,1.1323024034500122
1776870884251603700,0.977603759765625,0.8495997190475464,-0.2533624470233917,1.5901391506195068
1776870884261642500,0.987642578125,1.3352010250091553,-1.5063704252243042,1.8048285245895386
1776870884271680500,0.997680419921875,1.7324613332748413,-1.9361759424209595,1.6512469053268433
1776870884281718500,1.007718505859375,2.03373646736145,-1.5137938261032104,1.4475830793380737
1776870884291757600,1.017757568359375,2.1943585872650146,-0.6995218396186829,1.1871567964553833
1776870884301795600,1.027795654296875,1.961492657661438,-0.08934661746025085,0.7840354442596436
1776870884311833600,1.03783349609375,1.5988690853118896,0.37125393748283386,0.3759053945541382
1776870884321872400,1.047872314453125,1.6750706434249878,0.8862714767456055,0.5862833857536316
1776870884331910700,1.05791064453125,1.8414876461029053,0.6369326114654541,0.7547369599342346
1776870884341948400,1.067948486328125,2.230389356613159,-0.09720877557992935,0.5964682102203369
1776870884351987700,1.07798779296875,2.3701155185699463,-0.47766798734664917,0.5327752828598022
1776870884362025500,1.088025390625,2.573274850845337,-0.6067143678665161,0.6108184456825256
1776870884372063700,1.098063720703125,2.5541398525238037,-0.6039702892303467,0.5113126039505005
1776870884382102500,1.1081025390625,2.303288698196411,-0.42545777559280396,0.20156697928905487
1776870884392140500,1.118140625,2.114610195159912,-0.15455995500087738,0.1009034812450409
1776870884402178600,1.128178466796875,2.1239707469940186,-0.16261495649814606,-0.01212773472070694
1776870884412217600,1.138217529296875,1.982640027999878,-0.48278674483299255,-0.1539825201034546
1776870884422255600,1.148255615234375,1.8503541946411133,-0.798250138759613,-0.2867690622806549
1776870884432293400,1.15829345703125,1.7498208284378052,-0.9111249446868896,-0.4037752151489258
1776870884442331600,1.16833154296875,1.58107328414917,-0.9143574833869934,-0.4163232445716858
1776870884452370400,1.178370361328125,1.3855772018432617,-0.8193259239196777,-0.35507380962371826
1776870884462408400,1.188408447265625,1.1589254140853882,-0.9070706963539124,-0.14798641204833984
1776870884472446500,1.198446533203125,0.8386637568473816,-1.0332732200622559,0.17089393734931946
1776870884482485500,1.208485595703125,0.7865331768989563,-1.2230421304702759,0.3685723841190338
1776870884492523500,1.2185234375,0.5177332758903503,-1.1630200147628784,0.5573306679725647
1776870884502561500,1.2285615234375,0.13673478364944458,-0.8201965689659119,0.9158179759979248
1776870884512600300,1.238600341796875,-0.20256641507148743,-0.23390120267868042,1.2499260902404785
1776870884522638600,1.248638671875,-0.3999527394771576,-0.022455012425780296,1.4551290273666382
1776870884532676400,1.25867626953125,-0.4410109519958496,-0.22776316106319427,1.4170348644256592
1776870884542715600,1.268715576171875,-0.4153668284416199,-0.5285624265670776,1.2103663682937622
1776870884552753400,1.27875341796875,-0.6171403527259827,-1.035262107849121,1.2326470613479614
1776870884562791700,1.288791748046875,-1.021998405456543,-1.6184706687927246,1.3870261907577515
1776870884572830500,1.29883056640625,-1.4962161779403687,-1.7997658252716064,1.304770827293396
1776870884582868500,1.308868408203125,-1.8707724809646606,-1.4599398374557495,0.7534879446029663
1776870884592906500,1.318906494140625,-1.9378883838653564,-0.9848166704177856,0.40957212448120117
1776870884602945500,1.328945556640625,-1.6891040802001953,-1.1331344842910767,0.49262386560440063
1776870884612983600,1.338983642578125,-1.5936126708984375,-1.7552049160003662,0.7892888188362122
1776870884623021600,1.349021484375,-1.7283481359481812,-2.5600626468658447,1.0113604068756104
1776870884633060400,1.359060302734375,-1.7050622701644897,-3.09999942779541,1.0758920907974243
1776870884643098600,1.3690986328125,-1.7001993656158447,-3.088165044784546,0.9604595899581909
1776870884653136400,1.379136474609375,-1.6848678588867188,-2.717552900314331,0.5933688282966614
1776870884663175700,1.38917578125,-1.6099352836608887,-1.9357789754867554,0.05955018848180771
1776870884673213400,1.39921337890625,-1.464611530303955,-1.0367270708084106,-0.05800981819629669
1776870884683251700,1.409251708984375,-1.4997340440750122,-0.62933748960495,0.12699837982654572
1776870884693290500,1.41929052734375,-1.6649625301361084,-0.7741252183914185,0.04534328728914261
1776870884703328500,1.42932861328125,-1.5642873048782349,-0.6811183094978333,-0.18858051300048828
1776870884713366500,1.439366455078125,-1.3288341760635376,-0.29901817440986633,-0.3096228837966919
1776870884723405600,1.449405517578125,-1.1570069789886475,0.27511194348335266,-0.22705529630184174
1776870884733443600,1.459443603515625,-1.0208016633987427,1.0752760171890259,0.130258709192276
1776870884743481600,1.469481689453125,-0.8980090618133545,2.2178282737731934,0.4844689965248108
1776870884753520400,1.479520263671875,-0.7265665531158447,3.038511276245117,0.7729399800300598
1776870884763558700,1.48955859375,-0.6129483580589294,3.379666805267334,0.7304250001907349
1776870884773596400,1.499596435546875,-0.5729618668556213,3.5154130458831787,0.34244126081466675
1776870884783635700,1.5096357421875,-0.5785545110702515,3.66866397857666,-0.19468076527118683
1776870884793673500,1.519673583984375,-0.8562284111976624,3.3726065158843994,-0.7103192806243896
1776870884803711500,1.52971142578125,-1.4573041200637817,2.7926766872406006,-1.079607605934143
1776870884813750500,1.53975048828125,-1.9527968168258667,3.1460492610931396,-0.9577862024307251
1776870884823788300,1.549788330078125,-2.4214909076690674,3.3415517807006836,-0.7965177297592163
1776870884833826600,1.55982666015625,-2.7757787704467773,3.240527629852295,-0.7552438974380493
1776870884843865600,1.569865478515625,-3.0930469036102295,3.1559817790985107,-0.6713343262672424
1776870884853903600,1.579903564453125,-3.567539930343628,2.6826071739196777,-0.692516028881073
1776870884863941400,1.58994140625,-3.956883430480957,2.2640092372894287,-0.6158849000930786
1776870884873980400,1.59998046875,-4.005580902099609,1.842195987701416,-0.4056241512298584
1776870884884018400,1.610018310546875,-3.6224708557128906,1.3040763139724731,-0.231689915060997
1776870884894056400,1.620056396484375,-2.673050880432129,0.7439196705818176,-0.0685865730047226
1776870884904095500,1.630095458984375,-1.5424261093139648,0.14036187529563904,0.060008153319358826
1776870884914133500,1.640133544921875,-0.7131507396697998,-0.4549656808376312,0.1870899498462677
1776870884924171500,1.650171630859375,-0.2488379031419754,-1.0737111568450928,0.28092536330223083
1776870884934209500,1.66020947265625,-0.10706325620412827,-1.400336742401123,0.4247829020023346
1776870884944248300,1.670248291015625,-0.17964611947536469,-0.681271493434906,0.7554566860198975
1776870884954286600,1.68028662109375,-0.21472513675689697,-0.05486142262816429,0.8588786721229553
1776870884964324400,1.690324462890625,-0.03809843584895134,0.29821354150772095,0.7833977937698364
1776870884974363600,1.70036376953125,0.11642273515462875,0.43912121653556824,0.6625508069992065
1776870884984401400,1.7104013671875,0.11578864604234695,0.2510160207748413,0.5313253998756409
1776870884994439700,1.720439697265625,0.04761875048279762,0.04758896678686142,0.5056180357933044
1776870885004478500,1.730478515625,-0.010683170519769192,-0.041733987629413605,0.5695831775665283
1776870885014516500,1.7405166015625,0.0015706848353147507,-0.1362534910440445,0.5600321292877197
1776870885024554500,1.750554443359375,-0.03007539175450802,-0.09596385806798935,0.470880389213562
1776870885034593500,1.760593505859375,-0.14877550303936005,0.29216426610946655,0.3044006824493408
1776870885044631600,1.770631591796875,-0.5100050568580627,0.0868835523724556,-0.07485263794660568
1776870885054669600,1.780669677734375,-0.804349958896637,-0.4013651907444,-0.3280489444732666
1776870885064708400,1.790708251953125,-0.85612553358078,-0.9057165384292603,-0.40063926577568054
1776870885074746600,1.80074658203125,-1.1189337968826294,-1.830864667892456,-0.5031946301460266
1776870885084784400,1.810784423828125,-1.5891332626342773,-2.416384220123291,-0.4910399913787842
1776870885094823700,1.82082373046875,-2.226761817932129,-2.994250774383545,-0.5270591378211975
1776870885104861400,1.830861328125,-2.7078945636749268,-3.855368137359619,-0.6044844388961792
1776870885114899700,1.840899658203125,-3.1750428676605225,-4.352083683013916,-0.6509331464767456
1776870885124938500,1.8509384765625,-3.652294397354126,-4.1124725341796875,-0.5236428380012512
1776870885134976500,1.8609765625,-4.067211627960205,-3.4036455154418945,-0.3195723593235016
1776870885145014500,1.8710146484375,-4.246131420135498,-2.748893976211548,-0.16491007804870605
1776870885155053600,1.881053466796875,-4.2356696128845215,-3.3968029022216797,-0.47119298577308655
1776870885165091600,1.891091552734375,-4.156304836273193,-3.777810573577881,-0.7661929130554199
1776870885175129300,1.90112939453125,-3.8688364028930664,-3.2949607372283936,-0.6717140674591064
1776870885185168400,1.91116845703125,-3.22373366355896,-2.5006299018859863,-0.25939175486564636
1776870885195206400,1.921206298828125,-2.28786039352417,-1.5922412872314453,0.22248157858848572
1776870885205244400,1.931244384765625,-1.2508606910705566,-1.3188321590423584,0.40969622135162354
1776870885215283700,1.94128369140625,-0.43243616819381714,-1.2156985998153687,0.4866229295730591
1776870885225321500,1.951321533203125,0.11239117383956909,-0.7494795322418213,0.6030238270759583
1776870885235359500,1.961359375,0.2956869304180145,0.09526833891868591,0.7208850383758545
1776870885245398500,1.9713984375,0.24156644940376282,1.1973248720169067,0.802291214466095
1776870885255436500,1.9814365234375,0.09155084937810898,2.0604281425476074,0.7188379168510437
1776870885265474600,1.991474609375,-0.004979953169822693,2.6815381050109863,0.5222904682159424
1776870885275513300,2.001513427734375,-0.03821708261966705,2.7436349391937256,0.19880706071853638
1776870885285551600,2.011551513671875,-0.04868223890662193,2.2376654148101807,-0.21798111498355865
1776870885295589400,2.02158935546875,0.0016757436096668243,1.6408365964889526,-0.5595181584358215
1776870885305628400,2.03162841796875,0.014209644868969917,1.138490915298462,-0.5453203320503235
1776870885315666400,2.04166650390625,-0.0706901103258133,0.47366252541542053,-0.29399606585502625
1776870885325704400,2.051704345703125,-0.1323966234922409,-0.4651731252670288,-0.1154060959815979
1776870885335743500,2.061743408203125,-0.09731265157461166,-1.215808629989624,-0.023803560063242912
1776870885345781500,2.071781494140625,-0.013443314470350742,-1.5247331857681274,0.03443923965096474
1776870885355819500,2.081819580078125,-0.06669752299785614,-1.5641463994979858,0.05464295670390129
1776870885365858600,2.091858642578125,-0.0349382609128952,-1.1476389169692993,0.09424549341201782
1776870885375896600,2.101896484375,0.11508533358573914,-0.45055022835731506,0.18171852827072144
1776870885385934600,2.1119345703125,0.09708289802074432,0.10185514390468597,0.21753990650177002
1776870885395973400,2.121973388671875,0.03679242357611656,0.7125349044799805,0.30590111017227173
1776870885406011600,2.13201171875,0.08651870489120483,1.259880781173706,0.384073406457901
1776870885416049400,2.14204931640625,0.2017340511083603,1.404536247253418,0.32969456911087036
1776870885426088400,2.15208837890625,0.2802589535713196,1.1687010526657104,0.08548936992883682
1776870885436126500,2.16212646484375,0.28709545731544495,0.7957295179367065,-0.21362639963626862
1776870885446164700,2.172164794921875,0.08050712198019028,0.6790106296539307,-0.34395086765289307
1776870885456203500,2.18220361328125,-0.10591594874858856,0.6544743776321411,-0.35482215881347656
1776870885466241500,2.192241455078125,-0.14843571186065674,0.6714608073234558,-0.25187766551971436
1776870885476279600,2.202279541015625,-0.09692315757274628,0.586816132068634,-0.11844004690647125
1776870885486318600,2.212318603515625,-0.06004902720451355,0.3025093078613281,-0.03830314055085182
1776870885496356600,2.222356689453125,0.06599480658769608,0.031359750777482986,0.04187389835715294
1776870885506394600,2.23239453125,0.1458291858434677,-0.2337225079536438,0.12093116343021393
1776870885516433400,2.242433349609375,0.09152234345674515,-0.4873025715351105,0.15245234966278076
1776870885526471700,2.2524716796875,-0.020662518218159676,-0.7154579758644104,0.1295156031847
1776870885536509400,2.262509521484375,-0.1928868591785431,-0.9283477067947388,0.06929531693458557
1776870885546548500,2.272548583984375,-0.14805974066257477,-0.6238498687744141,0.10831674933433533
1776870885556586500,2.28258642578125,-0.055871620774269104,-0.057732924818992615,0.13357549905776978
1776870885566624500,2.29262451171875,0.10365438461303711,0.5437976717948914,0.11873237043619156
1776870885576663600,2.30266357421875,0.1980552226305008,0.8382813930511475,0.08954616636037827
1776870885586701600,2.31270166015625,0.1522645652294159,0.9710604548454285,0.10279938578605652
1776870885596739600,2.322739501953125,0.07034066319465637,1.0156090259552002,0.0635228231549263
1776870885606778600,2.332778564453125,0.02489621564745903,1.0144257545471191,-0.0472140833735466
1776870885616816600,2.342816650390625,0.022745467722415924,0.9296994209289551,-0.1806076467037201
1776870885626854400,2.3528544921875,0.06737126410007477,0.8413119912147522,-0.26151981949806213
1776870885636893400,2.3628935546875,0.1418258100748062,0.7233074903488159,-0.27764028310775757
1776870885646931500,2.372931396484375,0.19148603081703186,0.5381312370300293,-0.22736752033233643
1776870885656969500,2.382969482421875,0.1365765482187271,0.3560127317905426,-0.14521734416484833
1776870885667007500,2.393007568359375,0.07890898734331131,0.17353855073451996,-0.018461257219314575
1776870885677046500,2.403046630859375,0.025425300002098083,0.008706282824277878,0.09749872237443924
1776870885687084500,2.41308447265625,-0.03656989336013794,-0.07631726562976837,0.14511151611804962
1776870885697123600,2.42312353515625,-0.2104831039905548,-0.11386224627494812,0.07530713081359863
1776870885707161300,2.433161376953125,-0.4040139615535736,-0.11800026148557663,-0.029132990166544914
1776870885717199600,2.44319970703125,-0.5090476274490356,-0.13281747698783875,-0.08437591046094894
1776870885727237400,2.4532373046875,-0.5316339135169983,-0.1968742311000824,-0.05259028822183609
1776870885737276700,2.463276611328125,-0.483896404504776,-0.3640529215335846,0.001722922665067017
1776870885747314400,2.473314453125,-0.3652603030204773,-0.5750474333763123,0.04816072806715965
1776870885757352700,2.483352783203125,-0.23644649982452393,-0.6578885912895203,0.1063523069024086
1776870885767391500,2.4933916015625,-0.11497812718153,-0.579982578754425,0.18425163626670837
1776870885777429500,2.503429443359375,-0.13857212662696838,-0.4893510639667511,0.21823880076408386
1776870885787467500,2.513467529296875,-0.2283792346715927,-0.4062444567680359,0.23026244342327118
1776870885797506600,2.523506591796875,-0.21672937273979187,-0.35547125339508057,0.24960775673389435
1776870885807544600,2.533544677734375,-0.04699521139264107,-0.38739216327667236,0.22655782103538513
1776870885817582600,2.54358251953125,0.1325865536928177,-0.44738128781318665,0.13794583082199097
1776870885827621400,2.553621337890625,0.22889071702957153,-0.40826529264450073,0.03982405364513397
1776870885837659600,2.56365966796875,0.2997157573699951,-0.31619909405708313,-0.05192245915532112
1776870885847697400,2.573697509765625,0.35158562660217285,-0.14670062065124512,-0.11935023963451385
1776870885857736700,2.58373681640625,0.27059438824653625,0.024951212108135223,-0.13110898435115814
1776870885867774500,2.5937744140625,0.005158997140824795,0.07695449143648148,-0.09481967985630035
1776870885877812700,2.603812744140625,-0.15618987381458282,-0.02894078753888607,-0.03704160079360008
1776870885887851500,2.6138515625,-0.17536303400993347,-0.2353573441505432,0.016916438937187195
1776870885897889500,2.6238896484375,-0.13306385278701782,-0.35874292254447937,0.05527767911553383
1776870885907927600,2.633927490234375,-0.0060579655691981316,-0.3662591576576233,0.03440408781170845
1776870885917966600,2.643966552734375,0.03278698772192001,-0.3007742464542389,0.014713117852807045
1776870885928004600,2.654004638671875,0.013383996672928333,-0.22349970042705536,0.005437859334051609
1776870885938042400,2.66404248046875,0.036297015845775604,-0.15662790834903717,-0.000022862572222948074
1776870885948081400,2.674081298828125,0.12164812535047531,-0.07357244193553925,-0.003340895054861903
1776870885958119700,2.68411962890625,0.14214110374450684,-0.22296032309532166,-0.001381605863571167
1776870885968157400,2.694157470703125,-0.06728988885879517,-0.23472218215465546,0.23421227931976318
1776870885978196700,2.70419677734375,-0.2532612681388855,-0.042570408433675766,0.5733383297920227
1776870885988234500,2.714234375,-0.33132094144821167,0.01967911794781685,0.7199805378913879
1776870885998272500,2.7242724609375,-0.20618529617786407,-0.028869854286313057,0.5542563796043396
1776870886008311600,2.7343115234375,0.06975334882736206,-0.07556252926588058,0.1392325907945633
1776870886018349300,2.744349365234375,0.16649384796619415,0.04069412499666214,-0.2928178012371063
1776870886028387600,2.7543876953125,0.11350840330123901,0.24100032448768616,-0.42650076746940613
1776870886038426400,2.76442626953125,-0.012919073924422264,0.31854474544525146,-0.4070127308368683
1776870886048464600,2.774464599609375,-0.04765894636511803,0.13303561508655548,-0.4344257116317749
1776870886058502400,2.78450244140625,-0.12935195863246918,-0.061452560126781464,-0.47346970438957214
1776870886068541400,2.79454150390625,-0.4354735314846039,0.045171353965997696,-0.44189393520355225
1776870886078579500,2.804579345703125,-0.6599644422531128,0.36480793356895447,-0.4421522617340088
1776870886088617500,2.814617431640625,-0.5575347542762756,0.6369706988334656,-0.5995147228240967
1776870886098656500,2.824656494140625,-0.22326776385307312,0.6953675150871277,-0.8141446709632874
1776870886108694500,2.834694580078125,-0.14405469596385956,0.45057645440101624,-0.8857434988021851
1776870886118732500,2.844732666015625,-0.15316368639469147,-0.13261117041110992,-0.839260458946228
1776870886128771600,2.854771484375,0.0277688167989254,-0.8940203785896301,-0.7289472818374634
1776870886138809300,2.864809326171875,0.3327923119068146,-1.3462648391723633,-0.5088167786598206
1776870886148847600,2.87484765625,0.4874950647354126,-1.4054789543151855,-0.36372560262680054
1776870886158886400,2.884886474609375,0.521446168422699,-1.183921217918396,-0.2810390889644623
1776870886168924700,2.894924560546875,0.6705800294876099,-1.2137435674667358,-0.287856787443161
1776870886178962400,2.90496240234375,0.6659948825836182,-1.364777684211731,-0.09689375013113022
1776870886189001500,2.91500146484375,0.8270330429077148,-1.5089545249938965,0.24589262902736664
1776870886199039500,2.92503955078125,1.0421234369277954,-1.6233917474746704,0.575090765953064
1776870886209077500,2.935077392578125,1.2802072763442993,-1.9167461395263672,0.5982171297073364
1776870886219116500,2.945116455078125,1.410155177116394,-1.7777581214904785,0.4225104749202728
1776870886229154600,2.955154541015625,1.6256920099258423,-1.3664906024932861,-0.07222124934196472
1776870886239192600,2.965192626953125,1.7433717250823975,-0.9342599511146545,-0.6343555450439453
1776870886249231600,2.975231689453125,1.4532358646392822,-0.7852904200553894,-1.0783177614212036
1776870886259269400,2.985269287109375,0.908630907535553,-1.242156744003296,-1.6013356447219849
1776870886269307600,2.9953076171875,0.13683217763900757,-1.5259144306182861,-1.9495775699615479
1776870886279346400,3.005346435546875,-0.4482465982437134,-1.3871829509735107,-2.2480742931365967
1776870886289384700,3.015384765625,-0.5465185642242432,-0.587092936038971,-2.3783247470855713
1776870886299422500,3.02542236328125,-0.6105305552482605,0.6221666932106018,-2.1999266147613525
1776870886309461500,3.03546142578125,-0.819099485874176,1.3394933938980103,-1.635811448097229
1776870886319499500,3.04549951171875,-1.1171365976333618,1.006300449371338,-0.7270299792289734
1776870886329537500,3.05553759765625,-1.5623739957809448,0.056718382984399796,0.2784145474433899
1776870886339576600,3.06557666015625,-2.123149871826172,-1.004697322845459,1.21404230594635
1776870886349614600,3.075614501953125,-2.7400455474853516,-1.576523780822754,1.8864558935165405
1776870886359652600,3.085652587890625,-3.1608853340148926,-1.308643102645874,2.268069267272949
1776870886369691600,3.095691650390625,-3.2856171131134033,-0.5777280926704407,2.407147169113159
1776870886379729400,3.1057294921875,-2.736610174179077,0.19203057885169983,2.0628209114074707
1776870886389767400,3.115767333984375,-1.7743135690689087,0.7199005484580994,1.132331132888794
1776870886399805400,3.125805419921875,-0.8538220524787903,1.187577724456787,0.18436357378959656
1776870886409844700,3.1358447265625,-0.2930887043476105,1.2266130447387695,-0.37315481901168823
1776870886419882500,3.145882568359375,-0.13662195205688477,1.086999773979187,-0.5683587789535522
1776870886429921500,3.155921630859375,-0.18872934579849243,1.0163078308105469,-0.6058414578437805
1776870886439959600,3.16595947265625,-0.2836036682128906,1.0300812721252441,-0.5470240712165833
1776870886449997300,3.175997314453125,-0.2855600118637085,0.99953293800354,-0.40670689940452576
1776870886460035600,3.18603564453125,-0.20688503980636597,1.0941029787063599,-0.1549159586429596
1776870886470074400,3.196074462890625,-0.16255033016204834,1.2659969329833984,0.26901373267173767
1776870886480112600,3.206112548828125,-0.15099401772022247,1.4481980800628662,0.7353657484054565
1776870886490150400,3.216150390625,-0.045263584703207016,1.4692455530166626,0.9999462366104126
1776870886500189400,3.226189453125,0.02686750888824463,1.317362666130066,1.0531268119812012
1776870886510228200,3.236228271484375,-0.0026475070044398308,1.1651020050048828,0.9677678942680359
1776870886520266200,3.246266357421875,-0.04174448177218437,0.8387491106987,0.6651126146316528
1776870886530305300,3.25630517578125,-0.18333597481250763,0.22862453758716583,0.15588586032390594
1776870886540343300,3.26634326171875,-0.2555268704891205,-0.3365781307220459,-0.19400395452976227
1776870886550381000,3.276381103515625,-0.21119190752506256,-0.5606045722961426,-0.3044804036617279
1776870886560420400,3.28642041015625,-0.2094452679157257,-0.4050504267215729,-0.24715906381607056
1776870886570458000,3.2964580078125,-0.30784374475479126,0.02226603403687477,-0.17006826400756836
1776870886580496400,3.306496337890625,-0.4321022629737854,0.47606581449508667,-0.12451401352882385
1776870886590535200,3.31653515625,-0.4607006311416626,0.7611274123191833,-0.11772188544273376
1776870886600573200,3.3265732421875,-0.32408252358436584,0.8673511147499084,-0.15683138370513916
1776870886610611200,3.336611083984375,-0.07416484504938126,0.7775264382362366,-0.23077137768268585
1776870886620650200,3.346650146484375,0.18835769593715668,0.5995801091194153,-0.2429462969303131
1776870886630688300,3.356688232421875,0.26652175188064575,0.4199550151824951,-0.2233813852071762
1776870886640726300,3.366726318359375,0.20308484137058258,0.35476914048194885,-0.23665237426757812
1776870886650765000,3.37676513671875,0.12709952890872955,0.4593943655490875,-0.28416237235069275
1776870886660803300,3.38680322265625,0.1265779286623001,0.568464457988739,-0.33623024821281433
1776870886670841300,3.39684130859375,0.13941410183906555,0.7000885605812073,-0.4331674575805664
1776870886680880400,3.40688037109375,0.10790328681468964,0.8652309775352478,-0.5168705582618713
1776870886690918100,3.416918212890625,0.033642373979091644,0.8896865248680115,-0.5137514472007751
1776870886700956400,3.426956298828125,-0.0022355271503329277,0.6734243035316467,-0.38345494866371155
1776870886710995200,3.4369951171875,-0.01574947126209736,0.3656475245952606,-0.166765496134758
1776870886721033200,3.447033203125,-0.034456074237823486,0.08683943003416061,0.01211964339017868
1776870886731071200,3.4570712890625,-0.04748878628015518,0.004016449674963951,0.05349957197904587
1776870886741110300,3.4671103515625,-0.05525246635079384,0.07571125030517578,0.01356714777648449
1776870886751148300,3.477148193359375,-0.04925262928009033,0.16882628202438354,-0.0402955524623394
1776870886761186300,3.487186279296875,-0.052086494863033295,0.2408439964056015,-0.07002760469913483
1776870886771225000,3.49722509765625,-0.055563785135746,0.2895926237106323,-0.08782125264406204
1776870886781263400,3.507263427734375,-0.04657498747110367,0.3059518039226532,-0.10405649989843369
1776870886791301400,3.51730126953125,-0.0506107434630394,0.3107321858406067,-0.1302548050880432
1776870886801340400,3.52734033203125,-0.04905766621232033,0.3024764060974121,-0.1414014846086502
1776870886811378200,3.537378173828125,-0.053196750581264496,0.2996459901332855,-0.14202067255973816
1776870886821416400,3.54741650390625,-0.060415059328079224,0.3087000250816345,-0.13067977130413055
1776870886831455200,3.557455322265625,-0.07465577870607376,0.32756292819976807,-0.12418404221534729
1776870886841493200,3.5674931640625,-0.08382250368595123,0.33908528089523315,-0.12951020896434784
1776870886851531300,3.57753125,-0.08485794067382812,0.3352721631526947,-0.13725654780864716
1776870886861570300,3.5875703125,-0.08684638142585754,0.3095042109489441,-0.1417839080095291
1776870886871608300,3.5976083984375,-0.09622310101985931,0.2695155143737793,-0.1285218894481659
1776870886881646000,3.60764599609375,-0.10633670538663864,0.23801980912685394,-0.10329706221818924
1776870886891685000,3.61768505859375,-0.11026886105537415,0.2163962721824646,-0.08117152005434036
1776870886901723400,3.627723388671875,-0.11313431710004807,0.2258215695619583,-0.07826671749353409
1776870886911761400,3.637761474609375,-0.1155729740858078,0.2375173717737198,-0.0869281217455864
1776870886921800400,3.647800537109375,-0.1123737320303917,0.24283765256404877,-0.10684873908758163
1776870886931838200,3.657838134765625,-0.11078915745019913,0.2295929491519928,-0.1179802194237709
1776870886941876200,3.667876220703125,-0.11107854545116425,0.2038659155368805,-0.11743436008691788
1776870886951915300,3.677915283203125,-0.1160874217748642,0.16352994740009308,-0.10180532932281494
1776870886961953300,3.687953369140625,-0.1182299554347992,0.11809545010328293,-0.07205213606357574
1776870886971991300,3.6979912109375,-0.12307344377040863,0.08853675425052643,-0.04170488566160202
1776870886982030000,3.708030029296875,-0.13714610040187836,0.07532863318920135,-0.023230720311403275
1776870886992068400,3.718068359375,-0.1548939347267151,0.07917344570159912,-0.016092117875814438
1776870887002106000,3.728106201171875,-0.16869980096817017,0.09750636667013168,-0.015537905506789684
1776870887012145400,3.7381455078125,-0.16534768044948578,0.1397683471441269,-0.031876932829618454
1776870887022183200,3.74818310546875,-0.159207284450531,0.19025832414627075,-0.05944899469614029
1776870887032221400,3.758221435546875,-0.15479736030101776,0.23912039399147034,-0.0868566483259201
1776870887042260200,3.76826025390625,-0.1515258401632309,0.2685391902923584,-0.09187760204076767
1776870887052298200,3.77829833984375,-0.15035778284072876,0.2895168960094452,-0.07992373406887054
1776870887062336300,3.788336181640625,-0.16185228526592255,0.31947657465934753,-0.0551481656730175
1776870887072375300,3.798375244140625,-0.19218941032886505,0.3379296362400055,-0.03142179548740387
1776870887082413300,3.808413330078125,-0.21081647276878357,0.35456782579421997,-0.019634028896689415
1776870887092451300,3.818451416015625,-0.20752187073230743,0.371489018201828,-0.022120889276266098
1776870887102490000,3.828489990234375,-0.18768151104450226,0.40803104639053345,-0.04335959628224373
1776870887112528400,3.8385283203125,-0.16791926324367523,0.4374842643737793,-0.0709744468331337
1776870887122566100,3.848566162109375,-0.13618475198745728,0.4604499340057373,-0.10598365217447281
1776870887132605400,3.85860546875,-0.11495029926300049,0.48491665720939636,-0.1376425176858902
1776870887142643200,3.868643310546875,-0.13751830160617828,0.4640246331691742,-0.15250995755195618
1776870887152681500,3.878681396484375,-0.18674150109291077,0.4286881983280182,-0.15200290083885193
1776870887162720300,3.88872021484375,-0.24198713898658752,0.4181669354438782,-0.15913820266723633
1776870887172758300,3.89875830078125,-0.27047231793403625,0.43515124917030334,-0.13805769383907318
1776870887182796300,3.90879638671875,-0.2647779583930969,0.4601466953754425,-0.09169197827577591
1776870887192835300,3.91883544921875,-0.2217940241098404,0.43452391028404236,-0.03312719985842705
1776870887202873300,3.928873291015625,-0.19238752126693726,0.37384963035583496,0.008736894465982914
1776870887212911400,3.938911376953125,-0.2553020417690277,0.3094426691532135,-0.018855050206184387
1776870887222950100,3.9489501953125,-0.37080317735671997,0.23852039873600006,-0.06658095121383667
1776870887232988400,3.958988525390625,-0.48635345697402954,0.15992093086242676,-0.10194533318281174
1776870887243026200,3.969026123046875,-0.5723153352737427,0.07143304497003555,-0.10429085791110992
1776870887253065500,3.9790654296875,-0.583791971206665,0.08195625990629196,-0.057715367525815964
1776870887263103200,3.989103271484375,-0.5561450123786926,0.1480293869972229,0.008254146203398705
1776870887273141500,3.9991416015625,-0.49488937854766846,0.16823452711105347,0.054834697395563126
1776870887283180300,4.00918017578125,-0.4320363700389862,0.08937858790159225,0.06111656129360199
1776870887293218300,4.01921826171875,-0.41867876052856445,0.0040136221796274185,0.007940426468849182
1776870887303256300,4.02925634765625,-0.43468308448791504,-0.04607024043798447,-0.08458621799945831
1776870887313294000,4.039294189453125,-0.4694650173187256,-0.019405076280236244,-0.15220706164836884
1776870887323333400,4.04933349609375,-0.4819240868091583,0.01881546899676323,-0.15185776352882385
1776870887333371100,4.05937109375,-0.516279935836792,0.03393423557281494,-0.10448518395423889
1776870887343410200,4.06941015625,-0.5370444655418396,-0.017085812985897064,-0.07144041359424591
1776870887353448200,4.0794482421875,-0.539182186126709,-0.09598515182733536,-0.11899194866418839
1776870887363486200,4.089486328125,-0.6024585366249084,-0.10259253531694412,-0.24680593609809875
1776870887373524200,4.099524169921875,-0.6920486092567444,-0.04328260198235512,-0.3966875970363617
1776870887383563300,4.109563232421875,-0.8154304027557373,0.02843250147998333,-0.49242085218429565
1776870887393601300,4.119601318359375,-0.9005950689315796,0.03902202472090721,-0.5000281929969788
1776870887403639300,4.129639404296875,-0.9440609216690063,-0.006917063612490892,-0.4248829185962677
1776870887413678000,4.139677978515625,-0.9687181115150452,-0.13648438453674316,-0.349468857049942
1776870887423716400,4.14971630859375,-1.039143443107605,-0.36727824807167053,-0.3753388822078705
1776870887433755100,4.159755126953125,-1.1837365627288818,-0.5901608467102051,-0.5327767133712769
1776870887443793400,4.16979345703125,-1.3498215675354004,-0.691092848777771,-0.7459678053855896
1776870887453831200,4.1798310546875,-1.4349074363708496,-0.6297522187232971,-0.8776307702064514
1776870887463869400,4.189869384765625,-1.3809255361557007,-0.3558536469936371,-0.8586899042129517
1776870887473908200,4.199908203125,-1.3191572427749634,-0.056950584053993225,-0.7057445645332336
1776870887483946200,4.2099462890625,-1.2944955825805664,0.040839530527591705,-0.5309501886367798
1776870887493984300,4.219984375,-1.3373531103134155,-0.23687703907489777,-0.49990150332450867
1776870887504023300,4.230023193359375,-1.422986626625061,-0.6628220677375793,-0.6680805087089539
1776870887514061300,4.240061279296875,-1.5001826286315918,-0.7777100205421448,-0.9501550197601318
1776870887524099300,4.250099365234375,-1.5643177032470703,-0.6847596764564514,-1.1753524541854858
1776870887534138000,4.26013818359375,-1.603344202041626,-0.5576651096343994,-1.2561267614364624
1776870887544176400,4.27017626953125,-1.6441600322723389,-0.517875611782074,-1.1749114990234375
1776870887554214100,4.280214111328125,-1.7128403186798096,-0.6048398017883301,-1.01649010181427
1776870887564253400,4.29025341796875,-1.7541640996932983,-0.794333279132843,-0.8545079827308655
1776870887574291200,4.300291259765625,-1.6795896291732788,-1.0022156238555908,-0.7238434553146362
1776870887584329500,4.31032958984375,-1.4931893348693848,-1.1651743650436401,-0.6221126914024353
1776870887594368300,4.3203681640625,-1.3479056358337402,-1.3322685956954956,-0.5277681350708008
1776870887604406300,4.33040625,-1.256198763847351,-1.4653159379959106,-0.46295589208602905
1776870887614444300,4.3404443359375,-1.1871440410614014,-1.5448133945465088,-0.4282618463039398
1776870887624483300,4.3504833984375,-1.1460882425308228,-1.5409327745437622,-0.43032222986221313
1776870887634521300,4.360521240234375,-1.138822317123413,-1.5188852548599243,-0.4572283923625946
1776870887644559400,4.370559326171875,-1.1893383264541626,-1.4123320579528809,-0.5059627294540405
1776870887654598100,4.38059814453125,-1.2987878322601318,-1.2185527086257935,-0.5588483214378357
1776870887664636400,4.390636474609375,-1.3917092084884644,-0.9566444158554077,-0.6052323579788208
1776870887674674200,4.400674072265625,-1.4093915224075317,-0.7178856134414673,-0.6165587902069092
1776870887684713500,4.41071337890625,-1.3121591806411743,-0.5636549592018127,-0.5973977446556091
1776870887694751200,4.420751220703125,-1.1256073713302612,-0.5279254913330078,-0.5518702268600464
1776870887704789500,4.43078955078125,-0.897657573223114,-0.5809486508369446,-0.4793682396411896
1776870887714828300,4.440828369140625,-0.6369794011116028,-0.6671208143234253,-0.3896404802799225
1776870887724866300,4.4508662109375,-0.3982749581336975,-0.7576532959938049,-0.30514150857925415
1776870887734904300,4.460904296875,-0.22252072393894196,-0.8189834952354431,-0.2327413558959961
1776870887744943400,4.470943359375,-0.11166824400424957,-0.8986771702766418,-0.18822091817855835
1776870887754981400,4.4809814453125,-0.06115926429629326,-0.9837396144866943,-0.1402089148759842
1776870887765019400,4.491019287109375,-0.08406950533390045,-1.047662615776062,-0.08069604635238647
1776870887775058200,4.50105810546875,-0.18540890514850616,-1.102565050125122,-0.007297733332961798
1776870887785096400,4.511096435546875,-0.39060506224632263,-1.13998281955719,0.06413491070270538
1776870887795134200,4.52113427734375,-0.6453678011894226,-1.1731942892074585,0.12385869026184082
1776870887805173500,4.531173583984375,-0.9002714157104492,-1.1891016960144043,0.1786154806613922
1776870887815211300,4.541211181640625,-1.1471307277679443,-1.1766424179077148,0.22218292951583862
1776870887825249300,4.551249267578125,-1.3290945291519165,-1.1550521850585938,0.24947893619537354
1776870887835288300,4.561288330078125,-1.3479055166244507,-1.0885908603668213,0.2853572964668274
1776870887845326300,4.571326416015625,-1.2026753425598145,-0.9905489087104797,0.3096812069416046
1776870887855364400,4.5813642578125,-0.9205296635627747,-0.8225303292274475,0.32404524087905884
1776870887865403400,4.5914033203125,-0.5591204762458801,-0.6030771136283875,0.3003517687320709
1776870887875441400,4.60144140625,-0.17345799505710602,-0.29007792472839355,0.24119339883327484
1776870887885479200,4.611479248046875,0.02731013484299183,0.059780728071928024,0.10601133853197098
1776870887895518200,4.621518310546875,-0.007294712122529745,0.2555302381515503,-0.027745390310883522
1776870887905556200,4.63155615234375,-0.1034967303276062,0.1887817680835724,-0.0957263931632042
1776870887915594200,4.64159423828125,-0.14317837357521057,0.029382266104221344,-0.11072638630867004
1776870887925633300,4.65163330078125,-0.12475007027387619,-0.11292754858732224,-0.09311819821596146
1776870887935671300,4.66167138671875,-0.09536848217248917,-0.1671050488948822,-0.0653504803776741
1776870887945709300,4.671709228515625,-0.06497123837471008,-0.14187097549438477,-0.03828520327806473
1776870887955748400,4.681748291015625,-0.05605657026171684,-0.07128975540399551,-0.026132669299840927
1776870887965786000,4.6917861328125,-0.05740729346871376,0.023715689778327942,-0.027204779908061028
1776870887975824400,4.701824462890625,-0.05191292613744736,0.12368490546941757,-0.03173934295773506
1776870887985863200,4.71186328125,-0.04830223321914673,0.2279040664434433,-0.05024263262748718
1776870887995901400,4.7219013671875,-0.05783768370747566,0.32862216234207153,-0.08759106695652008
1776870888005939200,4.731939208984375,-0.08601532131433487,0.4071262776851654,-0.14955855906009674
1776870888015978200,4.741978271484375,-0.1268053650856018,0.4670191705226898,-0.21610403060913086
1776870888026016300,4.752016357421875,-0.17720003426074982,0.4865891635417938,-0.27068179845809937
1776870888036054300,4.76205419921875,-0.21953710913658142,0.462705135345459,-0.29370084404945374
1776870888046093300,4.77209326171875,-0.2613976299762726,0.3966863453388214,-0.27885645627975464
1776870888056131300,4.78213134765625,-0.31561586260795593,0.3172932267189026,-0.23809543251991272
1776870888066169300,4.79216943359375,-0.3715153932571411,0.2443574219942093,-0.1810322403907776
1776870888076208400,4.80220849609375,-0.42568036913871765,0.20207521319389343,-0.11781065911054611
1776870888086246100,4.81224609375,-0.46467429399490356,0.18930348753929138,-0.052848439663648605
1776870888096284400,4.822284423828125,-0.49758777022361755,0.1993902027606964,0.0026968426536768675
1776870888106323200,4.8323232421875,-0.519960880279541,0.21079200506210327,0.04041626304388046
1776870888116361500,4.842361572265625,-0.534321665763855,0.20413702726364136,0.06591416150331497
1776870888126399200,4.852399169921875,-0.5404509902000427,0.16621769964694977,0.08929415047168732
1776870888136438300,4.862438232421875,-0.5325976014137268,0.10087491571903229,0.12145660817623138
1776870888146476300,4.872476318359375,-0.48549050092697144,0.013861371204257011,0.18075445294380188
1776870888156514300,4.882514404296875,-0.3902910351753235,-0.08442258834838867,0.28578686714172363
1776870888166553300,4.89255322265625,-0.2654048502445221,-0.19216404855251312,0.4280610978603363
1776870888176591400,4.90259130859375,-0.13754701614379883,-0.3070722818374634,0.5940391421318054
1776870888186629400,4.91262939453125,-0.0380883552134037,-0.4265170991420746,0.7600170373916626
1776870888196668400,4.92266845703125,0.010814737528562546,-0.5407997369766235,0.9110366702079773
1776870888206706200,4.9327060546875,-0.004008136689662933,-0.6304226517677307,1.0332708358764648
1776870888216744400,4.942744384765625,-0.06694262474775314,-0.6533221006393433,1.1200333833694458
1776870888226783200,4.952783203125,-0.12548936903476715,-0.5659759044647217,1.1265233755111694
1776870888236821500,4.962821533203125,-0.13694415986537933,-0.3765793442726135,1.0440458059310913
1776870888246859300,4.972859375,-0.09487950801849365,-0.12856490910053253,0.8818711042404175
1776870888256898300,4.982898193359375,-0.023747537285089493,0.13727182149887085,0.6666362881660461
1776870888266936300,4.992936279296875,0.05738886073231697,0.3687545955181122,0.4234923720359802
1776870888276974000,5.00297412109375,0.11851771920919418,0.5118792057037354,0.1706097573041916
1776870888287013400,5.013013427734375,0.15621697902679443,0.5338943004608154,-0.06741318851709366
1776870888297051100,5.023051025390625,0.18523451685905457,0.4222838282585144,-0.27523481845855713
1776870888307089400,5.03308935546875,0.19284822046756744,0.20584215223789215,-0.4586884379386902
1776870888317127200,5.043127197265625,0.17883199453353882,-0.08356248587369919,-0.6032589673995972
1776870888327166200,5.053166259765625,0.15418431162834167,-0.42150598764419556,-0.6962465047836304
1776870888337204200,5.063204345703125,0.12226393818855286,-0.7509956955909729,-0.7442353367805481
1776870888347243300,5.0732431640625,0.06593051552772522,-1.0272886753082275,-0.7368232607841492
1776870888357281300,5.08328125,-0.005693863611668348,-1.2390491962432861,-0.6711286902427673
1776870888367319300,5.0933193359375,-0.0630602017045021,-1.3641431331634521,-0.5602238774299622
1776870888377357300,5.103357421875,-0.1148054227232933,-1.3834953308105469,-0.40527233481407166
1776870888387396400,5.113396240234375,-0.14847387373447418,-1.29762601852417,-0.2126649171113968
1776870888397434000,5.12343408203125,-0.19335293769836426,-1.0883429050445557,-0.028798140585422516
1776870888407472400,5.133472412109375,-0.23470601439476013,-0.7742832899093628,0.14050425589084625
1776870888417511200,5.14351123046875,-0.24844978749752045,-0.34844890236854553,0.26496121287345886
1776870888427549400,5.153549560546875,-0.21738629043102264,0.13172142207622528,0.33722954988479614
1776870888437587200,5.163587158203125,-0.15853655338287354,0.5642853379249573,0.3822023570537567
1776870888447626200,5.173626220703125,-0.10354797542095184,0.8639505505561829,0.405000239610672
1776870888457664300,5.183664306640625,-0.08347280323505402,0.9723811745643616,0.41762951016426086
1776870888467702300,5.193702392578125,-0.08691421896219254,0.8978142738342285,0.43106257915496826
1776870888477741300,5.2037412109375,-0.07281863689422607,0.7322149276733398,0.4467022716999054
1776870888487779300,5.213779296875,-0.033633630722761154,0.5577946901321411,0.46214592456817627
1776870888497817300,5.2238173828125,0.011320528574287891,0.40919989347457886,0.4598204493522644
1776870888507856100,5.233856201171875,0.04311266168951988,0.2875877916812897,0.4440346360206604
1776870888517894100,5.24389404296875,0.049104243516922,0.17557977139949799,0.40711551904678345
1776870888527932000,5.253931884765625,0.038136761635541916,0.03441884368658066,0.3512958288192749
1776870888537971000,5.263970947265625,0.02029624581336975,-0.13085933029651642,0.26810508966445923
1776870888548009000,5.274009033203125,0.013015393167734146,-0.28788071870803833,0.17234091460704803
1776870888558047000,5.284046875,0.004402730613946915,-0.378978431224823,0.0764860287308693
1776870888568086000,5.2940859375,-0.0024133864790201187,-0.37906381487846375,-0.014070948585867882
1776870888578124000,5.3041240234375,-0.00034863781183958054,-0.3022302985191345,-0.09439774602651596
1776870888588162000,5.314162109375,0.02155066654086113,-0.2001742273569107,-0.1378147304058075
1776870888598201000,5.324201171875,0.04952717199921608,-0.08809509873390198,-0.13071207702159882
1776870888608238800,5.33423876953125,0.0624883733689785,0.019122444093227386,-0.08742693066596985
1776870888618277000,5.344277099609375,0.056334611028432846,0.09335459023714066,-0.015964195132255554
1776870888628316000,5.35431591796875,0.04183657467365265,0.13724447786808014,0.05164351314306259
1776870888638354200,5.364354248046875,0.03165264427661896,0.1571233719587326,0.08374419063329697
1776870888648392000,5.374391845703125,0.02946764975786209,0.15097926557064056,0.09776370972394943
1776870888658431000,5.384430908203125,0.034673597663640976,0.13671058416366577,0.08498399704694748
1776870888668469000,5.394468994140625,0.03544219583272934,0.1181780993938446,0.05007944256067276
1776870888678507000,5.404507080078125,0.03425948694348335,0.10009283572435379,0.0013856749283149838
1776870888688546000,5.414546142578125,0.03682988882064819,0.08614833652973175,-0.06814750283956528
1776870888698584000,5.424583984375,0.04247152805328369,0.06815256178379059,-0.13676276803016663
1776870888708622000,5.4346220703125,0.05632622167468071,0.0598677396774292,-0.20424595475196838
1776870888718661000,5.4446611328125,0.0720636397600174,0.05752255767583847,-0.260869562625885
1776870888728699000,5.454698974609375,0.07980398833751678,0.058067433536052704,-0.29227006435394287
1776870888738737200,5.464737060546875,0.07766599953174591,0.04208340868353844,-0.303317666053772
1776870888748776000,5.47477587890625,0.06395640224218369,0.0223317239433527,-0.3051401376724243
1776870888758814200,5.484814208984375,0.041203949600458145,0.015575016848742962,-0.293130099773407
1776870888768852000,5.49485205078125,0.020729418843984604,0.015518909320235252,-0.28196418285369873
1776870888778891000,5.50489111328125,0.006784574128687382,0.011024558916687965,-0.26003357768058777
1776870888788929000,5.514928955078125,0.0014309342950582504,-0.0007723611779510975,-0.2329249083995819
1776870888798967000,5.524967041015625,-0.002537442371249199,-0.03375454619526863,-0.20095738768577576
1776870888809006000,5.535006103515625,-0.009795848280191422,-0.08227111399173737,-0.1662009209394455
1776870888819044000,5.545044189453125,-0.02626962959766388,-0.13931256532669067,-0.12926074862480164
1776870888829082000,5.55508203125,-0.04663322493433952,-0.2019338756799698,-0.08689092099666595
1776870888839121200,5.56512109375,-0.06706233322620392,-0.2358982264995575,-0.04255141690373421
1776870888849159000,5.575158935546875,-0.07772509753704071,-0.22867360711097717,-0.0035017484333366156
1776870888859197000,5.585197021484375,-0.07354632765054703,-0.1731743961572647,0.024018824100494385
1776870888869236000,5.595236083984375,-0.06963703036308289,-0.10692311078310013,0.0365205854177475
1776870888879274200,5.605274169921875,-0.06448541581630707,-0.0604964904487133,0.037534985691308975
1776870888889312000,5.61531201171875,-0.0750349760055542,-0.042619843035936356,0.026671595871448517
1776870888899351000,5.62535107421875,-0.08665540814399719,-0.05442776530981064,0.00537269888445735
1776870888909389000,5.63538916015625,-0.09490802884101868,-0.06840315461158752,-0.025221871212124825
1776870888919426800,5.6454267578125,-0.09098014235496521,-0.07818041741847992,-0.05988451465964317
1776870888929466000,5.655466064453125,-0.090040422976017,-0.07149277627468109,-0.09422899037599564
1776870888939503900,5.66550390625,-0.08495617657899857,-0.06723491847515106,-0.12448915094137192
1776870888949542100,5.675542236328125,-0.08733494579792023,-0.08246596902608871,-0.15093585848808289
1776870888959581200,5.685581298828125,-0.09072168916463852,-0.11446491628885269,-0.1697436422109604
1776870888969619000,5.695618896484375,-0.10210442543029785,-0.15582726895809174,-0.18048548698425293
1776870888979657000,5.705656982421875,-0.11424630880355835,-0.1777876913547516,-0.17677916586399078
1776870888989696000,5.715696044921875,-0.12342873960733414,-0.18892298638820648,-0.16017818450927734
1776870888999734000,5.725734130859375,-0.13261157274246216,-0.171922966837883,-0.13253536820411682
1776870889009772000,5.73577197265625,-0.13943606615066528,-0.13734981417655945,-0.11937003582715988
1776870889019810800,5.745810791015625,-0.14190082252025604,-0.10464566946029663,-0.12308541685342789
1776870889029849000,5.75584912109375,-0.13858334720134735,-0.0838036760687828,-0.14505240321159363
1776870889039886800,5.765886962890625,-0.13321787118911743,-0.07788719981908798,-0.168954536318779
1776870889049926100,5.775926025390625,-0.1373615860939026,-0.09297090768814087,-0.18769210577011108
1776870889059964000,5.7859638671875,-0.14330896735191345,-0.10977412015199661,-0.19861984252929688
1776870889070002200,5.796002197265625,-0.15271706879138947,-0.1357872486114502,-0.19626951217651367
1776870889080041000,5.806041015625,-0.15628038346767426,-0.1630984991788864,-0.1746518462896347
1776870889090079000,5.816078857421875,-0.1463456153869629,-0.17845793068408966,-0.13920560479164124
1776870889100117000,5.826116943359375,-0.13392676413059235,-0.17729546129703522,-0.08929131180047989
1776870889110156000,5.836156005859375,-0.12131886929273605,-0.16712361574172974,-0.036891043186187744
1776870889120194000,5.846194091796875,-0.10832291096448898,-0.15070068836212158,0.01838100142776966
1776870889130232000,5.856232177734375,-0.08514390885829926,-0.1427995264530182,0.0505206473171711
1776870889140270800,5.866270751953125,-0.032616518437862396,-0.14672476053237915,0.06433366984128952
1776870889150309000,5.87630908203125,0.02802406996488571,-0.14764948189258575,0.04578518122434616
1776870889160347000,5.886346923828125,0.07924917340278625,-0.13520053029060364,-0.010282347910106182
1776870889170386200,5.89638623046875,0.12740455567836761,-0.12478634715080261,-0.08745551109313965
1776870889180424000,5.906423828125,0.1784576177597046,-0.1262950301170349,-0.16583846509456635
1776870889190462200,5.916462158203125,0.2200670838356018,-0.1451873928308487,-0.22095462679862976
1776870889200501000,5.9265009765625,0.2439955770969391,-0.16143028438091278,-0.25662580132484436
1776870889210539000,5.9365390625,0.2461915910243988,-0.15329070389270782,-0.2853566110134125
1776870889220577000,5.946576904296875,0.24477985501289368,-0.10651174932718277,-0.2975059449672699
1776870889230616000,5.956615966796875,0.25363561511039734,-0.03607948124408722,-0.2775736153125763
1776870889240654000,5.966654052734375,0.2603755295276642,0.055577199906110764,-0.24270989000797272
1776870889250692000,5.976692138671875,0.2514020800590515,0.1471727341413498,-0.19209058582782745
1776870889260731000,5.98673095703125,0.21414417028427124,0.2157222330570221,-0.14658088982105255
1776870889270769200,5.99676904296875,0.15671318769454956,0.27018192410469055,-0.1072511374950409
1776870889280807000,6.006806884765625,0.10036097466945648,0.3036021888256073,-0.0640336200594902
1776870889290845000,6.016844970703125,0.07223053276538849,0.355852335691452,0.0031760369893163443
1776870889300884000,6.026884033203125,0.0617254301905632,0.4248407483100891,0.08319204300642014
1776870889310922000,6.036921875,0.044144921004772186,0.4836057126522064,0.15134702622890472
1776870889320961000,6.0469609375,0.0003660116344690323,0.5033921599388123,0.2038901299238205
1776870889330999000,6.0569990234375,-0.05467476695775986,0.48545944690704346,0.2457999587059021
1776870889341037000,6.067037109375,-0.10904746502637863,0.43895211815834045,0.28260618448257446
1776870889351074800,6.07707470703125,-0.15938450396060944,0.36418449878692627,0.31854188442230225
1776870889361114000,6.087114013671875,-0.2030496895313263,0.26923373341560364,0.34964466094970703
1776870889371152000,6.09715185546875,-0.23688767850399017,0.15622304379940033,0.37808406352996826
1776870889381190100,6.107190185546875,-0.2525843381881714,0.03007814660668373,0.4078715145587921
1776870889391229000,6.11722900390625,-0.2591846287250519,-0.06801051646471024,0.42298075556755066
1776870889401267000,6.127266845703125,-0.25833240151405334,-0.14099843800067902,0.43135401606559753
1776870889411305000,6.137304931640625,-0.24515633285045624,-0.16960617899894714,0.4270036220550537
1776870889421344000,6.147343994140625,-0.2278367280960083,-0.15936046838760376,0.4190005660057068
1776870889431382000,6.157382080078125,-0.20483537018299103,-0.11763443797826767,0.397889107465744
1776870889441420000,6.167419921875,-0.17868472635746002,-0.07045920193195343,0.3609209656715393
1776870889451458800,6.177458740234375,-0.1366041898727417,-0.0323786623775959,0.30611762404441833
1776870889461497000,6.1874970703125,-0.0874214693903923,-0.016990385949611664,0.23394115269184113
1776870889471534800,6.197534912109375,-0.041458941996097565,-0.016093259677290916,0.13214360177516937
1776870889481574100,6.20757421875,0.0032494058832526207,0.02864651568233967,0.021293524652719498
1776870889491612000,6.21761181640625,0.05412650108337402,0.12023289501667023,-0.08016572147607803
1776870889501650200,6.227650146484375,0.11105503141880035,0.2353821098804474,-0.16167016327381134
1776870889511688200,6.237688232421875,0.15660561621189117,0.36004728078842163,-0.22428756952285767
1776870889521726500,6.2477265625,0.17864540219306946,0.4688725769519806,-0.2727874517440796
1776870889531764200,6.25776416015625,0.1870766282081604,0.5353989601135254,-0.3173135817050934
1776870889541803300,6.26780322265625,0.1835058629512787,0.5345951914787292,-0.3633473813533783
1776870889551841300,6.27784130859375,0.1893703192472458,0.47549787163734436,-0.4128093719482422
1776870889561879300,6.28787939453125,0.20930621027946472,0.37181568145751953,-0.4659426212310791
1776870889571918300,6.29791845703125,0.25267931818962097,0.24197505414485931,-0.5156974792480469
1776870889581956400,6.307956298828125,0.2935678958892822,0.10255750268697739,-0.5517886281013489
1776870889591994400,6.317994384765625,0.29727327823638916,-0.03262552246451378,-0.5770260095596313
1776870889602033400,6.328033447265625,0.28692981600761414,-0.15161609649658203,-0.5699028372764587
1776870889612071200,6.3380712890625,0.2748602032661438,-0.2514020800590515,-0.5419518947601318
1776870889622109400,6.348109375,0.26837992668151855,-0.31186115741729736,-0.4828166663646698
1776870889632148200,6.358148193359375,0.26490557193756104,-0.32147783041000366,-0.40079984068870544
1776870889642186500,6.3681865234375,0.25773048400878906,-0.29365259408950806,-0.2989850640296936
1776870889652224300,6.378224365234375,0.22644203901290894,-0.23266907036304474,-0.18770292401313782
1776870889662263300,6.38826318359375,0.168216273188591,-0.1443389356136322,-0.06929319351911545
1776870889672301300,6.39830126953125,0.09921251982450485,-0.047299813479185104,0.03559025377035141
1776870889682339000,6.408339111328125,0.019637804478406906,0.050837937742471695,0.11090445518493652
1776870889692378400,6.41837841796875,-0.05698954686522484,0.09309599548578262,0.1346556842327118
1776870889702416400,6.42841650390625,-0.14369595050811768,0.08547428995370865,0.09687953442335129
1776870889712454400,6.438454345703125,-0.24335937201976776,0.04291387274861336,0.007235493510961533
1776870889722493400,6.448493408203125,-0.3497127294540405,0.010731968097388744,-0.10800614207983017
1776870889732531200,6.45853125,-0.450749933719635,-0.013998404145240784,-0.21363884210586548
1776870889742569200,6.4685693359375,-0.5575421452522278,-0.04538295790553093,-0.29455873370170593
1776870889752608300,6.478608154296875,-0.6565309166908264,-0.10329517722129822,-0.3409237265586853
1776870889762646300,6.488646240234375,-0.7204577326774597,-0.21373113989830017,-0.33004310727119446
1776870889772684300,6.498684326171875,-0.7131041288375854,-0.38373783230781555,-0.24263399839401245
1776870889782723300,6.508723388671875,-0.6279293298721313,-0.5773395299911499,-0.08763881772756577
1776870889792761300,6.51876123046875,-0.4873490631580353,-0.7608582973480225,0.11327662318944931
1776870889802799000,6.528799072265625,-0.3085468113422394,-0.8691360354423523,0.3386596739292145
1776870889812838400,6.53883837890625,-0.1547328531742096,-0.8722864389419556,0.5341548323631287
1776870889822876200,6.548876220703125,-0.05061604455113411,-0.7944566011428833,0.6900983452796936
1776870889832914400,6.55891455078125,0.012259270064532757,-0.6718793511390686,0.7959945797920227
1776870889842953200,6.568953125,0.049354441463947296,-0.5559971928596497,0.8800255656242371
1776870889852991200,6.5789912109375,0.07098770141601562,-0.4803900718688965,0.9704670310020447
1776870889863029200,6.589029296875,0.08485690504312515,-0.5380823612213135,1.0198291540145874
1776870889873068300,6.599068359375,0.029540974646806717,-1.1165672540664673,0.8218520879745483
1776870889883106300,6.609106201171875,-0.052058279514312744,-1.6985318660736084,0.5153393149375916
1776870889893144300,6.619144287109375,0.011767162941396236,-1.8659110069274902,0.2012319415807724
1776870889903183000,6.62918310546875,0.1893818974494934,-1.5562982559204102,-0.04575040936470032
1776870889913221400,6.639221435546875,0.33068373799324036,-0.8650177717208862,-0.22886714339256287
1776870889923259100,6.649259033203125,0.4102318286895752,-0.06736904382705688,-0.3870288133621216
1776870889933298400,6.65929833984375,0.44479116797447205,0.5876752138137817,-0.5776804685592651
1776870889943336200,6.669336181640625,0.4379063844680786,0.9888402223587036,-0.8260548710823059
1776870889953374500,6.67937451171875,0.3950030505657196,1.1509824991226196,-1.1484315395355225
1776870889963413200,6.689413330078125,0.33911368250846863,1.1516914367675781,-1.4893018007278442
1776870889973451300,6.699451171875,0.34175360202789307,0.9798309803009033,-1.7524924278259277
1776870889983489300,6.7094892578125,0.4072103798389435,0.6981481909751892,-1.8614425659179688
1776870889993528300,6.7195283203125,0.4767574369907379,0.2324410229921341,-1.7800770998001099
1776870890003566300,6.72956640625,0.47617340087890625,-0.31341859698295593,-1.5397547483444214
1776870890013604400,6.739604248046875,0.40906384587287903,-0.7829574942588806,-1.1526844501495361
1776870890023643100,6.74964306640625,0.2701117992401123,-0.9775994420051575,-0.7042598128318787
1776870890033681400,6.759681396484375,0.0809573158621788,-0.8622538447380066,-0.24286141991615295
1776870890043719200,6.76971923828125,-0.0757334977388382,-0.5433650612831116,0.1763419657945633
1776870890053758500,6.779758544921875,-0.1175551563501358,-0.23128873109817505,0.5267850756645203
1776870890063796200,6.789796142578125,-0.1233467310667038,-0.05002627894282341,0.7991771697998047
1776870890073834500,6.79983447265625,-0.13464942574501038,0.0497310534119606,0.9991697669029236
1776870890083873300,6.809873291015625,-0.1552891880273819,0.10073618590831757,1.1366217136383057
1776870890093911300,6.819911376953125,-0.17739135026931763,0.11956177651882172,1.2085161209106445
1776870890103949300,6.82994921875,-0.1964217573404312,0.10698127001523972,1.2226769924163818
1776870890113987300,6.8399873046875,-0.2076621651649475,0.051766496151685715,1.1716766357421875
1776870890124026400,6.8500263671875,-0.18439705669879913,-0.07570198178291321,1.0505456924438477
1776870890134064000,6.860064208984375,-0.12831613421440125,-0.25484758615493774,0.8443028926849365
1776870890144103200,6.870103271484375,-0.059161558747291565,-0.4419730007648468,0.5662627220153809
1776870890154141400,6.880141357421875,0.01793413609266281,-0.572168231010437,0.25817155838012695
1776870890164179200,6.89017919921875,0.059834450483322144,-0.6349083185195923,-0.0033998426515609026
1776870890174218500,6.900218505859375,0.07251173257827759,-0.6404089331626892,-0.19684138894081116
1776870890184256300,6.91025634765625,0.08843903988599777,-0.5963695645332336,-0.3081154525279999
1776870890194294300,6.920294189453125,0.1161390095949173,-0.5265764594078064,-0.37253233790397644
1776870890204332300,6.930332275390625,0.1346501111984253,-0.4674258232116699,-0.40445804595947266
1776870890214371300,6.940371337890625,0.14788828790187836,-0.4258430302143097,-0.39908120036125183
1776870890224409300,6.950409423828125,0.154279887676239,-0.38246122002601624,-0.33480846881866455
1776870890234448100,6.9604482421875,0.17313307523727417,-0.33526867628097534,-0.21517449617385864
1776870890244486400,6.970486328125,0.19209398329257965,-0.25605908036231995,-0.07717987895011902
1776870890254524200,6.980524169921875,0.1749391406774521,-0.14932489395141602,0.02249797061085701
1776870890264562400,6.9905625,0.1327538788318634,-0.047472286969423294,0.0425419844686985
1776870890274601200,7.000601318359375,0.06823907792568207,0.02609832212328911,-0.02987654320895672
1776870890284639200,7.01063916015625,0.012749185785651207,0.059565469622612,-0.17295967042446136
1776870890294677200,7.02067724609375,-0.011907469481229782,0.051966581493616104,-0.3487701714038849
1776870890304716300,7.03071630859375,-0.006181939039379358,-0.008712745271623135,-0.5115772485733032
1776870890314754300,7.04075439453125,0.00507599301636219,-0.09707491099834442,-0.6150475144386292
1776870890324792300,7.050792236328125,-0.028578108176589012,-0.16980983316898346,-0.668179988861084
1776870890334831400,7.060831298828125,-0.10088279098272324,-0.2092222422361374,-0.6963858008384705
1776870890344869400,7.070869384765625,-0.18381468951702118,-0.23838944733142853,-0.7068935632705688
1776870890354907400,7.080907470703125,-0.2487778216600418,-0.2689434289932251,-0.7255440354347229
1776870890364946400,7.090946533203125,-0.29297298192977905,-0.29990240931510925,-0.7514914870262146
1776870890374984200,7.100984130859375,-0.32988211512565613,-0.3126935064792633,-0.7876051664352417
1776870890385022500,7.1110224609375,-0.3615819811820984,-0.30136173963546753,-0.8205671310424805
1776870890395061200,7.121061279296875,-0.3966541290283203,-0.2707768380641937,-0.8384602665901184
1776870890405099300,7.131099365234375,-0.4488970935344696,-0.24609467387199402,-0.8261852264404297
1776870890415137300,7.14113720703125,-0.5080814361572266,-0.24796590209007263,-0.7859364151954651
1776870890425176300,7.15117626953125,-0.5484067797660828,-0.3050427734851837,-0.7305810451507568
1776870890435214300,7.16121435546875,-0.5492666959762573,-0.41421806812286377,-0.6529225707054138
1776870890445252400,7.17125244140625,-0.5151992440223694,-0.550112783908844,-0.5658276081085205
1776870890455291400,7.18129150390625,-0.4685637652873993,-0.6818453669548035,-0.47155335545539856
1776870890465329400,7.191329345703125,-0.421069473028183,-0.7659741044044495,-0.37272319197654724
1776870890475367400,7.201367431640625,-0.38812145590782166,-0.7630741000175476,-0.2788671851158142
1776870890485406500,7.211406494140625,-0.380394846200943,-0.6976493000984192,-0.1807379573583603
1776870890495444200,7.2214443359375,-0.38233447074890137,-0.6008411645889282,-0.08610139042139053
1776870890505482200,7.231482177734375,-0.37960365414619446,-0.4960174858570099,0.0023147594183683395
1776870890515521500,7.241521484375,-0.3630272150039673,-0.35779669880867004,0.055303510278463364
1776870890525559600,7.2515595703125,-0.321992963552475,-0.18540576100349426,0.03660758584737778
1776870890535597600,7.26159765625,-0.2787933945655823,0.017722416669130325,-0.03916006162762642
1776870890545636400,7.27163623046875,-0.2561626434326172,0.20121021568775177,-0.1366461217403412
1776870890555674600,7.281674560546875,-0.2406216263771057,0.33345720171928406,-0.2338578999042511
1776870890565712400,7.29171240234375,-0.2169826179742813,0.3759319484233856,-0.3407750129699707
1776870890575751400,7.30175146484375,-0.18889988958835602,0.32349875569343567,-0.4541248679161072
1776870890585789400,7.31178955078125,-0.15268568694591522,0.1798800826072693,-0.5628824830055237
1776870890595827500,7.321827392578125,-0.1238613873720169,-0.03620739281177521,-0.6410901546478271
1776870890605866500,7.331866455078125,-0.11572091281414032,-0.284003883600235,-0.6797158122062683
1776870890615904500,7.341904541015625,-0.14662854373455048,-0.5051097273826599,-0.6767725944519043
1776870890625942500,7.351942626953125,-0.2101326882839203,-0.6748063564300537,-0.6428950428962708
1776870890635981600,7.361981689453125,-0.2825922966003418,-0.7472829222679138,-0.6051660180091858
1776870890646019600,7.37201953125,-0.3283166289329529,-0.7138924598693848,-0.5561793446540833
1776870890656057600,7.3820576171875,-0.3352893888950348,-0.5847963690757751,-0.5119967460632324
1776870890666096400,7.392096435546875,-0.31029748916625977,-0.41460707783699036,-0.4603455662727356
1776870890676134700,7.402134765625,-0.29183000326156616,-0.26082488894462585,-0.4188358187675476
1776870890686172400,7.41217236328125,-0.2866741120815277,-0.18929344415664673,-0.34620022773742676
1776870890696211500,7.42221142578125,-0.28958287835121155,-0.17281416058540344,-0.25495776534080505
1776870890706249500,7.43224951171875,-0.3037775158882141,-0.19813069701194763,-0.16516876220703125
1776870890716287500,7.44228759765625,-0.323555052280426,-0.24995172023773193,-0.09291073679924011
1776870890726326500,7.452326416015625,-0.3378061354160309,-0.3420230448246002,-0.06395205855369568
1776870890736364500,7.462364501953125,-0.35095101594924927,-0.47315993905067444,-0.07854875177145004
1776870890746402600,7.472402587890625,-0.3629661202430725,-0.6137735247612,-0.13353291153907776
1776870890756441600,7.482441650390625,-0.35404443740844727,-0.7059726119041443,-0.21836170554161072
1776870890766479600,7.492479736328125,-0.3242513835430145,-0.7067041993141174,-0.3036888539791107
1776870890776517600,7.502517578125,-0.2795625925064087,-0.595894992351532,-0.38588985800743103
1776870890786556400,7.512556396484375,-0.23056656122207642,-0.4071536064147949,-0.438416987657547
1776870890796594700,7.5225947265625,-0.19284318387508392,-0.21009351313114166,-0.4448290765285492
1776870890806632400,7.532632568359375,-0.1740356683731079,-0.05471191555261612,-0.404938668012619
1776870890816671500,7.54267138671875,-0.16036880016326904,0.04331912100315094,-0.37082135677337646
1776870890826709500,7.55270947265625,-0.16379496455192566,0.1050109788775444,-0.358641117811203
1776870890836747500,7.56274755859375,-0.16533462703227997,0.14243434369564056,-0.3668243885040283
1776870890846786600,7.57278662109375,-0.16678498685359955,0.15506279468536377,-0.3790128827095032
1776870890856824600,7.582824462890625,-0.15909522771835327,0.1329611986875534,-0.3904242515563965
1776870890866862600,7.592862548828125,-0.14912036061286926,0.08882090449333191,-0.38397327065467834
1776870890876901600,7.602901611328125,-0.1456979364156723,0.03960862010717392,-0.3516848385334015
1776870890886939600,7.612939697265625,-0.1500639170408249,-0.004356706980615854,-0.3018645644187927
1776870890896977400,7.622977294921875,-0.1511562168598175,-0.03684913367033005,-0.2452351152896881
1776870890907016400,7.633016357421875,-0.14421655237674713,-0.056212976574897766,-0.1879960596561432
1776870890917054500,7.643054443359375,-0.12161827087402344,-0.04413403198122978,-0.15596869587898254
1776870890927092500,7.653092529296875,-0.10215483605861664,-0.04888005182147026,-0.15060003101825714
1776870890937131500,7.663131591796875,-0.10711797326803207,-0.06521667540073395,-0.17411760985851288
1776870890947169500,7.67316943359375,-0.1232929453253746,-0.094605453312397,-0.2124761939048767
1776870890957207600,7.68320751953125,-0.1397063434123993,-0.09706434607505798,-0.2350856363773346
1776870890967246600,7.69324658203125,-0.14569446444511414,-0.04762887954711914,-0.24215206503868103
1776870890977284400,7.703284423828125,-0.12643593549728394,0.04079257696866989,-0.2314211130142212
1776870890987322600,7.713322509765625,-0.08603338897228241,0.1262584775686264,-0.20783455669879913
1776870890997361400,7.723361328125,-0.06013767048716545,0.16449907422065735,-0.20466379821300507
1776870891007399700,7.733399658203125,-0.05561003088951111,0.1570291817188263,-0.2177327275276184
1776870891017437400,7.7434375,-0.07200223952531815,0.09916499257087708,-0.23363615572452545
1776870891027476500,7.7534765625,-0.1006903424859047,0.014188053086400032,-0.2508702576160431
1776870891037514500,7.763514404296875,-0.13195553421974182,-0.051127221435308456,-0.26183176040649414
1776870891047552500,7.773552490234375,-0.13956844806671143,-0.0731012374162674,-0.2639247477054596
1776870891057591600,7.783591552734375,-0.12992025911808014,-0.05279764533042908,-0.2519456446170807
1776870891067629600,7.793629638671875,-0.11295992136001587,-0.017988797277212143,-0.23761998116970062
1776870891077667600,7.80366748046875,-0.10011831670999527,0.006806391756981611,-0.2192227691411972
1776870891087706600,7.81370654296875,-0.09872522205114365,-0.002198821399360895,-0.18096007406711578
1776870891097744400,7.823744384765625,-0.09940151870250702,-0.031859781593084335,-0.11596029996871948
1776870891107782700,7.83378271484375,-0.0941241979598999,-0.07888960838317871,-0.03969429060816765
1776870891117821400,7.843821533203125,-0.09236067533493042,-0.13512031733989716,0.030790621414780617
1776870891127859700,7.853859619140625,-0.08842159062623978,-0.188461571931839,0.06631479412317276
1776870891137897500,7.8638974609375,-0.08893771469593048,-0.22660574316978455,0.05432337149977684
1776870891147936500,7.8739365234375,-0.09315083920955658,-0.22428320348262787,0.006732153706252575
1776870891157974500,7.883974609375,-0.08475152403116226,-0.1657329797744751,-0.030170654878020287
1776870891168012500,7.894012451171875,-0.05900168418884277,-0.077088862657547,-0.024571094661951065
1776870891178051600,7.904051513671875,-0.02506268583238125,-0.0106075843796134,0.012153109535574913
1776870891188089600,7.914089599609375,0.0009076613932847977,-0.007559862919151783,0.058186911046504974
1776870891198127600,7.924127685546875,0.009691702201962471,-0.035415999591350555,0.07776141166687012
1776870891208166700,7.934166748046875,0.009235503152012825,-0.06048087030649185,0.07453738898038864
1776870891218204400,7.944204345703125,0.005574491806328297,-0.06885269284248352,0.06910169869661331
1776870891228242700,7.95424267578125,0.0013677636161446571,-0.04556360840797424,0.06357936561107635
1776870891238281500,7.964281494140625,0.006512918509542942,0.001281137578189373,0.06619538366794586
1776870891248319700,7.97431982421875,0.026699144393205643,0.07931894063949585,0.07425783574581146
1776870891258357500,7.984357421875,0.047653522342443466,0.15625330805778503,0.06959322839975357
1776870891268396500,7.994396484375,0.06674759089946747,0.18780778348445892,0.061255402863025665
1776870891278434600,8.0044345703125,0.07644573599100113,0.14365185797214508,0.05366148427128792
1776870891288472300,8.014472412109376,0.08840519189834595,0.07186128199100494,0.06522919237613678
1776870891298511600,8.02451171875,0.09228235483169556,0.021936867386102676,0.09211727231740952
1776870891308549400,8.03454931640625,0.09224134683609009,0.024941977113485336,0.11675657331943512
1776870891318587600,8.044587646484375,0.09858658909797668,0.07713141292333603,0.13775692880153656
1776870891328626700,8.054626708984374,0.1252453625202179,0.149766206741333,0.1695585399866104
1776870891338664400,8.06466455078125,0.16025353968143463,0.20007634162902832,0.22815456986427307
1776870891348702500,8.074702392578125,0.19637638330459595,0.21239319443702698,0.2937069535255432
1776870891358741500,8.084741455078126,0.22963514924049377,0.1924966275691986,0.35588714480400085
1776870891368779500,8.094779541015624,0.24361222982406616,0.15988169610500336,0.3755873441696167
1776870891378817500,8.104817626953125,0.23895548284053802,0.14115160703659058,0.34726476669311523
1776870891388856300,8.114856201171875,0.2283926010131836,0.1258583962917328,0.29190191626548767
1776870891398894600,8.12489453125,0.22867587208747864,0.10197393596172333,0.26219046115875244
1776870891408932400,8.134932373046874,0.24546444416046143,0.07012146711349487,0.27416136860847473
1776870891418971600,8.1449716796875,0.259915828704834,0.04868408292531967,0.3177783489227295
1776870891429009400,8.155009521484375,0.2625049352645874,0.044856585562229156,0.3523597717285156
1776870891439047700,8.165047607421876,0.2601531744003296,0.06134340912103653,0.3774920105934143
1776870891449086500,8.17508642578125,0.2623380422592163,0.10114168375730515,0.3845917284488678
1776870891459124500,8.18512451171875,0.2832295298576355,0.15448692440986633,0.41427481174468994
1776870891469162500,8.19516259765625,0.31462767720222473,0.18361684679985046,0.4613512456417084
1776870891479201500,8.205201416015624,0.3413238823413849,0.17242677509784698,0.5200819373130798
1776870891489239600,8.215239501953125,0.34637880325317383,0.12754452228546143,0.5573469996452332
1776870891499277600,8.225277587890625,0.3437405228614807,0.07906770706176758,0.5574294328689575
1776870891509317000,8.235317138671874,0.33670923113822937,0.05470803752541542,0.5481421947479248
1776870891519355400,8.24535546875,0.3460537791252136,0.057517487555742264,0.5613651871681213
1776870891529393200,8.25539306640625,0.3637230694293976,0.09495966881513596,0.5945364832878113
1776870891539432200,8.26543212890625,0.3733171820640564,0.15481218695640564,0.6335965991020203
1776870891549470200,8.27547021484375,0.38141265511512756,0.22372867166996002,0.6744092702865601
1776870891559508200,8.28550830078125,0.38367414474487305,0.27297183871269226,0.6976261734962463
1776870891569547300,8.29554736328125,0.38466912508010864,0.28951674699783325,0.6952934861183167
1776870891579585300,8.305585205078126,0.38698142766952515,0.28064727783203125,0.6751631498336792
1776870891589623300,8.315623291015624,0.39080917835235596,0.2566564381122589,0.6508327722549438
1776870891599662300,8.325662353515625,0.3989110291004181,0.2295204997062683,0.6273970007896423
1776870891609700000,8.3357001953125,0.4060107469558716,0.19525760412216187,0.6146817207336426
1776870891619738400,8.34573828125,0.404541015625,0.17147716879844666,0.6239988207817078
1776870891629777200,8.355777099609375,0.40449389815330505,0.16465789079666138,0.6525468230247498
1776870891639815400,8.3658154296875,0.4043639302253723,0.18504679203033447,0.6899802088737488
1776870891649853200,8.375853271484376,0.4049370288848877,0.22032302618026733,0.7239110469818115
1776870891659892200,8.385892333984375,0.4067719578742981,0.25143247842788696,0.7226420640945435
1776870891669930200,8.39593017578125,0.39646658301353455,0.2714250683784485,0.6999511122703552
1776870891679968300,8.40596826171875,0.38849782943725586,0.2825660705566406,0.6597239971160889
1776870891690007300,8.41600732421875,0.38744163513183594,0.2840755581855774,0.6217369437217712
1776870891700045300,8.42604541015625,0.39151516556739807,0.2762012779712677,0.5918713212013245
1776870891710083300,8.436083251953125,0.4006687104701996,0.28143784403800964,0.5870688557624817
1776870891720122400,8.446122314453126,0.40384888648986816,0.3066510558128357,0.586224377155304
1776870891730160000,8.45616015625,0.40187227725982666,0.3432692587375641,0.5840185284614563
1776870891740198400,8.466198486328125,0.3864125907421112,0.3828575015068054,0.5808350443840027
1776870891750237200,8.4762373046875,0.36403751373291016,0.4187779426574707,0.5765944719314575
1776870891760275500,8.486275390625,0.3445483148097992,0.4499379098415375,0.569713294506073
1776870891770313200,8.496313232421874,0.3209007978439331,0.4700397253036499,0.558580219745636
1776870891780352300,8.506352294921875,0.3010142147541046,0.4820857346057892,0.548714816570282
1776870891790390300,8.516390380859375,0.2831699848175049,0.4893982410430908,0.5328540802001953
1776870891800428000,8.526427978515626,0.26407450437545776,0.4895813763141632,0.5180971622467041
1776870891810467300,8.53646728515625,0.24623800814151764,0.4869179427623749,0.4964456558227539
1776870891820505300,8.54650537109375,0.2247341424226761,0.4900446832180023,0.474685400724411
1776870891830543400,8.55654345703125,0.20244774222373962,0.49739792943000793,0.4445013999938965
1776870891840582400,8.56658251953125,0.17753639817237854,0.5043253302574158,0.41797447204589844
1776870891850620200,8.5766201171875,0.15828919410705566,0.5154810547828674,0.3936629891395569
1776870891860658200,8.586658203125,0.13466790318489075,0.5267544388771057,0.36832454800605774
1776870891870697200,8.596697265625,0.1094275414943695,0.5377324819564819,0.35949963331222534
1776870891880735200,8.6067353515625,0.08490560948848724,0.5401104688644409,0.36225131154060364
1776870891890773200,8.616773193359375,0.061030369251966476,0.5355775356292725,0.3781527578830719
1776870891900812000,8.62681201171875,0.04346562176942825,0.5319497585296631,0.3910190165042877
1776870891910850300,8.636850341796874,0.03325586020946503,0.5176102519035339,0.40781399607658386
1776870891920888000,8.64688818359375,0.009749574586749077,0.5046572685241699,0.40502867102622986
1776870891930927400,8.65692724609375,-0.028772518038749695,0.49808964133262634,0.3815792500972748
1776870891940965000,8.666965087890626,-0.05908570438623428,0.48100370168685913,0.34308627247810364
1776870891951003400,8.67700341796875,-0.07874143123626709,0.45658329129219055,0.2885327637195587
1776870891961042200,8.687042236328125,-0.06795447319746017,0.43521347641944885,0.22036375105381012
1776870891971080200,8.697080078125,-0.05213316157460213,0.411102831363678,0.1393200308084488
1776870891981118200,8.7071181640625,-0.039964914321899414,0.38854265213012695,0.051657285541296005
1776870891991157200,8.7171572265625,-0.02422563172876835,0.3613845407962799,-0.02664817124605179
1776870892001195300,8.7271953125,-0.008343806490302086,0.33436888456344604,-0.08904923498630524
1776870892011233300,8.7372333984375,0.013695981353521347,0.30994316935539246,-0.11698179692029953
1776870892021272000,8.74727197265625,0.028167858719825745,0.3036317825317383,-0.12581445276737213
1776870892031310300,8.757310302734375,0.027375034987926483,0.3294633626937866,-0.1195773258805275
1776870892041348000,8.76734814453125,0.028380226343870163,0.3773563802242279,-0.12027950584888458
1776870892051387400,8.777387451171874,0.04730145260691643,0.43272164463996887,-0.11258270591497421
1776870892061425200,8.787425048828124,0.07494713366031647,0.46817338466644287,-0.0964098572731018
1776870892071463400,8.79746337890625,0.08988480269908905,0.47597724199295044,-0.0804617777466774
1776870892081502200,8.807502197265626,0.0776124894618988,0.4691307842731476,-0.06897130608558655
1776870892091540200,8.817540283203124,0.04319086670875549,0.4506625533103943,-0.07729528844356537
1776870892101578200,8.827578125,0.006492734886705875,0.41588878631591797,-0.09344451129436493
1776870892111617300,8.8376171875,-0.005081629380583763,0.36181384325027466,-0.10725779831409454
1776870892121655300,8.8476552734375,0.004825367592275143,0.29125478863716125,-0.10227440297603607
1776870892131693300,8.857693359375,0.023562569171190262,0.20971520245075226,-0.09779150784015656
1776870892141732000,8.867732177734375,0.023775305598974228,0.13890381157398224,-0.09598225355148315
1776870892151770400,8.877770263671875,0.017614081501960754,0.08381578326225281,-0.09452524036169052
1776870892161808100,8.88780810546875,0.012808789499104023,0.05011329799890518,-0.09274162352085114
1776870892171847400,8.897847412109375,0.006629989482462406,0.028051404282450676,-0.09039431065320969
1776870892181885200,8.90788525390625,0.007316905073821545,0.0033579578157514334,-0.08426939696073532
1776870892191923500,8.91792333984375,0.008260195143520832,-0.030689755454659462,-0.07661707699298859
1776870892201962200,8.927962158203124,0.007010317407548428,-0.07990206032991409,-0.0637955367565155
1776870892212000300,8.938000244140625,-0.004415974952280521,-0.1258959174156189,-0.056305401027202606
1776870892222038300,8.948038330078125,-0.01148753147572279,-0.15125693380832672,-0.04843655601143837
1776870892232077300,8.958077392578126,-0.013396752066910267,-0.1541922688484192,-0.0345604233443737
1776870892242115300,8.968115234375,-0.0224803127348423,-0.11985595524311066,-0.01286800391972065
1776870892252153000,8.978153076171875,-0.02380443550646305,-0.06382650882005692,0.011724957264959812
1776870892262192000,8.988192138671875,-0.02446412295103073,0.005547068081796169,0.03043748065829277
1776870892272230400,8.99823046875,-0.01501203142106533,0.0514485128223896,0.04253435879945755
1776870892282268200,9.00826806640625,0.001516575925052166,0.05045159161090851,0.04925183206796646
1776870892292307500,9.018307373046875,0.013009180314838886,0.015700003132224083,0.05273817479610443
1776870892302345200,9.02834521484375,0.017784379422664642,-0.02880922332406044,0.03744674474000931
1776870892312383200,9.03838330078125,0.0287904255092144,-0.06619974225759506,0.022937845438718796
1776870892322422300,9.04842236328125,0.039747923612594604,-0.08913753181695938,0.012590650469064713
1776870892332460300,9.058460205078125,0.04902717471122742,-0.09702980518341064,0.007949027232825756
1776870892342498300,9.068498291015626,0.044447749853134155,-0.10221367329359055,0.0034112848807126284
1776870892352537000,9.078537109375,0.03087734803557396,-0.10081631690263748,0.008734411559998989
1776870892362575400,9.088575439453125,0.01633959636092186,-0.10247963666915894,0.008014381863176823
1776870892372613000,9.098613037109375,0.008356240577995777,-0.10219254344701767,-0.010339058935642242
1776870892382652200,9.108652099609374,0.008778468705713749,-0.10337363928556442,-0.03409020975232124
1776870892392690200,9.118690185546875,0.018214847892522812,-0.10699181258678436,-0.05446578934788704
1776870892402728200,9.128728271484375,0.036173466593027115,-0.09854178875684738,-0.06956926733255386
1776870892412767200,9.138767333984376,0.04444630816578865,-0.08457350730895996,-0.06648240238428116
1776870892422805200,9.14880517578125,0.04177342355251312,-0.048745736479759216,-0.051307182759046555
1776870892432843300,9.15884326171875,0.03289657086133957,-0.015545171685516834,-0.02316582389175892
1776870892442882300,9.16888232421875,0.023984745144844055,0.00740418303757906,0.006253933534026146
1776870892452920300,9.17892041015625,0.014044229872524738,0.021711749956011772,0.031767282634973526
1776870892462958300,9.188958251953125,0.0032911263406276703,0.019638465717434883,0.04088648781180382
1776870892472997000,9.1989970703125,-0.0020021721720695496,0.007940798066556454,0.05430269613862038
1776870892483035400,9.209035400390626,-0.005485652480274439,-0.018792016431689262,0.06397049874067307
1776870892493073200,9.2190732421875,-0.010879619047045708,-0.044247306883335114,0.07703543454408646
1776870892503112200,9.2291123046875,-0.011457790620625019,-0.05560888350009918,0.08072631061077118
1776870892513150000,9.23914990234375,-0.018395325168967247,-0.052867691963911057,0.07962429523468018
1776870892523188200,9.249188232421876,-0.02008947730064392,-0.038211602717638016,0.07528351992368698
1776870892533227000,9.25922705078125,-0.022169405594468117,-0.030930254608392715,0.07170822471380234
1776870892543265000,9.26926513671875,-0.02688606083393097,-0.03265172615647316,0.07105521857738495
1776870892553303000,9.279302978515625,-0.02671375311911106,-0.0321744903922081,0.06134027615189552
1776870892563342000,9.289342041015624,-0.016459587961435318,-0.030347555875778198,0.03779579699039459
1776870892573380000,9.299380126953125,-0.006968614645302296,-0.030822664499282837,-0.008432682603597641
1776870892583418000,9.309418212890625,0.00566368643194437,-0.03965210169553757,-0.04815932735800743
1776870892593457000,9.319456787109376,0.016922198235988617,-0.032711103558540344,-0.072740837931633
1776870892603495200,9.3294951171875,0.021633001044392586,-0.007739978842437267,-0.0732945054769516
1776870892613533000,9.339532958984375,0.029614495113492012,0.034906815737485886,-0.049080781638622284
1776870892623572200,9.349572265625,0.03209119290113449,0.07772050052881241,-0.021010348573327065
1776870892633610000,9.35960986328125,0.028484206646680832,0.10626532882452011,0.0007016037125140429
1776870892643648300,9.369648193359374,0.017357345670461655,0.11919355392456055,0.006252877414226532
1776870892653687000,9.37968701171875,0.010582264512777328,0.10068698227405548,0.0011452004546299577
1776870892663725000,9.38972509765625,0.003503907471895218,0.059081755578517914,-0.010886968113481998
1776870892673763000,9.39976318359375,0.0022913701832294464,0.0010964835528284311,-0.022067982703447342
1776870892683802000,9.409802001953125,-0.0012896964326500893,-0.03305970877408981,-0.03179527074098587
1776870892693840100,9.419840087890625,-0.011454449966549873,-0.035599831491708755,-0.03674555569887161
1776870892703878100,9.429878173828126,-0.0225358959287405,-0.008973121643066406,-0.031123435124754906
1776870892713917000,9.4399169921875,-0.0314449705183506,0.02601468935608864,-0.016421984881162643
1776870892723955200,9.449955078125,-0.035449616611003876,0.049128457903862,-0.000189582584425807
1776870892733993000,9.459992919921875,-0.04061508551239967,0.049405958503484726,0.0015025899047031999
1776870892744032300,9.4700322265625,-0.0463687963783741,0.027568385004997253,-0.00791851431131363
1776870892754070000,9.480070068359375,-0.050068724900484085,-0.0060500288382172585,-0.021806634962558746
1776870892764108000,9.49010791015625,-0.048103462904691696,-0.04227346181869507,-0.03801320865750313
1776870892774147000,9.50014697265625,-0.047385476529598236,-0.06202239915728569,-0.03508772701025009
1776870892784185000,9.51018505859375,-0.05045541003346443,-0.06375247985124588,-0.022873226553201675
1776870892794223000,9.52022314453125,-0.055937260389328,-0.04945050925016403,-0.0011895031202584505
1776870892804262100,9.53026220703125,-0.061909981071949005,-0.020359816029667854,0.005031284410506487
1776870892814300200,9.540300048828126,-0.06403890997171402,0.00797382090240717,0.006394024007022381
1776870892824338000,9.550337890625,-0.06161116808652878,0.01987781934440136,-0.004680038429796696
1776870892834377000,9.560376953125,-0.059722982347011566,0.014695309102535248,-0.011738214641809464
1776870892844415000,9.5704150390625,-0.05659326910972595,0.0061294035986065865,-0.021441780030727386
1776870892854453000,9.580452880859376,-0.05917626991868019,-0.012337753549218178,-0.029071737080812454
1776870892864492300,9.5904921875,-0.07155967503786087,-0.0371028408408165,-0.03577180579304695
1776870892874530000,9.600530029296875,-0.09209638088941574,-0.06764450669288635,-0.051978468894958496
1776870892884568000,9.610568115234376,-0.11006360501050949,-0.09893078356981277,-0.0789022445678711
1776870892894607000,9.620607177734374,-0.12730011343955994,-0.12564948201179504,-0.10804548114538193
1776870892904644900,9.630644775390625,-0.1419856995344162,-0.15422867238521576,-0.12494482845067978
1776870892914683100,9.64068310546875,-0.15037785470485687,-0.18414050340652466,-0.12852543592453003
1776870892924722000,9.650721923828126,-0.15735889971256256,-0.2167058140039444,-0.10566318035125732
1776870892934760200,9.66076025390625,-0.1553969383239746,-0.24613453447818756,-0.07447383552789688
1776870892944798000,9.6707978515625,-0.15690629184246063,-0.263902872800827,-0.044626735150814056
1776870892954837000,9.6808369140625,-0.16775068640708923,-0.2663428783416748,-0.03663911670446396
1776870892964875000,9.690875,-0.18468622863292694,-0.26322439312934875,-0.0511811189353466
1776870892974913000,9.7009130859375,-0.19919486343860626,-0.27042636275291443,-0.08552630990743637
1776870892984952000,9.7109521484375,-0.21361547708511353,-0.28148114681243896,-0.13321873545646667
1776870892994990000,9.720989990234376,-0.21667492389678955,-0.2977810502052307,-0.1829250305891037
1776870893005028000,9.731028076171874,-0.21607647836208344,-0.30319276452064514,-0.22935450077056885
1776870893015067100,9.741067138671875,-0.21908850967884064,-0.2996981739997864,-0.26295480132102966
1776870893025105000,9.75110498046875,-0.21931004524230957,-0.2849659025669098,-0.28227531909942627
1776870893035143200,9.76114306640625,-0.22050634026527405,-0.2779040038585663,-0.28845465183258057
1776870893045182000,9.771181884765625,-0.23754741251468658,-0.27286145091056824,-0.28805431723594666
1776870893055220200,9.78122021484375,-0.26162078976631165,-0.2844986915588379,-0.28817814588546753
1776870893065258000,9.791258056640626,-0.29003286361694336,-0.312430202960968,-0.2986491322517395
1776870893075297000,9.801297119140624,-0.3140527009963989,-0.3338742256164551,-0.3260570466518402
1776870893085335000,9.8113349609375,-0.3221050500869751,-0.3463284969329834,-0.3523746728897095
1776870893095373000,9.821373046875,-0.3068174421787262,-0.34339451789855957,-0.3757825493812561
1776870893105412000,9.831412109375,-0.2845207452774048,-0.32505002617836,-0.3898388743400574
1776870893115450000,9.8414501953125,-0.27248457074165344,-0.3222412168979645,-0.4018457531929016
1776870893125488000,9.851488037109375,-0.2915869653224945,-0.3419738709926605,-0.4073185324668884
1776870893135527200,9.861527099609376,-0.33133944869041443,-0.38303130865097046,-0.42814287543296814
1776870893145565000,9.87156494140625,-0.37228941917419434,-0.43725982308387756,-0.4556684195995331
1776870893155603200,9.881603271484375,-0.3978933095932007,-0.4839487671852112,-0.49557214975357056
1776870893165642000,9.89164208984375,-0.3943333625793457,-0.5281140208244324,-0.5334347486495972
1776870893175680300,9.90168017578125,-0.38127535581588745,-0.5557770729064941,-0.5528503060340881
1776870893185718000,9.911718017578124,-0.3670201599597931,-0.5559071898460388,-0.55595862865448
1776870893195757000,9.921757080078125,-0.34900227189064026,-0.5253737568855286,-0.5435067415237427
1776870893205795000,9.931795166015625,-0.338637113571167,-0.47795000672340393,-0.5070328116416931
1776870893215832800,9.941832763671876,-0.3385971784591675,-0.42649346590042114,-0.4427398145198822
1776870893225872100,9.9518720703125,-0.35558491945266724,-0.39555689692497253,-0.3694906532764435
1776870893235910100,9.96191015625,-0.37794163823127747,-0.4034867286682129,-0.3094014823436737
1776870893245948200,9.9719482421875,-0.3857804536819458,-0.45593923330307007,-0.2727113664150238
1776870893255987200,9.9819873046875,-0.39163196086883545,-0.5391066074371338,-0.2618675231933594
1776870893266025000,9.99202490234375,-0.38146087527275085,-0.6275681257247925,-0.2665987014770508
1776870893276063000,10.00206298828125,-0.37072381377220154,-0.6992422938346863,-0.2887442409992218
1776870893286101000,10.01210107421875,-0.35213226079940796,-0.7390108704566956,-0.3109399974346161
1776870893296140000,10.02214013671875,-0.3288312256336212,-0.7211921811103821,-0.32877039909362793
1776870893306178000,10.032177978515625,-0.305799663066864,-0.6535940170288086,-0.34861519932746887
1776870893316216800,10.042216796875,-0.2844805121421814,-0.5652622580528259,-0.3787803053855896
1776870893326255000,10.052255126953124,-0.26668721437454224,-0.4835240840911865,-0.418782114982605
1776870893336292900,10.06229296875,-0.24751244485378265,-0.4185176491737366,-0.46629372239112854
1776870893346331100,10.0723310546875,-0.22070766985416412,-0.36620616912841797,-0.5223052501678467
1776870893356370000,10.082369873046876,-0.20066338777542114,-0.3241974711418152,-0.5796500444412231
1776870893366408200,10.092408203125,-0.17814584076404572,-0.2830718755722046,-0.6090134978294373
1776870893376446000,10.102446044921875,-0.16589556634426117,-0.22716650366783142,-0.6135643124580383
1776870893386485000,10.112485107421875,-0.1848343312740326,-0.1736467480659485,-0.6024457812309265
1776870893396523000,10.12252294921875,-0.2094523310661316,-0.17420174181461334,-0.5709193348884583
1776870893406561000,10.13256103515625,-0.2453889697790146,-0.21487213671207428,-0.5185142755508423
1776870893416600000,10.14260009765625,-0.27415192127227783,-0.296723872423172,-0.4749000072479248
1776870893426638000,10.15263818359375,-0.2858758568763733,-0.37950828671455383,-0.43688613176345825
1776870893436676000,10.162676025390626,-0.28996142745018005,-0.43855589628219604,-0.4055359363555908
1776870893446715100,10.172715087890625,-0.29377228021621704,-0.4619261920452118,-0.3771072328090668
1776870893456753000,10.1827529296875,-0.31753140687942505,-0.4770055413246155,-0.3674767017364502
1776870893466791200,10.192791259765626,-0.335873544216156,-0.478798508644104,-0.3664008677005768
1776870893476830000,10.202829833984374,-0.3343968093395233,-0.4571552574634552,-0.3805933892726898
1776870893486868200,10.2128681640625,-0.31641772389411926,-0.40955644845962524,-0.40862414240837097
1776870893496906000,10.222906005859375,-0.2803787589073181,-0.33879226446151733,-0.439104825258255
1776870893506945000,10.232945068359374,-0.240066260099411,-0.27881506085395813,-0.46395939588546753
1776870893516982300,10.242982177734374,-0.2058987021446228,-0.237315833568573,-0.47877535223960876
1776870893527020500,10.2530205078125,-0.19463789463043213,-0.21246284246444702,-0.48703503608703613
1776870893537059300,10.263059326171875,-0.20040737092494965,-0.20688565075397491,-0.49926692247390747
1776870893547097300,10.273097412109376,-0.21550987660884857,-0.20840659737586975,-0.505290687084198
1776870893557135400,10.28313525390625,-0.22003193199634552,-0.19701546430587769,-0.4760012924671173
1776870893567174400,10.29317431640625,-0.20666426420211792,-0.2113720178604126,-0.4344509243965149
1776870893577212400,10.30321240234375,-0.18869245052337646,-0.2775672972202301,-0.39753657579421997
1776870893587250400,10.31325048828125,-0.18302473425865173,-0.3782386779785156,-0.3855309784412384
1776870893597289200,10.323289306640625,-0.1941591501235962,-0.5452281832695007,-0.43340981006622314
1776870893607327500,10.333327392578125,-0.23029109835624695,-0.8603505492210388,-0.5756088495254517
1776870893617365200,10.343365234375,-0.2890279293060303,-1.2213044166564941,-0.7494400143623352
1776870893627404500,10.353404541015625,-0.34891843795776367,-1.442383050918579,-0.8419749736785889
1776870893637442300,10.3634423828125,-0.38849249482154846,-1.4819844961166382,-0.812529981136322
1776870893647480600,10.37348046875,-0.44380807876586914,-1.444288969039917,-0.735578179359436
1776870893657519400,10.383519287109374,-0.46399375796318054,-1.455409288406372,-0.6851022243499756
1776870893667557400,10.393557373046875,-0.4241119623184204,-1.4643019437789917,-0.6552382111549377
1776870893677595400,10.403595458984375,-0.3532673418521881,-1.5230193138122559,-0.6339765787124634
1776870893687634400,10.413634521484376,-0.31062909960746765,-1.3761446475982666,-0.6222958564758301
1776870893697672400,10.42367236328125,-0.25014737248420715,-1.1485620737075806,-0.6146661639213562
1776870893707710500,10.43371044921875,-0.19485320150852203,-0.8993810415267944,-0.6157030463218689
1776870893717749200,10.443749267578125,-0.16980990767478943,-0.752054750919342,-0.6157286167144775
1776870893727787500,10.45378759765625,-0.1756543517112732,-0.6762030720710754,-0.5856966376304626
1776870893737825300,10.4638251953125,-0.20011281967163086,-0.6470087170600891,-0.5353966951370239
1776870893747864600,10.473864501953125,-0.2502228617668152,-0.641633927822113,-0.4846014380455017
1776870893757902300,10.48390234375,-0.2631394565105438,-0.6770697236061096,-0.44136983156204224
1776870893767940400,10.4939404296875,-0.2610737979412079,-0.6466424465179443,-0.42190787196159363
1776870893777978400,10.503978271484375,-0.24004067480564117,-0.6279529333114624,-0.4157242774963379
1776870893788017400,10.514017333984375,-0.21762125194072723,-0.6072763800621033,-0.41301771998405457
1776870893798055400,10.524055419921876,-0.17835719883441925,-0.6114117503166199,-0.39379262924194336
1776870893808093200,10.53409326171875,-0.14564546942710876,-0.5734678506851196,-0.33269572257995605
1776870893818132500,10.544132568359375,-0.10699687153100967,-0.5444422960281372,-0.22662998735904694
1776870893828170200,10.554170166015625,-0.07872675359249115,-0.5306394100189209,-0.14798125624656677
1776870893838208500,10.56420849609375,-0.056114912033081055,-0.44663187861442566,-0.11169221997261047
1776870893848247300,10.574247314453125,-0.04505687579512596,-0.37207478284835815,-0.11940766870975494
1776870893858285300,10.584285400390625,-0.04079768434166908,-0.3450793921947479,-0.12220345437526703
1776870893868323300,10.5943232421875,-0.04328644648194313,-0.35623735189437866,-0.1118241399526596
1776870893878362400,10.6043623046875,-0.04691607132554054,-0.28956350684165955,-0.06271810829639435
1776870893888400400,10.614400390625,-0.05479343235492706,-0.25412988662719727,-0.021470272913575172
1776870893898438400,10.6244384765625,-0.05382484197616577,-0.16704291105270386,0.0007431530393660069
1776870893908477200,10.634477294921876,-0.03896225616335869,-0.04353197664022446,0.005612651817500591
1776870893918515500,10.644515380859374,-0.020214401185512543,0.11350131779909134,0.012423953041434288
1776870893928553200,10.65455322265625,-0.012394849210977554,0.28935205936431885,0.0317697748541832
1776870893938592500,10.664592529296876,-0.014609001576900482,0.4523524343967438,0.05914920195937157
1776870893948630300,10.67463037109375,-0.01702752709388733,0.5998755097389221,0.07884718477725983
1776870893958668500,10.68466845703125,-0.011984298005700111,0.722655177116394,0.08445712924003601
1776870893968707300,10.694707275390625,-0.002128560096025467,0.8221791982650757,0.08952788263559341
1776870893978745300,10.704745361328126,0.01557666715234518,0.9063031673431396,0.11050373315811157
1776870893988783400,10.714783447265624,0.03348185494542122,0.9721513390541077,0.1501714289188385
1776870893998822400,10.724822509765625,0.05575919896364212,1.0369832515716553,0.2083074301481247
1776870894008860400,10.7348603515625,0.1005207747220993,1.0914723873138428,0.282880038022995
1776870894018898400,10.7448984375,0.15979447960853577,1.1287956237792969,0.3630371689796448
1776870894028937200,10.754937255859375,0.21938471496105194,1.1591370105743408,0.43290603160858154
1776870894038975500,10.7649755859375,0.27745068073272705,1.1829813718795776,0.48808830976486206
1776870894049013500,10.775013427734375,0.31370189785957336,1.1571582555770874,0.530769944190979
1776870894059052500,10.785052490234374,0.3078181743621826,1.1532917022705078,0.5434511303901672
1776870894069090300,10.79509033203125,0.29764094948768616,1.1150230169296265,0.5597986578941345
1776870894079128600,10.805128662109375,0.2797303795814514,1.0645257234573364,0.5610237121582031
1776870894089167400,10.81516748046875,0.28072553873062134,0.9770753979682922,0.5626580119132996
1776870894099205400,10.825205322265624,0.29738283157348633,0.9305287003517151,0.5779131054878235
1776870894109243400,10.835243408203125,0.3224543333053589,0.8435482978820801,0.599505603313446
1776870894119281400,10.845281494140625,0.3141021430492401,0.8110590577125549,0.6103856563568115
1776870894129320400,10.855320556640624,0.31737539172172546,0.7139504551887512,0.642310619354248
1776870894139358200,10.865358154296874,0.2854430377483368,0.6292108297348022,0.6351850628852844
1776870894149396500,10.875396484375,0.2546696066856384,0.5204249620437622,0.6229955554008484
1776870894159435500,10.885435546875,0.2577301263809204,0.38327720761299133,0.6159898638725281
1776870894169473500,10.8954736328125,0.2577486038208008,0.23960863053798676,0.6005522012710571
1776870894179511300,10.90551123046875,0.2500840127468109,0.12016639858484268,0.567088782787323
1776870894189550300,10.91555029296875,0.2530783414840698,0.03670027479529381,0.543038010597229
1776870894199588400,10.92558837890625,0.26669880747795105,-0.0011120857670903206,0.5288609266281128
1776870894209626400,10.93562646484375,0.28091707825660706,0.04689671844244003,0.5170679092407227
1776870894219665400,10.94566552734375,0.28157275915145874,0.14964652061462402,0.5033252239227295
1776870894229703400,10.955703369140625,0.3014671504497528,0.24531109631061554,0.4829190969467163
1776870894239741400,10.965741455078126,0.3186194896697998,0.3103470802307129,0.47006723284721375
1776870894249780500,10.975780517578125,0.3348065912723541,0.3307000398635864,0.47529634833335876
1776870894259818200,10.985818359375,0.3390814960002899,0.32192519307136536,0.49308547377586365
1776870894269856500,10.9958564453125,0.34448176622390747,0.3096156716346741,0.5095458626747131
1776870894279895300,11.005895263671874,0.33400222659111023,0.316716730594635,0.5425653457641602
1776870894289933600,11.01593359375,0.3233506679534912,0.33788231015205383,0.5749212503433228
1776870894299971300,11.025971435546875,0.3153420090675354,0.36829879879951477,0.6096195578575134
1776870894310010400,11.03601025390625,0.31333276629447937,0.39217573404312134,0.6320418119430542
1776870894320048400,11.04604833984375,0.32378777861595154,0.3983915448188782,0.633246123790741
1776870894330086400,11.05608642578125,0.331058144569397,0.38449767231941223,0.6185224056243896
1776870894340125400,11.06612548828125,0.33467260003089905,0.37194299697875977,0.5795518159866333
1776870894350163500,11.07616357421875,0.3342876434326172,0.3537741005420685,0.532882571220398
1776870894360201500,11.086201416015625,0.34123075008392334,0.3297622501850128,0.4959583878517151
1776870894370240500,11.096240478515625,0.3500051498413086,0.32119297981262207,0.49026963114738464
1776870894380278300,11.1062783203125,0.3716646432876587,0.3145846128463745,0.5070861577987671
1776870894390316500,11.116316650390624,0.3853597939014435,0.3335610628128052,0.5393078327178955
1776870894400354300,11.126354248046875,0.39807212352752686,0.38411957025527954,0.5830105543136597
1776870894410393600,11.1363935546875,0.40319380164146423,0.45526787638664246,0.6117861270904541
1776870894420431400,11.146431396484376,0.39328286051750183,0.5125135779380798,0.6178221702575684
1776870894430469400,11.156469482421874,0.38140445947647095,0.5485729575157166,0.6115484833717346
1776870894440508400,11.16650830078125,0.37585335969924927,0.5488513112068176,0.6022529602050781
1776870894450546400,11.17654638671875,0.3822850286960602,0.5225504636764526,0.5951998829841614
1776870894460584400,11.18658447265625,0.3936777710914612,0.48783981800079346,0.5978960394859314
1776870894470623500,11.19662353515625,0.40725424885749817,0.45825353264808655,0.5969067811965942
1776870894480661500,11.20666162109375,0.4081656038761139,0.44252678751945496,0.5916805863380432
1776870894490699300,11.21669921875,0.40236449241638184,0.4403230845928192,0.5789795517921448
1776870894500738300,11.22673828125,0.393276184797287,0.4250485301017761,0.5654698610305786
1776870894510777300,11.23677734375,0.37932121753692627,0.39038217067718506,0.5590108633041382
1776870894520815000,11.246815185546875,0.3704686164855957,0.34605544805526733,0.5633025765419006
1776870894530854100,11.256854248046874,0.37282729148864746,0.3121415078639984,0.5577970743179321
1776870894540892200,11.26689208984375,0.3711654543876648,0.2958102226257324,0.5555251240730286
1776870894550930200,11.27693017578125,0.36977604031562805,0.29300999641418457,0.5558570623397827
1776870894560969200,11.28696923828125,0.36341190338134766,0.3068840205669403,0.5500289797782898
1776870894571007200,11.29700732421875,0.3545896112918854,0.3317312002182007,0.5454360246658325
1776870894581045200,11.307045166015625,0.34358757734298706,0.3557555675506592,0.5410109162330627
1776870894591084300,11.317084228515625,0.3418108820915222,0.3695202171802521,0.5378250479698181
1776870894601122000,11.3271220703125,0.3394521176815033,0.37756481766700745,0.5341826677322388
1776870894611160000,11.33716015625,0.339161217212677,0.3676767647266388,0.5436669588088989
1776870894621198000,11.347197998046875,0.3390491008758545,0.3574318587779999,0.5527787208557129
1776870894631237000,11.357237060546876,0.3258041441440582,0.3484190106391907,0.5524845123291016
1776870894641275100,11.367275146484374,0.3065822422504425,0.3465382754802704,0.5414108633995056
1776870894651313200,11.377313232421875,0.2815723419189453,0.35254326462745667,0.5161545872688293
1776870894661352200,11.387352294921875,0.26799872517585754,0.3631242513656616,0.4808056354522705
1776870894671390000,11.397389892578126,0.26442253589630127,0.37829771637916565,0.44726935029029846
1776870894681428200,11.40742822265625,0.27269458770751953,0.4067693054676056,0.4170198142528534
1776870894691467000,11.417467041015625,0.28614068031311035,0.45226940512657166,0.39814677834510803
1776870894701505300,11.42750537109375,0.28265246748924255,0.5134878158569336,0.367138534784317
1776870894711543000,11.43754296875,0.26748812198638916,0.5909375548362732,0.3240533769130707
1776870894721582000,11.44758203125,0.2329314649105072,0.6486319899559021,0.2780507206916809
1776870894731620000,11.4576201171875,0.19694674015045166,0.6692737340927124,0.23554624617099762
1776870894741658000,11.467658203125,0.16071230173110962,0.6396663188934326,0.19706463813781738
1776870894751697200,11.477697265625,0.1089874878525734,0.5910441279411316,0.1608077436685562
1776870894761735200,11.487735107421875,0.055808428674936295,0.5264456868171692,0.11855562776327133
1776870894771773200,11.497773193359375,0.014467932283878326,0.4494437277317047,0.08310246467590332
1776870894781812200,11.507812255859376,-0.00732684601098299,0.37194758653640747,0.06227335333824158
1776870894791850000,11.51785009765625,-0.01854117400944233,0.291974812746048,0.056416891515254974
1776870894801888300,11.52788818359375,-0.020846139639616013,0.22339123487472534,0.06484898924827576
1776870894811926000,11.537926025390625,-0.015927480533719063,0.1688757836818695,0.0819651260972023
1776870894821965300,11.54796533203125,-0.020556055009365082,0.12612247467041016,0.10817702114582062
1776870894832003000,11.558003173828125,-0.03764145076274872,0.1018260046839714,0.14490211009979248
1776870894842041300,11.568041259765625,-0.05443428084254265,0.07942589372396469,0.19081979990005493
1776870894852080000,11.578080078125,-0.07682036608457565,0.0558607280254364,0.23812134563922882
1776870894862118100,11.5881181640625,-0.08104760199785233,0.01633409410715103,0.306048721075058
1776870894872156200,11.59815625,-0.0717470720410347,0.014044669456779957,0.3761107325553894
1776870894882195200,11.6081953125,-0.05842434614896774,0.04172849655151367,0.43496793508529663
1776870894892233200,11.618233154296876,-0.03769032657146454,0.08593066781759262,0.46203771233558655
1776870894902271000,11.62827099609375,-0.014722958207130432,0.14275133609771729,0.43514272570610046
1776870894912310000,11.63831005859375,0.02419610135257244,0.2029629349708557,0.3512178957462311
1776870894922348300,11.648348388671875,0.08251267671585083,0.2504984736442566,0.24638736248016357
1776870894932386000,11.658385986328126,0.1389864981174469,0.2781164348125458,0.13536754250526428
1776870894942425300,11.66842529296875,0.16959606111049652,0.29255956411361694,0.04031665623188019
1776870894952463000,11.678463134765625,0.17990517616271973,0.2833244204521179,-0.028864633291959763
1776870894962501000,11.688501220703126,0.18034273386001587,0.26132646203041077,-0.07394955307245255
1776870894972539100,11.6985390625,0.17025770246982574,0.2318798005580902,-0.0955318957567215
1776870894982578000,11.708577880859375,0.15167710185050964,0.1892777383327484,-0.10309527814388275
1776870894992616200,11.7186162109375,0.1254497915506363,0.1492457091808319,-0.10292208939790726
1776870895002654000,11.728654052734376,0.0931864008307457,0.11187677085399628,-0.09485803544521332
1776870895012693200,11.738693359375,0.06947976350784302,0.09483804553747177,-0.0877341702580452
1776870895022731000,11.74873095703125,0.05202380567789078,0.09865888208150864,-0.06803423166275024
1776870895032769300,11.758769287109375,0.049640633165836334,0.11632353812456131,-0.036361079663038254
1776870895042808000,11.76880810546875,0.05467400327324867,0.14311175048351288,0.00435785623267293
1776870895052846000,11.77884619140625,0.050859007984399796,0.16384799778461456,0.04613602161407471
1776870895062884000,11.788884033203125,0.032740455120801926,0.1778026968240738,0.08173742145299911
1776870895072923100,11.798923095703126,0.009374324232339859,0.18993322551250458,0.09745601564645767
1776870895082961200,11.808961181640624,-0.009833724237978458,0.1859762966632843,0.10105820745229721
1776870895092999200,11.818999267578125,-0.018865035846829414,0.17668132483959198,0.0885421484708786
1776870895103038000,11.829037841796875,-0.01877502165734768,0.16337990760803223,0.06775803864002228
1776870895113076200,11.839076171875,-0.011774391867220402,0.13549962639808655,0.04724326729774475
1776870895123114000,11.849114013671874,-0.011216193437576294,0.10312145203351974,0.03403478488326073
1776870895133152300,11.85915234375,-0.025425158441066742,0.0798313170671463,0.03416449576616287
1776870895143191000,11.86919091796875,-0.03535102680325508,0.06918080151081085,0.04300006479024887
1776870895153229300,11.879229248046874,-0.03711685538291931,0.06879739463329315,0.06340821832418442
1776870895163267000,11.88926708984375,-0.03925643861293793,0.0703100711107254,0.08700382709503174
1776870895173306000,11.89930615234375,-0.050755634903907776,0.08751249313354492,0.088882677257061
1776870895183344000,11.90934423828125,-0.061762213706970215,0.11288442462682724,0.05768774077296257
1776870895193382100,11.919382080078124,-0.05935030058026314,0.12108340859413147,0.009822654537856579
1776870895203421200,11.929421142578125,-0.03335758298635483,0.12305920571088791,-0.030308518558740616
1776870895213459200,11.939459228515625,-0.008891943842172623,0.11839769780635834,-0.05745483189821243
1776870895223497200,11.949497314453126,0.0042353104799985886,0.11381199955940247,-0.06653247773647308
1776870895233536300,11.959536376953125,0.003940521739423275,0.10894445329904556,-0.061828624457120895
1776870895243574000,11.969573974609375,-0.013544195331633091,0.11242973059415817,-0.05811457708477974
1776870895253612000,11.979612060546875,-0.02243509143590927,0.123939648270607,-0.050018828362226486
1776870895263650300,11.989650390625,-0.025605851784348488,0.13307109475135803,-0.04486241936683655
1776870895273689000,11.999689208984375,-0.022944509983062744,0.12679411470890045,-0.02582099288702011
1776870895283727000,12.00972705078125,-0.018560415133833885,0.12292880564928055,-0.009522981010377407
1776870895293765000,12.01976513671875,-0.01892777532339096,0.1374349445104599,-0.003140548476949334
1776870895303804200,12.02980419921875,-0.01735438033938408,0.17079822719097137,-0.015609735623002052
1776870895313842200,12.03984228515625,-0.010960818268358707,0.19301840662956238,-0.026932861655950546
1776870895323880200,12.049880126953125,-0.003588389605283737,0.19782754778862,-0.041199419647455215
1776870895333919000,12.0599189453125,-0.00026366114616394043,0.1918802708387375,-0.051690082997083664
1776870895343957200,12.069957275390625,-0.0005944250151515007,0.16704149544239044,-0.0720217153429985
1776870895353995000,12.0799951171875,-0.007769308984279633,0.14717456698417664,-0.09390542656183243
1776870895364034000,12.090033935546876,-0.010832211002707481,0.125291645526886,-0.1129813864827156
1776870895374072000,12.100072021484374,-0.007889771834015846,0.11421884596347809,-0.12577217817306519
1776870895384110300,12.1101103515625,-0.0064652469009160995,0.11560501903295517,-0.12281553447246552
1776870895394149000,12.120149169921875,-0.0038429228588938713,0.13591010868549347,-0.10545191913843155
1776870895404187100,12.130187255859376,-0.013144811615347862,0.15577836334705353,-0.0926802009344101
1776870895414225200,12.14022509765625,-0.0234709270298481,0.1636020988225937,-0.07314332574605942
1776870895424263200,12.15026318359375,-0.03069368749856949,0.1469714641571045,-0.0654023140668869
1776870895434302200,12.16030224609375,-0.036578454077243805,0.11287279427051544,-0.054425664246082306
1776870895444340200,12.17034033203125,-0.03684636950492859,0.06321363151073456,-0.044679295271635056
1776870895454378200,12.180378173828124,-0.032068368047475815,0.016271598637104034,-0.031673554331064224
1776870895464417300,12.190417236328125,-0.029776984825730324,-0.013529972173273563,-0.01920410245656967
1776870895474455000,12.200455078125,-0.04321778193116188,-0.0051720840856432915,-0.011669149622321129
1776870895484493300,12.210493408203124,-0.038901329040527344,0.011001558974385262,-0.004249050281941891
1776870895494532000,12.220531982421875,-0.03352249786257744,0.03526996821165085,-0.0005599388387054205
1776870895504570400,12.2305703125,-0.02491835504770279,0.06211915984749794,0.0019266547169536352
1776870895514607600,12.240607666015626,-0.014140860177576542,0.07918860763311386,-0.00671728141605854
1776870895524645600,12.250645751953124,-0.005594776477664709,0.08192075043916702,-0.013980255462229252
1776870895534684700,12.2606845703125,0.0051762256771326065,0.08137568086385727,-0.024500710889697075
1776870895544722400,12.270722412109375,0.0034491652622818947,0.06994832307100296,-0.03530169278383255
1776870895554760700,12.2807607421875,0.0041240546852350235,0.05390899255871773,-0.04463651403784752
1776870895564799500,12.290799560546875,0.002161039039492607,0.03405779227614403,-0.047915663570165634
1776870895574837800,12.300837646484375,-0.0018147267401218414,0.02479717880487442,-0.05622738599777222
1776870895584875500,12.31087548828125,-0.012168298475444317,0.02154119871556759,-0.06481954455375671
1776870895594914600,12.32091455078125,-0.027210917323827744,0.018000878393650055,-0.07365022599697113
1776870895604952600,12.33095263671875,-0.028674591332674026,0.010655347257852554,-0.07515224814414978
1776870895614990600,12.340990478515625,-0.023610882461071014,0.007280414458364248,-0.07195238023996353
1776870895625029600,12.351029541015626,-0.016691189259290695,0.0013642020057886839,-0.05766158923506737
1776870895635067600,12.361067626953124,-0.0124282231554389,-0.004268561489880085,-0.04356059059500694
1776870895645105700,12.371105712890625,-0.00604941975325346,-0.017217382788658142,-0.026083599776029587
1776870895655143700,12.381143798828125,-0.024981141090393066,-0.036958154290914536,-0.006160839460790157
1776870895665182500,12.391182373046876,-0.036709170788526535,-0.06374023854732513,0.010921740904450417
1776870895675220700,12.401220703125,-0.03752749413251877,-0.09267628192901611,0.030476002022624016
1776870895685258800,12.4112587890625,-0.031733788549900055,-0.11430354416370392,0.046652309596538544
1776870895695297800,12.4212978515625,-0.029741300269961357,-0.12808237969875336,0.0579678900539875
