time,seconds_elapsed,z,y,x
1776870883368231400,0.0942314453125,-29.55791473388672,-11.607246398925781,-11.901126861572266
1776870883378269400,0.10426953125,-29.55896759033203,-11.503837585449219,-11.780895233154297
1776870883388307500,0.114307373046875,-29.74108123779297,-11.28634262084961,-11.478939056396484
1776870883398346500,0.124346435546875,-29.931480407714844,-10.95370101928711,-11.146488189697266
1776870883408384300,0.13438427734375,-30.32172393798828,-10.643623352050781,-10.827754974365234
1776870883418422500,0.144422607421875,-30.533065795898438,-10.524085998535156,-10.447559356689453
1776870883428461300,0.15446142578125,-30.854270935058594,-10.255908966064453,-10.306087493896484
1776870883438499300,0.164499267578125,-30.99011993408203,-9.937355041503906,-10.211284637451172
1776870883448537300,0.174537353515625,-31.085403442382812,-9.510120391845703,-10.038097381591797
1776870883458576400,0.184576416015625,-31.290130615234375,-8.854240417480469,-9.803386688232422
1776870883468614400,0.194614501953125,-31.48089599609375,-8.289669036865234,-8.961078643798828
1776870883478652400,0.20465234375,-32.203712463378906,-7.653205871582031,-8.098384857177734
1776870883488691500,0.21469140625,-32.70924377441406,-6.861812591552734,-6.427028656005859
1776870883498729500,0.2247294921875,-33.079071044921875,-6.000282287597656,-4.402751922607422
1776870883508767500,0.234767578125,-33.079071044921875,-6.000282287597656,-4.402751922607422
1776870883518806500,0.244806640625,-33.621917724609375,-4.18829345703125,-0.476531982421875
1776870883528844500,0.254844482421875,-33.62907409667969,-3.3494224548339844,1.407379150390625
1776870883538882600,0.264882568359375,-33.54667663574219,-2.9986610412597656,3.2087020874023438
1776870883548921600,0.274921630859375,-33.54667663574219,-2.9986610412597656,3.2087020874023438
1776870883558959400,0.28495947265625,-33.267189025878906,-2.5555572509765625,4.989540100097656
1776870883568997600,0.29499755859375,-33.14778137207031,-2.4732933044433594,6.847072601318359
1776870883579036400,0.305036376953125,-32.66937255859375,-1.9858932495117188,8.463272094726562
1776870883589074700,0.31507470703125,-32.29731750488281,-1.7434234619140625,9.735843658447266
1776870883599112400,0.325112548828125,-32.099754333496094,-1.4177017211914062,10.85922622680664
1776870883609151500,0.3351513671875,-31.935684204101562,-1.5213623046875,11.765640258789062
1776870883619189500,0.345189453125,-31.68297576904297,-1.582489013671875,12.464000701904297
1776870883629227500,0.3552275390625,-31.618240356445312,-1.7268829345703125,12.54983139038086
1776870883639266600,0.3652666015625,-31.491294860839844,-2.1543731689453125,12.206207275390625
1776870883649304600,0.3753046875,-31.802108764648438,-2.2600936889648438,11.545001983642578
1776870883659342600,0.385342529296875,-31.876182556152344,-2.1732940673828125,10.587291717529297
1776870883669381600,0.395381591796875,-32.32915496826172,-2.0448760986328125,9.798709869384766
1776870883679419400,0.40541943359375,-32.47527313232422,-1.9601211547851562,8.940773010253906
1776870883689457400,0.41545751953125,-32.69702911376953,-1.856597900390625,8.502933502197266
1776870883699495700,0.42549560546875,-32.68030548095703,-1.6845169067382812,8.190284729003906
1776870883709534500,0.435534423828125,-32.494049072265625,-1.404327392578125,7.990653991699219
1776870883719572500,0.445572509765625,-32.37848663330078,-1.1281967163085938,7.884258270263672
1776870883729610500,0.455610595703125,-32.32633972167969,-0.6658859252929688,7.873023986816406
1776870883739649500,0.4656494140625,-32.33177185058594,-0.13658905029296875,7.7307586669921875
1776870883749687600,0.4756875,-32.29132080078125,0.5778045654296875,7.545249938964844
1776870883759725600,0.4857255859375,-32.31353759765625,1.1180343627929688,7.4014129638671875
1776870883769764400,0.495764404296875,-32.177146911621094,1.8424911499023438,7.041389465332031
1776870883779802600,0.505802734375,-32.013877868652344,2.3478851318359375,6.600582122802734
1776870883789840400,0.51584033203125,-32.0020751953125,3.1513214111328125,6.143943786621094
1776870883799879400,0.52587939453125,-31.751220703125,3.9160842895507812,5.5072479248046875
1776870883809917400,0.53591748046875,-31.20092010498047,4.839385986328125,5.0457611083984375
1776870883819955700,0.545955810546875,-31.039955139160156,5.778694152832031,4.338840484619141
1776870883829994500,0.555994384765625,-30.665306091308594,6.806022644042969,3.790130615234375
1776870883840032500,0.566032470703125,-30.15100860595703,7.769432067871094,3.2096481323242188
1776870883850070500,0.576070556640625,-29.732627868652344,8.550315856933594,2.695323944091797
1776870883860109600,0.586109619140625,-29.1690673828125,9.440505981445312,2.0455169677734375
1776870883870147600,0.596147705078125,-28.453903198242188,10.361236572265625,1.274810791015625
1776870883880185600,0.606185546875,-28.24108123779297,11.224845886230469,0.48157501220703125
1776870883890224400,0.616224365234375,-27.63884735107422,11.950096130371094,-0.42403411865234375
1776870883900262700,0.6262626953125,-26.726272583007812,12.669967651367188,-1.4150581359863281
1776870883910300400,0.636300537109375,-26.137794494628906,13.397171020507812,-2.462482452392578
1776870883920339700,0.646339599609375,-25.647293090820312,14.261947631835938,-3.5420494079589844
1776870883930377500,0.65637744140625,-24.874481201171875,15.067329406738281,-4.840137481689453
1776870883940415700,0.666415771484375,-24.053802490234375,15.847213745117188,-6.241817474365234
1776870883950454500,0.67645458984375,-23.339401245117188,16.401939392089844,-7.372379302978516
1776870883960492500,0.686492431640625,-22.585311889648438,16.91191864013672,-9.021533966064453
1776870883970530600,0.696530517578125,-21.784156799316406,17.268218994140625,-10.350872039794922
1776870883980569600,0.706569580078125,-20.918914794921875,17.611122131347656,-11.368877410888672
1776870883990607600,0.716607666015625,-20.33458709716797,18.017921447753906,-12.41141128540039
1776870884000645400,0.726645263671875,-19.606971740722656,18.33136749267578,-13.163150787353516
1776870884010684400,0.736684326171875,-18.99683380126953,18.6859130859375,-13.85604476928711
1776870884020722700,0.74672265625,-18.674072265625,19.10814666748047,-14.381122589111328
1776870884030760400,0.756760498046875,-18.211936950683594,19.425086975097656,-14.920734405517578
1776870884040798500,0.766798583984375,-17.824668884277344,19.970420837402344,-15.389019012451172
1776870884050837500,0.77683740234375,-17.144241333007812,20.644126892089844,-15.849437713623047
1776870884060875500,0.78687548828125,-16.525550842285156,21.264564514160156,-16.288692474365234
1776870884070913500,0.79691357421875,-15.780426025390625,21.953338623046875,-16.519786834716797
1776870884080952300,0.806952392578125,-15.052238464355469,22.589584350585938,-16.590045928955078
1776870884090990600,0.816990478515625,-14.179939270019531,23.425758361816406,-16.426990509033203
1776870884101028400,0.8270283203125,-13.462844848632812,24.259735107421875,-16.180301666259766
1776870884111067600,0.837067626953125,-12.916824340820312,25.41558837890625,-15.78390121459961
1776870884121105400,0.84710546875,-12.363784790039062,26.31525421142578,-15.053356170654297
1776870884131143700,0.857143798828125,-11.877655029296875,27.054481506347656,-14.094913482666016
1776870884141182500,0.867182373046875,-11.313095092773438,27.940208435058594,-12.87472152709961
1776870884151220500,0.877220458984375,-11.140281677246094,28.83733367919922,-11.72933578491211
1776870884161258500,0.887258544921875,-10.845550537109375,29.604774475097656,-10.303287506103516
1776870884171297500,0.897297607421875,-10.180091857910156,30.185752868652344,-8.702808380126953
1776870884181335600,0.90733544921875,-9.664146423339844,30.739845275878906,-7.140666961669922
1776870884191373600,0.91737353515625,-9.319061279296875,31.14086151123047,-5.324199676513672
1776870884201412400,0.927412353515625,-9.043983459472656,31.342254638671875,-3.728687286376953
1776870884211450600,0.93745068359375,-8.983261108398438,31.56793212890625,-2.3985939025878906
1776870884221488400,0.94748828125,-9.237815856933594,31.617042541503906,-1.5436210632324219
1776870884231527700,0.957527587890625,-9.315284729003906,31.370895385742188,-1.0112724304199219
1776870884241565400,0.9675654296875,-9.58868408203125,31.252403259277344,-0.8920974731445312
1776870884251603700,0.977603759765625,-9.96783447265625,31.163475036621094,-0.6566581726074219
1776870884261642500,0.987642578125,-10.243644714355469,30.95916748046875,-0.4979438781738281
1776870884271680500,0.997680419921875,-10.709526062011719,30.68248748779297,-0.256439208984375
1776870884281718500,1.007718505859375,-11.215255737304688,30.401817321777344,0.12127304077148438
1776870884291757600,1.017757568359375,-11.792648315429688,30.146217346191406,0.5363540649414062
1776870884301795600,1.027795654296875,-12.335464477539062,29.791168212890625,1.0448226928710938
1776870884311833600,1.03783349609375,-12.27069091796875,29.746627807617188,1.5380210876464844
1776870884321872400,1.047872314453125,-12.325668334960938,29.674148559570312,2.1873703002929688
1776870884331910700,1.05791064453125,-12.282623291015625,29.57470703125,2.8009490966796875
1776870884341948400,1.067948486328125,-12.643638610839844,29.185531616210938,3.315582275390625
1776870884351987700,1.07798779296875,-12.724983215332031,28.937469482421875,3.9616317749023438
1776870884362025500,1.088025390625,-12.966552734375,28.537574768066406,4.577930450439453
1776870884372063700,1.098063720703125,-13.010154724121094,28.24645233154297,5.293979644775391
1776870884382102500,1.1081025390625,-13.097862243652344,28.140365600585938,5.994487762451172
1776870884392140500,1.118140625,-13.227371215820312,27.864212036132812,6.502593994140625
1776870884402178600,1.128178466796875,-12.773040771484375,27.81414031982422,7.11932373046875
1776870884412217600,1.138217529296875,-12.942985534667969,27.53180694580078,7.7997894287109375
1776870884422255600,1.148255615234375,-13.209823608398438,27.441993713378906,8.267963409423828
1776870884432293400,1.15829345703125,-13.189010620117188,27.213600158691406,8.621929168701172
1776870884442331600,1.16833154296875,-13.321327209472656,27.004287719726562,9.027217864990234
1776870884452370400,1.178370361328125,-13.055984497070312,26.863525390625,9.370197296142578
1776870884462408400,1.188408447265625,-13.134429931640625,26.67499542236328,9.618202209472656
1776870884472446500,1.198446533203125,-12.853591918945312,26.610389709472656,9.995548248291016
1776870884482485500,1.208485595703125,-13.085189819335938,26.3497314453125,9.944324493408203
1776870884492523500,1.2185234375,-13.599876403808594,26.159156799316406,9.937202453613281
1776870884502561500,1.2285615234375,-13.98095703125,26.05644989013672,9.913932800292969
1776870884512600300,1.238600341796875,-14.327476501464844,25.797683715820312,9.85390853881836
1776870884522638600,1.248638671875,-14.530113220214844,25.59880828857422,9.939937591552734
1776870884532676400,1.25867626953125,-15.054023742675781,25.399185180664062,9.54415512084961
1776870884542715600,1.268715576171875,-15.6011962890625,24.990394592285156,9.3262939453125
1776870884552753400,1.27875341796875,-16.073265075683594,24.937843322753906,9.14206314086914
1776870884562791700,1.288791748046875,-16.611793518066406,24.762596130371094,8.735698699951172
1776870884572830500,1.29883056640625,-17.16051483154297,24.462203979492188,8.212387084960938
1776870884582868500,1.308868408203125,-17.469314575195312,24.438865661621094,7.5080718994140625
1776870884592906500,1.318906494140625,-17.78858184814453,24.30908966064453,6.779033660888672
1776870884602945500,1.328945556640625,-18.108444213867188,24.346092224121094,6.1581878662109375
1776870884612983600,1.338983642578125,-18.360252380371094,24.42833709716797,5.423748016357422
1776870884623021600,1.349021484375,-18.80022430419922,24.228973388671875,4.5239105224609375
1776870884633060400,1.359060302734375,-19.19861602783203,24.072654724121094,3.531085968017578
1776870884643098600,1.3690986328125,-19.69342803955078,23.835403442382812,2.5232505798339844
1776870884653136400,1.379136474609375,-20.107887268066406,23.47124481201172,1.3761863708496094
1776870884663175700,1.38917578125,-20.094329833984375,23.546371459960938,0.48486328125
1776870884673213400,1.39921337890625,-20.284713745117188,23.565574645996094,-0.3700370788574219
1776870884683251700,1.409251708984375,-20.286354064941406,23.5587158203125,-0.965423583984375
1776870884693290500,1.41929052734375,-20.492141723632812,23.38066864013672,-1.5841331481933594
1776870884703328500,1.42932861328125,-20.44837188720703,23.33160400390625,-2.2562217712402344
1776870884713366500,1.439366455078125,-20.4967041015625,23.23693084716797,-2.7602500915527344
1776870884723405600,1.449405517578125,-20.406021118164062,23.381454467773438,-3.020854949951172
1776870884733443600,1.459443603515625,-20.73218536376953,23.350181579589844,-3.3787193298339844
1776870884743481600,1.469481689453125,-20.774932861328125,23.178131103515625,-3.4473533630371094
1776870884753520400,1.479520263671875,-20.951637268066406,23.010910034179688,-3.0389366149902344
1776870884763558700,1.48955859375,-21.15753173828125,22.94184112548828,-2.4966163635253906
1776870884773596400,1.499596435546875,-21.47069549560547,22.639801025390625,-2.0861167907714844
1776870884783635700,1.5096357421875,-21.695343017578125,22.489303588867188,-1.3660087585449219
1776870884793673500,1.519673583984375,-21.64594268798828,22.553192138671875,-0.7699012756347656
1776870884803711500,1.52971142578125,-21.380691528320312,22.77643585205078,-0.27266693115234375
1776870884813750500,1.53975048828125,-21.087799072265625,22.97766876220703,-0.00690460205078125
1776870884823788300,1.549788330078125,-20.823341369628906,23.081344604492188,0.2931365966796875
1776870884833826600,1.55982666015625,-20.70209503173828,23.263160705566406,0.4820365905761719
1776870884843865600,1.569865478515625,-20.567001342773438,23.327072143554688,0.11211395263671875
1776870884853903600,1.579903564453125,-20.313568115234375,23.560882568359375,0.10391998291015625
1776870884863941400,1.58994140625,-20.20623779296875,23.651504516601562,-0.3562736511230469
1776870884873980400,1.59998046875,-20.04204559326172,23.699905395507812,-0.9466590881347656
1776870884884018400,1.610018310546875,-19.94615936279297,23.797866821289062,-1.6125526428222656
1776870884894056400,1.620056396484375,-19.79901123046875,23.79913330078125,-2.2361412048339844
1776870884904095500,1.630095458984375,-19.849876403808594,23.75482177734375,-2.690784454345703
1776870884914133500,1.640133544921875,-19.66309356689453,23.739341735839844,-2.6427879333496094
1776870884924171500,1.650171630859375,-20.158187866210938,23.653533935546875,-2.975696563720703
1776870884934209500,1.66020947265625,-20.171546936035156,23.427345275878906,-3.333698272705078
1776870884944248300,1.670248291015625,-20.15436553955078,23.313377380371094,-3.5352516174316406
1776870884954286600,1.68028662109375,-20.30529022216797,23.022125244140625,-3.5965538024902344
1776870884964324400,1.690324462890625,-20.48798370361328,23.07794952392578,-3.7110557556152344
1776870884974363600,1.70036376953125,-20.850746154785156,23.04560089111328,-3.7275657653808594
1776870884984401400,1.7104013671875,-21.07635498046875,22.70854949951172,-3.611286163330078
1776870884994439700,1.720439697265625,-21.035362243652344,22.75921630859375,-3.4216651916503906
1776870885004478500,1.730478515625,-20.92487335205078,22.562095642089844,-3.3442955017089844
1776870885014516500,1.7405166015625,-20.97674560546875,22.560516357421875,-3.4497032165527344
1776870885024554500,1.750554443359375,-21.242835998535156,22.481658935546875,-3.6368751525878906
1776870885034593500,1.760593505859375,-21.242835998535156,22.481658935546875,-3.6368751525878906
1776870885044631600,1.770631591796875,-21.507789611816406,22.151100158691406,-3.6222572326660156
1776870885054669600,1.780669677734375,-21.39875030517578,21.975051879882812,-3.463245391845703
1776870885064708400,1.790708251953125,-21.425888061523438,22.042434692382812,-3.796825408935547
1776870885074746600,1.80074658203125,-21.403244018554688,22.207542419433594,-4.083126068115234
1776870885084784400,1.810784423828125,-21.443695068359375,22.224655151367188,-4.618389129638672
1776870885094823700,1.82082373046875,-21.11890411376953,22.34197235107422,-5.316486358642578
1776870885104861400,1.830861328125,-20.5582275390625,22.306861877441406,-6.250751495361328
1776870885114899700,1.840899658203125,-20.09154510498047,22.303985595703125,-7.622791290283203
1776870885124938500,1.8509384765625,-19.854896545410156,22.271278381347656,-9.24728775024414
1776870885134976500,1.8609765625,-19.45111083984375,21.893348693847656,-10.951030731201172
1776870885145014500,1.8710146484375,-18.939407348632812,21.550636291503906,-12.445751190185547
1776870885155053600,1.881053466796875,-18.371299743652344,21.098785400390625,-14.128711700439453
1776870885165091600,1.891091552734375,-17.796165466308594,20.480819702148438,-15.691051483154297
1776870885175129300,1.90112939453125,-17.116371154785156,20.05591583251953,-17.174114227294922
1776870885185168400,1.91116845703125,-16.617576599121094,19.327857971191406,-18.51706314086914
1776870885195206400,1.921206298828125,-15.827041625976562,19.017295837402344,-19.66678237915039
1776870885205244400,1.931244384765625,-15.594383239746094,18.359024047851562,-20.618755340576172
1776870885215283700,1.94128369140625,-15.283164978027344,17.85468292236328,-21.19247055053711
1776870885225321500,1.951321533203125,-15.121543884277344,17.710433959960938,-21.55453872680664
1776870885235359500,1.961359375,-15.149627685546875,17.417190551757812,-21.836261749267578
1776870885245398500,1.9713984375,-15.095237731933594,17.253135681152344,-21.766239166259766
1776870885255436500,1.9814365234375,-15.300613403320312,17.304794311523438,-21.615345001220703
1776870885265474600,1.991474609375,-16.061782836914062,17.149635314941406,-21.344188690185547
1776870885275513300,2.001513427734375,-16.70502471923828,17.006141662597656,-20.891849517822266
1776870885285551600,2.011551513671875,-17.27509307861328,16.982276916503906,-20.309696197509766
1776870885295589400,2.02158935546875,-17.982460021972656,17.010086059570312,-20.005252838134766
1776870885305628400,2.03162841796875,-18.170433044433594,17.0643310546875,-19.682048797607422
1776870885315666400,2.04166650390625,-18.156295776367188,17.069625854492188,-19.384647369384766
1776870885325704400,2.051704345703125,-18.362442016601562,17.061614990234375,-19.231143951416016
1776870885335743500,2.061743408203125,-17.846717834472656,17.278114318847656,-19.209102630615234
1776870885345781500,2.071781494140625,-17.757110595703125,17.200088500976562,-19.509342193603516
1776870885355819500,2.081819580078125,-17.647911071777344,17.137046813964844,-19.817981719970703
1776870885365858600,2.091858642578125,-17.55286407470703,17.25293731689453,-20.195911407470703
1776870885375896600,2.101896484375,-17.281997680664062,17.20929718017578,-20.45486068725586
1776870885385934600,2.1119345703125,-17.176071166992188,16.992088317871094,-20.447010040283203
1776870885395973400,2.121973388671875,-17.143753051757812,17.11310577392578,-20.479793548583984
1776870885406011600,2.13201171875,-17.361709594726562,16.99553680419922,-20.286052703857422
1776870885416049400,2.14204931640625,-17.563636779785156,16.793106079101562,-20.080692291259766
1776870885426088400,2.15208837890625,-17.768028259277344,16.80144500732422,-19.70125961303711
1776870885436126500,2.16212646484375,-17.94176483154297,16.95134735107422,-19.513195037841797
1776870885446164700,2.172164794921875,-18.39092254638672,17.07146453857422,-19.33871078491211
1776870885456203500,2.18220361328125,-18.33434295654297,17.03954315185547,-19.030559539794922
1776870885466241500,2.192241455078125,-18.341819763183594,17.059059143066406,-18.990375518798828
1776870885476279600,2.202279541015625,-18.451141357421875,17.058082580566406,-18.744983673095703
1776870885486318600,2.212318603515625,-18.632125854492188,17.076156616210938,-18.682842254638672
1776870885496356600,2.222356689453125,-18.845603942871094,17.145225524902344,-18.677692413330078
1776870885506394600,2.23239453125,-18.740982055664062,17.273910522460938,-18.702877044677734
1776870885516433400,2.242433349609375,-18.451004028320312,17.256195068359375,-18.802227020263672
1776870885526471700,2.2524716796875,-18.488800048828125,17.28656005859375,-18.722949981689453
1776870885536509400,2.262509521484375,-18.642677307128906,17.284225463867188,-18.970539093017578
1776870885546548500,2.272548583984375,-18.587966918945312,16.96856689453125,-19.14480209350586
1776870885556586500,2.28258642578125,-18.214263916015625,16.910537719726562,-19.107280731201172
1776870885566624500,2.29262451171875,-18.42217254638672,17.019378662109375,-19.296184539794922
1776870885576663600,2.30266357421875,-18.474037170410156,16.988723754882812,-19.199779510498047
1776870885586701600,2.31270166015625,-18.760704040527344,16.977073669433594,-19.023357391357422
1776870885596739600,2.322739501953125,-19.00811767578125,17.035011291503906,-18.848529815673828
1776870885606778600,2.332778564453125,-19.074012756347656,17.105796813964844,-18.595035552978516
1776870885616816600,2.342816650390625,-19.112815856933594,17.113327026367188,-18.293407440185547
1776870885626854400,2.3528544921875,-19.328781127929688,17.132003784179688,-18.214031219482422
1776870885636893400,2.3628935546875,-19.502548217773438,17.213539123535156,-18.131412506103516
1776870885646931500,2.372931396484375,-19.78020477294922,17.16883087158203,-17.916019439697266
1776870885656969500,2.382969482421875,-19.750244140625,17.295738220214844,-17.69552993774414
1776870885667007500,2.393007568359375,-19.530052185058594,17.35924530029297,-17.476436614990234
1776870885677046500,2.403046630859375,-19.49498748779297,17.32451629638672,-17.534114837646484
1776870885687084500,2.41308447265625,-19.688552856445312,17.35993194580078,-17.622058868408203
1776870885697123600,2.42312353515625,-19.729507446289062,17.302452087402344,-17.62991714477539
1776870885707161300,2.433161376953125,-19.760848999023438,17.224639892578125,-17.692325592041016
1776870885717199600,2.44319970703125,-19.624549865722656,17.26641845703125,-17.746021270751953
1776870885727237400,2.4532373046875,-19.637420654296875,17.150772094726562,-17.779415130615234
1776870885737276700,2.463276611328125,-19.511085510253906,16.95557403564453,-17.850536346435547
1776870885747314400,2.473314453125,-19.3031005859375,16.722640991210938,-18.04196548461914
1776870885757352700,2.483352783203125,-19.26239776611328,16.662582397460938,-18.230083465576172
1776870885767391500,2.4933916015625,-19.276031494140625,16.736862182617188,-18.427852630615234
1776870885777429500,2.503429443359375,-19.419395446777344,16.746055603027344,-18.549243927001953
1776870885787467500,2.513467529296875,-19.434059143066406,16.738845825195312,-18.666751861572266
1776870885797506600,2.523506591796875,-19.337913513183594,16.62468719482422,-18.783618927001953
1776870885807544600,2.533544677734375,-19.122238159179688,16.46208953857422,-18.659854888916016
1776870885817582600,2.54358251953125,-18.978370666503906,16.525611877441406,-18.907154083251953
1776870885827621400,2.553621337890625,-18.987319946289062,16.43573760986328,-18.97665786743164
1776870885837659600,2.56365966796875,-19.107589721679688,16.599075317382812,-19.137027740478516
1776870885847697400,2.573697509765625,-19.186180114746094,16.599334716796875,-19.191097259521484
1776870885857736700,2.58373681640625,-19.020751953125,16.58118438720703,-19.006206512451172
1776870885867774500,2.5937744140625,-18.876968383789062,16.68121337890625,-19.057209014892578
1776870885877812700,2.603812744140625,-18.878219604492188,16.73619842529297,-19.090961456298828
1776870885887851500,2.6138515625,-18.824493408203125,16.800193786621094,-19.066638946533203
1776870885897889500,2.6238896484375,-18.7423095703125,16.875213623046875,-19.203800201416016
1776870885907927600,2.633927490234375,-18.75366973876953,16.7161865234375,-19.246273040771484
1776870885917966600,2.643966552734375,-18.6207275390625,16.61676025390625,-19.415782928466797
1776870885928004600,2.654004638671875,-18.72808837890625,16.64891815185547,-19.386554718017578
1776870885938042400,2.66404248046875,-18.78508758544922,16.559600830078125,-19.350605010986328
1776870885948081400,2.674081298828125,-18.637557983398438,16.625137329101562,-19.320484161376953
1776870885958119700,2.68411962890625,-18.52800750732422,16.7322998046875,-19.333202362060547
1776870885968157400,2.694157470703125,-18.573875427246094,16.5911865234375,-19.456501007080078
1776870885978196700,2.70419677734375,-18.663230895996094,16.50335693359375,-19.489696502685547
1776870885988234500,2.714234375,-18.58929443359375,16.373489379882812,-19.567096710205078
1776870885998272500,2.7242724609375,-18.633621215820312,16.320884704589844,-19.451107025146484
1776870886008311600,2.7343115234375,-18.853652954101562,16.144729614257812,-19.605365753173828
1776870886018349300,2.744349365234375,-18.790565490722656,16.156204223632812,-19.674854278564453
1776870886028387600,2.7543876953125,-18.94146728515625,16.210678100585938,-19.67867660522461
1776870886038426400,2.76442626953125,-18.880661010742188,16.291770935058594,-19.56130599975586
1776870886048464600,2.774464599609375,-18.709808349609375,16.383926391601562,-19.546756744384766
1776870886058502400,2.78450244140625,-18.72522735595703,16.421142578125,-19.485607147216797
1776870886068541400,2.79454150390625,-18.73969268798828,16.44934844970703,-19.563167572021484
1776870886078579500,2.804579345703125,-18.631515502929688,16.477928161621094,-19.617237091064453
1776870886088617500,2.814617431640625,-18.805686950683594,16.40247344970703,-19.482524871826172
1776870886098656500,2.824656494140625,-18.858749389648438,16.37116241455078,-19.45157241821289
1776870886108694500,2.834694580078125,-18.830413818359375,16.556076049804688,-19.474979400634766
1776870886118732500,2.844732666015625,-18.62981414794922,16.663490295410156,-19.480960845947266
1776870886128771600,2.854771484375,-18.582435607910156,16.734413146972656,-19.560001373291016
1776870886138809300,2.864809326171875,-18.084396362304688,16.912826538085938,-19.467639923095703
1776870886148847600,2.87484765625,-17.829612731933594,17.133216857910156,-19.845592498779297
1776870886158886400,2.884886474609375,-17.502578735351562,17.19146728515625,-20.086177825927734
1776870886168924700,2.894924560546875,-17.064369201660156,17.264907836914062,-20.158138275146484
1776870886178962400,2.90496240234375,-16.901405334472656,17.394927978515625,-20.32772445678711
1776870886189001500,2.91500146484375,-16.352867126464844,17.70655059814453,-20.388729095458984
1776870886199039500,2.92503955078125,-16.110061645507812,17.735427856445312,-20.51816177368164
1776870886209077500,2.935077392578125,-15.866943359375,17.942787170410156,-20.657970428466797
1776870886219116500,2.945116455078125,-15.628890991210938,18.151153564453125,-20.700878143310547
1776870886229154600,2.955154541015625,-15.474327087402344,18.26604461669922,-20.779529571533203
1776870886239192600,2.965192626953125,-15.16363525390625,18.687179565429688,-20.642230987548828
1776870886249231600,2.975231689453125,-14.939407348632812,19.13275909423828,-20.497821807861328
1776870886259269400,2.985269287109375,-14.650848388671875,19.58611297607422,-20.45852279663086
1776870886269307600,2.9953076171875,-14.170845031738281,20.083953857421875,-20.397510528564453
1776870886279346400,3.005346435546875,-13.265419006347656,20.32575225830078,-20.570507049560547
1776870886289384700,3.015384765625,-12.417366027832031,20.651756286621094,-20.934253692626953
1776870886299422500,3.02542236328125,-12.027694702148438,20.84754180908203,-21.12551498413086
1776870886309461500,3.03546142578125,-11.890533447265625,20.949844360351562,-21.210620880126953
1776870886319499500,3.04549951171875,-11.939682006835938,20.9407958984375,-21.241107940673828
1776870886329537500,3.05553759765625,-11.838722229003906,20.7379150390625,-21.398395538330078
1776870886339576600,3.06557666015625,-11.90313720703125,20.187095642089844,-21.79891586303711
1776870886349614600,3.075614501953125,-11.960159301757812,19.47046661376953,-22.49661636352539
1776870886359652600,3.085652587890625,-12.258064270019531,18.49571990966797,-23.113269805908203
1776870886369691600,3.095691650390625,-12.688011169433594,17.53411102294922,-23.806705474853516
1776870886379729400,3.1057294921875,-13.075325012207031,16.520851135253906,-24.336742401123047
1776870886389767400,3.115767333984375,-13.554374694824219,15.57086181640625,-24.654590606689453
1776870886399805400,3.125805419921875,-13.633460998535156,15.190101623535156,-24.751338958740234
1776870886409844700,3.1358447265625,-13.957786560058594,14.884796142578125,-24.829700469970703
1776870886419882500,3.145882568359375,-14.28936767578125,14.949539184570312,-24.67728042602539
1776870886429921500,3.155921630859375,-14.176765441894531,14.871849060058594,-24.607677459716797
1776870886439959600,3.16595947265625,-14.462722778320312,15.01007080078125,-24.583232879638672
1776870886449997300,3.175997314453125,-14.63494873046875,14.877944946289062,-24.26797103881836
1776870886460035600,3.18603564453125,-14.61114501953125,14.905799865722656,-24.195796966552734
1776870886470074400,3.196074462890625,-14.920867919921875,14.948539733886719,-23.88785171508789
1776870886480112600,3.206112548828125,-15.386253356933594,14.856918334960938,-23.872394561767578
1776870886490150400,3.216150390625,-15.828010559082031,14.607574462890625,-23.63614273071289
1776870886500189400,3.226189453125,-16.297027587890625,14.513381958007812,-23.430103302001953
1776870886510228200,3.236228271484375,-16.666847229003906,14.28387451171875,-23.070323944091797
1776870886520266200,3.246266357421875,-16.666847229003906,14.28387451171875,-23.070323944091797
1776870886530305300,3.25630517578125,-17.2470703125,13.910263061523438,-22.819278717041016
1776870886540343300,3.26634326171875,-17.2470703125,13.910263061523438,-22.819278717041016
1776870886550381000,3.276381103515625,-17.192771911621094,13.963623046875,-22.863666534423828
1776870886560420400,3.28642041015625,-16.94890594482422,13.934883117675781,-22.981319427490234
1776870886570458000,3.2964580078125,-16.565719604492188,13.756126403808594,-23.025165557861328
1776870886580496400,3.306496337890625,-16.59619140625,13.830619812011719,-23.111957550048828
1776870886590535200,3.31653515625,-16.645431518554688,13.881034851074219,-23.182018280029297
1776870886600573200,3.3265732421875,-16.792739868164062,13.892120361328125,-23.261363983154297
1776870886610611200,3.336611083984375,-16.816261291503906,13.687164306640625,-23.098575592041016
1776870886620650200,3.346650146484375,-16.80841064453125,13.621932983398438,-22.864681243896484
1776870886630688300,3.356688232421875,-17.129959106445312,13.724693298339844,-22.846294403076172
1776870886640726300,3.366726318359375,-17.321136474609375,13.734764099121094,-22.716388702392578
1776870886650765000,3.37676513671875,-17.30516815185547,13.754043579101562,-22.538928985595703
1776870886660803300,3.38680322265625,-17.140525817871094,13.74114990234375,-22.468257904052734
1776870886670841300,3.39684130859375,-16.895606994628906,13.83447265625,-22.204235076904297
1776870886680880400,3.40688037109375,-17.338050842285156,14.025764465332031,-22.122730255126953
1776870886690918100,3.416918212890625,-17.476966857910156,14.144363403320312,-22.021312713623047
1776870886700956400,3.426956298828125,-17.69159698486328,14.343711853027344,-21.893688201904297
1776870886710995200,3.4369951171875,-17.831756591796875,14.445304870605469,-21.650203704833984
1776870886721033200,3.447033203125,-17.99749755859375,14.343231201171875,-21.63431167602539
1776870886731071200,3.4570712890625,-18.15332794189453,14.378143310546875,-21.575138092041016
1776870886741110300,3.4671103515625,-18.263763427734375,14.400611877441406,-21.592021942138672
1776870886751148300,3.477148193359375,-18.232559204101562,14.443092346191406,-21.709789276123047
1776870886761186300,3.487186279296875,-18.251296997070312,14.419921875,-21.620906829833984
1776870886771225000,3.49722509765625,-18.03734588623047,14.501312255859375,-21.657512664794922
1776870886781263400,3.507263427734375,-18.352752685546875,14.5989990234375,-21.534847259521484
1776870886791301400,3.51730126953125,-18.220558166503906,14.617897033691406,-21.588581085205078
1776870886801340400,3.52734033203125,-18.35698699951172,14.532379150390625,-21.500141143798828
1776870886811378200,3.537378173828125,-18.246231079101562,14.244499206542969,-21.235210418701172
1776870886821416400,3.54741650390625,-18.421478271484375,14.364120483398438,-21.296947479248047
1776870886831455200,3.557455322265625,-18.312889099121094,14.543731689453125,-21.400150299072266
1776870886841493200,3.5674931640625,-18.300201416015625,14.494544982910156,-21.298198699951172
1776870886851531300,3.57753125,-18.35179901123047,14.637619018554688,-21.296504974365234
1776870886861570300,3.5875703125,-18.479896545410156,14.565879821777344,-21.121395111083984
1776870886871608300,3.5976083984375,-18.768821716308594,14.540855407714844,-21.07278060913086
1776870886881646000,3.60764599609375,-18.787139892578125,14.626319885253906,-21.139591217041016
1776870886891685000,3.61768505859375,-18.88512420654297,14.765174865722656,-21.19363784790039
1776870886901723400,3.627723388671875,-18.799964904785156,14.599647521972656,-21.06313705444336
1776870886911761400,3.637761474609375,-18.834266662597656,14.672286987304688,-21.041805267333984
1776870886921800400,3.647800537109375,-18.75568389892578,14.545974731445312,-21.023754119873047
1776870886931838200,3.657838134765625,-18.696685791015625,14.518478393554688,-21.15865707397461
1776870886941876200,3.667876220703125,-18.806427001953125,14.52569580078125,-20.979389190673828
1776870886951915300,3.677915283203125,-18.525619506835938,14.679336547851562,-20.870479583740234
1776870886961953300,3.687953369140625,-18.619537353515625,14.559486389160156,-20.694049835205078
1776870886971991300,3.6979912109375,-18.61260223388672,14.653060913085938,-20.777286529541016
1776870886982030000,3.708030029296875,-18.606369018554688,14.533409118652344,-20.825611114501953
1776870886992068400,3.718068359375,-18.93798828125,14.456184387207031,-20.751483917236328
1776870887002106000,3.728106201171875,-18.76642608642578,14.444862365722656,-20.735919952392578
1776870887012145400,3.7381455078125,-19.088623046875,14.390754699707031,-20.74001693725586
1776870887022183200,3.74818310546875,-19.095809936523438,14.525314331054688,-20.854412078857422
1776870887032221400,3.758221435546875,-19.04876708984375,14.403327941894531,-20.798908233642578
1776870887042260200,3.76826025390625,-19.293487548828125,14.409805297851562,-20.846622467041016
1776870887052298200,3.77829833984375,-19.083961486816406,14.4503173828125,-20.787708282470703
1776870887062336300,3.788336181640625,-19.20020294189453,14.5286865234375,-20.838085174560547
1776870887072375300,3.798375244140625,-19.146270751953125,14.510162353515625,-20.762653350830078
1776870887082413300,3.808413330078125,-19.196578979492188,14.523483276367188,-20.781429290771484
1776870887092451300,3.818451416015625,-19.37798309326172,14.350166320800781,-20.618473052978516
1776870887102490000,3.828489990234375,-19.394126892089844,14.229789733886719,-20.624431610107422
1776870887112528400,3.8385283203125,-19.557968139648438,14.43499755859375,-20.63333511352539
1776870887122566100,3.848566162109375,-19.63970184326172,14.290229797363281,-20.414447784423828
1776870887132605400,3.85860546875,-19.7095947265625,14.300247192382812,-20.39175033569336
1776870887142643200,3.868643310546875,-19.661911010742188,14.221649169921875,-20.082942962646484
1776870887152681500,3.878681396484375,-19.80573272705078,14.319732666015625,-20.178966522216797
1776870887162720300,3.88872021484375,-19.919227600097656,14.226119995117188,-20.129009246826172
1776870887172758300,3.89875830078125,-20.24755096435547,14.051094055175781,-19.996158599853516
1776870887182796300,3.90879638671875,-20.062469482421875,14.298698425292969,-20.067279815673828
1776870887192835300,3.91883544921875,-20.356399536132812,14.207847595214844,-19.848651885986328
1776870887202873300,3.928873291015625,-20.3861083984375,14.177925109863281,-19.85873794555664
1776870887212911400,3.938911376953125,-20.560745239257812,14.200599670410156,-19.845439910888672
1776870887222950100,3.9489501953125,-20.575355529785156,14.134651184082031,-19.92385482788086
1776870887232988400,3.958988525390625,-20.497833251953125,13.948165893554688,-19.904582977294922
1776870887243026200,3.969026123046875,-20.80321502685547,14.003890991210938,-19.973285675048828
1776870887253065500,3.9790654296875,-20.461715698242188,13.82635498046875,-19.949520111083984
1776870887263103200,3.989103271484375,-20.60498046875,13.732368469238281,-20.064876556396484
1776870887273141500,3.9991416015625,-20.75817108154297,13.606063842773438,-19.946453094482422
1776870887283180300,4.00918017578125,-20.469398498535156,13.621871948242188,-20.014270782470703
1776870887293218300,4.01921826171875,-20.719093322753906,13.440719604492188,-20.03304672241211
1776870887303256300,4.02925634765625,-20.647048950195312,13.22576904296875,-20.12259292602539
1776870887313294000,4.039294189453125,-20.680870056152344,13.152389526367188,-20.195667266845703
1776870887323333400,4.04933349609375,-20.521041870117188,12.960289001464844,-20.29117202758789
1776870887333371100,4.05937109375,-20.374282836914062,13.129425048828125,-20.207141876220703
1776870887343410200,4.06941015625,-20.556419372558594,13.04052734375,-20.380924224853516
1776870887353448200,4.0794482421875,-20.65924072265625,13.059539794921875,-20.584354400634766
1776870887363486200,4.089486328125,-20.626007080078125,12.935951232910156,-20.711856842041016
1776870887373524200,4.099524169921875,-20.727310180664062,12.976043701171875,-20.710186004638672
1776870887383563300,4.109563232421875,-20.494346618652344,12.706352233886719,-20.742328643798828
1776870887393601300,4.119601318359375,-20.34803009033203,12.64007568359375,-20.814441680908203
1776870887403639300,4.129639404296875,-20.2803955078125,12.548927307128906,-20.96316909790039
1776870887413678000,4.139677978515625,-20.379844665527344,12.421562194824219,-21.107303619384766
1776870887423716400,4.14971630859375,-20.360939025878906,12.283065795898438,-21.097698211669922
1776870887433755100,4.159755126953125,-20.237945556640625,12.160415649414062,-21.397228240966797
1776870887443793400,4.16979345703125,-20.27729034423828,12.094184875488281,-21.748790740966797
1776870887453831200,4.1798310546875,-19.69190216064453,11.950057983398438,-22.056903839111328
1776870887463869400,4.189869384765625,-19.863433837890625,11.795173645019531,-22.22011947631836
1776870887473908200,4.199908203125,-19.27178192138672,11.638565063476562,-22.308650970458984
1776870887483946200,4.2099462890625,-19.397842407226562,11.515052795410156,-22.581829071044922
1776870887493984300,4.219984375,-19.266212463378906,11.304542541503906,-22.757518768310547
1776870887504023300,4.230023193359375,-19.076271057128906,10.991073608398438,-22.913921356201172
1776870887514061300,4.240061279296875,-18.963043212890625,10.776443481445312,-23.22274398803711
1776870887524099300,4.250099365234375,-18.767478942871094,10.547225952148438,-23.358707427978516
1776870887534138000,4.26013818359375,-18.443397521972656,10.13153076171875,-23.57547378540039
1776870887544176400,4.27017626953125,-18.419586181640625,9.9669189453125,-24.097354888916016
1776870887554214100,4.280214111328125,-18.246253967285156,9.608238220214844,-24.255352020263672
1776870887564253400,4.29025341796875,-17.90314483642578,9.333282470703125,-24.415714263916016
1776870887574291200,4.300291259765625,-17.627845764160156,9.124198913574219,-24.724300384521484
1776870887584329500,4.31032958984375,-17.374351501464844,8.683601379394531,-25.08272933959961
1776870887594368300,4.3203681640625,-17.052406311035156,8.400672912597656,-25.335025787353516
1776870887604406300,4.33040625,-16.60742950439453,7.9737548828125,-25.648906707763672
1776870887614444300,4.3404443359375,-16.063438415527344,7.6030120849609375,-26.021915435791016
1776870887624483300,4.3504833984375,-15.888397216796875,7.213104248046875,-26.320148468017578
1776870887634521300,4.360521240234375,-15.532783508300781,6.9881591796875,-26.707401275634766
1776870887644559400,4.370559326171875,-15.007560729980469,6.8533477783203125,-27.122615814208984
1776870887654598100,4.38059814453125,-14.837753295898438,6.553352355957031,-27.312152862548828
1776870887664636400,4.390636474609375,-14.478446960449219,6.25640869140625,-27.445842742919922
1776870887674674200,4.400674072265625,-14.483596801757812,5.9668426513671875,-27.76186752319336
1776870887684713500,4.41071337890625,-14.267814636230469,5.580352783203125,-27.948299407958984
1776870887694751200,4.420751220703125,-14.120124816894531,5.240058898925781,-28.214275360107422
1776870887704789500,4.43078955078125,-14.016044616699219,4.977752685546875,-28.320919036865234
1776870887714828300,4.440828369140625,-13.854888916015625,4.820793151855469,-28.416309356689453
1776870887724866300,4.4508662109375,-13.869270324707031,4.5620269775390625,-28.581676483154297
1776870887734904300,4.460904296875,-13.625625610351562,4.321907043457031,-28.638469696044922
1776870887744943400,4.470943359375,-13.456748962402344,4.299537658691406,-28.693134307861328
1776870887754981400,4.4809814453125,-12.951797485351562,4.469818115234375,-28.85525131225586
1776870887765019400,4.491019287109375,-12.6368408203125,4.506278991699219,-29.099620819091797
1776870887775058200,4.50105810546875,-12.608200073242188,4.52099609375,-29.254390716552734
1776870887785096400,4.511096435546875,-12.177146911621094,4.380149841308594,-29.42403793334961
1776870887795134200,4.52113427734375,-11.78546142578125,4.2658538818359375,-29.622074127197266
1776870887805173500,4.531173583984375,-11.535720825195312,3.912109375,-29.679920196533203
1776870887815211300,4.541211181640625,-11.1624755859375,3.610443115234375,-29.982471466064453
1776870887825249300,4.551249267578125,-10.8773193359375,3.0320892333984375,-30.332569122314453
1776870887835288300,4.561288330078125,-10.751388549804688,2.6202163696289062,-30.460918426513672
1776870887845326300,4.571326416015625,-10.52197265625,2.1019058227539062,-30.671611785888672
1776870887855364400,4.5813642578125,-10.024932861328125,1.7279815673828125,-30.693981170654297
1776870887865403400,4.5914033203125,-10.046867370605469,1.5387420654296875,-30.850955963134766
1776870887875441400,4.60144140625,-9.513580322265625,1.3263397216796875,-31.006267547607422
1776870887885479200,4.611479248046875,-9.565383911132812,1.1571197509765625,-31.045841217041016
1776870887895518200,4.621518310546875,-9.686172485351562,1.068878173828125,-30.872722625732422
1776870887905556200,4.63155615234375,-10.009780883789062,1.204681396484375,-31.06466293334961
1776870887915594200,4.64159423828125,-10.034149169921875,0.9701614379882812,-31.038143157958984
1776870887925633300,4.65163330078125,-9.880393981933594,0.9310989379882812,-31.07107925415039
1776870887935671300,4.66167138671875,-9.86572265625,0.89630126953125,-31.173145294189453
1776870887945709300,4.671709228515625,-9.821296691894531,1.0081253051757812,-31.006656646728516
1776870887955748400,4.681748291015625,-9.918022155761719,0.8314132690429688,-31.096256256103516
1776870887965786000,4.6917861328125,-9.9066162109375,1.0064010620117188,-31.161792755126953
1776870887975824400,4.701824462890625,-10.014320373535156,1.0660552978515625,-31.213611602783203
1776870887985863200,4.71186328125,-10.194267272949219,0.9080429077148438,-31.054630279541016
1776870887995901400,4.7219013671875,-10.265174865722656,0.8906402587890625,-31.012218475341797
1776870888005939200,4.731939208984375,-10.265174865722656,0.8906402587890625,-31.012218475341797
1776870888015978200,4.741978271484375,-10.332275390625,1.0706558227539062,-31.101329803466797
1776870888026016300,4.752016357421875,-10.624282836914062,1.0650100708007812,-30.99081802368164
1776870888036054300,4.76205419921875,-10.79815673828125,1.0956039428710938,-31.06888198852539
1776870888046093300,4.77209326171875,-10.92401123046875,0.9944610595703125,-30.90847396850586
1776870888056131300,4.78213134765625,-10.983062744140625,0.8676834106445312,-30.77060317993164
1776870888066169300,4.79216943359375,-11.199302673339844,0.834320068359375,-30.716129302978516
1776870888076208400,4.80220849609375,-11.073616027832031,0.8165130615234375,-30.70114517211914
1776870888086246100,4.81224609375,-11.070228576660156,0.7417144775390625,-30.711238861083984
1776870888096284400,4.822284423828125,-11.071846008300781,0.5465545654296875,-30.640445709228516
1776870888106323200,4.8323232421875,-11.286811828613281,0.3522796630859375,-30.742610931396484
1776870888116361500,4.842361572265625,-11.224708557128906,0.23247528076171875,-30.77883529663086
1776870888126399200,4.852399169921875,-11.38311767578125,0.210693359375,-30.703975677490234
1776870888136438300,4.862438232421875,-11.412544250488281,-0.03426361083984375,-30.577922821044922
1776870888146476300,4.872476318359375,-11.419937133789062,-0.208404541015625,-30.516010284423828
1776870888156514300,4.882514404296875,-11.581741333007812,-0.46521759033203125,-30.538509368896484
1776870888166553300,4.89255322265625,-11.742950439453125,-0.5555953979492188,-30.699359893798828
1776870888176591400,4.90259130859375,-11.619735717773438,-0.83746337890625,-30.77292251586914
1776870888186629400,4.91262939453125,-11.744552612304688,-0.9691619873046875,-30.767223358154297
1776870888196668400,4.92266845703125,-11.243064880371094,-0.9989852905273438,-30.718807220458984
1776870888206706200,4.9327060546875,-10.922660827636719,-1.0472488403320312,-30.779537200927734
1776870888216744400,4.942744384765625,-10.730934143066406,-1.2017288208007812,-31.012325286865234
1776870888226783200,4.952783203125,-10.731193542480469,-1.1218948364257812,-31.062488555908203
1776870888236821500,4.962821533203125,-10.568511962890625,-1.2230072021484375,-31.129749298095703
1776870888246859300,4.972859375,-10.349632263183594,-1.6375503540039062,-30.962833404541016
1776870888256898300,4.982898193359375,-10.432716369628906,-1.6869964599609375,-31.211498260498047
1776870888266936300,4.992936279296875,-10.53375244140625,-1.761322021484375,-31.24911117553711
1776870888276974000,5.00297412109375,-10.447105407714844,-1.7475814819335938,-31.308521270751953
1776870888287013400,5.013013427734375,-10.307357788085938,-1.8487091064453125,-31.144756317138672
1776870888297051100,5.023051025390625,-10.586685180664062,-1.6735153198242188,-31.130901336669922
1776870888307089400,5.03308935546875,-10.511421203613281,-1.6086044311523438,-31.072154998779297
1776870888317127200,5.043127197265625,-10.827537536621094,-1.5098114013671875,-31.13370132446289
1776870888327166200,5.053166259765625,-10.825897216796875,-1.2479705810546875,-31.311595916748047
1776870888337204200,5.063204345703125,-10.416229248046875,-1.24713134765625,-31.321178436279297
1776870888347243300,5.0732431640625,-10.339134216308594,-1.0964126586914062,-31.242992401123047
1776870888357281300,5.08328125,-9.785881042480469,-0.9021759033203125,-31.452762603759766
1776870888367319300,5.0933193359375,-9.481491088867188,-0.9771270751953125,-31.587779998779297
1776870888377357300,5.103357421875,-8.9705810546875,-0.8712387084960938,-31.872867584228516
1776870888387396400,5.113396240234375,-8.518913269042969,-0.8032150268554688,-31.980770111083984
1776870888397434000,5.12343408203125,-8.030509948730469,-0.6953277587890625,-32.140872955322266
1776870888407472400,5.133472412109375,-7.745872497558594,-0.8151168823242188,-32.24570083618164
1776870888417511200,5.14351123046875,-7.474449157714844,-1.002777099609375,-32.32803726196289
1776870888427549400,5.153549560546875,-7.279197692871094,-1.0817184448242188,-32.30788803100586
1776870888437587200,5.163587158203125,-7.194328308105469,-1.095458984375,-32.3271598815918
1776870888447626200,5.173626220703125,-7.3807220458984375,-1.1818161010742188,-32.31924057006836
1776870888457664300,5.183664306640625,-7.570281982421875,-1.418426513671875,-32.13497543334961
1776870888467702300,5.193702392578125,-7.892311096191406,-1.3089828491210938,-32.14694595336914
1776870888477741300,5.2037412109375,-8.129234313964844,-1.2796478271484375,-32.06382369995117
1776870888487779300,5.213779296875,-8.3968505859375,-1.3187026977539062,-31.91921615600586
1776870888497817300,5.2238173828125,-8.745040893554688,-1.5510406494140625,-31.85982894897461
1776870888507856100,5.233856201171875,-8.889167785644531,-1.5158233642578125,-31.797252655029297
1776870888517894100,5.24389404296875,-9.111320495605469,-1.5376129150390625,-31.761531829833984
1776870888527932000,5.253931884765625,-9.104293823242188,-1.5455703735351562,-31.582698822021484
1776870888537971000,5.263970947265625,-8.946609497070312,-1.6048736572265625,-31.534740447998047
1776870888548009000,5.274009033203125,-9.104949951171875,-1.6862411499023438,-31.796741485595703
1776870888558047000,5.284046875,-9.152519226074219,-1.7109527587890625,-31.738330841064453
1776870888568086000,5.2940859375,-8.952301025390625,-1.7538299560546875,-31.626346588134766
1776870888578124000,5.3041240234375,-8.589569091796875,-1.5412750244140625,-31.679859161376953
1776870888588162000,5.314162109375,-8.664337158203125,-1.6682281494140625,-31.657581329345703
1776870888598201000,5.324201171875,-8.539443969726562,-1.6793212890625,-31.779666900634766
1776870888608238800,5.33423876953125,-8.663375854492188,-1.6341171264648438,-31.672359466552734
1776870888618277000,5.344277099609375,-8.450103759765625,-1.5360946655273438,-31.603900909423828
1776870888628316000,5.35431591796875,-8.407745361328125,-1.6035079956054688,-31.69509506225586
1776870888638354200,5.364354248046875,-8.445663452148438,-1.6390457153320312,-31.625118255615234
1776870888648392000,5.374391845703125,-8.847259521484375,-1.69842529296875,-31.616535186767578
1776870888658431000,5.384430908203125,-8.771614074707031,-1.6730804443359375,-31.580829620361328
1776870888668469000,5.394468994140625,-8.386222839355469,-1.6908493041992188,-31.482707977294922
1776870888678507000,5.404507080078125,-8.444877624511719,-1.6628189086914062,-31.429752349853516
1776870888688546000,5.414546142578125,-8.765403747558594,-1.6616134643554688,-31.472705841064453
1776870888698584000,5.424583984375,-9.109855651855469,-1.6583023071289062,-31.527179718017578
1776870888708622000,5.4346220703125,-9.000923156738281,-1.6490631103515625,-31.63241195678711
1776870888718661000,5.4446611328125,-8.87664794921875,-1.7337188720703125,-31.523509979248047
1776870888728699000,5.454698974609375,-8.888801574707031,-1.6813201904296875,-31.615581512451172
1776870888738737200,5.464737060546875,-9.026870727539062,-1.6644363403320312,-31.518314361572266
1776870888748776000,5.47477587890625,-9.284507751464844,-1.5959548950195312,-31.50491714477539
1776870888758814200,5.484814208984375,-9.400787353515625,-1.462432861328125,-31.478336334228516
1776870888768852000,5.49485205078125,-9.090705871582031,-1.522430419921875,-31.48250961303711
1776870888778891000,5.50489111328125,-9.242668151855469,-1.3587570190429688,-31.43918228149414
1776870888788929000,5.514928955078125,-9.215446472167969,-1.5031890869140625,-31.43027114868164
1776870888798967000,5.524967041015625,-9.483421325683594,-1.5034866333007812,-31.417041778564453
1776870888809006000,5.535006103515625,-9.269760131835938,-1.38446044921875,-31.271976470947266
1776870888819044000,5.545044189453125,-9.030860900878906,-1.386993408203125,-31.333484649658203
1776870888829082000,5.55508203125,-9.098930358886719,-1.4081573486328125,-31.399288177490234
1776870888839121200,5.56512109375,-9.165550231933594,-1.305633544921875,-31.40768814086914
1776870888849159000,5.575158935546875,-9.158531188964844,-1.4650955200195312,-31.548755645751953
1776870888859197000,5.585197021484375,-9.035713195800781,-1.44219970703125,-31.49312973022461
1776870888869236000,5.595236083984375,-8.853752136230469,-1.4587249755859375,-31.468975067138672
1776870888879274200,5.605274169921875,-9.042686462402344,-1.5367050170898438,-31.634273529052734
1776870888889312000,5.61531201171875,-9.181068420410156,-1.6431427001953125,-31.652210235595703
1776870888899351000,5.62535107421875,-9.05426025390625,-1.765716552734375,-31.620311737060547
1776870888909389000,5.63538916015625,-8.71124267578125,-1.7065963745117188,-31.49898910522461
1776870888919426800,5.6454267578125,-8.708717346191406,-1.59039306640625,-31.678821563720703
1776870888929466000,5.655466064453125,-8.849937438964844,-1.7285537719726562,-31.753170013427734
1776870888939503900,5.66550390625,-8.869346618652344,-1.5592193603515625,-31.736186981201172
1776870888949542100,5.675542236328125,-8.745559692382812,-1.6685028076171875,-31.68167495727539
1776870888959581200,5.685581298828125,-8.838768005371094,-1.6470718383789062,-31.63167953491211
1776870888969619000,5.695618896484375,-8.749832153320312,-1.6247100830078125,-31.793087005615234
1776870888979657000,5.705656982421875,-8.666366577148438,-1.6280059814453125,-31.739582061767578
1776870888989696000,5.715696044921875,-8.695968627929688,-1.7293472290039062,-31.783550262451172
1776870888999734000,5.725734130859375,-8.453712463378906,-1.8239974975585938,-31.848125457763672
1776870889009772000,5.73577197265625,-8.545753479003906,-1.7975616455078125,-31.831417083740234
1776870889019810800,5.745810791015625,-8.759140014648438,-1.9818267822265625,-31.80642318725586
1776870889029849000,5.75584912109375,-8.558914184570312,-1.925750732421875,-31.874927520751953
1776870889039886800,5.765886962890625,-8.538047790527344,-1.9444198608398438,-31.964282989501953
1776870889049926100,5.775926025390625,-8.131423950195312,-1.8961257934570312,-31.82992935180664
1776870889059964000,5.7859638671875,-8.037811279296875,-2.0956192016601562,-31.891788482666016
1776870889070002200,5.796002197265625,-8.298919677734375,-2.0155105590820312,-31.924434661865234
1776870889080041000,5.806041015625,-8.395065307617188,-1.9380035400390625,-31.993900299072266
1776870889090079000,5.816078857421875,-8.2119140625,-2.0755157470703125,-31.96291732788086
1776870889100117000,5.826116943359375,-8.316650390625,-2.0087127685546875,-31.987606048583984
1776870889110156000,5.836156005859375,-8.210189819335938,-2.1977996826171875,-31.980175018310547
1776870889120194000,5.846194091796875,-8.354217529296875,-2.0703201293945312,-32.1871223449707
1776870889130232000,5.856232177734375,-8.361671447753906,-2.1720809936523438,-32.24562454223633
1776870889140270800,5.866270751953125,-8.089851379394531,-2.1068649291992188,-32.06467056274414
1776870889150309000,5.87630908203125,-8.122283935546875,-2.13568115234375,-32.098392486572266
1776870889160347000,5.886346923828125,-8.151237487792969,-2.1787109375,-32.28135299682617
1776870889170386200,5.89638623046875,-8.245964050292969,-2.1766510009765625,-32.36722183227539
1776870889180424000,5.906423828125,-8.2120361328125,-2.3074569702148438,-32.39737319946289
1776870889190462200,5.916462158203125,-8.030441284179688,-2.1054000854492188,-32.26297378540039
1776870889200501000,5.9265009765625,-7.846382141113281,-2.079010009765625,-32.23329544067383
1776870889210539000,5.9365390625,-7.736732482910156,-2.0891265869140625,-32.36812973022461
1776870889220577000,5.946576904296875,-7.63323974609375,-1.985504150390625,-32.31546401977539
1776870889230616000,5.956615966796875,-7.779899597167969,-1.8584747314453125,-32.39712905883789
1776870889240654000,5.966654052734375,-7.536186218261719,-1.7305068969726562,-32.27670669555664
1776870889250692000,5.976692138671875,-7.54461669921875,-1.555084228515625,-32.32802200317383
1776870889260731000,5.98673095703125,-7.812774658203125,-1.3726348876953125,-32.35367202758789
1776870889270769200,5.99676904296875,-7.8672943115234375,-1.3573837280273438,-32.27653884887695
1776870889280807000,6.006806884765625,-7.9796905517578125,-1.3558731079101562,-32.17665481567383
1776870889290845000,6.016844970703125,-7.9583892822265625,-1.3718719482421875,-32.00673294067383
1776870889300884000,6.026884033203125,-8.189201354980469,-1.3622360229492188,-32.205020904541016
1776870889310922000,6.036921875,-8.3758544921875,-1.330902099609375,-32.1052131652832
1776870889320961000,6.0469609375,-8.4405517578125,-1.3147125244140625,-32.087039947509766
1776870889330999000,6.0569990234375,-8.565383911132812,-1.2881393432617188,-32.11397171020508
1776870889341037000,6.067037109375,-8.797073364257812,-1.3162078857421875,-31.975284576416016
1776870889351074800,6.07707470703125,-8.880142211914062,-1.3714065551757812,-31.882244110107422
1776870889361114000,6.087114013671875,-9.167831420898438,-1.5363845825195312,-32.010257720947266
1776870889371152000,6.09715185546875,-9.135993957519531,-1.6686782836914062,-31.951801300048828
1776870889381190100,6.107190185546875,-8.886985778808594,-1.62640380859375,-31.772518157958984
1776870889391229000,6.11722900390625,-8.933937072753906,-1.5663909912109375,-31.82583999633789
1776870889401267000,6.127266845703125,-9.072731018066406,-1.6676025390625,-31.878047943115234
1776870889411305000,6.137304931640625,-8.970085144042969,-1.8201751708984375,-31.91855239868164
1776870889421344000,6.147343994140625,-8.9215087890625,-2.1097793579101562,-31.80594253540039
1776870889431382000,6.157382080078125,-8.567466735839844,-2.0610580444335938,-31.823688507080078
1776870889441420000,6.167419921875,-8.623138427734375,-2.4080276489257812,-31.89310073852539
1776870889451458800,6.177458740234375,-8.637527465820312,-2.320758819580078,-31.706165313720703
1776870889461497000,6.1874970703125,-8.631134033203125,-2.3796043395996094,-31.741497039794922
1776870889471534800,6.197534912109375,-8.701766967773438,-2.4398956298828125,-31.70053482055664
1776870889481574100,6.20757421875,-8.707992553710938,-2.5968551635742188,-31.597583770751953
1776870889491612000,6.21761181640625,-8.664237976074219,-2.5654678344726562,-31.651683807373047
1776870889501650200,6.227650146484375,-8.729766845703125,-2.439044952392578,-31.727619171142578
1776870889511688200,6.237688232421875,-9.056411743164062,-2.5180397033691406,-31.70846176147461
1776870889521726500,6.2477265625,-9.056411743164062,-2.5180397033691406,-31.70846176147461
1776870889531764200,6.25776416015625,-9.052375793457031,-2.3741416931152344,-31.662662506103516
1776870889541803300,6.26780322265625,-9.212898254394531,-2.368152618408203,-31.48727798461914
1776870889551841300,6.27784130859375,-9.428558349609375,-2.3067359924316406,-31.650753021240234
1776870889561879300,6.28787939453125,-9.574256896972656,-2.1791229248046875,-31.62807846069336
1776870889571918300,6.29791845703125,-9.801651000976562,-2.1256332397460938,-31.575794219970703
1776870889581956400,6.307956298828125,-10.04296875,-1.9247970581054688,-31.420406341552734
1776870889591994400,6.317994384765625,-9.967399597167969,-1.6029586791992188,-31.393184661865234
1776870889602033400,6.328033447265625,-9.938606262207031,-1.6450576782226562,-31.49026870727539
1776870889612071200,6.3380712890625,-10.008567810058594,-1.411895751953125,-31.516620635986328
1776870889622109400,6.348109375,-9.8868408203125,-1.302734375,-31.502552032470703
1776870889632148200,6.358148193359375,-9.806114196777344,-1.141448974609375,-31.425296783447266
1776870889642186500,6.3681865234375,-9.661109924316406,-1.0974502563476562,-31.47323989868164
1776870889652224300,6.378224365234375,-9.548957824707031,-1.0513381958007812,-31.592388153076172
1776870889662263300,6.38826318359375,-9.443740844726562,-0.6886367797851562,-31.644176483154297
1776870889672301300,6.39830126953125,-9.347640991210938,-0.7171554565429688,-31.62833023071289
1776870889682339000,6.408339111328125,-9.29608154296875,-0.7890853881835938,-31.62088394165039
1776870889692378400,6.41837841796875,-9.591072082519531,-0.8647613525390625,-31.626758575439453
1776870889702416400,6.42841650390625,-9.431640625,-0.8244781494140625,-31.603572845458984
1776870889712454400,6.438454345703125,-9.600059509277344,-0.9340744018554688,-31.563976287841797
1776870889722493400,6.448493408203125,-9.389358520507812,-0.8840484619140625,-31.466358184814453
1776870889732531200,6.45853125,-9.500114440917969,-0.9472732543945312,-31.45877456665039
1776870889742569200,6.4685693359375,-9.458549499511719,-0.96783447265625,-31.52493667602539
1776870889752608300,6.478608154296875,-9.652351379394531,-1.1348953247070312,-31.64578628540039
1776870889762646300,6.488646240234375,-9.632568359375,-1.311370849609375,-31.521244049072266
1776870889772684300,6.498684326171875,-9.436355590820312,-1.5231170654296875,-31.54665756225586
1776870889782723300,6.508723388671875,-9.563064575195312,-1.6724929809570312,-31.684795379638672
1776870889792761300,6.51876123046875,-9.376449584960938,-1.9053573608398438,-31.764446258544922
1776870889802799000,6.528799072265625,-9.403854370117188,-2.0324478149414062,-31.894672393798828
1776870889812838400,6.53883837890625,-8.911285400390625,-2.1050033569335938,-31.88522720336914
1776870889822876200,6.548876220703125,-8.315025329589844,-2.3171920776367188,-31.950191497802734
1776870889832914400,6.55891455078125,-8.219413757324219,-2.4562110900878906,-32.18257522583008
1776870889842953200,6.568953125,-8.103614807128906,-2.4178390502929688,-32.36647415161133
1776870889852991200,6.5789912109375,-7.983604431152344,-2.4898338317871094,-32.31535720825195
1776870889863029200,6.589029296875,-7.6526641845703125,-2.532299041748047,-32.214534759521484
1776870889873068300,6.599068359375,-7.665214538574219,-2.7377967834472656,-32.343936920166016
1776870889883106300,6.609106201171875,-7.3103485107421875,-2.6735877990722656,-32.69755172729492
1776870889893144300,6.619144287109375,-6.711090087890625,-2.8757476806640625,-32.66679763793945
1776870889903183000,6.62918310546875,-6.028419494628906,-2.9017486572265625,-32.88408279418945
1776870889913221400,6.639221435546875,-5.32598876953125,-2.765941619873047,-32.87974166870117
1776870889923259100,6.649259033203125,-4.919670104980469,-2.6355628967285156,-32.89643478393555
1776870889933298400,6.65929833984375,-4.964324951171875,-2.5744857788085938,-33.0106315612793
1776870889943336200,6.669336181640625,-5.3697052001953125,-2.3448524475097656,-32.9875602722168
1776870889953374500,6.67937451171875,-5.356636047363281,-2.1654586791992188,-32.96809005737305
1776870889963413200,6.689413330078125,-5.8804473876953125,-2.0217361450195312,-32.95267868041992
1776870889973451300,6.699451171875,-6.46746826171875,-2.0835723876953125,-32.86539840698242
1776870889983489300,6.7094892578125,-6.912506103515625,-1.8263015747070312,-32.9361686706543
1776870889993528300,6.7195283203125,-7.1402435302734375,-1.4094772338867188,-32.89218521118164
1776870890003566300,6.72956640625,-6.977775573730469,-1.1455535888671875,-32.88570022583008
1776870890013604400,6.739604248046875,-7.03533935546875,-0.9357452392578125,-32.91218185424805
1776870890023643100,6.74964306640625,-6.872474670410156,-0.7025222778320312,-33.09235763549805
1776870890033681400,6.759681396484375,-6.62567138671875,-0.51043701171875,-33.22404098510742
1776870890043719200,6.76971923828125,-6.352882385253906,-0.42838287353515625,-33.31436538696289
1776870890053758500,6.779758544921875,-6.024772644042969,-0.40343475341796875,-33.195011138916016
1776870890063796200,6.789796142578125,-5.847015380859375,-0.5415802001953125,-33.192752838134766
1776870890073834500,6.79983447265625,-5.9748992919921875,-0.6435928344726562,-33.3825569152832
1776870890083873300,6.809873291015625,-5.821533203125,-0.7538909912109375,-33.41347122192383
1776870890093911300,6.819911376953125,-5.998680114746094,-0.9309616088867188,-33.37031173706055
1776870890103949300,6.82994921875,-5.986488342285156,-1.0014495849609375,-33.31405258178711
1776870890113987300,6.8399873046875,-6.128746032714844,-1.1198883056640625,-33.35262680053711
1776870890124026400,6.8500263671875,-6.206916809082031,-1.214202880859375,-33.362667083740234
1776870890134064000,6.860064208984375,-6.1593475341796875,-1.5261077880859375,-33.31960678100586
1776870890144103200,6.870103271484375,-5.9852294921875,-1.4583816528320312,-33.2358512878418
1776870890154141400,6.880141357421875,-5.8249969482421875,-1.57489013671875,-33.25980758666992
1776870890164179200,6.89017919921875,-5.8359832763671875,-1.6921920776367188,-33.3374137878418
1776870890174218500,6.900218505859375,-5.716949462890625,-1.730743408203125,-33.360538482666016
1776870890184256300,6.91025634765625,-5.726715087890625,-1.684600830078125,-33.42441940307617
1776870890194294300,6.920294189453125,-5.410896301269531,-1.425933837890625,-33.472774505615234
1776870890204332300,6.930332275390625,-5.0780487060546875,-1.3450698852539062,-33.57219314575195
1776870890214371300,6.940371337890625,-4.9382171630859375,-1.4780960083007812,-33.5682487487793
1776870890224409300,6.950409423828125,-4.8238372802734375,-1.3397598266601562,-33.62753677368164
1776870890234448100,6.9604482421875,-4.672065734863281,-1.2452774047851562,-33.73414993286133
1776870890244486400,6.970486328125,-4.3209228515625,-1.25244140625,-33.68620681762695
1776870890254524200,6.980524169921875,-4.223876953125,-0.9419174194335938,-33.72842025756836
1776870890264562400,6.9905625,-4.2474517822265625,-0.9687118530273438,-33.774959564208984
1776870890274601200,7.000601318359375,-4.201446533203125,-1.0965194702148438,-33.71866226196289
1776870890284639200,7.01063916015625,-3.9746170043945312,-0.9133529663085938,-33.87216567993164
1776870890294677200,7.02067724609375,-4.0036773681640625,-0.8264007568359375,-33.87966537475586
1776870890304716300,7.03071630859375,-4.4591064453125,-0.7869949340820312,-34.019657135009766
1776870890314754300,7.04075439453125,-4.406646728515625,-0.9928207397460938,-33.85927963256836
1776870890324792300,7.050792236328125,-4.364891052246094,-0.8556671142578125,-33.95747756958008
1776870890334831400,7.060831298828125,-4.224815368652344,-0.8197784423828125,-33.85294723510742
1776870890344869400,7.070869384765625,-3.9959640502929688,-0.9495925903320312,-33.7710075378418
1776870890354907400,7.080907470703125,-4.179962158203125,-0.8753890991210938,-33.9643440246582
1776870890364946400,7.090946533203125,-4.190521240234375,-1.026397705078125,-33.99032211303711
1776870890374984200,7.100984130859375,-4.216278076171875,-1.1622772216796875,-34.012638092041016
1776870890385022500,7.1110224609375,-4.0113372802734375,-1.0780715942382812,-34.033687591552734
1776870890395061200,7.121061279296875,-3.8512802124023438,-1.2388839721679688,-34.10288619995117
1776870890405099300,7.131099365234375,-3.88934326171875,-1.4724044799804688,-34.14082717895508
1776870890415137300,7.14113720703125,-3.8566207885742188,-1.5864639282226562,-34.28108596801758
1776870890425176300,7.15117626953125,-3.5694503784179688,-1.719329833984375,-34.2997932434082
1776870890435214300,7.16121435546875,-3.6534957885742188,-1.7459640502929688,-34.385616302490234
1776870890445252400,7.17125244140625,-3.4248504638671875,-1.8735427856445312,-34.41281509399414
1776870890455291400,7.18129150390625,-3.3125381469726562,-2.1647872924804688,-34.50699996948242
1776870890465329400,7.191329345703125,-3.0203933715820312,-2.457080841064453,-34.6383171081543
1776870890475367400,7.201367431640625,-2.7962570190429688,-2.5858116149902344,-34.58295822143555
1776870890485406500,7.211406494140625,-2.35797119140625,-2.7219467163085938,-34.64064407348633
1776870890495444200,7.2214443359375,-2.4243698120117188,-2.7231979370117188,-34.8762321472168
1776870890505482200,7.231482177734375,-2.259002685546875,-2.7300796508789062,-34.9245491027832
1776870890515521500,7.241521484375,-2.1896514892578125,-2.956939697265625,-35.046810150146484
1776870890525559600,7.2515595703125,-1.6946258544921875,-3.1604232788085938,-35.02284622192383
1776870890535597600,7.26159765625,-1.662384033203125,-3.2647628784179688,-35.011775970458984
1776870890545636400,7.27163623046875,-1.7736892700195312,-3.3955764770507812,-35.0405158996582
1776870890555674600,7.281674560546875,-2.0830841064453125,-3.383289337158203,-35.27387619018555
1776870890565712400,7.29171240234375,-2.143463134765625,-3.68206787109375,-35.158992767333984
1776870890575751400,7.30175146484375,-2.0394973754882812,-3.649059295654297,-35.16951370239258
1776870890585789400,7.31178955078125,-1.706207275390625,-3.5824432373046875,-35.18928146362305
1776870890595827500,7.321827392578125,-1.861053466796875,-3.5483322143554688,-35.30534744262695
1776870890605866500,7.331866455078125,-1.9486465454101562,-3.5923080444335938,-35.41066360473633
1776870890615904500,7.341904541015625,-1.56524658203125,-3.702739715576172,-35.384159088134766
1776870890625942500,7.351942626953125,-1.480224609375,-3.5913009643554688,-35.431095123291016
1776870890635981600,7.361981689453125,-1.3554153442382812,-3.78564453125,-35.447811126708984
1776870890646019600,7.37201953125,-1.089752197265625,-3.7416839599609375,-35.65854263305664
1776870890656057600,7.3820576171875,-0.8384857177734375,-4.035247802734375,-35.59255599975586
1776870890666096400,7.392096435546875,-0.6907196044921875,-3.973705291748047,-35.6419563293457
1776870890676134700,7.402134765625,-0.4481964111328125,-4.258777618408203,-35.689693450927734
1776870890686172400,7.41217236328125,-0.36749267578125,-4.264278411865234,-35.8127326965332
1776870890696211500,7.42221142578125,-0.38526153564453125,-4.507205963134766,-35.84562301635742
1776870890706249500,7.43224951171875,-0.32282257080078125,-4.522846221923828,-35.803348541259766
1776870890716287500,7.44228759765625,-0.15771484375,-4.7147674560546875,-35.81442642211914
1776870890726326500,7.452326416015625,0.0491790771484375,-4.894596099853516,-35.77322769165039
1776870890736364500,7.462364501953125,-0.07517242431640625,-4.918575286865234,-35.96824264526367
1776870890746402600,7.472402587890625,0.1576690673828125,-5.273609161376953,-35.92079544067383
1776870890756441600,7.482441650390625,0.31534576416015625,-5.280986785888672,-36.0079231262207
1776870890766479600,7.492479736328125,0.821258544921875,-5.517669677734375,-35.80060958862305
1776870890776517600,7.502517578125,0.9330902099609375,-5.503173828125,-36.009342193603516
1776870890786556400,7.512556396484375,1.1288299560546875,-5.520870208740234,-35.99527359008789
1776870890796594700,7.5225947265625,1.0883255004882812,-5.768001556396484,-36.11617660522461
1776870890806632400,7.532632568359375,1.4577560424804688,-5.677303314208984,-36.026363372802734
1776870890816671500,7.54267138671875,1.1810379028320312,-5.867900848388672,-36.141422271728516
1776870890826709500,7.55270947265625,1.2620315551757812,-6.006755828857422,-36.266292572021484
1776870890836747500,7.56274755859375,1.0156707763671875,-6.064537048339844,-36.25718307495117
1776870890846786600,7.57278662109375,0.8964920043945312,-6.163890838623047,-36.28927993774414
1776870890856824600,7.582824462890625,0.900115966796875,-6.008167266845703,-36.27181625366211
1776870890866862600,7.592862548828125,0.9109954833984375,-6.1751251220703125,-36.2299919128418
1776870890876901600,7.602901611328125,0.6864395141601562,-6.156360626220703,-36.23563766479492
1776870890886939600,7.612939697265625,0.7119064331054688,-6.368846893310547,-36.25868606567383
1776870890896977400,7.622977294921875,0.7592620849609375,-6.318645477294922,-36.30868148803711
1776870890907016400,7.633016357421875,0.7107772827148438,-6.256557464599609,-36.32734298706055
1776870890917054500,7.643054443359375,0.8120651245117188,-6.401546478271484,-36.29312515258789
1776870890927092500,7.653092529296875,0.8859329223632812,-6.345726013183594,-36.43254470825195
1776870890937131500,7.663131591796875,0.6293869018554688,-6.451148986816406,-36.30642318725586
1776870890947169500,7.67316943359375,0.75030517578125,-6.540306091308594,-36.2677116394043
1776870890957207600,7.68320751953125,0.9129562377929688,-6.562076568603516,-36.3448600769043
1776870890967246600,7.69324658203125,0.8029022216796875,-6.66644287109375,-36.3492546081543
1776870890977284400,7.703284423828125,0.59259033203125,-6.763233184814453,-36.29209518432617
1776870890987322600,7.713322509765625,0.7550125122070312,-6.8519439697265625,-36.37678909301758
1776870890997361400,7.723361328125,0.9702301025390625,-6.908443450927734,-36.275386810302734
1776870891007399700,7.733399658203125,0.8581314086914062,-6.834175109863281,-36.271114349365234
1776870891017437400,7.7434375,0.8581314086914062,-6.834175109863281,-36.271114349365234
1776870891027476500,7.7534765625,0.8951950073242188,-6.936496734619141,-36.29509353637695
1776870891037514500,7.763514404296875,0.451873779296875,-6.815479278564453,-36.39164352416992
1776870891047552500,7.773552490234375,0.4610595703125,-6.878570556640625,-36.407466888427734
1776870891057591600,7.783591552734375,0.7323837280273438,-6.903110504150391,-36.42668533325195
1776870891067629600,7.793629638671875,0.5811080932617188,-6.975067138671875,-36.374996185302734
1776870891077667600,7.80366748046875,0.6235580444335938,-6.936611175537109,-36.2514533996582
1776870891087706600,7.81370654296875,0.5283584594726562,-6.9204254150390625,-36.313236236572266
1776870891097744400,7.823744384765625,0.423736572265625,-7.0024261474609375,-36.26321029663086
1776870891107782700,7.83378271484375,0.6997528076171875,-7.106651306152344,-36.35337448120117
1776870891117821400,7.843821533203125,0.6705398559570312,-7.185031890869141,-36.50582504272461
1776870891127859700,7.853859619140625,0.71148681640625,-6.994087219238281,-36.36386489868164
1776870891137897500,7.8638974609375,0.9240570068359375,-7.088462829589844,-36.3554573059082
1776870891147936500,7.8739365234375,1.181396484375,-7.11090087890625,-36.159358978271484
1776870891157974500,7.883974609375,1.1636276245117188,-7.1725006103515625,-36.261417388916016
1776870891168012500,7.894012451171875,0.9801177978515625,-7.461917877197266,-36.30622482299805
1776870891178051600,7.904051513671875,1.03369140625,-7.340999603271484,-36.286190032958984
1776870891188089600,7.914089599609375,1.1023330688476562,-7.434070587158203,-36.3566780090332
1776870891198127600,7.924127685546875,1.2045745849609375,-7.322593688964844,-36.34061813354492
1776870891208166700,7.934166748046875,1.1476516723632812,-7.283966064453125,-36.358951568603516
1776870891218204400,7.944204345703125,1.5711288452148438,-7.113697052001953,-36.43319320678711
1776870891228242700,7.95424267578125,1.4489364624023438,-7.248157501220703,-36.40309524536133
1776870891238281500,7.964281494140625,1.3194427490234375,-7.315406799316406,-36.38352584838867
1776870891248319700,7.97431982421875,1.1765594482421875,-7.354164123535156,-36.423824310302734
1776870891258357500,7.984357421875,1.3335800170898438,-7.168598175048828,-36.46225357055664
1776870891268396500,7.994396484375,1.1478424072265625,-7.364372253417969,-36.489933013916016
1776870891278434600,8.0044345703125,1.120361328125,-7.245151519775391,-36.387943267822266
1776870891288472300,8.014472412109376,1.193206787109375,-7.348621368408203,-36.270206451416016
1776870891298511600,8.02451171875,1.0389251708984375,-7.330696105957031,-36.2734489440918
1776870891308549400,8.03454931640625,1.1352310180664062,-7.244747161865234,-36.43467330932617
1776870891318587600,8.044587646484375,1.1389846801757812,-7.1961517333984375,-36.314998626708984
1776870891328626700,8.054626708984374,0.926055908203125,-7.121639251708984,-36.417484283447266
1776870891338664400,8.06466455078125,1.228607177734375,-7.128902435302734,-36.16838455200195
1776870891348702500,8.074702392578125,1.2266921997070312,-7.116996765136719,-36.33565902709961
1776870891358741500,8.084741455078126,0.8741531372070312,-7.032131195068359,-36.395015716552734
1776870891368779500,8.094779541015624,0.9722900390625,-6.798717498779297,-36.356937408447266
1776870891378817500,8.104817626953125,0.7996673583984375,-6.7843780517578125,-36.34939193725586
1776870891388856300,8.114856201171875,0.83416748046875,-6.769020080566406,-36.299808502197266
1776870891398894600,8.12489453125,0.5622787475585938,-6.739070892333984,-36.24763107299805
1776870891408932400,8.134932373046874,0.7788009643554688,-6.496311187744141,-36.30693435668945
1776870891418971600,8.1449716796875,0.9592514038085938,-6.44342041015625,-36.3151969909668
1776870891429009400,8.155009521484375,0.7520675659179688,-6.354816436767578,-36.16537094116211
1776870891439047700,8.165047607421876,0.6629180908203125,-6.288280487060547,-36.14323043823242
1776870891449086500,8.17508642578125,0.658843994140625,-6.056865692138672,-36.184017181396484
1776870891459124500,8.18512451171875,0.774993896484375,-5.9775848388671875,-36.16066360473633
1776870891469162500,8.19516259765625,0.4548187255859375,-6.080883026123047,-36.11873245239258
1776870891479201500,8.205201416015624,0.620635986328125,-5.887660980224609,-35.881404876708984
1776870891489239600,8.215239501953125,0.46887969970703125,-5.7820281982421875,-36.114994049072266
1776870891499277600,8.225277587890625,0.21305084228515625,-5.571056365966797,-36.15805435180664
1776870891509317000,8.235317138671874,0.21944427490234375,-5.436946868896484,-36.224185943603516
1776870891519355400,8.24535546875,0.339752197265625,-5.277870178222656,-36.20038986206055
1776870891529393200,8.25539306640625,0.4697418212890625,-5.197109222412109,-35.938411712646484
1776870891539432200,8.26543212890625,0.23067474365234375,-5.137096405029297,-36.09663009643555
1776870891549470200,8.27547021484375,0.2392425537109375,-5.173099517822266,-35.940921783447266
1776870891559508200,8.28550830078125,0.085662841796875,-4.849872589111328,-35.87099075317383
1776870891569547300,8.29554736328125,0.10311126708984375,-4.762706756591797,-35.83609390258789
1776870891579585300,8.305585205078126,-0.0358734130859375,-4.647655487060547,-35.629215240478516
1776870891589623300,8.315623291015624,-0.2187347412109375,-4.399940490722656,-35.689327239990234
1776870891599662300,8.325662353515625,-0.30469512939453125,-4.4924468994140625,-35.65347671508789
1776870891609700000,8.3357001953125,-0.35953521728515625,-4.286624908447266,-35.67464065551758
1776870891619738400,8.34573828125,-0.21468353271484375,-4.232830047607422,-35.40121841430664
1776870891629777200,8.355777099609375,-0.27590179443359375,-3.926422119140625,-35.5151481628418
1776870891639815400,8.3658154296875,-0.425201416015625,-3.90478515625,-35.449703216552734
1776870891649853200,8.375853271484376,-0.34014892578125,-3.740039825439453,-35.46382522583008
1776870891659892200,8.385892333984375,-0.3976898193359375,-3.5128097534179688,-35.4245491027832
1776870891669930200,8.39593017578125,-0.4639892578125,-3.2813758850097656,-35.35647964477539
1776870891679968300,8.40596826171875,-0.43682861328125,-3.173534393310547,-35.30086135864258
1776870891690007300,8.41600732421875,-0.8609619140625,-3.2863540649414062,-35.323970794677734
1776870891700045300,8.42604541015625,-1.0841751098632812,-3.055736541748047,-35.367618560791016
1776870891710083300,8.436083251953125,-1.012481689453125,-2.801177978515625,-35.251529693603516
1776870891720122400,8.446122314453126,-1.2426605224609375,-2.4533958435058594,-35.13508987426758
1776870891730160000,8.45616015625,-1.4115829467773438,-2.5292320251464844,-34.988948822021484
1776870891740198400,8.466198486328125,-1.0844955444335938,-2.245647430419922,-34.94906997680664
1776870891750237200,8.4762373046875,-1.1921157836914062,-2.0504684448242188,-34.86942672729492
1776870891760275500,8.486275390625,-1.5687179565429688,-1.8675460815429688,-34.79887008666992
1776870891770313200,8.496313232421874,-1.6099166870117188,-1.7254714965820312,-34.8183479309082
1776870891780352300,8.506352294921875,-1.8012161254882812,-1.7535781860351562,-34.74483108520508
1776870891790390300,8.516390380859375,-1.9429168701171875,-1.56463623046875,-34.69620132446289
1776870891800428000,8.526427978515626,-2.1189422607421875,-1.4538955688476562,-34.547298431396484
1776870891810467300,8.53646728515625,-2.2877960205078125,-1.2869720458984375,-34.381290435791016
1776870891820505300,8.54650537109375,-2.532867431640625,-1.1965103149414062,-34.416873931884766
1776870891830543400,8.55654345703125,-2.5357208251953125,-1.3103179931640625,-34.34786605834961
1776870891840582400,8.56658251953125,-2.6652297973632812,-1.306793212890625,-34.257694244384766
1776870891850620200,8.5766201171875,-2.8471145629882812,-1.1812667846679688,-34.22782516479492
1776870891860658200,8.586658203125,-3.0678558349609375,-1.0723190307617188,-34.10843276977539
1776870891870697200,8.596697265625,-3.4305038452148438,-1.0991973876953125,-34.02651596069336
1776870891880735200,8.6067353515625,-3.4561309814453125,-1.1362991333007812,-34.20197677612305
1776870891890773200,8.616773193359375,-3.6922607421875,-1.0129318237304688,-34.05684280395508
1776870891900812000,8.62681201171875,-3.7773895263671875,-1.0391464233398438,-33.93259811401367
1776870891910850300,8.636850341796874,-3.950958251953125,-1.0360641479492188,-33.851749420166016
1776870891920888000,8.64688818359375,-4.071868896484375,-0.9952621459960938,-33.89675521850586
1776870891930927400,8.65692724609375,-4.3538818359375,-1.04931640625,-33.79629135131836
1776870891940965000,8.666965087890626,-4.544609069824219,-1.1667633056640625,-33.67914962768555
1776870891951003400,8.67700341796875,-4.517372131347656,-1.2875289916992188,-33.39230728149414
1776870891961042200,8.687042236328125,-4.758735656738281,-1.2455520629882812,-33.55934524536133
1776870891971080200,8.697080078125,-5.254844665527344,-1.2615203857421875,-33.57340621948242
1776870891981118200,8.7071181640625,-5.16741943359375,-1.2069320678710938,-33.43666458129883
1776870891991157200,8.7171572265625,-5.367561340332031,-1.2863922119140625,-33.41081619262695
1776870892001195300,8.7271953125,-5.227508544921875,-1.3170547485351562,-33.29924392700195
1776870892011233300,8.7372333984375,-5.4247894287109375,-1.2923583984375,-33.32376480102539
1776870892021272000,8.74727197265625,-5.49798583984375,-1.126739501953125,-33.37105178833008
1776870892031310300,8.757310302734375,-5.6459808349609375,-1.2638473510742188,-33.2688102722168
1776870892041348000,8.76734814453125,-5.742820739746094,-1.2184066772460938,-33.2818489074707
1776870892051387400,8.777387451171874,-5.770790100097656,-1.1640167236328125,-33.173030853271484
1776870892061425200,8.787425048828124,-5.97442626953125,-1.2876434326171875,-33.1319465637207
1776870892071463400,8.79746337890625,-6.227630615234375,-1.069061279296875,-33.06074905395508
1776870892081502200,8.807502197265626,-6.245811462402344,-1.026153564453125,-33.180423736572266
1776870892091540200,8.817540283203124,-6.289909362792969,-0.8746185302734375,-33.120059967041016
1776870892101578200,8.827578125,-6.664939880371094,-1.0238265991210938,-32.96523666381836
1776870892111617300,8.8376171875,-6.68182373046875,-0.9322433471679688,-33.0906867980957
1776870892121655300,8.8476552734375,-6.6448822021484375,-0.9076309204101562,-33.04135513305664
1776870892131693300,8.857693359375,-6.882743835449219,-0.9259414672851562,-33.021236419677734
1776870892141732000,8.867732177734375,-6.817283630371094,-0.9596099853515625,-32.790279388427734
1776870892151770400,8.877770263671875,-6.989471435546875,-0.988616943359375,-32.93098831176758
1776870892161808100,8.88780810546875,-7.032188415527344,-1.0470962524414062,-32.96821975708008
1776870892171847400,8.897847412109375,-6.939384460449219,-0.9269943237304688,-32.9738883972168
1776870892181885200,8.90788525390625,-6.9628448486328125,-0.856048583984375,-32.96818161010742
1776870892191923500,8.91792333984375,-6.89617919921875,-0.8589401245117188,-32.7913703918457
1776870892201962200,8.927962158203124,-7.119941711425781,-1.0236892700195312,-32.7905158996582
1776870892212000300,8.938000244140625,-7.1593475341796875,-1.017120361328125,-32.95615768432617
1776870892222038300,8.948038330078125,-7.0145416259765625,-1.013946533203125,-32.909420013427734
1776870892232077300,8.958077392578126,-7.0996246337890625,-1.1093597412109375,-32.92509078979492
1776870892242115300,8.968115234375,-6.9763031005859375,-1.0146713256835938,-33.01369094848633
1776870892252153000,8.978153076171875,-7.098991394042969,-0.9142532348632812,-32.99954605102539
1776870892262192000,8.988192138671875,-7.2384033203125,-0.7974014282226562,-33.069766998291016
1776870892272230400,8.99823046875,-7.269386291503906,-0.95953369140625,-33.018558502197266
1776870892282268200,9.00826806640625,-7.071067810058594,-0.9906234741210938,-32.898494720458984
1776870892292307500,9.018307373046875,-7.301788330078125,-0.9169921875,-32.9585075378418
1776870892302345200,9.02834521484375,-7.368934631347656,-0.7855758666992188,-32.995113372802734
1776870892312383200,9.03838330078125,-6.886528015136719,-0.808563232421875,-33.1361198425293
1776870892322422300,9.04842236328125,-7.091850280761719,-1.0648269653320312,-33.08051681518555
1776870892332460300,9.058460205078125,-6.998619079589844,-1.0042190551757812,-32.909488677978516
1776870892342498300,9.068498291015626,-7.0504150390625,-0.9486160278320312,-33.09384536743164
1776870892352537000,9.078537109375,-6.930473327636719,-0.8591232299804688,-33.13962936401367
1776870892362575400,9.088575439453125,-6.821937561035156,-0.748321533203125,-33.19612503051758
1776870892372613000,9.098613037109375,-6.485931396484375,-0.9020538330078125,-32.98835372924805
1776870892382652200,9.108652099609374,-6.825828552246094,-1.124176025390625,-32.99959945678711
1776870892392690200,9.118690185546875,-6.797515869140625,-0.9635696411132812,-33.08724594116211
1776870892402728200,9.128728271484375,-6.912872314453125,-0.8652801513671875,-33.06272506713867
1776870892412767200,9.138767333984376,-6.910331726074219,-0.8100814819335938,-33.16109085083008
1776870892422805200,9.14880517578125,-6.6486968994140625,-0.8337173461914062,-33.17097091674805
1776870892432843300,9.15884326171875,-6.9325408935546875,-0.8603134155273438,-33.0941276550293
1776870892442882300,9.16888232421875,-6.933540344238281,-0.7899017333984375,-33.1633186340332
1776870892452920300,9.17892041015625,-7.005500793457031,-0.7534561157226562,-33.18803024291992
1776870892462958300,9.188958251953125,-6.75909423828125,-0.7054977416992188,-33.2082405090332
1776870892472997000,9.1989970703125,-6.728118896484375,-0.8067779541015625,-32.95346450805664
1776870892483035400,9.209035400390626,-6.583106994628906,-0.73052978515625,-33.10018539428711
1776870892493073200,9.2190732421875,-6.7430572509765625,-0.779937744140625,-33.0548210144043
1776870892503112200,9.2291123046875,-6.7430572509765625,-0.779937744140625,-33.0548210144043
1776870892513150000,9.23914990234375,-6.9247283935546875,-0.7523345947265625,-33.06967544555664
1776870892523188200,9.249188232421876,-6.90753173828125,-0.7654571533203125,-33.096797943115234
1776870892533227000,9.25922705078125,-6.619270324707031,-0.84942626953125,-33.1020622253418
1776870892543265000,9.26926513671875,-6.4970550537109375,-0.8799819946289062,-33.044307708740234
1776870892553303000,9.279302978515625,-6.598121643066406,-0.8744125366210938,-33.139347076416016
1776870892563342000,9.289342041015624,-6.728172302246094,-1.014862060546875,-33.10788345336914
1776870892573380000,9.299380126953125,-6.7536468505859375,-0.9617767333984375,-33.091800689697266
1776870892583418000,9.309418212890625,-6.7210540771484375,-0.7531585693359375,-33.12874221801758
1776870892593457000,9.319456787109376,-6.602630615234375,-0.8866195678710938,-33.15529251098633
1776870892603495200,9.3294951171875,-6.440643310546875,-0.7251663208007812,-33.08323287963867
1776870892613533000,9.339532958984375,-6.634498596191406,-0.7963409423828125,-33.191341400146484
1776870892623572200,9.349572265625,-6.622688293457031,-0.753509521484375,-33.07590103149414
1776870892633610000,9.35960986328125,-6.709930419921875,-0.8576812744140625,-33.14094161987305
1776870892643648300,9.369648193359374,-6.782417297363281,-0.8420181274414062,-33.14310836791992
1776870892653687000,9.37968701171875,-6.71661376953125,-0.79339599609375,-33.13491439819336
1776870892663725000,9.38972509765625,-6.783905029296875,-0.7217788696289062,-33.20682144165039
1776870892673763000,9.39976318359375,-6.602790832519531,-0.939697265625,-33.13180923461914
1776870892683802000,9.409802001953125,-6.9234619140625,-1.0413055419921875,-33.25577163696289
1776870892693840100,9.419840087890625,-6.8929443359375,-0.8993453979492188,-33.252323150634766
1776870892703878100,9.429878173828126,-6.754997253417969,-0.8129730224609375,-33.1796989440918
1776870892713917000,9.4399169921875,-6.801368713378906,-0.8709487915039062,-33.17658615112305
1776870892723955200,9.449955078125,-6.551918029785156,-0.9377288818359375,-33.17312240600586
1776870892733993000,9.459992919921875,-6.6080780029296875,-0.8408355712890625,-33.221187591552734
1776870892744032300,9.4700322265625,-6.47637939453125,-0.936920166015625,-33.22169876098633
1776870892754070000,9.480070068359375,-6.500213623046875,-0.9329757690429688,-33.17362594604492
1776870892764108000,9.49010791015625,-6.650360107421875,-0.984344482421875,-33.12876510620117
1776870892774147000,9.50014697265625,-6.7015380859375,-0.9934844970703125,-33.179134368896484
1776870892784185000,9.51018505859375,-6.567497253417969,-1.0360336303710938,-33.17168045043945
1776870892794223000,9.52022314453125,-6.7086181640625,-1.121063232421875,-33.13881301879883
1776870892804262100,9.53026220703125,-6.728569030761719,-1.059417724609375,-33.19271469116211
1776870892814300200,9.540300048828126,-6.551239013671875,-1.1231231689453125,-33.043758392333984
1776870892824338000,9.550337890625,-6.790596008300781,-1.0513839721679688,-33.17288589477539
1776870892834377000,9.560376953125,-6.611297607421875,-1.0307235717773438,-33.21467208862305
1776870892844415000,9.5704150390625,-6.7142181396484375,-1.0530776977539062,-33.22591781616211
1776870892854453000,9.580452880859376,-6.583854675292969,-0.9909896850585938,-33.28923416137695
1776870892864492300,9.5904921875,-6.444358825683594,-1.0181121826171875,-33.22634506225586
1776870892874530000,9.600530029296875,-6.534576416015625,-1.0806427001953125,-33.33769607543945
1776870892884568000,9.610568115234376,-6.596214294433594,-0.9707183837890625,-33.26174545288086
1776870892894607000,9.620607177734374,-6.6504364013671875,-0.965118408203125,-33.32377243041992
1776870892904644900,9.630644775390625,-6.692161560058594,-0.9886093139648438,-33.43033218383789
1776870892914683100,9.64068310546875,-6.557807922363281,-1.0960159301757812,-33.467044830322266
1776870892924722000,9.650721923828126,-6.5707855224609375,-1.2691268920898438,-33.44369888305664
1776870892934760200,9.66076025390625,-6.3771514892578125,-1.2063674926757812,-33.54487991333008
1776870892944798000,9.6707978515625,-6.532524108886719,-1.354339599609375,-33.46377182006836
1776870892954837000,9.6808369140625,-6.303672790527344,-1.3840866088867188,-33.328670501708984
1776870892964875000,9.690875,-6.1962738037109375,-1.580963134765625,-33.4962043762207
1776870892974913000,9.7009130859375,-5.981475830078125,-1.5294723510742188,-33.66225814819336
1776870892984952000,9.7109521484375,-5.9860076904296875,-1.6459732055664062,-33.62339401245117
1776870892994990000,9.720989990234376,-6.2056121826171875,-1.6345596313476562,-33.76051712036133
1776870893005028000,9.731028076171874,-5.864936828613281,-1.7440414428710938,-33.69377517700195
1776870893015067100,9.741067138671875,-5.9053497314453125,-1.7846527099609375,-33.84343338012695
1776870893025105000,9.75110498046875,-5.6597442626953125,-1.8404998779296875,-33.98247146606445
1776870893035143200,9.76114306640625,-5.638267517089844,-1.8783035278320312,-33.9859733581543
1776870893045182000,9.771181884765625,-5.6861114501953125,-1.9510498046875,-34.0799446105957
1776870893055220200,9.78122021484375,-5.47955322265625,-1.9288101196289062,-34.03847122192383
1776870893065258000,9.791258056640626,-5.423164367675781,-2.1492233276367188,-34.04117965698242
1776870893075297000,9.801297119140624,-5.411705017089844,-2.0998764038085938,-34.13626480102539
1776870893085335000,9.8113349609375,-5.324363708496094,-2.084075927734375,-34.22373580932617
1776870893095373000,9.821373046875,-5.127067565917969,-2.2122650146484375,-34.23830032348633
1776870893105412000,9.831412109375,-4.97064208984375,-2.3605804443359375,-34.31496047973633
1776870893115450000,9.8414501953125,-4.889595031738281,-2.4648170471191406,-34.37858200073242
1776870893125488000,9.851488037109375,-4.8408355712890625,-2.6215362548828125,-34.4413948059082
1776870893135527200,9.861527099609376,-4.639656066894531,-2.6986236572265625,-34.42738723754883
1776870893145565000,9.87156494140625,-4.2636566162109375,-2.735126495361328,-34.371707916259766
1776870893155603200,9.881603271484375,-4.27154541015625,-2.78851318359375,-34.55691146850586
1776870893165642000,9.89164208984375,-4.3299713134765625,-3.0794334411621094,-34.70425033569336
1776870893175680300,9.90168017578125,-4.068603515625,-3.0895462036132812,-34.78263473510742
1776870893185718000,9.911718017578124,-3.817138671875,-3.1106300354003906,-34.90053176879883
1776870893195757000,9.921757080078125,-3.50799560546875,-3.3675575256347656,-34.86918258666992
1776870893205795000,9.931795166015625,-3.4617080688476562,-3.4068832397460938,-34.9751091003418
1776870893215832800,9.941832763671876,-3.1054458618164062,-3.629192352294922,-35.0407829284668
1776870893225872100,9.9518720703125,-3.2398452758789062,-3.732635498046875,-35.257266998291016
1776870893235910100,9.96191015625,-2.8533554077148438,-3.741718292236328,-35.22141647338867
1776870893245948200,9.9719482421875,-2.627166748046875,-3.9384307861328125,-35.36039352416992
1776870893255987200,9.9819873046875,-2.9198379516601562,-4.130138397216797,-35.374141693115234
1776870893266025000,9.99202490234375,-2.7387771606445312,-4.296413421630859,-35.45192337036133
1776870893276063000,10.00206298828125,-2.3931961059570312,-4.376811981201172,-35.507320404052734
1776870893286101000,10.01210107421875,-2.0020217895507812,-4.416713714599609,-35.238529205322266
1776870893296140000,10.02214013671875,-1.9835662841796875,-4.679943084716797,-35.44584274291992
1776870893306178000,10.032177978515625,-1.627166748046875,-4.780448913574219,-35.534854888916016
1776870893316216800,10.042216796875,-1.4041900634765625,-4.939228057861328,-35.6101188659668
1776870893326255000,10.052255126953124,-1.1900787353515625,-5.011455535888672,-35.60129165649414
1776870893336292900,10.06229296875,-0.67913818359375,-4.977619171142578,-35.46767807006836
1776870893346331100,10.0723310546875,-0.6220932006835938,-5.051441192626953,-35.79133987426758
1776870893356370000,10.082369873046876,-0.726348876953125,-4.9776153564453125,-35.7740364074707
1776870893366408200,10.092408203125,-0.645751953125,-5.066677093505859,-35.754146575927734
1776870893376446000,10.102446044921875,-0.39621734619140625,-5.394561767578125,-35.6428108215332
1776870893386485000,10.112485107421875,-0.12383270263671875,-5.421482086181641,-35.74116134643555
1776870893396523000,10.12252294921875,-0.21573638916015625,-5.433597564697266,-35.80192184448242
1776870893406561000,10.13256103515625,-0.13043975830078125,-5.4654693603515625,-35.7831916809082
1776870893416600000,10.14260009765625,-0.1450653076171875,-5.587345123291016,-35.939029693603516
1776870893426638000,10.15263818359375,0.03144073486328125,-5.5962066650390625,-35.80904006958008
1776870893436676000,10.162676025390626,0.16916656494140625,-5.700794219970703,-35.976863861083984
1776870893446715100,10.172715087890625,0.16628265380859375,-5.870960235595703,-36.08748245239258
1776870893456753000,10.1827529296875,0.3050689697265625,-5.940677642822266,-36.019107818603516
1776870893466791200,10.192791259765626,0.5200958251953125,-6.284366607666016,-36.024471282958984
1776870893476830000,10.202829833984374,0.62750244140625,-6.303707122802734,-35.87202072143555
1776870893486868200,10.2128681640625,1.1566314697265625,-6.427604675292969,-35.8080940246582
1776870893496906000,10.222906005859375,0.8450164794921875,-6.4913482666015625,-36.077022552490234
1776870893506945000,10.232945068359374,0.9627532958984375,-6.591709136962891,-36.19270706176758
1776870893516982300,10.242982177734374,0.9444732666015625,-6.8154296875,-36.14585494995117
1776870893527020500,10.2530205078125,1.4001235961914062,-6.837284088134766,-36.173892974853516
1776870893537059300,10.263059326171875,1.3276214599609375,-6.852596282958984,-36.28435134887695
1776870893547097300,10.273097412109376,1.5062484741210938,-7.001579284667969,-36.256534576416016
1776870893557135400,10.28313525390625,1.6103897094726562,-7.108768463134766,-36.11457443237305
1776870893567174400,10.29317431640625,1.50006103515625,-6.965023040771484,-36.2502555847168
1776870893577212400,10.30321240234375,1.7645492553710938,-7.1017913818359375,-36.25027084350586
1776870893587250400,10.31325048828125,1.6752700805664062,-7.132968902587891,-36.27000045776367
1776870893597289200,10.323289306640625,1.7224578857421875,-7.117149353027344,-36.30080795288086
1776870893607327500,10.333327392578125,2.021575927734375,-7.2612457275390625,-36.19099807739258
1776870893617365200,10.343365234375,2.630157470703125,-7.502925872802734,-36.04722213745117
1776870893627404500,10.353404541015625,3.0474777221679688,-7.670970916748047,-36.185306549072266
1776870893637442300,10.3634423828125,3.2578506469726562,-7.858970642089844,-36.16514205932617
1776870893647480600,10.37348046875,3.7273788452148438,-7.937549591064453,-36.10988235473633
1776870893657519400,10.383519287109374,4.4273681640625,-7.973842620849609,-36.08494186401367
1776870893667557400,10.393557373046875,4.7760009765625,-8.14236831665039,-35.919437408447266
1776870893677595400,10.403595458984375,5.4542388916015625,-8.498676300048828,-35.93375015258789
1776870893687634400,10.413634521484376,5.8735809326171875,-8.6005859375,-35.846622467041016
1776870893697672400,10.42367236328125,6.327484130859375,-8.762447357177734,-35.66189956665039
1776870893707710500,10.43371044921875,6.619178771972656,-8.931747436523438,-35.67177963256836
1776870893717749200,10.443749267578125,7.0631866455078125,-8.945415496826172,-35.62362289428711
1776870893727787500,10.45378759765625,7.169227600097656,-9.221321105957031,-35.590694427490234
1776870893737825300,10.4638251953125,7.45703125,-9.241748809814453,-35.471553802490234
1776870893747864600,10.473864501953125,7.51971435546875,-9.43869400024414,-35.38784408569336
1776870893757902300,10.48390234375,7.830696105957031,-9.457138061523438,-35.19060134887695
1776870893767940400,10.4939404296875,8.211814880371094,-9.536094665527344,-35.240116119384766
1776870893777978400,10.503978271484375,8.434272766113281,-9.70944595336914,-35.34479904174805
1776870893788017400,10.514017333984375,8.647407531738281,-9.646903991699219,-35.22647476196289
1776870893798055400,10.524055419921876,8.944869995117188,-9.899646759033203,-35.143009185791016
1776870893808093200,10.53409326171875,9.178070068359375,-10.035079956054688,-34.80534744262695
1776870893818132500,10.544132568359375,9.368034362792969,-10.120758056640625,-34.90739059448242
1776870893828170200,10.554170166015625,9.459213256835938,-10.151519775390625,-35.01405715942383
1776870893838208500,10.56420849609375,9.48577880859375,-10.397510528564453,-34.972293853759766
1776870893848247300,10.574247314453125,9.656608581542969,-10.29293441772461,-34.87947463989258
1776870893858285300,10.584285400390625,10.165130615234375,-10.477317810058594,-34.80392837524414
1776870893868323300,10.5943232421875,9.99814224243164,-10.349529266357422,-34.87173843383789
1776870893878362400,10.6043623046875,10.142292022705078,-10.437973022460938,-34.89790725708008
1776870893888400400,10.614400390625,10.269184112548828,-10.460952758789062,-34.72123336791992
1776870893898438400,10.6244384765625,10.308605194091797,-10.450965881347656,-34.58353042602539
1776870893908477200,10.634477294921876,10.276355743408203,-10.192195892333984,-34.723323822021484
1776870893918515500,10.644515380859374,10.41994857788086,-10.29836654663086,-34.794612884521484
1776870893928553200,10.65455322265625,10.194343566894531,-10.447731018066406,-34.73124313354492
1776870893938592500,10.664592529296876,10.074626922607422,-10.584362030029297,-34.74967575073242
1776870893948630300,10.67463037109375,10.361419677734375,-10.551898956298828,-34.62124252319336
1776870893958668500,10.68466845703125,10.040931701660156,-10.617557525634766,-34.6921272277832
1776870893968707300,10.694707275390625,9.491989135742188,-10.521102905273438,-34.843990325927734
1776870893978745300,10.704745361328126,9.157157897949219,-10.538566589355469,-34.93424606323242
1776870893988783400,10.714783447265624,9.157157897949219,-10.538566589355469,-34.93424606323242
1776870893998822400,10.724822509765625,9.09368896484375,-10.442367553710938,-34.937808990478516
1776870894008860400,10.7348603515625,8.705902099609375,-10.485912322998047,-34.8917121887207
1776870894018898400,10.7448984375,8.0638427734375,-10.407112121582031,-35.143436431884766
1776870894028937200,10.754937255859375,7.62176513671875,-10.282917022705078,-35.16819381713867
1776870894038975500,10.7649755859375,7.22332763671875,-10.189769744873047,-35.3090934753418
1776870894049013500,10.775013427734375,6.763145446777344,-10.126644134521484,-35.32758712768555
1776870894059052500,10.785052490234374,6.278778076171875,-9.894702911376953,-35.447513580322266
1776870894069090300,10.79509033203125,6.168190002441406,-9.870410919189453,-35.50600051879883
1776870894079128600,10.805128662109375,5.6947174072265625,-9.733402252197266,-35.59793472290039
1776870894089167400,10.81516748046875,5.354896545410156,-9.556045532226562,-35.64780044555664
1776870894099205400,10.825205322265624,5.023521423339844,-9.505767822265625,-35.522274017333984
1776870894109243400,10.835243408203125,4.713584899902344,-9.297142028808594,-35.83034133911133
1776870894119281400,10.845281494140625,4.578453063964844,-9.097579956054688,-35.82705307006836
1776870894129320400,10.855320556640624,4.202308654785156,-9.040096282958984,-35.645328521728516
1776870894139358200,10.865358154296874,3.7723159790039062,-8.965751647949219,-35.79853439331055
1776870894149396500,10.875396484375,3.7754058837890625,-8.79315185546875,-35.67158889770508
1776870894159435500,10.885435546875,3.4732589721679688,-8.767444610595703,-35.81663131713867
1776870894169473500,10.8954736328125,3.1415252685546875,-8.666141510009766,-35.9315299987793
1776870894179511300,10.90551123046875,3.0983657836914062,-8.510139465332031,-35.92536544799805
1776870894189550300,10.91555029296875,3.2176589965820312,-8.358707427978516,-35.8686637878418
1776870894199588400,10.92558837890625,3.3406600952148438,-8.24045181274414,-35.78176498413086
1776870894209626400,10.93562646484375,3.14752197265625,-8.220722198486328,-35.79256820678711
1776870894219665400,10.94566552734375,2.9297332763671875,-8.187023162841797,-35.826480865478516
1776870894229703400,10.955703369140625,3.0366973876953125,-8.01229476928711,-35.78542709350586
1776870894239741400,10.965741455078126,3.029541015625,-7.934139251708984,-35.83883285522461
1776870894249780500,10.975780517578125,2.9606475830078125,-7.7192840576171875,-35.95125961303711
1776870894259818200,10.985818359375,2.7721786499023438,-7.553066253662109,-35.94729232788086
1776870894269856500,10.9958564453125,2.7822189331054688,-7.367420196533203,-35.89517593383789
1776870894279895300,11.005895263671874,2.4926910400390625,-7.386280059814453,-35.89400863647461
1776870894289933600,11.01593359375,2.814849853515625,-7.242282867431641,-35.614681243896484
1776870894299971300,11.025971435546875,2.5492782592773438,-6.993396759033203,-35.83121871948242
1776870894310010400,11.03601025390625,2.5196075439453125,-6.926109313964844,-35.820743560791016
1776870894320048400,11.04604833984375,2.2650604248046875,-6.63848876953125,-35.79587936401367
1776870894330086400,11.05608642578125,2.403045654296875,-6.5359344482421875,-35.78152084350586
1776870894340125400,11.06612548828125,2.34796142578125,-6.363132476806641,-35.60859298706055
1776870894350163500,11.07616357421875,1.919189453125,-6.110546112060547,-35.652774810791016
1776870894360201500,11.086201416015625,1.6462936401367188,-6.090507507324219,-35.70258712768555
1776870894370240500,11.096240478515625,1.6555404663085938,-5.895214080810547,-35.69684982299805
1776870894380278300,11.1062783203125,1.5536041259765625,-5.818073272705078,-35.573604583740234
1776870894390316500,11.116316650390624,1.4188156127929688,-5.650749206542969,-35.44900131225586
1776870894400354300,11.126354248046875,1.4509429931640625,-5.600345611572266,-35.43827438354492
1776870894410393600,11.1363935546875,1.29876708984375,-5.261684417724609,-35.331661224365234
1776870894420431400,11.146431396484376,1.02496337890625,-5.155265808105469,-35.418331146240234
1776870894430469400,11.156469482421874,0.944793701171875,-5.056690216064453,-35.25712203979492
1776870894440508400,11.16650830078125,0.7330398559570312,-5.049655914306641,-35.299503326416016
1776870894450546400,11.17654638671875,0.48320770263671875,-4.803016662597656,-35.31655502319336
1776870894460584400,11.18658447265625,0.3315277099609375,-4.497035980224609,-35.30923843383789
1776870894470623500,11.19662353515625,0.09209442138671875,-4.388774871826172,-35.31808853149414
1776870894480661500,11.20666162109375,0.139434814453125,-4.344078063964844,-35.13468551635742
1776870894490699300,11.21669921875,0.063446044921875,-4.281238555908203,-35.1369514465332
1776870894500738300,11.22673828125,-0.20142364501953125,-4.305076599121094,-35.07268142700195
1776870894510777300,11.23677734375,-0.43482208251953125,-4.182147979736328,-35.00119400024414
1776870894520815000,11.246815185546875,-0.7508697509765625,-3.8283462524414062,-34.96847915649414
1776870894530854100,11.256854248046874,-0.75628662109375,-3.6249122619628906,-34.969417572021484
1776870894540892200,11.26689208984375,-0.8286972045898438,-3.5414695739746094,-34.8535270690918
1776870894550930200,11.27693017578125,-0.9609146118164062,-3.4106216430664062,-34.8008918762207
1776870894560969200,11.28696923828125,-1.0860748291015625,-3.36444091796875,-34.7274055480957
1776870894571007200,11.29700732421875,-1.0140762329101562,-3.1743621826171875,-34.58610153198242
1776870894581045200,11.307045166015625,-1.065673828125,-2.9858856201171875,-34.627445220947266
1776870894591084300,11.317084228515625,-1.1414260864257812,-2.9486732482910156,-34.70087814331055
1776870894601122000,11.3271220703125,-1.1739425659179688,-2.7508621215820312,-34.684139251708984
1776870894611160000,11.33716015625,-1.3956756591796875,-2.6998138427734375,-34.60011672973633
1776870894621198000,11.347197998046875,-1.4105606079101562,-2.5873451232910156,-34.3026237487793
1776870894631237000,11.357237060546876,-1.487823486328125,-2.5346717834472656,-34.40614700317383
1776870894641275100,11.367275146484374,-1.745819091796875,-2.319580078125,-34.4692497253418
1776870894651313200,11.377313232421875,-1.7141036987304688,-2.264759063720703,-34.42507553100586
1776870894661352200,11.387352294921875,-1.8125762939453125,-2.1559371948242188,-34.28396224975586
1776870894671390000,11.397389892578126,-2.070343017578125,-2.0536041259765625,-34.13870620727539
1776870894681428200,11.40742822265625,-2.2297515869140625,-1.9204483032226562,-34.1561393737793
1776870894691467000,11.417467041015625,-2.2624282836914062,-1.8383026123046875,-34.12376022338867
1776870894701505300,11.42750537109375,-2.2897491455078125,-1.7435836791992188,-33.99338150024414
1776870894711543000,11.43754296875,-2.5562057495117188,-1.8680648803710938,-33.98137283325195
1776870894721582000,11.44758203125,-2.5676345825195312,-1.7243499755859375,-33.99150466918945
1776870894731620000,11.4576201171875,-2.78094482421875,-1.535491943359375,-34.01243209838867
1776870894741658000,11.467658203125,-3.1395111083984375,-1.4591217041015625,-34.01457595825195
1776870894751697200,11.477697265625,-3.3342437744140625,-1.35284423828125,-33.7591438293457
1776870894761735200,11.487735107421875,-3.5324630737304688,-1.354766845703125,-33.686893463134766
1776870894771773200,11.497773193359375,-3.9005279541015625,-1.4381561279296875,-33.64213943481445
1776870894781812200,11.507812255859376,-3.6859588623046875,-1.390167236328125,-33.59224319458008
1776870894791850000,11.51785009765625,-3.9008560180664062,-1.3619384765625,-33.61935806274414
1776870894801888300,11.52788818359375,-4.0334320068359375,-1.3503265380859375,-33.66999435424805
1776870894811926000,11.537926025390625,-4.1639251708984375,-1.3494644165039062,-33.51931381225586
1776870894821965300,11.54796533203125,-4.299888610839844,-1.4311447143554688,-33.51664352416992
1776870894832003000,11.558003173828125,-4.3859405517578125,-1.349029541015625,-33.3892707824707
1776870894842041300,11.568041259765625,-4.38201904296875,-1.3713607788085938,-33.52290725708008
1776870894852080000,11.578080078125,-4.418388366699219,-1.523101806640625,-33.45662307739258
1776870894862118100,11.5881181640625,-4.554893493652344,-1.3484039306640625,-33.44656753540039
1776870894872156200,11.59815625,-4.5157470703125,-1.2925567626953125,-33.37690353393555
1776870894882195200,11.6081953125,-4.473518371582031,-1.3890762329101562,-33.4493293762207
1776870894892233200,11.618233154296876,-4.5956878662109375,-1.6505508422851562,-33.36062240600586
1776870894902271000,11.62827099609375,-4.409553527832031,-1.5385055541992188,-33.34018325805664
1776870894912310000,11.63831005859375,-4.4105682373046875,-1.568267822265625,-33.4454231262207
1776870894922348300,11.648348388671875,-4.532524108886719,-1.57855224609375,-33.30549240112305
1776870894932386000,11.658385986328126,-4.7300262451171875,-1.575836181640625,-33.215641021728516
1776870894942425300,11.66842529296875,-4.906158447265625,-1.6328277587890625,-33.185909271240234
1776870894952463000,11.678463134765625,-4.7902984619140625,-1.49908447265625,-32.9564094543457
1776870894962501000,11.688501220703126,-5.042999267578125,-1.2819290161132812,-33.20413589477539
1776870894972539100,11.6985390625,-4.9820709228515625,-1.161346435546875,-33.33456802368164
1776870894982578000,11.708577880859375,-5.350776672363281,-1.1808013916015625,-33.257083892822266
1776870894992616200,11.7186162109375,-5.114311218261719,-1.2366180419921875,-33.132633209228516
1776870895002654000,11.728654052734376,-5.1876678466796875,-1.13800048828125,-33.069461822509766
1776870895012693200,11.738693359375,-5.371345520019531,-1.18023681640625,-33.085750579833984
1776870895022731000,11.74873095703125,-5.2812042236328125,-0.9471511840820312,-33.07441329956055
1776870895032769300,11.758769287109375,-5.111320495605469,-1.0098037719726562,-33.012874603271484
1776870895042808000,11.76880810546875,-5.380882263183594,-1.1301498413085938,-33.12981033325195
1776870895052846000,11.77884619140625,-5.265754699707031,-0.9806365966796875,-33.13028335571289
1776870895062884000,11.788884033203125,-5.465415954589844,-0.9788436889648438,-33.04197311401367
1776870895072923100,11.798923095703126,-5.380645751953125,-0.9002227783203125,-33.006404876708984
1776870895082961200,11.808961181640624,-5.317481994628906,-0.9428634643554688,-32.98679733276367
1776870895092999200,11.818999267578125,-5.301551818847656,-0.7939605712890625,-32.84836959838867
1776870895103038000,11.829037841796875,-5.493476867675781,-0.8135528564453125,-32.91762924194336
1776870895113076200,11.839076171875,-5.545906066894531,-1.1148757934570312,-32.933841705322266
1776870895123114000,11.849114013671874,-5.599174499511719,-0.9780960083007812,-32.94784927368164
1776870895133152300,11.85915234375,-5.386192321777344,-0.951904296875,-32.90016555786133
1776870895143191000,11.86919091796875,-5.511070251464844,-0.9345169067382812,-32.7851448059082
1776870895153229300,11.879229248046874,-5.65936279296875,-0.9644851684570312,-32.8220100402832
1776870895163267000,11.88926708984375,-5.699485778808594,-0.8753280639648438,-32.92423629760742
1776870895173306000,11.89930615234375,-5.693412780761719,-0.902862548828125,-32.93947982788086
1776870895183344000,11.90934423828125,-5.987403869628906,-0.8364486694335938,-32.897281646728516
1776870895193382100,11.919382080078124,-6.284294128417969,-1.0846939086914062,-32.892879486083984
1776870895203421200,11.929421142578125,-6.107818603515625,-1.0756072998046875,-32.79216384887695
1776870895213459200,11.939459228515625,-6.105720520019531,-1.087738037109375,-32.846012115478516
1776870895223497200,11.949497314453126,-6.049812316894531,-1.0133056640625,-32.758975982666016
1776870895233536300,11.959536376953125,-6.042243957519531,-1.0172119140625,-32.75228500366211
1776870895243574000,11.969573974609375,-6.123046875,-1.1635208129882812,-32.72731399536133
1776870895253612000,11.979612060546875,-6.154457092285156,-1.135528564453125,-32.5894889831543
1776870895263650300,11.989650390625,-6.3133392333984375,-1.136871337890625,-32.68668746948242
1776870895273689000,11.999689208984375,-6.277259826660156,-1.1540069580078125,-32.68608474731445
1776870895283727000,12.00972705078125,-5.965576171875,-1.1428146362304688,-32.44137191772461
1776870895293765000,12.01976513671875,-6.2459564208984375,-1.1365890502929688,-32.64694595336914
1776870895303804200,12.02980419921875,-6.461631774902344,-1.0814437866210938,-32.581417083740234
1776870895313842200,12.03984228515625,-6.55908203125,-1.0655746459960938,-32.68532180786133
1776870895323880200,12.049880126953125,-6.665122985839844,-1.0113601684570312,-32.70723342895508
1776870895333919000,12.0599189453125,-6.619468688964844,-1.0409774780273438,-32.56454086303711
1776870895343957200,12.069957275390625,-6.745811462402344,-1.1898422241210938,-32.541927337646484
1776870895353995000,12.0799951171875,-6.7877960205078125,-1.1773681640625,-32.53996658325195
1776870895364034000,12.090033935546876,-6.8976898193359375,-1.2468948364257812,-32.59574508666992
1776870895374072000,12.100072021484374,-6.9858856201171875,-1.2437362670898438,-32.51542282104492
1776870895384110300,12.1101103515625,-7.0326690673828125,-1.21405029296875,-32.57158279418945
1776870895394149000,12.120149169921875,-7.1169586181640625,-1.2560577392578125,-32.490718841552734
1776870895404187100,12.130187255859376,-7.071556091308594,-1.2381439208984375,-32.51121139526367
1776870895414225200,12.14022509765625,-7.0235443115234375,-1.1634140014648438,-32.527042388916016
1776870895424263200,12.15026318359375,-7.0190887451171875,-1.073883056640625,-32.41476821899414
1776870895434302200,12.16030224609375,-7.164146423339844,-1.1912612915039062,-32.53060531616211
1776870895444340200,12.17034033203125,-7.122032165527344,-1.2509994506835938,-32.5223503112793
1776870895454378200,12.180378173828124,-7.2388458251953125,-1.1091156005859375,-32.57236099243164
1776870895464417300,12.190417236328125,-7.258049011230469,-1.1143417358398438,-32.47469711303711
1776870895474455000,12.200455078125,-7.258049011230469,-1.1143417358398438,-32.47469711303711
1776870895484493300,12.210493408203124,-7.4271087646484375,-1.0806503295898438,-32.46670913696289
1776870895494532000,12.220531982421875,-7.412345886230469,-1.1809310913085938,-32.366512298583984
1776870895504570400,12.2305703125,-7.488067626953125,-1.0239639282226562,-32.45822525024414
1776870895514607600,12.240607666015626,-7.5001678466796875,-0.9572830200195312,-32.54788589477539
1776870895524645600,12.250645751953124,-7.394889831542969,-1.068511962890625,-32.5225944519043
1776870895534684700,12.2606845703125,-7.402587890625,-1.1624526977539062,-32.483097076416016
1776870895544722400,12.270722412109375,-7.641578674316406,-1.2422103881835938,-32.55537033081055
1776870895554760700,12.2807607421875,-7.479637145996094,-1.2360992431640625,-32.40750503540039
1776870895564799500,12.290799560546875,-7.485389709472656,-1.287353515625,-32.36745071411133
1776870895574837800,12.300837646484375,-7.637779235839844,-1.30047607421875,-32.22462844848633
1776870895584875500,12.31087548828125,-7.593414306640625,-1.2164764404296875,-32.35001754760742
1776870895594914600,12.32091455078125,-7.578887939453125,-1.35528564453125,-32.50139236450195
1776870895604952600,12.33095263671875,-7.3675689697265625,-1.19073486328125,-32.39896774291992
1776870895614990600,12.340990478515625,-7.574180603027344,-1.3141403198242188,-32.51771926879883
1776870895625029600,12.351029541015626,-7.526649475097656,-1.216094970703125,-32.38998031616211
1776870895635067600,12.361067626953124,-7.549537658691406,-1.1714630126953125,-32.366146087646484
1776870895645105700,12.371105712890625,-7.593650817871094,-1.2777328491210938,-32.33627700805664
1776870895655143700,12.381143798828125,-7.365692138671875,-1.4548492431640625,-32.473445892333984
1776870895665182500,12.391182373046876,-7.526741027832031,-1.415069580078125,-32.4540901184082
1776870895675220700,12.401220703125,-7.438194274902344,-1.2181243896484375,-32.41530227661133
1776870895685258800,12.4112587890625,-7.481422424316406,-1.2080917358398438,-32.49160385131836
1776870895695297800,12.4212978515625,-7.559234619140625,-1.3330612182617188,-32.454349517822266
1776870895705335600,12.43133544921875,-7.7451934814453125,-1.2998733520507812,-32.513370513916016
1776870895715373800,12.441373779296875,-7.656318664550781,-1.300323486328125,-32.48946762084961
1776870895725412600,12.45141259765625,-7.4053955078125,-1.3468017578125,-32.63376998901367
1776870895735450600,12.46145068359375,-7.240692138671875,-1.2880630493164062,-32.71284103393555
1776870895745488600,12.471488525390624,-7.099029541015625,-1.3515243530273438,-32.69987869262695
1776870895755526700,12.481526611328125,-7.211509704589844,-1.26519775390625,-32.59738540649414
1776870895765565700,12.491565673828125,-7.021003723144531,-1.2790145874023438,-32.53768539428711
1776870895775603500,12.501603515625,-7.142936706542969,-1.4076461791992188,-32.49386215209961
1776870895785641700,12.511641845703124,-7.26361083984375,-1.4932861328125,-32.5488166809082
1776870895795680800,12.5216806640625,-7.1698150634765625,-1.5548171997070312,-32.64914321899414
1776870895805718800,12.53171875,-7.254920959472656,-1.5765914916992188,-32.61378860473633
1776870895815756500,12.541756591796876,-7.167015075683594,-1.5335769653320312,-32.473270416259766
1776870895825795600,12.551795654296875,-7.151710510253906,-1.3739471435546875,-32.602901458740234
1776870895835833600,12.56183349609375,-7.081932067871094,-1.6551437377929688,-32.628360748291016
1776870895845871600,12.57187158203125,-6.8123626708984375,-1.735107421875,-32.611454010009766
1776870895855909600,12.58190966796875,-6.834297180175781,-1.73095703125,-32.65115737915039
1776870895865948700,12.59194873046875,-6.6326904296875,-1.7169189453125,-32.658687591552734
1776870895875986700,12.601986572265625,-6.584159851074219,-1.9041900634765625,-32.67536544799805
1776870895886024700,12.612024658203126,-6.404594421386719,-2.0253829956054688,-32.76289749145508
1776870895896063500,12.6220634765625,-6.608604431152344,-1.9737319946289062,-32.784236907958984
1776870895906101800,12.632101806640625,-6.3268280029296875,-1.9399948120117188,-32.804012298583984
1776870895916139500,12.642139404296875,-6.397895812988281,-2.0353622436523438,-32.93936538696289
1776870895926178800,12.6521787109375,-6.360038757324219,-2.045562744140625,-32.94022750854492
1776870895936216600,12.662216552734375,-6.369392395019531,-2.187591552734375,-32.8922004699707
1776870895946254800,12.6722548828125,-6.338172912597656,-2.1571273803710938,-32.9587516784668
1776870895956292600,12.682292724609376,-6.056571960449219,-2.233753204345703,-32.976627349853516
1776870895966331600,12.69233154296875,-6.036003112792969,-2.2770118713378906,-33.1497688293457
1776870895976369700,12.70236962890625,-6.140350341796875,-2.296070098876953,-33.12062454223633
1776870895986407700,12.71240771484375,-5.945396423339844,-2.260894775390625,-33.20821762084961
1776870895996446700,12.72244677734375,-5.827568054199219,-2.09246826171875,-33.3021125793457
1776870896006484700,12.732484619140624,-5.624061584472656,-2.2032470703125,-33.2464485168457
1776870896016522800,12.742522705078125,-5.5350189208984375,-2.3432235717773438,-33.409427642822266
1776870896026561800,12.752561767578126,-5.786674499511719,-2.3246612548828125,-33.45944595336914
1776870896036599600,12.762599609375,-5.7684783935546875,-2.2131118774414062,-33.4586296081543
1776870896046637600,12.772637451171875,-5.378501892089844,-2.354816436767578,-33.56772232055664
