time,seconds_elapsed,z,y,x
1776021564922629400,0.07662939453125,0.5864467024803162,-0.6697435975074768,0.16902071237564087
1776021564932690400,0.0866904296875,0.5140133500099182,-0.5970970392227173,0.17968596518039703
1776021564942751500,0.09675146484375,0.44815900921821594,-0.4742417335510254,0.1569678783416748
1776021564952812500,0.1068125,0.36763671040534973,-0.3407869338989258,0.1359529346227646
1776021564962873300,0.116873291015625,0.295064240694046,-0.22229701280593872,0.13016614317893982
1776021564972934400,0.126934326171875,0.23002462089061737,-0.10002099722623825,0.12488345801830292
1776021564982994400,0.136994384765625,0.1547626256942749,-0.00305503630079329,0.11337780207395554
1776021564993055200,0.14705517578125,0.08636007457971573,0.09081641584634781,0.08361870050430298
1776021565003116300,0.1571162109375,0.039720140397548676,0.3795560896396637,-0.04614248871803284
1776021565013177300,0.16717724609375,0.14521145820617676,0.33725497126579285,-0.13142721354961395
1776021565023238400,0.17723828125,0.3377803564071655,0.35468295216560364,-0.12673364579677582
1776021565033299500,0.187299560546875,0.40859681367874146,0.35335153341293335,-0.09031691402196884
1776021565043360500,0.197360595703125,0.43251198530197144,0.26521819829940796,-0.057713430374860764
1776021565053421300,0.20742138671875,0.4744473397731781,0.05653247609734535,-0.005955386906862259
1776021565063482400,0.217482421875,0.5392463803291321,-0.1982199251651764,0.050568342208862305
1776021565073543400,0.22754345703125,0.5652303099632263,-0.5014427900314331,0.08197834342718124
1776021565083604200,0.237604248046875,0.5157663226127625,-0.7309399247169495,0.055924903601408005
1776021565093665300,0.247665283203125,0.4421045482158661,-0.8125774264335632,-0.012245997786521912
1776021565103726300,0.257726318359375,0.3886554539203644,-0.7908851504325867,-0.04384733363986015
1776021565113787400,0.267787353515625,0.3225763738155365,-0.7135187387466431,-0.041703324764966965
1776021565123848400,0.277848388671875,0.23630563914775848,-0.5186256766319275,-0.043208010494709015
1776021565133909500,0.287909423828125,0.10533545166254044,-0.03296083211898804,-0.04669103026390076
1776021565143968800,0.29796875,0.08635351061820984,0.3069722354412079,-0.11732125282287598
1776021565154029800,0.30802978515625,0.19118943810462952,0.5875025987625122,-0.13126519322395325
1776021565164091000,0.3180908203125,0.44883614778518677,0.8176753520965576,-0.26160430908203125
1776021565174152000,0.32815185546875,0.7041025161743164,1.0685052871704102,-0.38898685574531555
1776021565184213000,0.338212890625,0.86918705701828,1.258522391319275,-0.4023021161556244
1776021565194274000,0.348274169921875,0.9948685169219971,1.585662603378296,-0.31321415305137634
1776021565204334800,0.3583349609375,1.1412433385849,1.8315502405166626,-0.2823912799358368
1776021565214395600,0.368395751953125,1.2703635692596436,2.1344778537750244,-0.3820955753326416
1776021565224456700,0.378456787109375,1.383895754814148,2.603248119354248,-0.676144540309906
1776021565234517800,0.388517822265625,1.4078748226165771,3.3259387016296387,-1.159806489944458
1776021565244578800,0.398578857421875,1.2691524028778076,4.4075164794921875,-1.6796607971191406
1776021565254639900,0.408639892578125,0.988641619682312,5.555060863494873,-2.0372304916381836
1776021565264701000,0.418700927734375,0.6884165406227112,6.563697338104248,-2.126358985900879
1776021565274762000,0.428761962890625,0.4990038275718689,7.6471848487854,-1.8497079610824585
1776021565284823000,0.438822998046875,0.4985870122909546,8.473167419433594,-1.2175698280334473
1776021565294883800,0.4488837890625,0.6764765977859497,8.965328216552734,-0.4564981460571289
1776021565304945000,0.45894482421875,1.174551010131836,7.807732105255127,-0.8198675513267517
1776021565315005000,0.4690048828125,1.633884072303772,6.364555835723877,-0.8928806781768799
1776021565325065700,0.479065673828125,2.2463555335998535,3.829035520553589,-0.19236281514167786
1776021565335126800,0.489126708984375,2.6958980560302734,2.8350541591644287,0.48886343836784363
1776021565345187800,0.499187744140625,2.825066089630127,2.2678544521331787,0.7922872304916382
1776021565355249000,0.509248779296875,2.6252567768096924,1.4350008964538574,0.817476212978363
1776021565365310000,0.51931005859375,2.1644399166107178,0.3780006766319275,0.5786159634590149
1776021565375371000,0.52937109375,1.6104179620742798,-0.5515514612197876,0.28644615411758423
1776021565385431800,0.539431884765625,1.0769002437591553,-1.0999213457107544,0.08814557641744614
1776021565395492900,0.549492919921875,0.3858132064342499,-1.296306848526001,-0.058807555586099625
1776021565405554000,0.559553955078125,-0.31615692377090454,-0.7897104620933533,-0.36221885681152344
1776021565415614700,0.56961474609375,-0.6842593550682068,-0.16797181963920593,-0.5866585969924927
1776021565425675800,0.57967578125,-0.8686060309410095,0.08070430159568787,-0.6777639985084534
1776021565435736800,0.58973681640625,-0.9128953218460083,0.07285410165786743,-0.7752028703689575
1776021565445798000,0.5997978515625,-0.9386004209518433,-0.09125680476427078,-0.9640558958053589
1776021565455859000,0.60985888671875,-1.2483943700790405,-0.1276034414768219,-1.0799767971038818
1776021565465920000,0.619919921875,-1.525877833366394,-0.38869708776474,-1.2529610395431519
1776021565475979800,0.629979736328125,-1.7127054929733276,-0.24043431878089905,-1.350285291671753
1776021565486040800,0.640040771484375,-1.9198613166809082,-0.037244971841573715,-1.5526535511016846
1776021565496102000,0.650101806640625,-2.223536729812622,0.13040979206562042,-1.9635382890701294
1776021565506163000,0.660162841796875,-2.391916513442993,0.30668550729751587,-2.3565962314605713
1776021565516224000,0.67022412109375,-2.465125799179077,0.4342918395996094,-2.80935001373291
1776021565526285000,0.68028515625,-2.4766900539398193,0.6021266579627991,-3.3023695945739746
1776021565536345900,0.690345947265625,-2.5217912197113037,0.7882792949676514,-3.6798479557037354
1776021565546407000,0.700406982421875,-2.6597390174865723,0.9239945411682129,-3.935574531555176
1776021565556467700,0.7104677734375,-2.8148958683013916,1.02628493309021,-4.067688465118408
1776021565566528800,0.72052880859375,-2.99810791015625,1.0048494338989258,-4.046677112579346
1776021565576589800,0.73058984375,-3.2438390254974365,1.0603022575378418,-3.9831113815307617
1776021565586651000,0.74065087890625,-3.484231948852539,1.267250657081604,-3.8709893226623535
1776021565596712000,0.7507119140625,-3.552494764328003,1.7526483535766602,-3.774306535720825
1776021565606773000,0.76077294921875,-3.4289276599884033,2.3922336101531982,-3.662921905517578
1776021565616834000,0.770833984375,-3.1571226119995117,2.947664976119995,-3.3771748542785645
1776021565626894800,0.780894775390625,-2.7005302906036377,3.6033878326416016,-2.9676449298858643
1776021565636956000,0.790955810546875,-2.376903772354126,3.886082410812378,-2.4739959239959717
1776021565647016700,0.8010166015625,-2.347029209136963,3.8215513229370117,-1.995131492614746
1776021565657077800,0.811077880859375,-2.3776848316192627,3.4934418201446533,-1.6751623153686523
1776021565667137800,0.8211376953125,-2.336261034011841,2.9063966274261475,-1.5473175048828125
1776021565677198800,0.83119873046875,-2.167905807495117,2.3822243213653564,-1.5807138681411743
1776021565687260000,0.841260009765625,-1.8774738311767578,1.8996144533157349,-1.691762924194336
1776021565697321000,0.851321044921875,-1.5868263244628906,1.5238287448883057,-1.809234619140625
1776021565707382000,0.861382080078125,-1.3657691478729248,1.3138563632965088,-1.9289053678512573
1776021565717443000,0.871443115234375,-1.2085338830947876,1.2591345310211182,-2.1144702434539795
1776021565727504000,0.88150390625,-1.1580392122268677,1.2552989721298218,-2.369783639907837
1776021565737565000,0.89156494140625,-1.0948325395584106,1.1798150539398193,-2.6467413902282715
1776021565747625700,0.901625732421875,-0.9562152028083801,0.9992705583572388,-2.8712050914764404
1776021565757686800,0.911686767578125,-0.7104271054267883,0.9851259589195251,-2.843365430831909
1776021565767747800,0.921747802734375,-0.44217726588249207,1.0981042385101318,-2.5178630352020264
1776021565777809000,0.931808837890625,-0.22116218507289886,1.3566615581512451,-2.015228748321533
1776021565787870000,0.941869873046875,-0.1029370054602623,1.8672938346862793,-1.4056097269058228
1776021565797931000,0.951930908203125,-0.11617740988731384,2.3797664642333984,-0.7308119535446167
1776021565807992000,0.961991943359375,-0.05660862475633621,2.7324602603912354,-0.2825271785259247
1776021565818052900,0.972052978515625,0.05005431920289993,3.3351027965545654,0.36896371841430664
1776021565828114000,0.982114013671875,0.021086320281028748,3.8845739364624023,0.8912250399589539
1776021565838174700,0.9921748046875,0.01678270846605301,4.138264179229736,0.9725499153137207
1776021565848235800,1.00223583984375,0.14737027883529663,4.112888813018799,0.7707949280738831
1776021565858296800,1.012296875,0.35436543822288513,3.7660553455352783,0.4593857526779175
1776021565868358000,1.02235791015625,0.6972354650497437,3.1502578258514404,0.22441372275352478
1776021565878418000,1.03241796875,1.1198265552520752,2.2230441570281982,0.10700631141662598
1776021565888479000,1.04247900390625,1.5220072269439697,1.1497697830200195,0.10063789039850235
1776021565898539800,1.052539794921875,1.7755143642425537,0.06802365928888321,0.07799976319074631
1776021565908600800,1.062600830078125,1.765625238418579,-0.8172963261604309,-0.01543164812028408
1776021565918662000,1.072661865234375,1.6682952642440796,-1.2687828540802002,-0.27805858850479126
1776021565928723000,1.082722900390625,1.4426472187042236,-1.432149887084961,-0.4855569303035736
1776021565938784000,1.092783935546875,1.1391620635986328,-1.3830645084381104,-0.4969360828399658
1776021565948844800,1.1028447265625,0.9598791599273682,-1.0808738470077515,-0.4340103566646576
1776021565958905900,1.11290576171875,0.9201363921165466,-0.7505964636802673,-0.469365656375885
1776021565968967000,1.122966796875,1.0689032077789307,-0.4761617183685303,-0.6076907515525818
1776021565979028000,1.133028076171875,1.1041737794876099,-0.3315106928348541,-0.8584696650505066
1776021565989088800,1.1430888671875,0.947776198387146,-0.18189243972301483,-1.176946997642517
1776021565999149800,1.15314990234375,0.6217586398124695,0.16055767238140106,-1.4150418043136597
1776021566009211000,1.1632109375,0.3614319860935211,0.7883193492889404,-1.4841982126235962
1776021566019272000,1.17327197265625,0.3456772565841675,1.376243233680725,-1.3349531888961792
1776021566029333000,1.1833330078125,0.5895645022392273,1.520546793937683,-1.1383631229400635
1776021566039393800,1.193393798828125,0.8353614807128906,1.354233980178833,-0.9839153289794922
1776021566049454800,1.203454833984375,0.9244461059570312,1.0208975076675415,-0.8786017298698425
1776021566059516000,1.213515869140625,0.8635458946228027,0.7115591168403625,-0.7666389346122742
1776021566069577000,1.223576904296875,0.7482073307037354,0.4268864095211029,-0.525702714920044
1776021566079636700,1.23363671875,0.5266356468200684,0.08786127716302872,-0.2663939893245697
1776021566089697800,1.24369775390625,0.19027839601039886,-0.25632938742637634,0.014180149883031845
1776021566099758800,1.2537587890625,-0.10930658876895905,-0.5978580713272095,0.19901473820209503
1776021566109820000,1.26381982421875,-0.2958647608757019,-0.9119920134544373,0.3602731227874756
1776021566119881000,1.273880859375,-0.31409117579460144,-1.1306911706924438,0.3632040023803711
1776021566129942000,1.28394189453125,-0.44487395882606506,-1.386052131652832,0.4656187891960144
1776021566140003000,1.294003173828125,-0.4425719678401947,-1.4800578355789185,0.6397424340248108
1776021566150064400,1.304064453125,-0.16987013816833496,-1.3380697965621948,0.8298923969268799
1776021566160125400,1.31412548828125,0.1649545580148697,-0.9536264538764954,0.9602841734886169
1776021566170186500,1.3241865234375,0.37706390023231506,-0.43691062927246094,0.9891650676727295
1776021566180247300,1.334247314453125,0.42017507553100586,0.12166868150234222,1.1202964782714844
1776021566190308400,1.344308349609375,0.38265568017959595,0.4813256561756134,1.3185533285140991
1776021566200369400,1.354369384765625,0.35337033867836,0.5982392430305481,1.5311864614486694
1776021566210430500,1.364430419921875,0.29519596695899963,0.4955091178417206,1.752525806427002
1776021566220491500,1.374491455078125,0.1958979070186615,0.3438841998577118,1.8732924461364746
1776021566230552300,1.38455224609375,0.2972482442855835,0.34224048256874084,1.955352783203125
1776021566240613400,1.39461328125,0.34076371788978577,0.31573668122291565,2.218890905380249
1776021566250674400,1.40467431640625,0.022542066872119904,-0.06280369311571121,2.529341220855713
1776021566260735500,1.414735595703125,-0.6572521924972534,-0.7966110706329346,2.4105520248413086
1776021566270796500,1.424796630859375,-1.428362488746643,-1.5288528203964233,1.7604225873947144
1776021566280857300,1.434857421875,-2.0565195083618164,-2.0892651081085205,0.7028113603591919
1776021566290917400,1.44491748046875,-2.5031542778015137,-2.2108166217803955,-0.27338898181915283
1776021566300978400,1.454978515625,-2.7089991569519043,-1.5530307292938232,-0.7894977927207947
1776021566311039500,1.46503955078125,-2.5606980323791504,-0.3816680610179901,-0.5687326788902283
1776021566321100500,1.4751005859375,-2.1883914470672607,0.4504668116569519,0.12359447777271271
1776021566331161600,1.48516162109375,-1.6878530979156494,1.1676781177520752,0.6339269876480103
1776021566341222400,1.495222412109375,-1.3066250085830688,1.252766489982605,0.8946348428726196
1776021566351283200,1.505283203125,-1.095757007598877,0.9490877985954285,0.8656953573226929
1776021566361344300,1.51534423828125,-0.889453649520874,0.41058677434921265,0.6741673350334167
1776021566371405300,1.5254052734375,-0.5715526342391968,0.1674042046070099,0.3645050823688507
1776021566381466400,1.53546630859375,-0.23701263964176178,-0.07877138257026672,0.11216766387224197
1776021566391527400,1.54552734375,-0.018098939210176468,-0.4647187888622284,-0.23642973601818085
1776021566401588500,1.55558837890625,-0.03242391347885132,-0.8254571557044983,-0.6896510124206543
1776021566411649500,1.5656494140625,-0.16816096007823944,-1.0177069902420044,-1.0908000469207764
1776021566421710600,1.575710693359375,-0.4107278287410736,-1.0445795059204102,-1.2355140447616577
1776021566431771400,1.585771484375,-0.6147704124450684,-0.796668291091919,-1.0984963178634644
1776021566441832200,1.595832275390625,-0.6240434646606445,-0.3630903661251068,-0.8689607977867126
1776021566451893200,1.605893310546875,-0.5163875818252563,-0.014038898050785065,-0.6877741813659668
1776021566461954300,1.615954345703125,-0.3587564527988434,0.05439421534538269,-0.6889578700065613
1776021566472015400,1.626015380859375,-0.12630219757556915,-0.11867210268974304,-0.889379620552063
1776021566482076400,1.636076416015625,0.12431776523590088,-0.19134177267551422,-0.9951875805854797
1776021566492137500,1.646137451171875,0.31058698892593384,-0.17269085347652435,-0.8698296546936035
1776021566502198500,1.656198486328125,0.4658399522304535,-0.08735013753175735,-0.8558616042137146
1776021566512259600,1.666259521484375,0.5975732207298279,-0.09554388374090195,-1.098886489868164
1776021566522320400,1.6763203125,0.7679147720336914,-0.3903665542602539,-1.2563035488128662
1776021566532380400,1.68638037109375,0.8176434636116028,-0.3940047025680542,-1.3810158967971802
1776021566542441500,1.69644140625,0.8568211793899536,-0.560968816280365,-1.304222822189331
1776021566552502300,1.706502197265625,1.0585016012191772,-1.01926851272583,-1.0098944902420044
1776021566562563300,1.716563232421875,1.327166199684143,-1.2652473449707031,-0.5191869139671326
1776021566572624400,1.726624267578125,1.4740790128707886,-1.2477033138275146,0.0016551823355257511
1776021566582685400,1.736685546875,1.4496736526489258,-0.7106860280036926,0.4353295564651489
1776021566592746500,1.74674658203125,1.3674077987670898,-0.19777633249759674,0.6998280882835388
1776021566602807600,1.7568076171875,1.1375025510787964,0.0030641844496130943,0.6544210314750671
1776021566612868400,1.766868408203125,0.793900728225708,-0.04261968284845352,0.3106095492839813
1776021566622929400,1.776929443359375,0.3761403262615204,-0.13334444165229797,-0.1402464509010315
1776021566632990500,1.786990478515625,-0.09054829180240631,-0.6026330590248108,-0.5065214037895203
1776021566643051300,1.79705126953125,-0.6001526713371277,-0.35362106561660767,-0.604328989982605
1776021566653112300,1.8071123046875,-1.2719323635101318,-0.22076287865638733,-1.0341272354125977
1776021566663173400,1.81717333984375,-1.4415013790130615,-1.3960771560668945,-1.611124038696289
1776021566673234400,1.827234375,-1.3123377561569214,-2.6462488174438477,-1.7186225652694702
1776021566683295500,1.83729541015625,-1.1323643922805786,-3.935910940170288,-1.8400020599365234
1776021566693356500,1.8473564453125,-0.8848410844802856,-4.43183708190918,-1.969972014427185
1776021566703417300,1.857417236328125,-0.6777766942977905,-3.874734878540039,-2.0514612197875977
1776021566713478400,1.867478515625,-0.7104235887527466,-2.6627447605133057,-2.1476080417633057
1776021566723539500,1.87753955078125,-0.8549844622612,-1.3923224210739136,-2.2354981899261475
1776021566733600300,1.887600341796875,-0.8489018082618713,-0.25298357009887695,-2.4055612087249756
1776021566743661300,1.897661376953125,-0.6506819725036621,0.4390191435813904,-2.665126323699951
1776021566753722400,1.907722412109375,-0.28007274866104126,1.0221821069717407,-2.870225429534912
1776021566763783400,1.917783447265625,0.2579376995563507,2.016779899597168,-2.830780267715454
1776021566773844500,1.927844482421875,1.2189582586288452,2.9047048091888428,-2.53483510017395
1776021566783905500,1.937905517578125,2.056786298751831,2.933087110519409,-1.8505926132202148
1776021566793966600,1.947966552734375,2.5348172187805176,3.213151693344116,-1.0274044275283813
1776021566804026400,1.9580263671875,2.542006015777588,3.5539534091949463,-0.1789388805627823
1776021566814087400,1.96808740234375,2.2289485931396484,3.777132749557495,0.5019850730895996
1776021566824148500,1.9781484375,1.8405656814575195,3.648557424545288,0.9426014423370361
1776021566834209500,1.98820947265625,1.387212872505188,3.060776948928833,1.356300950050354
1776021566844270600,1.9982705078125,1.020139217376709,2.360999822616577,2.042356252670288
1776021566854331400,2.008331298828125,1.139089822769165,1.8064860105514526,2.8398053646087646
1776021566864392400,2.018392333984375,1.0128324031829834,1.1952463388442993,3.1693825721740723
1776021566874453200,2.028453369140625,0.5936480760574341,1.1996142864227295,3.08339262008667
1776021566884514300,2.038514404296875,0.18680201470851898,1.5026265382766724,2.789562940597534
1776021566894575400,2.048575439453125,-0.08282625675201416,1.4615768194198608,2.560600996017456
1776021566904636400,2.058636474609375,-0.09585683047771454,1.1328552961349487,2.4082818031311035
1776021566914697500,2.068697509765625,-0.10478827357292175,0.4822586476802826,2.143770933151245
1776021566924758500,2.078758544921875,-0.09157286584377289,-0.5362995266914368,1.6107091903686523
1776021566934819600,2.088819580078125,-0.059842899441719055,-1.4713332653045654,1.4605095386505127
1776021566944880400,2.09888037109375,0.08056890964508057,-2.1428112983703613,1.6027122735977173
1776021566954941400,2.10894140625,0.5659888386726379,-2.3602187633514404,1.7074791193008423
1776021566965002500,2.11900244140625,0.6539109945297241,-2.280651569366455,1.6015031337738037
1776021566975063300,2.129063232421875,0.5644098520278931,-1.6939544677734375,1.667583703994751
1776021566985124400,2.139124267578125,0.3783634603023529,-0.37555137276649475,2.0631253719329834
1776021566995185400,2.149185302734375,0.035230595618486404,0.7837905287742615,1.984470009803772
1776021567005246500,2.15924658203125,-0.19058440625667572,1.2285922765731812,1.6029036045074463
1776021567015307500,2.1693076171875,-0.17162136733531952,1.1163839101791382,1.2529016733169556
1776021567025368600,2.17936865234375,-0.05238005146384239,0.9947715997695923,1.1333630084991455
1776021567035429400,2.189429443359375,0.07021857053041458,0.820193350315094,1.055708408355713
1776021567045490400,2.199490478515625,0.1556401252746582,0.479098379611969,0.8296847343444824
1776021567055551500,2.209551513671875,0.2453223317861557,-0.10334055125713348,0.5816584229469299
1776021567065612300,2.2196123046875,0.4520014822483063,-0.6662124395370483,0.29269939661026
1776021567075673300,2.22967333984375,0.4750452935695648,-1.1410952806472778,-0.01853729598224163
1776021567085734400,2.239734375,0.33221980929374695,-1.3216180801391602,-0.1035628691315651
1776021567095795500,2.24979541015625,0.038131728768348694,-1.2121752500534058,-0.15634672343730927
1776021567105856500,2.2598564453125,-0.5132642984390259,-1.3033215999603271,-0.036749836057424545
1776021567115916500,2.26991650390625,-1.6175320148468018,-2.704341411590576,0.4393778145313263
1776021567125977600,2.2799775390625,-2.2684521675109863,-2.9529614448547363,0.2924231290817261
1776021567136038400,2.290038330078125,-2.4459586143493652,-2.0616209506988525,-0.31503939628601074
1776021567146099500,2.300099365234375,-2.4592206478118896,-1.7259103059768677,-0.5688690543174744
1776021567156160500,2.310160400390625,-2.8731470108032227,-2.192194938659668,-0.46414637565612793
1776021567166221600,2.3202216796875,-3.5640735626220703,-2.5391860008239746,-0.37814000248908997
1776021567176282600,2.33028271484375,-4.171883583068848,-2.7093453407287598,-0.6250384449958801
1776021567186343700,2.34034375,-4.871699810028076,-1.9681589603424072,-0.9478998184204102
1776021567196404700,2.35040478515625,-5.532783031463623,-0.528092622756958,-1.0703269243240356
1776021567206465800,2.3604658203125,-5.830708980560303,1.1032516956329346,-0.9860485196113586
1776021567216526600,2.370526611328125,-5.765408039093018,2.398447275161743,-0.7019209265708923
1776021567226587600,2.380587646484375,-5.545780181884766,3.4732649326324463,-0.32947325706481934
1776021567236648400,2.3906484375,-5.50985050201416,4.0768022537231445,0.04023982211947441
1776021567246709500,2.40070947265625,-5.530747413635254,4.3801140785217285,0.28108105063438416
1776021567256770600,2.4107705078125,-5.451699256896973,4.345631122589111,0.4500005841255188
1776021567266831600,2.42083154296875,-5.270533084869385,4.006786823272705,0.49130070209503174
1776021567276892700,2.430892578125,-5.136162757873535,3.524139881134033,0.3999529480934143
1776021567286953700,2.44095361328125,-5.027194976806641,3.088986873626709,0.23856964707374573
1776021567297014800,2.451014892578125,-4.94348669052124,2.5443167686462402,0.04856402799487114
1776021567307075800,2.461075927734375,-4.7634758949279785,1.7080068588256836,-0.08023519068956375
1776021567317136600,2.47113671875,-4.421915531158447,0.770804762840271,-0.10717199742794037
1776021567327197400,2.481197509765625,-3.6742000579833984,-0.09714648127555847,0.007222889456897974
1776021567337258500,2.491258544921875,2.413065195083618,1.1399608850479126,1.6011866331100464
1776021567347319600,2.501319580078125,-1.830737829208374,-2.681824207305908,1.6403270959854126
1776021567357380600,2.511380615234375,2.197657823562622,-4.516636371612549,0.7765092253684998
1776021567367441700,2.521441650390625,2.4898760318756104,-5.557168006896973,0.4471334218978882
1776021567377502700,2.531502685546875,2.879598617553711,-5.068181037902832,0.20647688210010529
1776021567387563800,2.541563720703125,2.4622445106506348,-3.937222480773926,0.20737801492214203
1776021567397624800,2.551624755859375,1.6730588674545288,-2.6677818298339844,0.03487734869122505
1776021567407685600,2.561685546875,0.7382015585899353,-1.3531837463378906,-0.11589227616786957
1776021567417746400,2.571746337890625,-0.0681668221950531,-0.1271725594997406,-0.09858998656272888
1776021567427807500,2.581807373046875,-0.6153475046157837,0.9224774837493896,-0.03737222030758858
1776021567437868500,2.59186865234375,-0.8337922096252441,1.5323983430862427,-0.031156137585639954
1776021567447929600,2.6019296875,-0.7325830459594727,1.5496132373809814,-0.08729153126478195
1776021567457990700,2.61199072265625,-0.4150405526161194,1.232494592666626,-0.09548953920602798
1776021567468051700,2.6220517578125,-0.033333487808704376,0.8002012968063354,-0.06490970402956009
1776021567478112800,2.63211279296875,0.2020726352930069,0.4447843134403229,-0.009899984113872051
1776021567488173800,2.642173828125,0.2571375072002411,0.22802041471004486,0.0600765161216259
1776021567498234600,2.652234619140625,0.19331912696361542,0.1346164345741272,0.08973135054111481
1776021567508295400,2.66229541015625,0.07338690012693405,0.1292172372341156,0.09124305844306946
1776021567518356500,2.6723564453125,-0.054278913885354996,0.14724230766296387,0.08370710909366608
1776021567528417500,2.68241748046875,-0.09183922410011292,0.10976160317659378,0.06874049454927444
1776021567538478600,2.692478515625,-0.04744645580649376,0.014452127739787102,0.05716905742883682
1776021567548538600,2.70253857421875,0.015665782615542412,-0.08745470643043518,0.04070787876844406
1776021567558600700,2.7126005859375,0.053546056151390076,-0.14277362823486328,0.022137923166155815
1776021567568660700,2.72266064453125,0.06214289739727974,-0.1078936755657196,-0.007405209820717573
1776021567578721500,2.732721435546875,0.05046919733285904,-0.0018702972447499633,-0.04055970162153244
1776021567588782600,2.742782470703125,0.015933703631162643,0.09626603126525879,-0.04921139031648636
1776021567598843600,2.75284375,-0.018668482080101967,0.13379797339439392,-0.05549938231706619
1776021567608904700,2.76290478515625,-0.032318249344825745,0.11622722446918488,-0.055331334471702576
1776021567618965500,2.772965576171875,-0.02832270786166191,0.07211808860301971,-0.05673029273748398
1776021567629026600,2.783026611328125,-0.022348575294017792,0.0337626188993454,-0.060768429189920425
1776021567639087600,2.793087646484375,-0.012874912470579147,0.009876994416117668,-0.05947759374976158
1776021567649148700,2.803148681640625,-0.00788703840225935,-0.030712241306900978,-0.04773432016372681
1776021567659209700,2.813209716796875,0.00428174389526248,-0.10209721326828003,-0.02169632911682129
1776021567669270500,2.8232705078125,0.04027484357357025,-0.20813186466693878,-0.007744553964585066
1776021567679331600,2.83333154296875,0.09014386683702469,-0.3111453056335449,-0.022256651893258095
1776021567689392600,2.843392578125,0.11584576964378357,-0.38717544078826904,-0.0503397211432457
1776021567699453700,2.85345361328125,0.12739057838916779,-0.42023327946662903,-0.07775430381298065
1776021567709514500,2.863514404296875,0.13065801560878754,-0.4077869951725006,-0.08617229014635086
1776021567719575600,2.873575439453125,0.139590784907341,-0.369312047958374,-0.07317180186510086
1776021567729636600,2.88363671875,0.13567328453063965,-0.2989768087863922,-0.04450267553329468
1776021567739697700,2.89369775390625,0.11715579777956009,-0.23084595799446106,-0.018839655444025993
1776021567749758700,2.9037587890625,0.08760856091976166,-0.16246476769447327,0.0010552217718213797
1776021567759819800,2.91381982421875,0.06536290794610977,-0.11671965569257736,0.006460107397288084
1776021567769880600,2.923880615234375,0.058192528784275055,-0.10394793003797531,0.006835102569311857
1776021567779941600,2.933941650390625,0.0633326917886734,-0.11953594535589218,0.000604104483500123
1776021567790002700,2.944002685546875,0.06620638817548752,-0.14692549407482147,-0.011592685244977474
1776021567800063500,2.9540634765625,0.054143067449331284,-0.1718875765800476,-0.026056313887238503
1776021567810124500,2.96412451171875,0.035679470747709274,-0.19813799858093262,-0.040685951709747314
1776021567820185600,2.974185546875,0.022747959941625595,-0.22093278169631958,-0.05575358495116234
1776021567830246700,2.98424658203125,0.0173123050481081,-0.23866944015026093,-0.05974534526467323
1776021567840307700,2.9943076171875,0.01628698781132698,-0.2484392374753952,-0.05824065953493118
1776021567850368800,3.00436865234375,0.014186572283506393,-0.24129077792167664,-0.04673190787434578
1776021567860429600,3.0144296875,0.01109916903078556,-0.22957846522331238,-0.04137575626373291
1776021567870490600,3.02449072265625,0.00497372355312109,-0.20189900696277618,-0.0367584154009819
1776021567880551700,3.0345517578125,0.004119647666811943,-0.17615288496017456,-0.03453893959522247
1776021567890612500,3.044612548828125,0.015249550342559814,-0.15850864350795746,-0.039138056337833405
1776021567900673500,3.054673583984375,0.031671665608882904,-0.14369401335716248,-0.04306035861372948
1776021567910734600,3.064734619140625,0.04683707654476166,-0.13695462048053741,-0.04547577351331711
1776021567920795600,3.074795654296875,0.04991036653518677,-0.13856849074363708,-0.040942274034023285
1776021567930856700,3.084856689453125,0.0403585210442543,-0.12954586744308472,-0.037081409245729446
1776021567940917800,3.094917724609375,0.027302907779812813,-0.11947859823703766,-0.025810115039348602
1776021567950978600,3.104978515625,0.017161352559924126,-0.11268611252307892,-0.010066989809274673
1776021567961039600,3.11503955078125,0.016007937490940094,-0.08880235254764557,0.0007310635410249233
1776021567971100700,3.1251005859375,0.011327266693115234,-0.042765531688928604,0.013025181367993355
1776021567981161500,3.135161376953125,-0.011813206598162651,0.030777661129832268,0.023079413920640945
1776021567991222500,3.145222412109375,-0.026673870161175728,0.10887450724840164,0.04107604920864105
1776021568001283600,3.15528369140625,-0.02891385555267334,0.15493467450141907,0.06673426926136017
1776021568011344600,3.1653447265625,-0.007364259567111731,0.15990138053894043,0.085929736495018
1776021568021405700,3.17540576171875,0.020279617980122566,0.13732443749904633,0.08907199651002884
1776021568031466800,3.185466796875,0.038259536027908325,0.13427387177944183,0.08372844755649567
1776021568041527600,3.195527587890625,0.05042698606848717,0.12180068343877792,0.09363886713981628
1776021568051588600,3.205588623046875,0.06337092816829681,0.07718954235315323,0.11606857180595398
1776021568061649700,3.215649658203125,0.07638606429100037,-0.0052768331952393055,0.13178682327270508
1776021568071710500,3.22571044921875,0.09041278064250946,-0.1020098552107811,0.12708404660224915
1776021568081771500,3.235771484375,0.10986104607582092,-0.19757819175720215,0.10445356369018555
1776021568091832600,3.24583251953125,0.12846127152442932,-0.2570023834705353,0.07564407587051392
1776021568101893600,3.2558935546875,0.1343572437763214,-0.26804569363594055,0.04345471411943436
1776021568111954700,3.26595458984375,0.1316414326429367,-0.26118016242980957,0.01248535793274641
1776021568122015700,3.276015625,0.11417828500270844,-0.23806923627853394,-0.026278549805283546
1776021568132076800,3.286076904296875,0.07508404552936554,-0.1950552761554718,-0.05904491990804672
1776021568142137600,3.2961376953125,0.043753813952207565,-0.18252670764923096,-0.07546757161617279
1776021568152198700,3.30619873046875,0.03180796280503273,-0.260719358921051,-0.0990169495344162
1776021568162259500,3.316259521484375,0.014916330575942993,-0.3203403353691101,-0.0934421569108963
1776021568172320500,3.326320556640625,-0.013728244230151176,-0.30371972918510437,-0.0697370246052742
1776021568182381300,3.33638134765625,-0.04767049849033356,-0.249620258808136,-0.020119931548833847
1776021568192442400,3.3464423828125,-0.07007474452257156,-0.18791916966438293,0.021946042776107788
1776021568202503400,3.35650341796875,-0.0783262848854065,-0.10329216718673706,0.04402897506952286
1776021568212564500,3.366564453125,-0.0887855738401413,0.02152610942721367,0.018668729811906815
1776021568222625500,3.37662548828125,-0.09954953193664551,0.1398644745349884,0.001107844989746809
1776021568232686600,3.3866865234375,-0.09616852551698685,0.2243766039609909,-0.006874433718621731
1776021568242747600,3.39674755859375,-0.07751920819282532,0.31783783435821533,0.009219048544764519
1776021568252808400,3.406808349609375,-0.03862636536359787,0.405600368976593,0.02948951907455921
1776021568262869500,3.416869384765625,0.009523051790893078,0.4690949320793152,0.034812379628419876
1776021568272930300,3.426930419921875,0.05135168135166168,0.5351734757423401,0.03883342817425728
1776021568282991400,3.436991455078125,0.07922086864709854,0.6032944321632385,0.0629667267203331
1776021568293052400,3.447052490234375,0.08696217834949493,0.6543537974357605,0.09221923351287842
1776021568303113500,3.457113525390625,0.07701767235994339,0.6746372580528259,0.11183661222457886
1776021568313174500,3.467174560546875,0.05599597841501236,0.6721391081809998,0.1283576637506485
1776021568323235600,3.477235595703125,0.03975682333111763,0.6591647267341614,0.13533595204353333
1776021568333296600,3.487296630859375,0.01990254409611225,0.6406158804893494,0.14184026420116425
1776021568343357400,3.497357421875,-0.004179355222731829,0.6156131029129028,0.15011923015117645
1776021568353418500,3.50741845703125,-0.03719959780573845,0.5692400336265564,0.15005570650100708
1776021568363479600,3.5174794921875,-0.06735510379076004,0.5004889965057373,0.15134839713573456
1776021568373540400,3.527540283203125,-0.09774016588926315,0.42982587218284607,0.14316128194332123
1776021568383601400,3.537601318359375,-0.118055559694767,0.3724379539489746,0.13153471052646637
1776021568393662500,3.547662353515625,-0.12257427722215652,0.3335575759410858,0.1129370778799057
1776021568403723500,3.5577236328125,-0.1283128559589386,0.3138808310031891,0.09608060121536255
1776021568413784600,3.56778466796875,-0.13228726387023926,0.30886539816856384,0.081865593791008
1776021568423845600,3.577845703125,-0.12138533592224121,0.31432992219924927,0.06626293063163757
1776021568433906400,3.587906494140625,-0.10636710375547409,0.33389803767204285,0.06655344367027283
1776021568443967500,3.597967529296875,-0.09480845183134079,0.36750394105911255,0.08441739529371262
1776021568454028500,3.608028564453125,-0.09554463624954224,0.4081684648990631,0.11784677952528
1776021568464089300,3.61808935546875,-0.10634429007768631,0.43885713815689087,0.16467952728271484
1776021568474150400,3.628150390625,-0.11980617791414261,0.4524795711040497,0.21712441742420197
1776021568484211500,3.63821142578125,-0.10688931494951248,0.440506249666214,0.2563280165195465
1776021568494272500,3.6482724609375,-0.07182544469833374,0.3991882801055908,0.2567521333694458
1776021568504333600,3.65833349609375,-0.0486903041601181,0.3662835955619812,0.2235928475856781
1776021568514394600,3.66839453125,-0.05148649588227272,0.3570137619972229,0.16797225177288055
1776021568524455400,3.678455322265625,-0.04879004508256912,0.36422744393348694,0.13113407790660858
1776021568534516500,3.6885166015625,-0.026242665946483612,0.39555004239082336,0.1414932757616043
1776021568544577500,3.69857763671875,0.002633458934724331,0.4221678078174591,0.1981048882007599
1776021568554638300,3.708638427734375,0.020802056416869164,0.4578808546066284,0.28916510939598083
1776021568564699400,3.718699462890625,0.029590222984552383,0.4801456928253174,0.3741273880004883
1776021568574760400,3.728760498046875,0.02647378109395504,0.4915007948875427,0.4313372075557709
1776021568584821500,3.738821533203125,0.015733253210783005,0.496931254863739,0.46179524064064026
1776021568594882600,3.748882568359375,-0.00025351764634251595,0.520190417766571,0.4695216119289398
1776021568604943600,3.758943603515625,-0.016375228762626648,0.5849569439888,0.46791866421699524
1776021568615004400,3.76900439453125,-0.01795237883925438,0.6892033815383911,0.4694317579269409
1776021568625065500,3.7790654296875,-0.009344244375824928,0.811975359916687,0.471706360578537
1776021568635126500,3.78912646484375,0.01612742431461811,0.9102323651313782,0.4702325463294983
1776021568645187600,3.7991875,0.0500507727265358,0.959487795829773,0.47226694226264954
1776021568655248400,3.809248291015625,0.09199369698762894,0.948081374168396,0.45965951681137085
1776021568665309400,3.819309326171875,0.1432078778743744,0.8841245174407959,0.42410045862197876
1776021568675370500,3.82937060546875,0.20052005350589752,0.7832640409469604,0.390970915555954
1776021568685431600,3.839431640625,0.2691457271575928,0.6656641960144043,0.38278090953826904
1776021568695492600,3.84949267578125,0.3414357900619507,0.5090090036392212,0.42031171917915344
1776021568705553400,3.859553466796875,0.4257509410381317,0.30658501386642456,0.4911171793937683
1776021568715614500,3.869614501953125,0.5093526840209961,0.08758227527141571,0.5724560618400574
1776021568725675500,3.879675537109375,0.6032466888427734,-0.11637724936008453,0.6433046460151672
1776021568735736600,3.889736572265625,0.7029648423194885,-0.27831873297691345,0.697537362575531
1776021568745797400,3.89979736328125,0.8006873726844788,-0.4052695035934448,0.7446969151496887
1776021568755858400,3.9098583984375,0.8848057389259338,-0.510654866695404,0.7836558222770691
1776021568765919500,3.91991943359375,0.9543417096138,-0.5907044410705566,0.8379350304603577
1776021568775980500,3.92998046875,1.0039818286895752,-0.6149805188179016,0.9022473096847534
1776021568786041600,3.94004150390625,1.04225754737854,-0.55054771900177,0.982151448726654
1776021568796102400,3.950102294921875,1.066244125366211,-0.398893266916275,1.0860390663146973
1776021568806163500,3.96016357421875,1.0795698165893555,-0.1552654355764389,1.204653024673462
1776021568816224500,3.970224609375,1.075447678565979,0.13609938323497772,1.3503754138946533
1776021568826285600,3.98028564453125,1.0575720071792603,0.36964452266693115,1.4759396314620972
1776021568836346400,3.990346435546875,1.032832145690918,0.4880852997303009,1.5265910625457764
1776021568846407400,4.000407470703125,1.0170449018478394,0.5296825766563416,1.5131561756134033
1776021568856468500,4.010468505859375,1.0300451517105103,0.5455257296562195,1.4608484506607056
1776021568866529500,4.020529541015625,1.0552200078964233,0.5877363085746765,1.3453154563903809
1776021568876590600,4.030590576171875,1.0850762128829956,0.5726698637008667,1.1525150537490845
1776021568886651400,4.0406513671875,1.1118580102920532,0.5410214066505432,0.9196226596832275
1776021568896712400,4.05071240234375,1.1192476749420166,0.5713593363761902,0.724439263343811
1776021568906773500,4.0607734375,1.0517789125442505,0.6521676182746887,0.618938148021698
1776021568916834600,4.07083447265625,0.8786646127700806,0.7093444466590881,0.6115410327911377
1776021568926895600,4.0808955078125,0.6034899950027466,0.7392200827598572,0.6303027272224426
1776021568936956400,4.090956298828125,0.3402329385280609,0.17748942971229553,0.5014074444770813
1776021568947017500,4.101017578125,0.13671498000621796,0.10845710337162018,0.5298534631729126
1776021568957078500,4.11107861328125,0.04031785577535629,0.03680209070444107,0.5795043706893921
1776021568967139600,4.1211396484375,-0.01337306946516037,-0.08862986415624619,0.4991973340511322
1776021568977200400,4.131200439453125,-0.03288881108164787,-0.09734895825386047,0.3893454670906067
1776021568987261400,4.141261474609375,-0.07833219319581985,-0.03010520711541176,0.19895902276039124
1776021568997322500,4.151322509765625,-0.17056889832019806,-0.08491900563240051,-0.1378650963306427
1776021569007383600,4.161383544921875,-0.29013603925704956,-0.3833751976490021,-0.5407989621162415
1776021569017444600,4.171444580078125,-0.37474894523620605,-1.0550755262374878,-0.9558101892471313
1776021569027505400,4.18150537109375,-0.3717941641807556,-1.261134386062622,-1.0215578079223633
1776021569037566500,4.19156640625,-0.3280506730079651,-1.5121006965637207,-1.0055251121520996
1776021569047627500,4.20162744140625,-0.26872768998146057,-1.6575361490249634,-0.8877278566360474
1776021569057688600,4.2116884765625,-0.19669318199157715,-1.8228416442871094,-0.6084522604942322
1776021569067749400,4.221749267578125,-0.06752534955739975,-1.390513300895691,-0.1725095808506012
1776021569077810400,4.231810546875,0.009922413155436516,-0.6700607538223267,-0.3524576723575592
1776021569087871500,4.24187158203125,-0.10993528366088867,-0.7859511375427246,-1.3789178133010864
1776021569097932500,4.2519326171875,-0.23298421502113342,-1.363709568977356,-1.9351235628128052
1776021569107993600,4.26199365234375,-0.32452425360679626,-1.9003362655639648,-2.0516254901885986
1776021569118054400,4.272054443359375,-0.3934900164604187,-2.192261219024658,-1.8023484945297241
1776021569128116500,4.282116455078125,-0.4731835126876831,-2.1574182510375977,-1.3290722370147705
1776021569138177300,4.29217724609375,-0.4645153284072876,-1.817017912864685,-0.831047773361206
1776021569148237800,4.30223779296875,-0.31626594066619873,-1.2243263721466064,-0.590765655040741
1776021569158299000,4.312298828125,-0.16993549466133118,-0.703551709651947,-0.7553492784500122
1776021569168360000,4.32235986328125,-0.11509780585765839,-0.3867553770542145,-1.1617848873138428
1776021569178421000,4.3324208984375,-0.13796637952327728,-0.20106887817382812,-1.5464825630187988
1776021569188481800,4.342481689453125,-0.15670916438102722,-0.2056705504655838,-1.6393197774887085
1776021569198542800,4.35254296875,-0.1081748977303505,-0.7522777915000916,-1.454327940940857
1776021569208604000,4.36260400390625,-0.04442229121923447,-1.4853498935699463,-1.156789779663086
1776021569218665000,4.3726650390625,-0.024081313982605934,-2.2023746967315674,-0.8605272173881531
1776021569228726000,4.38272607421875,-0.06298503279685974,-2.752425193786621,-0.7763513922691345
1776021569238786800,4.392786865234375,-0.15043313801288605,-2.990097761154175,-0.736565351486206
1776021569248848000,4.402847900390625,-0.29681137204170227,-2.861354112625122,-0.6817785501480103
1776021569258909000,4.412908935546875,-0.4784054458141327,-2.3767249584198,-0.6333364248275757
1776021569268970000,4.422969970703125,-0.6488000154495239,-1.6785942316055298,-0.5673698782920837
1776021569279030800,4.43303076171875,-0.7599110007286072,-0.9366030097007751,-0.4854649305343628
1776021569289091800,4.443091796875,-0.7712736129760742,-0.30136314034461975,-0.4301718473434448
1776021569299153000,4.45315283203125,-0.6650418639183044,0.10037015378475189,-0.4206041395664215
1776021569309214000,4.4632138671875,-0.4577752649784088,0.2523692846298218,-0.4189055562019348
1776021569319275000,4.47327490234375,-0.22170357406139374,0.2423257827758789,-0.39084047079086304
1776021569329335800,4.483335693359375,-0.1200597733259201,0.22724483907222748,-0.34765809774398804
1776021569339396900,4.49339697265625,-0.17100021243095398,0.2655276954174042,-0.2724202275276184
1776021569349458000,4.5034580078125,-0.26418477296829224,0.29117313027381897,-0.20796479284763336
1776021569359519000,4.51351904296875,-0.30636894702911377,0.2659202218055725,-0.15269066393375397
1776021569369580000,4.523580078125,-0.29190561175346375,0.25667640566825867,-0.07760176807641983
1776021569379640800,4.533640869140625,-0.2551833689212799,0.3518286645412445,0.017136618494987488
1776021569389702000,4.543701904296875,-0.2314586043357849,0.5448684692382812,0.09353578090667725
1776021569399763000,4.553762939453125,-0.21065784990787506,0.7518431544303894,0.1321047991514206
1776021569409824000,4.563823974609375,-0.18771019577980042,0.8957087397575378,0.14642007648944855
1776021569419884800,4.573884765625,-0.16205810010433197,0.9802244305610657,0.15075677633285522
1776021569429945900,4.58394580078125,-0.1158200278878212,1.049235463142395,0.14190521836280823
1776021569440007000,4.5940068359375,-0.05601847171783447,1.140080213546753,0.12888234853744507
1776021569450068000,4.60406787109375,0.004297866020351648,1.225170612335205,0.08662251383066177
1776021569460129000,4.61412890625,0.046008557081222534,1.261525273323059,0.012317931279540062
1776021569470189800,4.62418994140625,0.049985457211732864,1.2608088254928589,-0.0820370614528656
1776021569480251000,4.6342509765625,0.021066587418317795,1.2421561479568481,-0.15284118056297302
1776021569490312000,4.64431201171875,-0.016846174374222755,1.1980922222137451,-0.15887616574764252
1776021569500373000,4.654373046875,-0.014205919578671455,1.0893442630767822,-0.10788647085428238
1776021569510433800,4.664433837890625,0.025711936876177788,0.9126040935516357,-0.06464259326457977
1776021569520494800,4.674494873046875,0.06175396963953972,0.7072775363922119,-0.06370734423398972
1776021569530556000,4.684555908203125,0.06497852504253387,0.5207841396331787,-0.07931666821241379
1776021569540617000,4.694616943359375,0.06042585149407387,0.38532644510269165,-0.07662607729434967
1776021569550678000,4.704677978515625,0.04340851679444313,0.3151681423187256,-0.03992718830704689
1776021569560738800,4.71473876953125,0.029979931190609932,0.3600977957248688,-0.009349584579467773
1776021569570799900,4.7247998046875,0.01198362186551094,0.5111765265464783,-0.009817236103117466
1776021569580861700,4.73486181640625,-0.023320574313402176,0.7455949187278748,-0.01105053536593914
1776021569590922800,4.7449228515625,-0.11493518203496933,1.0424532890319824,0.0051579950377345085
1776021569600983800,4.75498388671875,-0.2217114418745041,1.3709744215011597,0.027088120579719543
1776021569611044900,4.765044921875,-0.26997989416122437,1.6396055221557617,0.06190842017531395
1776021569621106000,4.77510595703125,-0.2480599582195282,1.8199958801269531,0.06925630569458008
1776021569631167000,4.7851669921875,-0.2011995017528534,1.9097254276275635,0.06295233964920044
1776021569641228000,4.79522802734375,-0.1697724610567093,1.9508578777313232,0.028590835630893707
1776021569651289000,4.8052890625,-0.16217951476573944,1.978576898574829,-0.020708803087472916
1776021569661350000,4.815349853515625,-0.16859029233455658,1.9878699779510498,-0.06133902817964554
1776021569671411000,4.825410888671875,-0.16660703718662262,2.0060009956359863,-0.07463300228118896
1776021569681471700,4.8354716796875,-0.14879834651947021,2.030052661895752,-0.05236442759633064
1776021569691532800,4.84553271484375,-0.12136910855770111,1.9822875261306763,-0.0010170863242819905
1776021569701593900,4.85559375,-0.10744449496269226,1.7688815593719482,0.05398435518145561
1776021569711655000,4.865655029296875,-0.11492132395505905,1.3670203685760498,0.08539819717407227
1776021569721716000,4.875716064453125,-0.13631436228752136,0.875720739364624,0.08279815316200256
1776021569731777000,4.885777099609375,-0.13023915886878967,0.4435909390449524,0.057231806218624115
1776021569741838000,4.895838134765625,-0.08658328652381897,0.21065965294837952,0.040692511945962906
1776021569751899000,4.90589892578125,-0.04771978408098221,0.21095900237560272,0.05246847867965698
1776021569761960000,4.9159599609375,-0.03211287036538124,0.3793932795524597,0.07615496218204498
1776021569772020700,4.926020751953125,-0.016904890537261963,0.5979820489883423,0.08385628461837769
1776021569782081800,4.936081787109375,0.007033746689558029,0.7661666870117188,0.06054450199007988
1776021569792142800,4.946142822265625,0.05384545773267746,0.7801067233085632,0.02606082707643509
1776021569802204000,4.956203857421875,0.1074112057685852,0.676984429359436,0.0032951298635452986
1776021569812265000,4.966264892578125,0.13128350675106049,0.5723621845245361,0.004537228494882584
1776021569822326000,4.976325927734375,0.14308717846870422,0.5083287954330444,0.023541215807199478
1776021569832387000,4.986386962890625,0.15880408883094788,0.503642201423645,0.0733838751912117
1776021569842448000,4.99644775390625,0.17749175429344177,0.4745705723762512,0.12611928582191467
1776021569852509000,5.006509033203125,0.2127152532339096,0.3632778525352478,0.17280636727809906
1776021569862569700,5.01656982421875,0.26565679907798767,0.1721046417951584,0.21611307561397552
1776021569872630800,5.026630859375,0.30780503153800964,-0.02056628279387951,0.24121709167957306
1776021569882691800,5.03669189453125,0.327877014875412,-0.13150300085544586,0.22460295259952545
1776021569892753000,5.0467529296875,0.33896535634994507,-0.1714853048324585,0.17829430103302002
1776021569902814000,5.05681396484375,0.34052541851997375,-0.16750575602054596,0.1400255411863327
1776021569912875000,5.066875,0.31398463249206543,-0.13701601326465607,0.1426711231470108
1776021569922936800,5.076936767578125,0.23871982097625732,-0.12739837169647217,0.17471185326576233
1776021569932998000,5.086997802734375,0.15175935626029968,-0.1476314663887024,0.19909362494945526
1776021569943059000,5.097058837890625,0.08561764657497406,-0.17105919122695923,0.1928631067276001
1776021569953120000,5.1071201171875,0.04289095103740692,-0.16781067848205566,0.15339718759059906
1776021569963181000,5.11718115234375,0.02883332222700119,-0.1319963037967682,0.09635548293590546
1776021569973241900,5.127241943359375,0.01835351623594761,-0.06418664008378983,0.06974011659622192
1776021569983303000,5.137302978515625,-0.010704376734793186,0.05509350076317787,0.05700758099555969
1776021569993364000,5.147364013671875,-0.049126602709293365,0.21506959199905396,0.07050129026174545
1776021570003424800,5.1574248046875,-0.09186340868473053,0.3787861764431,0.08185537159442902
1776021570013485800,5.16748583984375,-0.1223030686378479,0.5439026951789856,0.07403101027011871
1776021570023547000,5.177546875,-0.14172790944576263,0.7086804509162903,0.06696750223636627
1776021570033608000,5.18760791015625,-0.17204879224300385,0.877413809299469,0.06502526253461838
1776021570043669000,5.1976689453125,-0.20366144180297852,1.036675214767456,0.05279654636979103
1776021570053730000,5.20772998046875,-0.2410506159067154,1.1895862817764282,0.02697373740375042
1776021570063791000,5.217791015625,-0.27085617184638977,1.3376847505569458,0.010608086362481117
1776021570073852000,5.227851806640625,-0.29606911540031433,1.4822139739990234,0.036534227430820465
1776021570083913000,5.237912841796875,-0.317533016204834,1.586203694343567,0.08639418333768845
1776021570093973800,5.247973876953125,-0.3360193371772766,1.6430482864379883,0.13305994868278503
1776021570104034800,5.258034912109375,-0.34843647480010986,1.6405259370803833,0.1602950394153595
1776021570114095900,5.268095947265625,-0.3668924570083618,1.5824726819992065,0.1413290798664093
1776021570124157000,5.278156982421875,-0.3769663870334625,1.4859932661056519,0.09801142662763596
1776021570134218000,5.288218017578125,-0.34828680753707886,1.3671451807022095,0.05530364066362381
1776021570144279000,5.298279052734375,-0.2739046812057495,1.2209655046463013,0.05184100568294525
1776021570154340400,5.30834033203125,-0.16223223507404327,1.0640161037445068,0.09207018464803696
1776021570164401400,5.3184013671875,-0.0701742172241211,0.9343699812889099,0.15237216651439667
1776021570174462200,5.328462158203125,-0.017731253057718277,0.8084128499031067,0.2134091556072235
1776021570184523300,5.338523193359375,-0.05113288015127182,0.6261029243469238,0.22933617234230042
1776021570194584300,5.348584228515625,-0.13035286962985992,0.39370056986808777,0.17215384542942047
1776021570204646400,5.358646484375,-0.16383452713489532,0.16068322956562042,0.08216668665409088
1776021570214707200,5.368707275390625,-0.13658267259597778,-0.014142641797661781,0.011547381989657879
1776021570224768300,5.378768310546875,-0.09640608727931976,-0.12186697125434875,-0.04566957429051399
1776021570234829300,5.388829345703125,-0.06428197026252747,-0.16667571663856506,-0.0916178897023201
1776021570244890000,5.39889013671875,-0.04330505058169365,-0.1663227677345276,-0.12111799418926239
1776021570254951200,5.408951171875,-0.027616366744041443,-0.12823690474033356,-0.12254571169614792
1776021570265012200,5.41901220703125,-0.03682345151901245,-0.09232035279273987,-0.10523515939712524
1776021570275073300,5.4290732421875,-0.06377890706062317,-0.07999870926141739,-0.0912756696343422
1776021570285134300,5.43913427734375,-0.09854700416326523,-0.0986076295375824,-0.07465142756700516
1776021570295195400,5.4491953125,-0.13426664471626282,-0.1486700028181076,-0.07730820029973984
1776021570305256400,5.45925634765625,-0.15381450951099396,-0.20607319474220276,-0.08680236339569092
1776021570315317200,5.469317138671875,-0.15645289421081543,-0.2291654646396637,-0.09866008907556534
1776021570325378300,5.47937841796875,-0.15345564484596252,-0.1784593164920807,-0.09676312655210495
1776021570335439000,5.489439208984375,-0.14368318021297455,-0.09928540140390396,-0.07726931571960449
1776021570345500200,5.499500244140625,-0.12392639368772507,-0.06999710947275162,-0.04290814697742462
1776021570355561200,5.509561279296875,-0.09714537858963013,-0.08995377272367477,-0.013186736963689327
1776021570365622300,5.519622314453125,-0.06808057427406311,-0.12049642950296402,0.0038519157096743584
1776021570375683300,5.529683349609375,-0.062265828251838684,-0.1659262329339981,-0.019004665315151215
1776021570385744400,5.539744384765625,-0.06969524174928665,-0.23637188971042633,-0.06367920339107513
1776021570395805400,5.549805419921875,-0.0821915939450264,-0.35580798983573914,-0.09305733442306519
1776021570405866200,5.5598662109375,-0.11459535360336304,-0.482968807220459,-0.1264866441488266
1776021570415927300,5.56992724609375,-0.13660317659378052,-0.5258683562278748,-0.13996489346027374
1776021570425988000,5.579988037109375,-0.1528206169605255,-0.46486178040504456,-0.11926869302988052
1776021570436049200,5.590049072265625,-0.17825435101985931,-0.3668787479400635,-0.10379786044359207
1776021570446110200,5.600110107421875,-0.20880453288555145,-0.3075442314147949,-0.12389594316482544
1776021570456171300,5.610171142578125,-0.21919165551662445,-0.2874203324317932,-0.17569680511951447
1776021570466233300,5.6202333984375,-0.21705353260040283,-0.2918506860733032,-0.22998562455177307
1776021570476294400,5.63029443359375,-0.21607562899589539,-0.29000750184059143,-0.24175812304019928
1776021570486355200,5.640355224609375,-0.2259715348482132,-0.2944277226924896,-0.19490060210227966
1776021570496416300,5.650416259765625,-0.23744362592697144,-0.32399654388427734,-0.13326600193977356
1776021570506477300,5.660477294921875,-0.242141455411911,-0.415427565574646,-0.10373660922050476
1776021570516538000,5.6705380859375,-0.21713010966777802,-0.5372961759567261,-0.11977683007717133
1776021570526599200,5.68059912109375,-0.17452499270439148,-0.6242269277572632,-0.16644792258739471
1776021570536660200,5.69066015625,-0.1362875998020172,-0.6314036250114441,-0.2063644528388977
1776021570546721300,5.70072119140625,-0.11201793700456619,-0.5947320461273193,-0.2314562201499939
1776021570556782300,5.7107822265625,-0.09286794066429138,-0.5276638269424438,-0.2575339078903198
1776021570566843400,5.720843505859375,-0.0723181962966919,-0.42710816860198975,-0.25981009006500244
1776021570576904200,5.730904296875,-0.05471735820174217,-0.3473755121231079,-0.25780341029167175
1776021570586965200,5.74096533203125,-0.032029889523983,-0.33527448773384094,-0.2805558741092682
1776021570597026300,5.7510263671875,0.002552055288106203,-0.38499999046325684,-0.29453718662261963
1776021570607087000,5.761087158203125,0.04145723953843117,-0.45606333017349243,-0.28471437096595764
1776021570617148200,5.771148193359375,0.07250890135765076,-0.5250959396362305,-0.23554043471813202
1776021570627209200,5.781209228515625,0.07424993813037872,-0.5812311768531799,-0.17887502908706665
1776021570637270300,5.791270263671875,0.060671817511320114,-0.645337700843811,-0.1665525883436203
1776021570647331300,5.801331298828125,0.04350427910685539,-0.7006320953369141,-0.18979479372501373
1776021570657392400,5.811392333984375,0.036242373287677765,-0.7334185838699341,-0.22642657160758972
1776021570667453200,5.821453125,0.02326798625290394,-0.7124738693237305,-0.2740074098110199
1776021570677514200,5.83151416015625,-0.011157631874084473,-0.5912518501281738,-0.33112049102783203
1776021570687576300,5.841576416015625,-0.058351509273052216,-0.40837281942367554,-0.3789964020252228
1776021570697637400,5.851637451171875,-0.09434519708156586,-0.23470598459243774,-0.35738059878349304
1776021570707698400,5.861698486328125,-0.10213654488325119,-0.1068553477525711,-0.24326494336128235
1776021570717759500,5.871759521484375,-0.11071751266717911,-0.05681268870830536,-0.12390472739934921
1776021570727820000,5.881820068359375,-0.14118315279483795,-0.09386754035949707,-0.07507164031267166
1776021570737881000,5.891881103515625,-0.18677113950252533,-0.2186499536037445,-0.06781478971242905
1776021570747942100,5.901942138671875,-0.23062580823898315,-0.37885552644729614,-0.08548916131258011
1776021570758003200,5.912003173828125,-0.26757341623306274,-0.5300343632698059,-0.10795611888170242
1776021570768064300,5.922064208984375,-0.2909674346446991,-0.6455352902412415,-0.12551113963127136
1776021570778125300,5.932125244140625,-0.2934151291847229,-0.690015435218811,-0.13938941061496735
1776021570788186400,5.942186279296875,-0.27252280712127686,-0.6311129927635193,-0.15067854523658752
1776021570798247400,5.952247314453125,-0.2299409806728363,-0.49642762541770935,-0.1384005844593048
1776021570808308500,5.96230859375,-0.1696452796459198,-0.32049641013145447,-0.13240711390972137
1776021570818369000,5.972369140625,-0.10764928162097931,-0.13786695897579193,-0.10238424688577652
1776021570828430000,5.98243017578125,-0.03344842419028282,-0.0036929110065102577,-0.021206827834248543
1776021570838491100,5.9924912109375,0.019313057884573936,0.07535423338413239,0.05100984498858452
1776021570848552200,6.00255224609375,0.04261838272213936,0.08351806551218033,0.1039406955242157
1776021570858613200,6.01261328125,0.039589300751686096,-0.006669884547591209,0.10778017342090607
1776021570868674300,6.02267431640625,0.029851986095309258,-0.15750698745250702,0.07513487339019775
1776021570878735400,6.0327353515625,0.013480735942721367,-0.3155895471572876,0.027681075036525726
1776021570888796400,6.04279638671875,-0.012883760035037994,-0.42841091752052307,-0.02202576771378517
1776021570898858200,6.052858154296875,-0.048690225929021835,-0.46636655926704407,-0.09004636108875275
1776021570908919300,6.062919189453125,-0.08986536413431168,-0.4378909766674042,-0.16007094085216522
1776021570918980400,6.07298046875,-0.12964393198490143,-0.38224104046821594,-0.20507118105888367
1776021570929041200,6.083041259765625,-0.1429184526205063,-0.30696073174476624,-0.19513414800167084
1776021570939102200,6.093102294921875,-0.13728587329387665,-0.20492304861545563,-0.13700665533542633
1776021570949163300,6.103163330078125,-0.13004593551158905,-0.06656748056411743,-0.049237921833992004
1776021570959224300,6.113224365234375,-0.13403189182281494,0.0808534026145935,0.026348715648055077
1776021570969285400,6.123285400390625,-0.1436280608177185,0.16314846277236938,0.07107331603765488
1776021570979346200,6.13334619140625,-0.15559178590774536,0.13248401880264282,0.08609461039304733
1776021570989407200,6.1434072265625,-0.15352223813533783,0.025269418954849243,0.07447153329849243
1776021570999468300,6.15346826171875,-0.13813582062721252,-0.09142417460680008,0.04415464028716087
1776021571009529300,6.163529296875,-0.10999619960784912,-0.15978318452835083,-0.004871264100074768
1776021571019590100,6.173590087890625,-0.07875252515077591,-0.17514163255691528,-0.05507451295852661
1776021571029651200,6.183651123046875,-0.05015416443347931,-0.15346385538578033,-0.09757298231124878
1776021571039712300,6.193712158203125,-0.025082901120185852,-0.11615030467510223,-0.11477380245923996
1776021571049773300,6.203773193359375,-0.005445420276373625,-0.07301294803619385,-0.10428998619318008
1776021571059834400,6.21383447265625,0.01063847541809082,-0.039122626185417175,-0.0646272599697113
1776021571069895200,6.223895263671875,0.030996479094028473,-0.03560902923345566,-0.0053705982863903046
1776021571079957200,6.233957275390625,0.04474877566099167,-0.06141479313373566,0.032477449625730515
1776021571090018300,6.244018310546875,0.0388723760843277,-0.10616832971572876,0.03880991414189339
1776021571100079400,6.254079345703125,0.016546832397580147,-0.13329234719276428,0.04022112488746643
1776021571110140400,6.264140380859375,-0.012103588320314884,-0.13576918840408325,0.021806960925459862
1776021571120201500,6.274201416015625,-0.04148917272686958,-0.11561784148216248,-0.01744803413748741
1776021571130262000,6.284261962890625,-0.06494962424039841,-0.09967704862356186,-0.06028604507446289
1776021571140323000,6.294322998046875,-0.0714288279414177,-0.09855639189481735,-0.09412231296300888
1776021571150383900,6.3043837890625,-0.064952552318573,-0.09008798748254776,-0.10123029351234436
1776021571160445000,6.31444482421875,-0.053501226007938385,-0.07349063456058502,-0.09032464772462845
1776021571170505700,6.324505615234375,-0.03615499660372734,-0.06143946573138237,-0.07430969178676605
1776021571180566800,6.33456689453125,-0.011473620310425758,-0.05046830698847771,-0.04914761707186699
1776021571190627800,6.3446279296875,0.005686992779374123,-0.04928036406636238,-0.01583867520093918
1776021571200689000,6.35468896484375,0.009689723141491413,-0.05731591954827309,0.009654433466494083
1776021571210750000,6.36475,0.00791512243449688,-0.06442486494779587,0.021189410239458084
1776021571220811000,6.37481103515625,0.002999992575496435,-0.0679120123386383,0.017626900225877762
1776021571230871800,6.384871826171875,-0.00015398580580949783,-0.06490637362003326,0.009658697992563248
1776021571240932900,6.394932861328125,0.0016649533063173294,-0.08277805149555206,0.00034269446041435003
1776021571250994000,6.404993896484375,0.01276673935353756,-0.12252670526504517,-0.0120423324406147
1776021571261056000,6.415055908203125,0.030855726450681686,-0.17516355216503143,-0.03790136054158211
1776021571271117000,6.425116943359375,0.043242089450359344,-0.2101859748363495,-0.061578169465065
1776021571281177900,6.435177734375,0.04896362125873566,-0.20499546825885773,-0.07092426717281342
1776021571291239000,6.445239013671875,0.04958733543753624,-0.1590038388967514,-0.05406351387500763
1776021571301299700,6.4552998046875,0.04254646971821785,-0.07518137246370316,-0.012126985006034374
1776021571311360800,6.46536083984375,0.034756988286972046,0.030804980546236038,0.026032118126749992
1776021571321421800,6.475421875,0.02833983488380909,0.12640206515789032,0.04489715397357941
1776021571331483000,6.48548291015625,0.019049935042858124,0.17467062175273895,0.044681400060653687
1776021571341544000,6.4955439453125,0.006822830066084862,0.18007098138332367,0.03731243312358856
1776021571351605000,6.50560498046875,-0.001177048310637474,0.14211055636405945,0.02992195263504982
1776021571361666000,6.515666015625,-0.0050458223558962345,0.10854833573102951,0.019911130890250206
1776021571371727000,6.52572705078125,-0.008112316951155663,0.0807097777724266,0.018054090440273285
1776021571381788000,6.535787841796875,-0.007494729477912188,0.056270748376846313,0.026313353329896927
1776021571391848700,6.5458486328125,-0.004501345567405224,0.033650755882263184,0.04188970848917961
1776021571401909800,6.55590966796875,-0.0011814488098025322,0.015332735143601894,0.0493612103164196
1776021571411970800,6.565970703125,-0.001612731721252203,0.009585169143974781,0.043974049389362335
1776021571422032000,6.576031982421875,-0.00410864595323801,-0.009993592277169228,0.02985530160367489
1776021571432093000,6.586093017578125,-0.01309908926486969,-0.019924592226743698,0.022971907630562782
1776021571442155000,6.596155029296875,-0.022081930190324783,-0.036708634346723557,0.020872537046670914
1776021571452215800,6.6062158203125,-0.026696650311350822,-0.05780496448278427,0.021522564813494682
1776021571462276900,6.61627685546875,-0.03052494488656521,-0.07295728474855423,0.017345663160085678
1776021571472338000,6.626337890625,-0.03261767327785492,-0.07721494883298874,0.010715574957430363
1776021571482399000,6.63639892578125,-0.03327307850122452,-0.08563746511936188,0.004039296414703131
1776021571492459800,6.646459716796875,-0.037484996020793915,-0.10502767562866211,-0.0014287277590483427
1776021571502520800,6.656520751953125,-0.02723555453121662,-0.15621575713157654,-0.00731671042740345
1776021571512582000,6.666581787109375,-0.010637391358613968,-0.21593104302883148,-0.012718207202851772
1776021571522643000,6.676642822265625,0.00836985558271408,-0.2708163857460022,-0.0123102106153965
1776021571532704000,6.6867041015625,0.02680823765695095,-0.2981284260749817,-0.00780007429420948
1776021571542764800,6.696764892578125,0.03433646634221077,-0.29737767577171326,-0.0015331236645579338
1776021571552825900,6.706825927734375,0.03445138409733772,-0.2721885144710541,0.014483613893389702
1776021571562887000,6.716886962890625,0.029000960290431976,-0.23770779371261597,0.01676834002137184
1776021571572948000,6.726947998046875,0.026979735121130943,-0.19711968302726746,0.013256553560495377
1776021571583008800,6.7370087890625,0.02419406734406948,-0.16218087077140808,0.006408235523849726
1776021571593071000,6.747071044921875,0.018936477601528168,-0.14922958612442017,0.004949213936924934
1776021571603131600,6.757131591796875,0.015620574355125427,-0.1635800302028656,0.004657864570617676
1776021571613192700,6.767192626953125,0.018069475889205933,-0.20839063823223114,-0.00005001627141609788
1776021571623253800,6.777253662109375,0.016836965456604958,-0.24637717008590698,-0.010286941193044186
1776021571633314800,6.787314697265625,0.012158991768956184,-0.2594565749168396,-0.014637754298746586
1776021571643375900,6.7973759765625,0.007346659433096647,-0.25748664140701294,-0.009828351438045502
1776021571653437000,6.80743701171875,0.007494864985346794,-0.24142998456954956,0.003901301883161068
1776021571663498000,6.817498046875,0.0066125597804784775,-0.23091529309749603,0.022760743275284767
1776021571673559000,6.82755908203125,0.004809604026377201,-0.2106921523809433,0.031771790236234665
1776021571683620000,6.8376201171875,0.002491322346031666,-0.20045095682144165,0.0314042754471302
1776021571693680600,6.8476806640625,0.002463088370859623,-0.1889316290616989,0.020339131355285645
1776021571703741700,6.85774169921875,0.006367814727127552,-0.18031896650791168,0.0024751792661845684
1776021571713802800,6.867802734375,0.010042708367109299,-0.1621807962656021,-0.0019677584059536457
1776021571723863800,6.87786376953125,0.020670851692557335,-0.1330687254667282,0.003668555524200201
1776021571733924900,6.8879248046875,0.02916700951755047,-0.11212190240621567,0.013546963222324848
1776021571743986000,6.89798583984375,0.0376606322824955,-0.11862960457801819,0.017403220757842064
1776021571754047700,6.9080478515625,0.040424976497888565,-0.15575334429740906,0.014927372336387634
1776021571764108800,6.91810888671875,0.043678026646375656,-0.20162655413150787,0.011488165706396103
1776021571774169900,6.928169921875,0.04354819282889366,-0.22240135073661804,0.003830802161246538
1776021571784231000,6.93823095703125,0.04821911081671715,-0.20968662202358246,0.004171687178313732
1776021571794292000,6.9482919921875,0.04857703670859337,-0.1725980043411255,0.014293864369392395
1776021571804352800,6.958352783203125,0.0415516197681427,-0.13301411271095276,0.021709701046347618
1776021571814413800,6.968413818359375,0.029996583238244057,-0.10636689513921738,0.031759534031152725
1776021571824475000,6.978474853515625,0.022879552096128464,-0.09651879221200943,0.030926497653126717
1776021571834536000,6.988535888671875,0.014680339023470879,-0.10312432050704956,0.018338032066822052
1776021571844596700,6.9985966796875,0.014055030420422554,-0.11727449297904968,0.007601764518767595
1776021571854657800,7.00865771484375,0.014519885182380676,-0.1153230145573616,0.012304367497563362
1776021571864718800,7.01871875,0.018708238378167152,-0.10252413153648376,0.02024138532578945
1776021571874780000,7.02877978515625,0.02996833436191082,-0.08505786210298538,0.02091340906918049
1776021571884841000,7.038841064453125,0.03909978270530701,-0.07730460166931152,0.017988726496696472
1776021571894903000,7.048903076171875,0.047560110688209534,-0.08119228482246399,0.017220670357346535
1776021571904964000,7.058964111328125,0.052442215383052826,-0.08434759825468063,0.02308415248990059
1776021571915025000,7.06902490234375,0.054952267557382584,-0.07804923504590988,0.029647113755345345
1776021571925085700,7.079085693359375,0.0544087179005146,-0.0691436305642128,0.03359152376651764
1776021571935146800,7.089146728515625,0.051633428782224655,-0.05314024165272713,0.0375884473323822
1776021571945207800,7.099207763671875,0.04354807361960411,-0.0383615642786026,0.04032750427722931
1776021571955268900,7.109268798828125,0.03283229470252991,-0.03828662633895874,0.038030076771974564
1776021571965330000,7.119329833984375,0.03014037199318409,-0.05146075040102005,0.033173270523548126
1776021571975391000,7.129390869140625,0.03212176263332367,-0.06199594959616661,0.03395703807473183
1776021571985452000,7.1394521484375,0.03957009315490723,-0.052829351276159286,0.037496380507946014
1776021571995513000,7.14951318359375,0.04240768775343895,-0.016246214509010315,0.0467546321451664
1776021572005574000,7.159573974609375,0.042197298258543015,0.019919779151678085,0.05004070699214935
1776021572015634700,7.169634765625,0.036345671862363815,0.04825190082192421,0.05231606215238571
1776021572025695700,7.17969580078125,0.03337971121072769,0.05916047468781471,0.04745153337717056
1776021572035757800,7.1897578125,0.027513964101672173,0.06253985315561295,0.034133341163396835
1776021572045819000,7.19981884765625,0.01786852814257145,0.07156316936016083,0.017807364463806152
1776021572055880000,7.2098798828125,0.0022632195614278316,0.07880251854658127,0.005649394355714321
1776021572065940700,7.219940673828125,-0.018648453056812286,0.06832297891378403,0.0016514570452272892
1776021572076001800,7.230001708984375,-0.02905636467039585,0.05006284639239311,0.003125322749838233
1776021572086062800,7.240062744140625,-0.03619230538606644,0.04279055446386337,0.010074042715132236
1776021572096124000,7.2501240234375,-0.03920475393533707,0.05445432290434837,0.015195933170616627
1776021572106185000,7.26018505859375,-0.044320955872535706,0.07071185111999512,0.026055505499243736
1776021572116246000,7.27024609375,-0.04084060341119766,0.07371333241462708,0.021975286304950714
1776021572126306800,7.280306884765625,-0.03573399409651756,0.0620121993124485,0.006947067566215992
1776021572136367900,7.290367919921875,-0.030156517401337624,0.03737688064575195,-0.011338837444782257
1776021572146429000,7.300428955078125,-0.019588828086853027,0.018542205914855003,-0.021618906408548355
1776021572156490200,7.310490234375,-0.015942564234137535,-0.004421162884682417,-0.025179259479045868
1776021572166551300,7.32055126953125,-0.008780259639024734,-0.02033408358693123,-0.014906116761267185
1776021572176613400,7.33061328125,-0.0011765211820602417,-0.03266230970621109,-0.009348183870315552
1776021572186674400,7.34067431640625,0.008650809526443481,-0.030540037900209427,0.000644795480184257
1776021572196735500,7.350735595703125,0.019811416044831276,-0.024932902306318283,0.012618055567145348
1776021572206796300,7.36079638671875,0.02519659325480461,-0.02539336308836937,0.011892078444361687
1776021572216857300,7.370857421875,0.02662382274866104,-0.031826525926589966,0.0033172457478940487
1776021572226918400,7.38091845703125,0.025327127426862717,-0.02925977110862732,-0.012370636686682701
1776021572236979500,7.3909794921875,0.023715617135167122,-0.022723373025655746,-0.014984586276113987
1776021572247040500,7.40104052734375,0.02105085738003254,-0.01518422830849886,-0.005526103079319
1776021572257101600,7.4111015625,0.02037777006626129,-0.01958361268043518,0.004573504906147718
1776021572267162400,7.421162353515625,0.026587730273604393,-0.032858140766620636,0.0031383270397782326
1776021572277223400,7.431223388671875,0.030372444540262222,-0.052548639476299286,0.0024115126579999924
1776021572287284500,7.441284423828125,0.03286835923790932,-0.051813606172800064,0.00018271338194608688
1776021572297345300,7.45134521484375,0.027020219713449478,-0.03720015287399292,0.00762659776955843
1776021572307407400,7.461407470703125,0.02475147321820259,-0.015863170847296715,0.012508438900113106
1776021572317468400,7.471468505859375,0.024890584871172905,0.0084929708391428,0.014201372861862183
1776021572327529500,7.481529541015625,0.018353857100009918,0.028392642736434937,0.02063130959868431
1776021572337590500,7.491590576171875,0.012121682986617088,0.04897051677107811,0.03620932996273041
1776021572347651600,7.501651611328125,-0.0017461949028074741,0.07673583924770355,0.048716600984334946
1776021572357712400,7.51171240234375,-0.013724308460950851,0.09932815283536911,0.04316452518105507
1776021572367773400,7.5217734375,-0.020345725119113922,0.1036430075764656,0.03671754151582718
1776021572377834200,7.531834228515625,-0.02839006669819355,0.09461630880832672,0.03492148593068123
1776021572387895300,7.541895263671875,-0.035641852766275406,0.08871607482433319,0.0377577506005764
1776021572397956400,7.551956298828125,-0.04190785810351372,0.08783429116010666,0.039797112345695496
1776021572408017400,7.562017333984375,-0.04872981086373329,0.0880393534898758,0.03860747814178467
1776021572418078500,7.572078369140625,-0.04942331835627556,0.07632651925086975,0.03731223940849304
1776021572428139500,7.582139404296875,-0.04841158539056778,0.06688720732927322,0.041122689843177795
1776021572438201300,7.592201416015625,-0.05407625809311867,0.0675138458609581,0.041999369859695435
1776021572448262400,7.602262451171875,-0.05588880553841591,0.05983435735106468,0.046095043420791626
1776021572458323500,7.612323486328125,-0.05802624300122261,0.013186155818402767,0.04445021599531174
1776021572468384500,7.622384521484375,-0.05734847113490105,-0.05955728888511658,0.0413963682949543
1776021572478445600,7.632445556640625,-0.044382739812135696,-0.13444554805755615,0.031036682426929474
1776021572488506400,7.64250634765625,-0.024797586724162102,-0.203456848859787,0.020991770550608635
1776021572498567400,7.6525673828125,-0.00014380412176251411,-0.2684425711631775,0.007449788507074118
1776021572508628500,7.66262841796875,0.01890845037996769,-0.31667375564575195,-0.01309703104197979
1776021572518689300,7.672689208984375,0.03919391334056854,-0.3506218194961548,-0.027503326535224915
1776021572528750300,7.682750244140625,0.04202378913760185,-0.3322063088417053,-0.04811539500951767
1776021572538811400,7.692811279296875,0.03751891478896141,-0.2661758065223694,-0.06240750476717949
1776021572548872400,7.70287255859375,0.029946215450763702,-0.2016220986843109,-0.06862837821245193
1776021572558933500,7.71293359375,0.024716820567846298,-0.15288713574409485,-0.06693053245544434
1776021572568995600,7.72299560546875,0.031211471185088158,-0.13737742602825165,-0.06983844190835953
1776021572579056400,7.733056396484375,0.026497410610318184,-0.134791761636734,-0.07263129204511642
1776021572589117400,7.743117431640625,0.016171801835298538,-0.1435548961162567,-0.08097337931394577
1776021572599178200,7.75317822265625,0.001637051347643137,-0.14010511338710785,-0.08442900329828262
1776021572609239300,7.7632392578125,-0.015003178268671036,-0.1374821662902832,-0.07565654814243317
1776021572619300400,7.77330029296875,-0.022097425535321236,-0.15123535692691803,-0.05764727294445038
1776021572629361400,7.783361328125,-0.0241728276014328,-0.16677090525627136,-0.037344664335250854
1776021572639422500,7.79342236328125,-0.021767057478427887,-0.16869139671325684,-0.024325814098119736
1776021572649483500,7.8034833984375,-0.019637862220406532,-0.14251412451267242,-0.009746071882545948
1776021572659544600,7.813544677734375,-0.015403307974338531,-0.10826427489519119,-0.007885286584496498
1776021572669605400,7.82360546875,-0.025721991434693336,-0.08742823451757431,-0.015493405982851982
1776021572679666400,7.83366650390625,-0.02986905537545681,-0.08594539016485214,-0.021096233278512955
1776021572689728500,7.843728515625,-0.03968040645122528,-0.08188699930906296,-0.030536074191331863
1776021572699789600,7.85378955078125,-0.03633097559213638,-0.08039596676826477,-0.030134299769997597
1776021572709850400,7.863850341796875,-0.02916014939546585,-0.07008980214595795,-0.019765548408031464
1776021572719911400,7.873911376953125,-0.01617017574608326,-0.055285025388002396,0.000900010229088366
1776021572729972500,7.883972412109375,-0.003898328635841608,-0.04849875718355179,0.012376103550195694
1776021572740033300,7.894033203125,0.002175696659833193,-0.08337677270174026,0.005721000954508781
1776021572750094300,7.90409423828125,0.006948347669094801,-0.14463932812213898,-0.01393898669630289
1776021572760155400,7.9141552734375,0.012828993611037731,-0.1909731775522232,-0.03667404502630234
1776021572770216400,7.924216552734375,0.01633291319012642,-0.2067132592201233,-0.046225473284721375
1776021572780277500,7.934277587890625,0.02005321905016899,-0.17737223207950592,-0.03955666348338127
1776021572790338600,7.944338623046875,0.0276312455534935,-0.1342063844203949,-0.028938373550772667
1776021572800399400,7.9543994140625,0.03581993281841278,-0.09570134431123734,-0.012451277114450932
1776021572810461400,7.96446142578125,0.03791077807545662,-0.08086887001991272,-0.000606601475737989
1776021572820522200,7.974522216796875,0.032970745116472244,-0.08431197702884674,-0.0057526156306266785
1776021572830583300,7.984583251953125,0.02525343745946884,-0.09584319591522217,-0.02055206708610058
1776021572840644400,7.994644287109375,0.02577209658920765,-0.09596917033195496,-0.03215576335787773
1776021572850705400,8.004705322265625,0.02203195169568062,-0.09329881519079208,-0.03844721242785454
1776021572860766500,8.014766357421875,0.023769229650497437,-0.09805049747228622,-0.02913045696914196
1776021572870827500,8.02482763671875,0.02277267351746559,-0.11752646416425705,-0.0195675790309906
1776021572880888600,8.034888671875,0.02376764453947544,-0.14580312371253967,0.0016907547833397985
1776021572890949400,8.044949462890624,0.02586035616695881,-0.18183062970638275,0.00011229922529309988
1776021572901010400,8.055010498046874,0.03138360753655434,-0.21883931756019592,-0.021567627787590027
1776021572911071200,8.0650712890625,0.04516706243157387,-0.25663650035858154,-0.045554451644420624
1776021572921132300,8.07513232421875,0.057059142738580704,-0.2658606171607971,-0.0546366311609745
1776021572931194400,8.0851943359375,0.07558862119913101,-0.24587653577327728,-0.0460926778614521
1776021572941255400,8.09525537109375,0.09388548880815506,-0.19504639506340027,-0.03007281944155693
1776021572951316500,8.10531640625,0.09872685372829437,-0.1388840526342392,-0.01731894165277481
1776021572961377300,8.115377197265625,0.10398710519075394,-0.09827571362257004,-0.012826614081859589
1776021572971438300,8.125438232421875,0.09158103913068771,-0.06922541558742523,-0.0012599725741893053
1776021572981499400,8.13549951171875,0.07444719970226288,-0.06392963975667953,0.005174955353140831
1776021572991560400,8.145560546875,0.057577408850193024,-0.06173386797308922,0.007983791641891003
1776021573001621500,8.15562158203125,0.046541400253772736,-0.056312378495931625,0.012712779454886913
1776021573011682600,8.1656826171875,0.0397612601518631,-0.02270035818219185,0.021553941071033478
1776021573021743600,8.17574365234375,0.02626902051270008,0.027712658047676086,0.03646177053451538
1776021573031804400,8.185804443359375,0.000687760766595602,0.08365581929683685,0.045278698205947876
1776021573041865500,8.195865478515625,-0.02436540275812149,0.12723322212696075,0.045824967324733734
1776021573051927300,8.20592724609375,-0.039748888462781906,0.16233767569065094,0.04086989164352417
1776021573061988400,8.21598828125,-0.055002130568027496,0.20335479080677032,0.04535672813653946
1776021573072049400,8.22604931640625,-0.06587208807468414,0.2544901371002197,0.037942223250865936
1776021573082110500,8.2361103515625,-0.06778423488140106,0.2982218265533447,0.026598434895277023
1776021573092171500,8.246171630859376,-0.06500203162431717,0.32233622670173645,0.01748722977936268
1776021573102232600,8.256232666015626,-0.054290562868118286,0.30730411410331726,0.013523336499929428
1776021573112293400,8.26629345703125,-0.045928504317998886,0.27897313237190247,0.006716563366353512
1776021573122354400,8.2763544921875,-0.030103720724582672,0.26357606053352356,0.0019033440621569753
1776021573132415500,8.28641552734375,-0.019593022763729095,0.2590031623840332,0.002259941305965185
1776021573142476300,8.296476318359375,-0.011688505299389362,0.27386474609375,0.015785928815603256
1776021573152537000,8.306537109375,-0.016318410634994507,0.29953816533088684,0.04241301119327545
1776021573162599200,8.31659912109375,-0.02489670366048813,0.3236972689628601,0.06888900697231293
1776021573172660200,8.32666015625,-0.034926168620586395,0.3252200484275818,0.09396426379680634
1776021573182721000,8.336720947265626,-0.03946205973625183,0.3174605071544647,0.11749859154224396
1776021573192781800,8.34678173828125,-0.033533863723278046,0.31429028511047363,0.13128577172756195
1776021573202843000,8.3568427734375,-0.01008860394358635,0.3235026001930237,0.1425294429063797
1776021573212904000,8.366904052734375,0.035840004682540894,0.31952303647994995,0.1608533263206482
1776021573222965000,8.376965087890625,0.09881378710269928,0.2947436273097992,0.15933901071548462
1776021573233026000,8.387026123046875,0.13943524658679962,0.255118191242218,0.12981174886226654
1776021573243087000,8.397087158203124,0.12829765677452087,0.22376151382923126,0.10196133702993393
1776021573253148200,8.407148193359374,0.07360032945871353,0.22769474983215332,0.08996912837028503
1776021573263209200,8.417209228515626,0.0062696062959730625,0.25424858927726746,0.09779653698205948
1776021573273271000,8.42727099609375,-0.035622451454401016,0.2963739335536957,0.14099860191345215
1776021573283332000,8.43733203125,-0.05137399956583977,0.37729039788246155,0.20105643570423126
1776021573293393200,8.44739306640625,-0.05927107110619545,0.5272239446640015,0.2582869827747345
1776021573303454200,8.4574541015625,-0.04985199496150017,0.6859518885612488,0.31976816058158875
1776021573313515000,8.467514892578125,-0.009022539481520653,0.8174436092376709,0.3619861900806427
1776021573323576000,8.477576171875,0.08491434901952744,0.8677092790603638,0.3378278315067291
1776021573333637000,8.48763720703125,0.22202612459659576,0.8174218535423279,0.25502508878707886
1776021573343698000,8.497697998046876,0.3857545852661133,0.6886118650436401,0.18891620635986328
1776021573353759000,8.507759033203126,0.5347775816917419,0.5114549398422241,0.19396956264972687
1776021573363820000,8.517820068359375,0.6145508289337158,0.31053268909454346,0.30715078115463257
1776021573373881000,8.527881103515625,0.6223089098930359,0.1046127900481224,0.5280756950378418
1776021573383943200,8.537943115234375,0.5996735692024231,-0.06951969116926193,0.7759652733802795
1776021573394004200,8.548004150390625,0.5933874249458313,-0.22482219338417053,0.9295992851257324
1776021573404065000,8.55806494140625,0.5992639660835266,-0.3411719799041748,0.9740594625473022
1776021573414126000,8.5681259765625,0.5920798182487488,-0.4079541862010956,1.0002373456954956
1776021573424187000,8.578186767578124,0.5705191493034363,-0.37005528807640076,1.0113229751586914
1776021573434248000,8.588248046875,0.5675941705703735,-0.20883789658546448,0.9923761487007141
1776021573444309000,8.59830908203125,0.610896646976471,0.0177456084638834,0.9322685599327087
1776021573454370000,8.6083701171875,0.7203565239906311,0.1777651011943817,0.8505699634552002
1776021573464431000,8.61843115234375,0.8580286502838135,0.21991142630577087,0.7778170704841614
1776021573474492200,8.6284921875,0.9739262461662292,0.16309048235416412,0.73494952917099
1776021573484554000,8.638553955078125,1.0225131511688232,0.07164914160966873,0.6864222884178162
1776021573494615000,8.648614990234375,0.9527844786643982,0.02441505156457424,0.5762689113616943
1776021573504676000,8.658676025390625,0.8128576874732971,0.01570449210703373,0.4386124610900879
1776021573514737200,8.668737060546874,0.6903594732284546,0.024602379649877548,0.3799813687801361
1776021573524798200,8.678798095703126,0.6167184114456177,0.048422589898109436,0.36836954951286316
1776021573534859000,8.68885888671875,0.6055269837379456,0.06233973428606987,0.35798484086990356
1776021573544920000,8.698920166015625,0.6092178821563721,0.11282189935445786,0.3403593599796295
1776021573554981000,8.708981201171875,0.6283263564109802,0.1846494823694229,0.33160367608070374
1776021573565042000,8.7190419921875,0.6721406579017639,0.28242185711860657,0.3284803330898285
1776021573575103000,8.72910302734375,0.7178317308425903,0.41769126057624817,0.33077117800712585
1776021573585164000,8.7391640625,0.7620235681533813,0.5299869775772095,0.32856202125549316
1776021573595226000,8.74922607421875,0.8019962906837463,0.55610191822052,0.3110581338405609
1776021573605287200,8.759287109375,0.8388389945030212,0.5015864372253418,0.2999979555606842
1776021573615348200,8.76934814453125,0.8555862903594971,0.41913866996765137,0.3252393901348114
1776021573625409000,8.779408935546876,0.8422556519508362,0.3481864929199219,0.3887861371040344
1776021573635470000,8.789469970703125,0.8055669069290161,0.3000200092792511,0.4800523817539215
1776021573645531000,8.79953076171875,0.7582368850708008,0.25607582926750183,0.5813912153244019
1776021573655592000,8.809592041015625,0.7349845767021179,0.18581950664520264,0.6541168093681335
1776021573665653000,8.819653076171875,0.749161422252655,0.1327195167541504,0.6560001373291016
1776021573675714000,8.829714111328125,0.7882826924324036,0.21611908078193665,0.6014074683189392
1776021573685775000,8.839775146484374,0.8342195749282837,0.44718271493911743,0.5281339883804321
1776021573695837000,8.8498369140625,0.8657000064849854,0.6941959857940674,0.4697814881801605
1776021573705898000,8.85989794921875,0.8705632090568542,0.8703633546829224,0.49758467078208923
1776021573715959000,8.869958984375,0.8742567896842957,0.9239898324012756,0.5844495296478271
1776021573726020000,8.88002001953125,0.8810678720474243,0.8888514637947083,0.680395245552063
1776021573736081200,8.8900810546875,0.9066864252090454,0.8207690715789795,0.7223330736160278
1776021573746142200,8.90014208984375,0.9453480839729309,0.7662391066551208,0.6768150925636292
1776021573756203000,8.910203125,0.9936487674713135,0.7701113224029541,0.5644621849060059
1776021573766264000,8.92026416015625,1.0503478050231934,0.8232277631759644,0.45857271552085876
1776021573776324900,8.930324951171874,1.1025930643081665,0.8775674104690552,0.4487951993942261
1776021573786386000,8.940385986328126,1.1459072828292847,0.8760064244270325,0.5594800114631653
1776021573796448000,8.950447998046876,1.1510049104690552,0.8199540972709656,0.7211325168609619
1776021573806509000,8.960509033203126,1.0879707336425781,0.7487723231315613,0.8438258171081543
1776021573816570000,8.970570068359375,0.9737319946289062,0.7271248698234558,0.895621120929718
1776021573826631200,8.980631103515625,0.8609530329704285,0.815130889415741,0.8518176674842834
1776021573836692000,8.99069189453125,0.7815679311752319,1.0479545593261719,0.7573332786560059
1776021573846753000,9.0007529296875,0.7609168887138367,1.321321964263916,0.6972212195396423
1776021573856814000,9.01081396484375,0.7724395394325256,1.5584312677383423,0.7290273308753967
1776021573866875000,9.020875,0.8088783621788025,1.7120413780212402,0.8124279975891113
1776021573876936000,9.03093603515625,0.8780789971351624,1.7650479078292847,0.8730670809745789
1776021573886997000,9.0409970703125,0.965982973575592,1.7567617893218994,0.8605313897132874
1776021573897058000,9.05105810546875,1.0589919090270996,1.7498581409454346,0.7950767278671265
1776021573907119900,9.061119873046875,1.1515130996704102,1.7710812091827393,0.6957617998123169
1776021573917181000,9.071180908203125,1.2641096115112305,0.9682708382606506,0.36292630434036255
1776021573927242000,9.081241943359375,1.4439005851745605,0.6244938969612122,0.14797520637512207
1776021573937303000,9.091302978515625,1.6641027927398682,0.36952099204063416,0.12556684017181396
1776021573947364000,9.101364013671875,1.858410358428955,0.01587699167430401,0.11997261643409729
1776021573957425200,9.111425048828124,2.0041043758392334,-0.4704710841178894,0.10604827851057053
1776021573967486200,9.121486328125,2.0635573863983154,-1.070400595664978,0.06014173477888107
1776021573977547000,9.131547119140626,1.9993456602096558,-1.5362952947616577,-0.07398544251918793
1776021573987608000,9.141608154296875,1.8891123533248901,-1.6102219820022583,-0.23186396062374115
1776021573997670000,9.151669921875,1.8138679265975952,-1.462409257888794,-0.30245956778526306
1776021574007731000,9.16173095703125,1.8417093753814697,-1.2538747787475586,-0.21016255021095276
1776021574017792000,9.1717919921875,1.8881045579910278,-1.0351568460464478,-0.028145885095000267
1776021574027853000,9.18185302734375,1.850081205368042,-0.7631887197494507,0.13640239834785461
1776021574037914000,9.1919140625,1.7057548761367798,-0.4617476165294647,0.24700801074504852
1776021574047975200,9.20197509765625,1.4174902439117432,-0.15284304320812225,0.2925545573234558
1776021574058036000,9.212035888671876,1.0120199918746948,0.19987905025482178,0.2758924961090088
1776021574068097000,9.222096923828126,0.5777727365493774,0.5821592807769775,0.19919128715991974
1776021574078158000,9.232157958984375,0.2096748799085617,0.9824680685997009,0.07338781654834747
1776021574088219000,9.242218994140625,1.2222394943237305,1.557332992553711,0.39897722005844116
1776021574098281200,9.25228125,1.3637667894363403,1.617692232131958,0.7635149955749512
1776021574108342000,9.262342041015625,1.2040231227874756,1.727998971939087,0.9194218516349792
1776021574118403000,9.272403076171875,1.001305341720581,1.7586146593093872,0.87520432472229
1776021574128464000,9.2824638671875,0.8490812182426453,1.7858846187591553,0.717625081539154
1776021574138525000,9.29252490234375,0.7928469777107239,1.8087515830993652,0.4841707944869995
1776021574148586000,9.3025859375,0.7603787779808044,1.7691376209259033,0.23654955625534058
1776021574158647300,9.312647216796876,0.769307017326355,1.6999491453170776,0.07167857140302658
1776021574168708400,9.322708251953125,0.7758148312568665,1.4827624559402466,0.029566047713160515
1776021574178769400,9.332769287109375,0.7503933906555176,1.197320818901062,0.06576240062713623
1776021574188830200,9.342830322265625,0.6910567879676819,0.9072188138961792,0.164378359913826
1776021574198892300,9.352892333984375,0.5783651471138,0.6260201930999756,0.23756149411201477
1776021574208953000,9.362953125,0.4147184193134308,0.34461769461631775,0.20401503145694733
1776021574219014100,9.37301416015625,0.231571763753891,0.14673122763633728,0.039713162928819656
1776021574229075200,9.3830751953125,0.11914079636335373,0.11170632392168045,-0.20351797342300415
1776021574239136300,9.39313623046875,0.26325803995132446,0.3711501359939575,-0.3600410223007202
1776021574249197300,9.403197265625,0.37256762385368347,0.7490634322166443,-0.3605002164840698
1776021574259258400,9.41325830078125,0.4089415967464447,0.9609344005584717,-0.22022967040538788
1776021574269319200,9.423319091796875,0.37905552983283997,0.8312481045722961,-0.01043456606566906
1776021574279380200,9.433380126953125,0.3150632083415985,0.39622557163238525,0.1736638993024826
1776021574289442300,9.4434423828125,0.27801409363746643,-0.13424265384674072,0.23260672390460968
1776021574299503400,9.45350341796875,0.26192620396614075,-0.4242153465747833,0.209699809551239
1776021574309564400,9.463564453125,0.2508898079395294,-0.4248868227005005,0.14629678428173065
1776021574319625200,9.473625244140624,0.21445298194885254,-0.24411863088607788,0.06505599617958069
1776021574329686300,9.483686279296874,0.15639299154281616,-0.021012140437960625,-0.018510175868868828
1776021574339747000,9.4937470703125,0.05461522191762924,0.1895916908979416,-0.10599661618471146
1776021574349808000,9.50380810546875,-0.06970270723104477,0.31254565715789795,-0.1722828447818756
1776021574359869200,9.513869140625,-0.19168879091739655,0.28215739130973816,-0.1889672726392746
1776021574369930200,9.52393017578125,-0.2806016206741333,0.06238412484526634,-0.13475669920444489
1776021574379991300,9.5339912109375,-0.31690290570259094,-0.23666222393512726,-0.0198396984487772
1776021574390053400,9.544053466796875,-0.2844536304473877,-0.5281100273132324,0.11971686780452728
1776021574400114200,9.5541142578125,-0.19482921063899994,-0.766862154006958,0.27679356932640076
1776021574410175200,9.56417529296875,-0.10597417503595352,-0.8668641448020935,0.4027469754219055
1776021574420236300,9.574236328125,-0.05594855546951294,-0.7561147212982178,0.4569569528102875
1776021574430297000,9.584297119140626,-0.07363314926624298,-0.3984884023666382,0.4009416699409485
1776021574440358100,9.594358154296875,-0.17088326811790466,0.1687377244234085,0.20381662249565125
1776021574450419200,9.604419189453125,-0.29019689559936523,0.7416567206382751,-0.02897714264690876
1776021574460480300,9.614480224609375,-0.4034757912158966,1.112949252128601,-0.18500402569770813
1776021574470541300,9.624541259765625,-0.4910786747932434,1.1155226230621338,-0.22100113332271576
1776021574480603100,9.63460302734375,-0.4895036816596985,0.8978025317192078,-0.1904701292514801
1776021574490664200,9.644664306640625,-0.3894067406654358,0.6292976140975952,-0.18801170587539673
1776021574500725200,9.654725341796874,-0.24803948402404785,0.43532681465148926,-0.22982493042945862
1776021574510786300,9.664786376953124,-0.11348335444927216,0.3689255714416504,-0.3240866959095001
1776021574520847400,9.674847412109376,0.005668336991220713,0.46522149443626404,-0.42001962661743164
1776021574530908400,9.684908447265625,0.08921687304973602,0.7181082963943481,-0.49228787422180176
1776021574540969200,9.69496923828125,0.06178205460309982,0.829818844795227,-0.5360704660415649
1776021574551030300,9.7050302734375,-0.058258865028619766,0.5161429047584534,-0.546451210975647
1776021574561091000,9.715091064453125,-0.18505620956420898,-0.06828431040048599,-0.48652321100234985
1776021574571153200,9.725153076171875,-0.24977892637252808,-0.5269362926483154,-0.37368860840797424
1776021574581214200,9.735214111328125,-0.3022804856300354,-0.8234832882881165,-0.322827011346817
1776021574591275300,9.745275146484374,-0.3203927278518677,-0.8402829170227051,-0.3813766837120056
1776021574601336300,9.75533642578125,-0.348054438829422,-0.5378429293632507,-0.4973570704460144
1776021574611397400,9.7653974609375,-0.44156143069267273,-0.12606877088546753,-0.5470662713050842
1776021574621458200,9.775458251953125,-0.5640846490859985,0.07673919945955276,-0.5758348107337952
1776021574631519200,9.785519287109375,-0.6420701146125793,0.059671275317668915,-0.6113525032997131
1776021574641580300,9.795580322265625,-0.670419454574585,-0.0267736054956913,-0.6038991212844849
1776021574651641300,9.805641357421875,-0.6603193283081055,-0.11725405603647232,-0.5566858053207397
1776021574661703400,9.815703369140625,-0.6349798440933228,-0.3592759966850281,-0.49285784363746643
1776021574671764200,9.82576416015625,-0.6014384627342224,-0.576371967792511,-0.3564722537994385
1776021574681825300,9.8358251953125,-0.6105917096138,-0.656017541885376,-0.24161037802696228
1776021574691886000,9.845885986328126,-0.6269636750221252,-0.6209577322006226,-0.2518685758113861
1776021574701947100,9.855947021484376,-0.6462563872337341,-0.5280096530914307,-0.3258932828903198
1776021574712008200,9.86600830078125,-0.6840701699256897,-0.4256080090999603,-0.3673306107521057
1776021574722069200,9.8760693359375,-0.7240468859672546,-0.36579713225364685,-0.3736279308795929
1776021574732130300,9.88613037109375,-0.7512795925140381,-0.3392163813114166,-0.3479121923446655
1776021574742191400,9.89619140625,-0.7678641676902771,-0.30906328558921814,-0.3063682019710541
1776021574752253200,9.906253173828125,-0.7768497467041016,-0.29335924983024597,-0.27363449335098267
1776021574762314200,9.916314208984375,-0.7880584597587585,-0.36752426624298096,-0.2614433467388153
1776021574772375300,9.926375244140624,-0.808474063873291,-0.5078514218330383,-0.27862799167633057
1776021574782436400,9.936436279296874,-0.8089500069618225,-0.5937098860740662,-0.3215128779411316
1776021574792497200,9.9464970703125,-0.7821835875511169,-0.5614580512046814,-0.3412690758705139
1776021574802558200,9.95655810546875,-0.7436867952346802,-0.4514220952987671,-0.33083483576774597
1776021574812619300,9.966619384765625,-0.7210690975189209,-0.37468284368515015,-0.27175259590148926
1776021574822680300,9.976680419921875,-0.7216454148292542,-0.3588514029979706,-0.23198387026786804
1776021574832741400,9.986741455078125,-0.726095974445343,-0.34785333275794983,-0.30735886096954346
1776021574842803200,9.99680322265625,-0.7214120030403137,-0.2911548912525177,-0.45070937275886536
1776021574852864300,10.0068642578125,-0.7384090423583984,-0.1966683715581894,-0.5707899928092957
1776021574862925300,10.01692529296875,-0.7550442218780518,-0.12593162059783936,-0.6105605363845825
1776021574872986400,10.026986328125,-0.7669151425361633,-0.0920364111661911,-0.5319951772689819
1776021574883047400,10.03704736328125,-0.7724462747573853,-0.11890743672847748,-0.3815765976905823
1776021574893108500,10.0471083984375,-0.7687101364135742,-0.21547658741474152,-0.29869234561920166
1776021574903169300,10.057169189453125,-0.751247763633728,-0.30550262331962585,-0.3427191972732544
1776021574913230000,10.06722998046875,-0.7423180341720581,-0.28901079297065735,-0.4785449802875519
1776021574923292200,10.077292236328125,-0.7530167698860168,-0.18850019574165344,-0.5852019190788269
1776021574933353200,10.087353271484375,-0.7462061643600464,-0.11047454178333282,-0.5889598727226257
1776021574943414300,10.097414306640625,-0.7091985940933228,-0.08765950798988342,-0.5142931342124939
1776021574953475300,10.107475341796874,-0.6785402894020081,-0.052437592297792435,-0.3800787329673767
1776021574963536400,10.117536376953124,-0.7000064849853516,-0.0491107702255249,-0.26532071828842163
1776021574973597200,10.12759716796875,-0.7817556858062744,-0.015825150534510612,-0.28125739097595215
1776021574983658200,10.137658203125,-0.8737159371376038,0.016818279400467873,-0.38397523760795593
1776021574993719300,10.14771923828125,-0.9454793334007263,0.00401246128603816,-0.46575599908828735
1776021575003780400,10.1577802734375,-0.9837753176689148,-0.0036928625777363777,-0.5047233700752258
1776021575013842400,10.167842529296875,-0.9975611567497253,-0.021319707855582237,-0.4932401180267334
1776021575023903500,10.177903564453125,-0.9184242486953735,-0.035076532512903214,-0.4970553517341614
1776021575033964000,10.187964111328125,-0.754996657371521,0.0255130585283041,-0.5156506896018982
1776021575044025000,10.198025146484374,-0.6180180311203003,0.0818580910563469,-0.4508570432662964
1776021575054086100,10.208086181640626,-0.558503270149231,0.05245784670114517,-0.3365364670753479
1776021575064147200,10.218147216796876,-0.5486535429954529,-0.04094027727842331,-0.2832207679748535
1776021575074208300,10.228208251953125,-0.5573427677154541,-0.16666938364505768,-0.329144150018692
1776021575084269300,10.238269287109375,-0.5538508296012878,-0.2750760018825531,-0.38704925775527954
1776021575094331400,10.248331298828125,-0.5355504155158997,-0.3168160617351532,-0.4080611765384674
1776021575104392200,10.25839208984375,-0.5147796273231506,-0.28867363929748535,-0.4188363254070282
1776021575114453200,10.268453369140625,-0.4703771471977234,-0.1906329095363617,-0.4138905704021454
1776021575124514300,10.278514404296875,-0.38619062304496765,-0.14919625222682953,-0.310247004032135
1776021575134575400,10.288575439453124,-0.29531943798065186,-0.17888109385967255,-0.15411052107810974
1776021575144636200,10.29863623046875,-0.23362226784229279,-0.23860406875610352,-0.0749877393245697
1776021575154696400,10.308696533203126,-0.21955648064613342,-0.268479585647583,-0.12448010593652725
1776021575164757500,10.318757568359375,-0.2738833725452423,-0.22579418122768402,-0.25198960304260254
1776021575174818600,10.328818603515625,-0.3291204273700714,-0.08224225044250488,-0.34585705399513245
1776021575184880400,10.33888037109375,-0.3258388936519623,0.09532587975263596,-0.32238608598709106
1776021575194941400,10.34894140625,-0.26605233550071716,0.2817015051841736,-0.17948809266090393
1776021575205002200,10.359002197265625,-0.19412167370319366,0.3516571521759033,-0.02321912907063961
1776021575215063300,10.369063232421874,-0.14878447353839874,0.25849422812461853,0.023508764803409576
1776021575225124400,10.379124267578124,-0.16994649171829224,0.0776517242193222,-0.057861194014549255
1776021575235185400,10.389185302734376,-0.2644001245498657,-0.06053873896598816,-0.1889309585094452
1776021575245246500,10.39924658203125,-0.3363398313522339,-0.04616459459066391,-0.3117074966430664
1776021575255307500,10.4093076171875,-0.3397352993488312,0.13001748919487,-0.3642277419567108
1776021575265369300,10.419369384765625,-0.26796525716781616,0.322113960981369,-0.2576773464679718
1776021575275430400,10.429430419921875,-0.154954195022583,0.38818302750587463,-0.05883902311325073
1776021575285491500,10.439491455078125,-0.07652303576469421,0.3219941556453705,0.10356053709983826
1776021575295552500,10.449552490234375,-0.07314030081033707,0.16620971262454987,0.24083726108074188
1776021575305613600,10.459613525390624,-0.13924209773540497,0.05838445574045181,0.2685144245624542
1776021575315674400,10.46967431640625,-0.2416248321533203,0.08910377323627472,0.17388133704662323
1776021575325735400,10.4797353515625,-0.3506855368614197,0.24047809839248657,0.012118545360863209
1776021575335796500,10.48979638671875,-0.42480844259262085,0.44370630383491516,-0.17135915160179138
1776021575345858300,10.4998583984375,-0.44121697545051575,0.6581799983978271,-0.31142812967300415
1776021575355919400,10.50991943359375,-0.3672923147678375,0.8368600010871887,-0.4072825312614441
1776021575365980400,10.51998046875,-0.2537838816642761,0.9285560846328735,-0.4585137665271759
1776021575376041500,10.53004150390625,-0.16400404274463654,0.9101648330688477,-0.43886104226112366
1776021575386102500,10.5401025390625,-0.13068923354148865,0.7927769422531128,-0.31896525621414185
1776021575396163600,10.55016357421875,-0.12340839952230453,0.6800380349159241,-0.17140331864356995
1776021575406224400,10.560224365234374,-0.14367051422595978,0.5924762487411499,-0.0845339298248291
1776021575416285400,10.570285400390626,-0.21669191122055054,0.5192362070083618,-0.060326699167490005
1776021575426346200,10.58034619140625,-0.3028925657272339,0.32176443934440613,-0.0184631384909153
1776021575436408600,10.59040869140625,-0.3532432019710541,-0.06497325003147125,0.008948348462581635
1776021575446469400,10.600469482421875,-0.349176824092865,-0.4582502543926239,0.00006137992022559047
1776021575456530400,10.610530517578125,-0.30487456917762756,-0.6521615386009216,-0.0336870439350605
1776021575466591200,10.62059130859375,-0.23354847729206085,-0.6404098272323608,-0.04107864573597908
1776021575476652300,10.63065234375,-0.20026272535324097,-0.4222904443740845,-0.03238958120346069
1776021575486713300,10.64071337890625,-0.2117052674293518,-0.09952811151742935,-0.04460523650050163
1776021575496774400,10.6507744140625,-0.24136604368686676,0.19303564727306366,-0.09652994573116302
1776021575506835500,10.66083544921875,-0.2986695468425751,0.29649439454078674,-0.16691996157169342
1776021575516897500,10.6708974609375,-0.3539637327194214,0.2037811577320099,-0.25710931420326233
1776021575526958600,10.68095849609375,-0.3630930483341217,0.021930936723947525,-0.3556617200374603
1776021575537019400,10.691019287109375,-0.32246068120002747,-0.10004601627588272,-0.456768661737442
1776021575547080400,10.70108056640625,-0.2479800283908844,-0.05726313218474388,-0.4945937991142273
1776021575557141200,10.711141357421875,-0.16458278894424438,0.1186247393488884,-0.3726668655872345
1776021575567202300,10.721202392578125,-0.09684421867132187,0.33786043524742126,-0.1435934603214264
1776021575577263400,10.731263427734374,-0.09808053821325302,0.5562916994094849,0.062498148530721664
1776021575587324400,10.741324462890624,-0.15013043582439423,0.7068263292312622,0.06640554219484329
1776021575597386200,10.75138623046875,-0.21949882805347443,0.5925471186637878,-0.0715596154332161
1776021575607447300,10.761447265625,-0.29586419463157654,0.20512054860591888,-0.2123340368270874
1776021575617508400,10.77150830078125,-0.3451751470565796,-0.24524226784706116,-0.3006640076637268
1776021575627569400,10.7815693359375,-0.306814968585968,-0.5609850883483887,-0.4057702124118805
1776021575637630500,10.79163037109375,-0.22595292329788208,-0.6622469425201416,-0.48874855041503906
1776021575647691500,10.80169140625,-0.16744300723075867,-0.5830013751983643,-0.4634583592414856
1776021575657752600,10.811752685546875,-0.1327372044324875,-0.3447544574737549,-0.32501277327537537
1776021575667813400,10.8218134765625,-0.10982789099216461,-0.0707322433590889,-0.15315231680870056
1776021575677875500,10.83187548828125,-0.13627256453037262,0.14242354035377502,-0.10980688035488129
1776021575687936300,10.841936279296876,-0.17388731241226196,0.20919111371040344,-0.18971475958824158
1776021575697997300,10.851997314453126,-0.18013283610343933,0.16110773384571075,-0.2936743497848511
1776021575708058400,10.862058349609375,-0.13320821523666382,-0.009104732424020767,-0.31504568457603455
1776021575718119400,10.872119384765625,-0.08746122568845749,-0.19881822168827057,-0.23488189280033112
1776021575728180500,10.882180419921875,-0.060732148587703705,-0.2976052463054657,-0.12053188681602478
1776021575738241500,10.892241455078125,-0.0853959321975708,-0.27265551686286926,-0.04136073216795921
1776021575748302300,10.90230224609375,-0.13548199832439423,-0.17670127749443054,-0.031093180179595947
1776021575758364400,10.912364501953125,-0.19722285866737366,-0.07407379150390625,-0.06491101533174515
1776021575768425500,10.922425537109374,-0.2591482996940613,-0.0292421393096447,-0.12440603226423264
1776021575778486500,10.932486572265624,-0.3021274209022522,-0.0512332022190094,-0.16578024625778198
1776021575788547600,10.942547607421876,-0.2886984348297119,-0.017920253798365593,-0.21991539001464844
1776021575798608400,10.9526083984375,-0.19172251224517822,0.08067513257265091,-0.3367350399494171
1776021575808669400,10.96266943359375,-0.13642942905426025,0.20985867083072662,-0.3430051803588867
1776021575818730200,10.972730224609375,-0.10971436649560928,0.3588448166847229,-0.2510697543621063
1776021575828791300,10.982791259765625,-0.11812090128660202,0.4846557378768921,-0.13183072209358215
1776021575838853400,10.992853271484375,-0.15771254897117615,0.559929609298706,-0.10832466185092926
1776021575848914400,11.00291455078125,-0.21768853068351746,0.5104984045028687,-0.20570926368236542
1776021575858975500,11.0129755859375,-0.28115314245224,0.2904994785785675,-0.35937878489494324
1776021575869036500,11.02303662109375,-0.271891713142395,-0.14116430282592773,-0.4768609404563904
1776021575879097300,11.033097412109376,-0.15608251094818115,-0.6237298250198364,-0.5112878084182739
1776021575889158400,11.043158447265625,0.028331268578767776,-0.9234259724617004,-0.46122467517852783
1776021575899219500,11.053219482421875,0.17464986443519592,-0.9114394187927246,-0.35354769229888916
1776021575909280300,11.0632802734375,0.226050466299057,-0.6713985800743103,-0.24965965747833252
1776021575919342600,11.073342529296875,0.2109864503145218,-0.3951762616634369,-0.18147726356983185
1776021575929403400,11.0834033203125,0.16412360966205597,-0.2767857313156128,-0.14081452786922455
1776021575939464400,11.09346435546875,0.10196807235479355,-0.3200971186161041,-0.13175301253795624
1776021575949525200,11.103525146484374,0.04444325715303421,-0.4328939914703369,-0.1457764208316803
1776021575959586300,11.11358642578125,-0.008413685485720634,-0.5273768305778503,-0.18502749502658844
1776021575969647400,11.1236474609375,-0.0498596616089344,-0.5638203024864197,-0.23404590785503387
1776021575979708400,11.13370849609375,-0.0770225003361702,-0.5888680815696716,-0.242255300283432
1776021575989769500,11.14376953125,-0.04423206299543381,-0.5719146132469177,-0.2766643762588501
1776021575999831600,11.15383154296875,-0.018228095024824142,-0.4939819574356079,-0.3281511068344116
1776021576009892400,11.163892333984375,-0.02441781386733055,-0.3492894768714905,-0.34908753633499146
1776021576019953400,11.173953369140625,-0.03203115612268448,-0.13083133101463318,-0.2986268699169159
1776021576030014500,11.184014404296875,-0.03717478737235069,0.11834200471639633,-0.13062135875225067
1776021576040075300,11.1940751953125,0.0036848336458206177,0.2898784577846527,0.05588309094309807
1776021576050136300,11.20413623046875,0.02494618110358715,0.3271677494049072,0.14551976323127747
1776021576060197400,11.214197265625,0.008028468117117882,0.196168914437294,0.12955187261104584
1776021576070259500,11.224259521484376,-0.031479526311159134,-0.013255685567855835,0.02997654676437378
1776021576080320300,11.2343203125,-0.06155642867088318,-0.1903126835823059,-0.1028168722987175
1776021576090381300,11.24438134765625,-0.07220295071601868,-0.240030437707901,-0.20823942124843597
1776021576100442400,11.2544423828125,-0.08075407147407532,-0.14547836780548096,-0.2619188129901886
1776021576110503400,11.26450341796875,-0.09453566372394562,-0.03306394815444946,-0.2414872795343399
1776021576120564500,11.274564453125,-0.13403131067752838,0.010178347118198872,-0.1703343242406845
1776021576130625500,11.28462548828125,-0.175287663936615,-0.01122228242456913,-0.09487364441156387
1776021576140686600,11.2946865234375,-0.19558760523796082,-0.04090605676174164,-0.04185575246810913
1776021576150748400,11.30474853515625,-0.17469030618667603,-0.052021291106939316,-0.011408631689846516
1776021576160809700,11.314809814453126,-0.15297342836856842,-0.03363145887851715,-0.026068560779094696
1776021576170870800,11.324870849609376,-0.13573718070983887,0.004714334849268198,-0.06982137262821198
1776021576180931800,11.334931884765625,-0.10247810184955597,0.08843313902616501,-0.145636647939682
1776021576190993000,11.344992919921875,-0.06163559481501579,0.17301006615161896,-0.180417001247406
1776021576201054000,11.355053955078125,-0.028210368007421494,0.25876712799072266,-0.12099296599626541
1776021576211114800,11.36511474609375,-0.016064222902059555,0.3505780100822449,-0.010388691909611225
1776021576221175600,11.375175537109374,-0.04221613332629204,0.3657328188419342,0.06638561189174652
1776021576231237600,11.385237548828124,-0.10239238291978836,0.28744038939476013,0.087839774787426
1776021576241298700,11.395298583984374,-0.18056175112724304,0.1247987449169159,0.0818370059132576
1776021576251359700,11.40535986328125,-0.27661558985710144,-0.04360012337565422,0.04112899303436279
1776021576261420800,11.4154208984375,-0.36430656909942627,-0.13369245827198029,-0.043088264763355255
1776021576271481900,11.42548193359375,-0.43979254364967346,-0.1522749364376068,-0.1364877074956894
1776021576281542700,11.435542724609375,-0.4983551502227783,-0.210065096616745,-0.1970430463552475
1776021576291603700,11.445603759765625,-0.5482566952705383,-0.32770729064941406,-0.21662473678588867
1776021576301665800,11.455665771484375,-0.4851643145084381,-0.3233669400215149,-0.21742799878120422
1776021576311726800,11.465726806640625,-0.41750776767730713,-0.2901487946510315,-0.23164209723472595
1776021576321788000,11.475787841796874,-0.3409067392349243,-0.18304356932640076,-0.14711634814739227
1776021576331849000,11.485848876953124,-0.25725099444389343,-0.19009588658809662,-0.025424262508749962
1776021576341909800,11.49590966796875,-0.1594609022140503,-0.32562825083732605,0.04049214348196983
1776021576351970600,11.505970458984375,-0.08694595843553543,-0.35295307636260986,0.06755492091178894
1776021576362031600,11.516031494140625,-0.08832721412181854,-0.3331514000892639,0.10503898561000824
1776021576372092700,11.5260927734375,-0.12631215155124664,-0.4336537718772888,0.09846231341362
1776021576382154800,11.53615478515625,-0.1553906351327896,-0.5760127305984497,0.0838775709271431
1776021576392215800,11.5462158203125,-0.1306019276380539,-0.6855708956718445,0.05243655666708946
1776021576402276900,11.55627685546875,-0.06378644704818726,-0.7259527444839478,0.03165319189429283
1776021576412337700,11.566337646484374,-0.023730376735329628,-0.547954797744751,0.09711262583732605
1776021576422398700,11.576398681640624,-0.021542325615882874,-0.24636857211589813,0.18180833756923676
1776021576432459800,11.586459716796876,-0.03874634578824043,0.06689746677875519,0.22427909076213837
1776021576442520800,11.596520751953125,-0.06567582488059998,0.32212698459625244,0.2554798722267151
1776021576452583000,11.6065830078125,-0.12018433958292007,0.4299013912677765,0.2582215964794159
1776021576462644000,11.61664404296875,-0.19027571380138397,0.28651025891304016,0.2088260054588318
1776021576472704800,11.626704833984375,-0.24214184284210205,0.041281864047050476,0.15134459733963013
1776021576482765600,11.636765625,-0.26208966970443726,-0.16579872369766235,0.14365899562835693
1776021576492826600,11.64682666015625,-0.25319576263427734,-0.2469596266746521,0.11751046776771545
1776021576502887700,11.6568876953125,-0.20840808749198914,-0.07772496342658997,0.022142508998513222
1776021576512948700,11.66694873046875,-0.16039635241031647,0.3963012099266052,0.02959989383816719
1776021576523009800,11.677009765625,-0.13648782670497894,0.8105721473693848,0.14494352042675018
1776021576533072000,11.68707177734375,-0.144010990858078,0.8025631904602051,0.25993749499320984
1776021576543132700,11.697132568359375,-0.15593436360359192,0.4974583387374878,0.2287481129169464
1776021576553193700,11.70719384765625,-0.1628982573747635,0.21215178072452545,0.11022840440273285
1776021576563254800,11.7172548828125,-0.1569599211215973,0.019905805587768555,0.03661452978849411
1776021576573315800,11.72731591796875,-0.15625151991844177,-0.05340036749839783,0.02578052133321762
1776021576583376600,11.737376708984375,-0.1598133146762848,0.04368693381547928,0.059908751398324966
1776021576593437700,11.747437744140624,-0.15614241361618042,0.2775886356830597,0.11590464413166046
1776021576603499800,11.757499755859374,-0.1575985699892044,0.5511020421981812,0.15978960692882538
1776021576613560600,11.767560546875,-0.18902945518493652,0.7384405136108398,0.16325438022613525
1776021576623621600,11.77762158203125,-0.23862789571285248,0.7330835461616516,0.13341553509235382
1776021576633682700,11.7876826171875,-0.28027868270874023,0.5771914124488831,0.04794750362634659
1776021576643743700,11.79774365234375,-0.29047220945358276,0.44717156887054443,-0.06551961600780487
1776021576653804800,11.8078046875,-0.2582053542137146,0.406033456325531,-0.11193771660327911
1776021576663865900,11.817865966796875,-0.22554649412631989,0.4631415605545044,-0.04147009551525116
1776021576673927000,11.827927001953125,-0.24277101457118988,0.44187358021736145,0.08917339891195297
1776021576683988700,11.83798876953125,-0.3257977068424225,0.32672807574272156,0.13085223734378815
1776021576694049800,11.8480498046875,-0.4453219771385193,0.20611536502838135,0.07722203433513641
1776021576704110800,11.85811083984375,-0.5598155856132507,0.13089697062969208,0.030166329815983772
1776021576714171600,11.868171630859376,-0.6198546886444092,0.0030790907330811024,0.035601574927568436
1776021576724232700,11.878232666015625,-0.6106763482093811,-0.18148677051067352,0.08504592627286911
1776021576734293800,11.888293701171875,-0.5460893511772156,-0.41985058784484863,0.12629269063472748
1776021576744354800,11.898354736328125,-0.4567635655403137,-0.5876435041427612,0.13380905985832214
1776021576754416600,11.908416748046875,-0.3956810534000397,-0.672748863697052,0.12413220852613449
1776021576764477700,11.918477783203125,-0.3923594057559967,-0.6746623516082764,0.09015421569347382
1776021576774538800,11.928538818359375,-0.4308106601238251,-0.6141899228096008,0.060836005955934525
1776021576784599800,11.938599853515624,-0.49039211869239807,-0.5493994951248169,0.004706903826445341
1776021576794660900,11.948660888671874,-0.5540706515312195,-0.4762413501739502,-0.07293329387903214
1776021576804722000,11.958721923828126,-0.5620750784873962,-0.3224440813064575,-0.15086831152439117
1776021576814783000,11.968782958984375,-0.47540199756622314,-0.08468956500291824,-0.20188462734222412
1776021576824844800,11.9788447265625,-0.3504534065723419,0.13441935181617737,-0.20395709574222565
1776021576834905900,11.98890576171875,-0.2370019257068634,0.22989234328269958,-0.1449289321899414
1776021576844966700,11.998966552734375,-0.16853220760822296,0.14883984625339508,-0.06907668709754944
1776021576855027700,12.00902783203125,-0.16253557801246643,0.0018200329504907131,0.02880406752228737
1776021576865088800,12.0190888671875,-0.1910950243473053,-0.13092824816703796,0.11493724584579468
1776021576875149800,12.02914990234375,-0.1729479730129242,-0.16107577085494995,0.10074898600578308
1776021576885211000,12.0392109375,-0.14408308267593384,-0.13469918072223663,0.01527351699769497
1776021576895272700,12.049272705078126,-0.17424871027469635,-0.15364357829093933,-0.047700121998786926
1776021576905333800,12.059333740234376,-0.27757805585861206,-0.2004067301750183,-0.06778370589017868
1776021576915394800,12.069394775390625,-0.4066430926322937,-0.15882200002670288,-0.09701109677553177
1776021576925456000,12.079455810546875,-0.48138490319252014,-0.04562995210289955,-0.13825874030590057
1776021576935517000,12.089516845703125,-0.47606897354125977,0.12079284340143204,-0.11028490215539932
1776021576945578000,12.099577880859375,-0.40627989172935486,0.25644707679748535,-0.025415899232029915
1776021576955638500,12.109638427734374,-0.3315129578113556,0.28923192620277405,0.07272584736347198
1776021576965699600,12.119699462890624,-0.2887474298477173,0.16679027676582336,0.11159443110227585
1776021576975761700,12.12976171875,-0.2870749831199646,0.04216631129384041,0.07704444229602814
1776021576985822700,12.13982275390625,-0.2833273410797119,0.008119117468595505,0.010545141063630581
1776021576995883800,12.1498837890625,-0.27986446022987366,-0.0010906262323260307,-0.027789464220404625
1776021577005944800,12.15994482421875,-0.2873547673225403,0.05446070432662964,-0.014757410623133183
1776021577016005600,12.170005615234375,-0.310166597366333,0.21309694647789001,0.030387962237000465
1776021577026066700,12.180066650390625,-0.3210300803184509,0.4097384512424469,0.08236908167600632
1776021577036127700,12.190127685546875,-0.3146515190601349,0.4678710103034973,0.10499343276023865
1776021577046189800,12.20018994140625,-0.2853999137878418,0.45157045125961304,0.11823611706495285
1776021577056251000,12.2102509765625,-0.25413599610328674,0.42877164483070374,0.13596397638320923
1776021577066312000,12.22031201171875,-0.23621270060539246,0.3476705551147461,0.12590840458869934
1776021577076372700,12.230372802734376,-0.22889725863933563,0.2050873041152954,0.06828825175762177
1776021577086433500,12.24043359375,-0.2266518473625183,0.06767574697732925,-0.016211524605751038
1776021577096494600,12.25049462890625,-0.20500488579273224,0.010500079020857811,-0.06792239099740982
1776021577106555600,12.2605556640625,-0.15797016024589539,-0.004982371814548969,-0.017260607331991196
1776021577116617700,12.27061767578125,-0.11296993494033813,-0.0505695641040802,0.08132428675889969
1776021577126678800,12.2806787109375,-0.09103232622146606,-0.07649262249469757,0.17979581654071808
1776021577136739800,12.29073974609375,-0.08942830562591553,-0.11414732784032822,0.2877174913883209
1776021577146800600,12.300800537109374,-0.09438950568437576,-0.11518542468547821,0.32394129037857056
1776021577156862500,12.310862548828124,-0.09211596846580505,0.03875220566987991,0.2797871530056
1776021577166923500,12.320923583984374,-0.07689123600721359,0.2635669410228729,0.20523715019226074
1776021577176984600,12.330984619140626,-0.06722608953714371,0.3475952744483948,0.16568255424499512
1776021577187046400,12.34104638671875,-0.062429167330265045,0.3706010580062866,0.15493834018707275
1776021577197107500,12.351107421875,-0.04879138618707657,0.423738569021225,0.16455155611038208
1776021577207168500,12.36116845703125,-0.03594249114394188,0.43607598543167114,0.20546524226665497
1776021577217229600,12.3712294921875,-0.02173772267997265,0.3761977255344391,0.26309019327163696
1776021577227290400,12.381290283203125,0.004803192336112261,0.2784717082977295,0.35865887999534607
1776021577237351400,12.391351318359375,0.033395953476428986,0.20274844765663147,0.4436933398246765
1776021577247412500,12.40141259765625,0.05291718244552612,0.18457414209842682,0.5199095606803894
1776021577257474300,12.411474365234374,0.08102870732545853,0.20249295234680176,0.5068235993385315
1776021577267535400,12.421535400390624,0.12382315844297409,0.3041040301322937,0.42411819100379944
1776021577277596400,12.431596435546876,0.10819387435913086,0.34075018763542175,0.38251161575317383
