time,seconds_elapsed,z,y,x
1776815076190391600,0.1043916015625,0.6488835949599743,-0.22863310680240392,-0.9964528047230095
1776815076200429300,0.11442919921875,1.2387298945397138,-0.7754267388582229,-1.178817789086327
1776815076210466300,0.12446630859375,1.4056786985844374,-0.8099304814845323,-1.307328214469552
1776815076220503300,0.13450341796875,1.4803244819849728,-0.43129970543831586,-1.4458574181072412
1776815076230540500,0.14454052734375,2.483036712428927,0.8228855323866009,-1.6455803645066915
1776815076240578300,0.154578369140625,1.9424796366751194,1.0379890032693744,-1.688351584740728
1776815076250615300,0.164615234375,-0.23298165740072727,0.4396276810616255,-1.4119452116332947
1776815076260652300,0.17465234375,-2.2146552403450013,0.02458236033171415,-0.6609393589347601
1776815076270690600,0.184690673828125,-3.3323955334603785,0.3945198345735669,0.2584355398699641
1776815076280727300,0.194727294921875,-5.353804914465546,0.9885554025366902,1.7659971344791352
1776815076290764300,0.204764404296875,-3.5010073022812604,1.3252873572692274,3.736417648133635
1776815076300802600,0.214802490234375,0.22106676320135593,0.7032505604416132,2.5376585294544696
1776815076310839300,0.22483935546875,1.1710375835388898,-0.3779650056138634,-0.23480755765363573
1776815076320876300,0.234876220703125,0.565484596261382,-1.201179623824358,-0.2378667990937829
1776815076330914600,0.24491455078125,-0.901814399933815,-1.0275859749376772,0.5328231205008924
1776815076340951600,0.25495166015625,-1.5148060127794742,-0.5048036253273487,0.8940295912764966
1776815076350988300,0.26498828125,-2.018428319367766,-0.2912982372909784,1.5496794655010104
1776815076361026600,0.275026611328125,-1.8988252038657665,-0.3861298996299505,1.999709882633388
1776815076371063600,0.2850634765625,-1.5608973173469305,-0.6286313727870583,1.58013115625754
1776815076381100500,0.2951005859375,-1.2832394828736782,-0.4372612441912293,1.2424097520962356
1776815076391138300,0.30513818359375,-0.9180968416929245,-0.2842223075553775,0.9262057677380741
1776815076401175600,0.315175537109375,-0.5373316839665174,-0.29609774652719495,0.821835438811779
1776815076411212500,0.325212646484375,-0.414866749292612,-0.532483367152512,0.8401184067383408
1776815076421250300,0.335250244140625,-0.4532067090809345,-0.3454787402898073,0.607335486780107
1776815076431287600,0.34528759765625,-0.20351590894162655,0.11254238333553075,0.2960651594318449
1776815076441324500,0.355324462890625,-0.08509820383191108,0.2214662839129567,0.19781068303734062
1776815076451362300,0.3653623046875,-0.13852642715871333,-0.05057195711284876,0.43340749137252566
1776815076461399300,0.3753994140625,-0.2704752294927835,-0.11985884382873772,0.6202401226691902
1776815076471436500,0.3854365234375,-0.5655453865379094,0.0055944590061902996,0.5076447670374066
1776815076481474300,0.395474365234375,-0.4978244339644909,0.13056991519629954,0.06690159901455045
1776815076491511300,0.40551123046875,-0.045320320194959636,0.023659108006954192,-0.24486980972364544
1776815076501548500,0.415548583984375,-0.12499591445624827,-0.3763701376378536,-0.0844893512185663
1776815076511586300,0.42558642578125,-0.29754560724794865,-0.48901656586974857,0.39645825529024004
1776815076521623300,0.435623291015625,-0.29441373896300793,-0.3644280631706118,0.5733902548193931
1776815076531660300,0.445660400390625,-0.09197861099541187,-0.44179859535992144,0.24831571239382028
1776815076541698600,0.455698486328125,0.24116964003145694,-0.37246962306797504,-0.08842464484088122
1776815076551735300,0.4657353515625,0.4324970985293388,-0.1093286819860339,-0.37386524214483796
1776815076561772300,0.475772216796875,0.7294009007424116,0.06257686768323183,-0.6290266557149589
1776815076571810600,0.485810546875,0.6955266881912946,0.0288762581333518,-0.5471577891930938
1776815076581847600,0.49584765625,0.7514116570204495,0.06968991455882788,-0.6569786386102437
1776815076591884300,0.50588427734375,0.9635971946299076,0.4796349895402789,-0.9519741229839622
1776815076601921300,0.51592138671875,0.6565946077287197,0.6090715167924762,-1.0091609681919216
1776815076611959600,0.52595947265625,0.24733868405520915,0.3121829121485352,-0.7237861296005547
1776815076621996300,0.535996337890625,0.39187458076179027,0.15134528446048498,-0.4448122075600549
1776815076632033300,0.546033203125,0.3448819434404373,0.13835545450598,-0.20830168191343545
1776815076642071600,0.556071533203125,0.5617348883390426,0.14921967060863972,-0.3742551913104951
1776815076652108500,0.566108642578125,1.2068372111946344,0.3062459233149886,-0.7115254176381975
1776815076662145300,0.576145263671875,1.7797756305932997,0.4529916050255298,-1.1978230068728326
1776815076672183600,0.58618359375,1.8076824591726064,0.5202741661816835,-1.2028436115138232
1776815076682220500,0.596220458984375,1.8001655076712368,0.5831409567221999,-1.2360415322385727
1776815076692257300,0.60625732421875,1.9964806914538145,0.7069350941732525,-1.4364923545211552
1776815076702295300,0.61629541015625,2.56999661847949,1.1909861465901135,-1.7128117799974978
1776815076712332500,0.62633251953125,1.838593730264902,1.4235381804019211,-2.089178410504013
1776815076722369300,0.636369384765625,0.8009954798787832,1.2954574516728519,-2.607456872823834
1776815076732407300,0.6464072265625,0.5012918178141117,1.3349176476627587,-2.309116608066857
1776815076742444300,0.6564443359375,0.1605827761441469,1.237644145129621,-2.0448086690321565
1776815076752481300,0.666481201171875,0.3388087610065937,1.1170783220753073,-1.8386887150719762
1776815076762519300,0.676519287109375,-0.03575052781701088,0.28672347672134635,-1.490274213591218
1776815076772556300,0.686556396484375,-0.8206956211268901,-0.4690457909867167,0.1631684087231755
1776815076782593300,0.69659326171875,-0.8840566249251365,-0.32283611584901806,2.6849413867816327
1776815076792631300,0.70663134765625,0.42376317245364187,-0.6858508050903678,3.280717368671298
1776815076802668300,0.716668212890625,0.49211716223359103,-1.18160252443403,1.8577964433848857
1776815076812705300,0.726705322265625,0.08155658570230007,-0.7922612615421414,-0.09846592718809842
1776815076822743300,0.736743408203125,-0.3415034069180488,-0.07884177378565073,-0.643005642837286
1776815076832780300,0.7467802734375,-0.7435872470051049,0.24215718976408243,-0.12638736881464718
1776815076842817300,0.7568173828125,-1.3994956260353326,0.17647592632472514,0.7900453390583395
1776815076852855300,0.766855224609375,-1.827629268658161,-0.1925549544662237,1.575299352186918
1776815076862892300,0.776892333984375,-1.8220225346922874,-0.32041210357248784,2.0745497273012994
1776815076872929300,0.78692919921875,-1.2352432214677334,-0.3825637315809726,1.5993801927372813
1776815076882967300,0.79696728515625,-0.09111527216434478,-0.39329555347561834,1.2849831116706132
1776815076893004300,0.80700439453125,0.6524883414536714,-0.5872291028186678,1.3274676239177583
1776815076903041300,0.817041259765625,1.056807393246889,-0.8018240396574139,1.2261036372005938
1776815076913079300,0.827079345703125,0.49812546273767944,-0.4155376342914998,0.713597766932845
1776815076923116300,0.8371162109375,-0.12905015828311442,-0.15888868557736277,0.3299664061203599
1776815076933153300,0.8471533203125,-0.1373340025037527,-0.19539719215482473,-0.027109248460829256
1776815076943191300,0.85719140625,-0.060014615979790686,-0.33340631744116545,-0.36715690361261366
1776815076953228300,0.867228271484375,-0.23151684554517268,-0.5577344205260276,-0.5722913536667823
1776815076963265300,0.877265380859375,-0.45165246537625786,-0.9417876600123941,-0.6323679289668798
1776815076973303300,0.88730322265625,-0.4801473229765892,-1.1186807888358832,-0.769548202213645
1776815076983340300,0.89734033203125,-0.008832125753164291,-0.8887740088358521,-1.0132836010798811
1776815076993377300,0.907377197265625,0.5171317765027285,-0.28225422235280273,-1.3581035852000116
1776815077003415300,0.917415283203125,1.1322680001616476,0.7170012917660177,-1.857503305657208
1776815077013452300,0.927452392578125,1.9923726716130972,1.245490182454884,-2.763000485756993
1776815077023489300,0.9374892578125,2.6840935377806425,1.6232047204390168,-3.991825656875968
1776815077033527300,0.94752734375,2.877866051343083,2.031010591434687,-5.8982549060046665
1776815077043564300,0.957564208984375,3.047744479098916,2.8540497069478032,-7.635608275932073
1776815077053601300,0.967601318359375,3.81056132723093,3.5429771430045363,-8.10686268287897
1776815077063639300,0.977639404296875,4.243314446347951,3.9947000432685016,-7.839323506838083
1776815077073676300,0.98767626953125,4.839505146518349,4.001581619475782,-6.561065319508314
1776815077083713300,0.99771337890625,5.717717721590399,4.03934261033237,-6.823541951462626
1776815077093751300,1.007751220703125,6.625407735559344,5.3538031608998775,-8.533674721509218
1776815077103788300,1.017788330078125,7.246960256001353,6.530124822321533,-8.848941278886794
1776815077113825300,1.0278251953125,7.767803746503591,7.0898764278888695,-8.589996328189969
1776815077123863300,1.03786328125,8.257582236656546,7.499887553843855,-7.960396110370755
1776815077133900300,1.047900390625,8.864767793571948,8.154837901496887,-7.421298585775494
1776815077143937300,1.057937255859375,8.731147258633374,8.649864813697338,-5.9424961987912654
1776815077153975300,1.067975341796875,8.12217598734498,9.20736425642371,-3.5544857944905757
1776815077164012300,1.07801220703125,7.234343351012468,9.422242686378956,-1.6459475903838872
1776815077174049300,1.08804931640625,6.110459148314595,9.129071056431531,-0.7029208900958299
1776815077184087300,1.09808740234375,5.085533332496881,9.335072936969995,-0.5055079742044211
1776815077194124300,1.108124267578125,3.944373585349321,10.400610749161244,-0.5199971028059721
1776815077204161300,1.118161376953125,3.4272324564963577,11.310412056195736,0.39808395679593084
1776815077214199300,1.12819921875,1.88509186206758,11.032988615000248,3.0417326714634894
1776815077224236300,1.138236328125,-0.1437783563375473,9.45062005507946,6.158329152992367
1776815077234273300,1.148273193359375,-3.3855174673169848,7.958973968613147,9.396377008238435
1776815077244311300,1.158311279296875,-4.594128117924928,5.892136715385317,11.069032572805881
1776815077254348300,1.168348388671875,-6.255657308322191,4.804682839462161,11.740557038640976
1776815077264385300,1.17838525390625,-5.579681123775243,5.588007053571939,11.420732379567623
1776815077274423300,1.18842333984375,-6.05423807939887,5.852777933943272,11.539589060616493
1776815077284460300,1.198460205078125,-6.775297268253564,5.523690356484055,11.947671848857402
1776815077294497300,1.208497314453125,-8.447890288978815,4.2767187032997604,12.791812642979622
1776815077304535300,1.218535400390625,-10.478901611065863,2.1577777533471583,13.741716827821731
1776815077314572300,1.228572265625,-10.420956787097454,0.20743103655874728,14.26179284108281
1776815077324609300,1.238609375,-9.801214530947805,-0.4849602762162685,13.44062960244417
1776815077334647300,1.248647216796875,-7.763062104934454,0.11468553284406661,11.48770923577547
1776815077344684300,1.258684326171875,-7.214677696555852,1.81133104480803,10.221174219465254
1776815077354721300,1.26872119140625,-11.610825912356376,-0.3533557572752237,8.774172745889425
1776815077364759300,1.27875927734375,-14.326963524651527,-4.146883532118797,5.368351910734177
1776815077374796300,1.28879638671875,-17.94581570059061,-4.394412770310044,0.7431073545336723
1776815077384833300,1.298833251953125,-17.873721939760447,-1.5972329515755175,-2.370036356192827
1776815077394871300,1.308871337890625,-7.505261063575745,3.24484935195446,-3.5643992857396603
1776815077404908300,1.318908203125,-3.480960831813514,3.534414481842518,-2.100896174696088
1776815077414945300,1.3289453125,-0.5463499799415469,-0.007667758148908615,-0.05824702178537845
1776815077424983300,1.3389833984375,-0.29107494992911814,-0.7100234155774117,0.7900988228112459
1776815077435020300,1.349020263671875,-0.04143734128177166,1.003061774533987,0.8510194477200508
1776815077445057300,1.359057373046875,0.9660840430095792,0.8463783439159392,0.6593354308694601
1776815077455095300,1.36909521484375,2.072926217752695,3.4584102695703502,2.5822639793783426
1776815077465132300,1.37913232421875,4.694716736355423,0.7714332853078841,3.443768580755591
1776815077475169300,1.389169189453125,4.941512399575114,-1.8692483962476252,2.9431273358047005
1776815077485207300,1.399207275390625,1.6396892606414855,-1.4760808530658482,1.4113783715307713
1776815077495244300,1.409244384765625,-1.023845619365573,1.2924439490705728,1.0549474445939064
1776815077505281300,1.41928125,6.089743108022213,2.640163795161247,3.5084459278494116
1776815077515319300,1.4293193359375,9.622132221516967,5.510654933822154,7.671798364210129
1776815077525356300,1.439356201171875,8.103093685734272,-0.9811457108020782,6.35885114081502
1776815077535393300,1.449393310546875,2.4084688165701924,0.6502876165390015,3.5780782670021054
1776815077545431300,1.459431396484375,-0.9050726710774004,4.1612826443493365,2.903729975917935
1776815077555468300,1.46946826171875,-8.05218299818635,3.5257056902080772,-0.4366232385486364
1776815077565505300,1.47950537109375,-13.642206652277707,-1.0343313575446604,-4.635422251343726
1776815077575543300,1.489543212890625,-9.876805486243963,-1.892016692894697,-6.4559858193993565
1776815077585580300,1.499580322265625,-5.838092405986785,1.1376935323417185,-6.989201884740591
1776815077595617300,1.5096171875,-2.566211546982825,2.776067472600937,-6.52356648671925
1776815077605655300,1.5196552734375,0.5585588886514306,1.0200906507462262,-4.113770367068052
1776815077615692300,1.5296923828125,1.411892604663223,-1.4384955110371112,-0.9152437903493642
1776815077625729300,1.539729248046875,0.17751111459136007,-0.598769610747695,0.2405342647373676
1776815077635767300,1.549767333984375,-4.6925569279730315,-0.5097299758136272,0.5324187774837017
1776815077645804300,1.55980419921875,-5.021538706970214,-1.0251882661461829,0.691322222238779
1776815077655841300,1.56984130859375,-1.3409677414819599,0.4283002313613891,-0.5900777702480554
1776815077665879300,1.57987939453125,-0.11150690280795096,0.6244324597924947,-1.250935880640149
1776815077675916300,1.589916259765625,0.28542320777773855,0.5360667785972356,-1.0803630408793687
1776815077685953300,1.599953369140625,0.13793635231107473,-0.11755611984431744,-0.5112824659526348
1776815077695991300,1.6099912109375,-3.109324444699287,-1.7216829225867987,-1.0424445213735103
1776815077706028300,1.6200283203125,-3.3556650576278564,-2.6414427290558815,-2.360124033987522
1776815077716065300,1.630065185546875,0.13150631926357745,-2.157536345806718,-2.336819146245718
1776815077726103300,1.640103271484375,-0.48742169789373874,-3.177100926852226,-1.9009142850995062
1776815077736140300,1.650140380859375,-0.7106444700852036,-4.989345579373836,-1.5784236216872929
1776815077746177300,1.66017724609375,-1.679090858311951,-6.206288004997372,-1.9053560669392346
1776815077756215300,1.67021533203125,-1.2572253361731767,-5.6722956945866345,-1.8924498236149547
1776815077766252300,1.680252197265625,0.20619331145733594,-5.574795689821243,-1.4736819752305745
1776815077776289300,1.690289306640625,0.17613047388792036,-6.62668316232264,-0.794035577738285
1776815077786327300,1.700327392578125,-1.191617430230975,-4.941495448440313,-0.3796674256175756
1776815077796364300,1.7103642578125,-2.923771770210564,-3.702978904390335,-1.047559087908268
1776815077806401300,1.7204013671875,-3.4264082806319,-4.102724072396755,-1.0100222611963747
1776815077816439000,1.73043896484375,-2.1539096797421573,-3.0361393815010786,-0.24241934783160685
1776815077826476300,1.740476318359375,-1.2462982839673757,-0.7260889997154474,1.294789635413885
1776815077836513300,1.75051318359375,-0.9776906019121407,-0.7338181326627731,1.7363778028935193
1776815077846551300,1.76055126953125,-0.1420177764058113,-1.6991718155711888,1.866924921736121
1776815077856588300,1.77058837890625,1.4432248776465653,-0.5101899945408106,1.7892635899066924
1776815077866625300,1.780625244140625,0.9386614908158779,-0.08784019601643085,0.8941852202296257
1776815077876663300,1.790663330078125,0.23738602983951568,-1.4928630610406397,1.364458799445629
1776815077886700000,1.800699951171875,1.9308859372541307,0.3771212482661009,0.8077309256136417
1776815077896737300,1.8107373046875,1.5528350069224834,0.5431032531052827,-0.26939094138741493
1776815077906775300,1.820775390625,2.0608638779066504,-0.14117138870954513,0.8874328233599662
1776815077916812300,1.830812255859375,2.5954315039873124,1.2568337065070867,0.7101958495348691
1776815077926849300,1.840849365234375,2.316703556064516,1.0632827267408371,0.43324177941679953
1776815077936887300,1.85088720703125,0.6437105762362479,2.2158540947407483,-0.9124842625081538
1776815077946924300,1.86092431640625,-0.30716157685518264,-0.369935136154294,-1.2512579522013663
1776815077956961300,1.870961181640625,-2.2777637306869027,-1.6675526884704828,-1.2977683589637279
1776815077966999300,1.880999267578125,-2.237051781070232,0.14061550839245318,-1.4030465965151786
1776815077977036300,1.891036376953125,-1.6352888337254523,1.4403601358652114,-0.14042495425641535
1776815077987073300,1.9010732421875,-1.5464321541428565,3.298423121231794,1.0623849011182784
1776815077997111300,1.911111328125,-0.5558790749829262,3.9837341203570364,1.9905442871421575
1776815078007148300,1.921148193359375,-0.7219160248797386,3.9730326936006546,1.5717308460503816
1776815078017185300,1.931185302734375,-1.021529159116745,3.2062440192282198,0.4742261162340641
1776815078027223300,1.941223388671875,-0.9903354908864944,3.1208798579365014,-0.6344757149010897
1776815078037260300,1.95126025390625,-0.10039755283780395,2.807065837454796,-1.2615244946718216
1776815078047297300,1.96129736328125,0.3527297343313694,1.2050035660266876,0.29382804802954193
1776815078057335000,1.9713349609375,1.1947802781760692,1.5018828183203934,0.8495634036928414
1776815078067372300,1.981372314453125,1.2979261798739432,1.655592201563716,0.8470388536512852
1776815078077409300,1.9914091796875,0.798079373236373,1.0366957485884427,0.29061376215815543
1776815078087447000,2.001447021484375,0.8313830924231559,0.8500801210433244,-0.21969839745759961
1776815078097484300,2.011484375,0.7866017014104872,1.4223814115822315,-0.4024228627830744
1776815078107521300,2.021521240234375,0.6355073960363865,2.1233061594247817,-1.2000702012777327
1776815078117559300,2.031559326171875,-0.21335750399827955,2.442348728209734,-1.3623948526531457
1776815078127596000,2.041595947265625,-0.5658253359904513,2.9661218424230813,-1.896992727741599
1776815078137633300,2.05163330078125,-0.5579717364132404,2.9513614956647154,-2.093707724496722
1776815078147671300,2.06167138671875,-0.2869663455665111,2.098267579758167,-2.846795205774903
1776815078157708300,2.071708251953125,1.391559572339058,5.001991125935316,-4.680672428911924
1776815078167745300,2.081745361328125,2.181934289482236,4.562118530201912,-6.699289548850059
1776815078177783300,2.091783203125,1.3502099093407391,2.6111843689143655,-6.122962071534991
1776815078187820300,2.1018203125,1.1257628560513258,0.924873203960061,-3.4705572189599274
1776815078197857000,2.11185693359375,-0.8632698574841022,-0.06830781255066394,0.022190789020061493
1776815078207895300,2.121895263671875,1.9201602528393267,0.9856699102282523,0.360574602612853
1776815078217932300,2.131932373046875,3.5750597959637638,0.05975041208565235,2.350734858873486
1776815078227969300,2.14196923828125,2.221116545313597,-1.5970494117021559,5.940938447955251
1776815078238007300,2.15200732421875,0.656059258743003,-3.324956907892227,8.345721707880497
1776815078248044300,2.162044189453125,-0.7443779589913785,-4.785487140604853,7.248839493876695
1776815078258081300,2.172081298828125,-2.9254022940218447,-7.425957809758186,6.962838778471946
1776815078268119300,2.182119384765625,-4.223699060773849,-8.26591108906269,6.049297700387239
1776815078278156300,2.19215625,-4.184220452344418,-7.233412792164087,5.864266711685061
1776815078288193300,2.202193359375,-1.4305740703880787,-4.198981968146563,4.082527964325249
1776815078298231300,2.212231201171875,-1.2500095595754683,-5.550281426289677,4.376105252464115
1776815078308268300,2.222268310546875,-1.5370413715936242,-5.99759790828824,4.4232229774698615
1776815078318305300,2.23230517578125,-1.3158571194924413,-5.306071103388071,3.2920746289879084
1776815078328343000,2.242343017578125,-0.9266836143828928,-3.9903894865930076,2.931571045784652
1776815078338380300,2.25238037109375,-0.5752034417212009,-3.3095173466980454,1.736648728789389
1776815078348417300,2.262417236328125,0.4888298111259937,-0.28180326371490955,0.4550847779124975
1776815078358455300,2.272455322265625,-0.10925875855498016,-1.0573246951192616,0.9565370469853282
1776815078368492300,2.2824921875,-0.44198038166761394,3.6837013724684713,-1.7591829244196413
1776815078378529300,2.292529296875,-1.3231331018447876,-0.5242588519036769,-1.2290043270781636
1776815078388567300,2.3025673828125,-3.282852627134323,-2.44030407063961,0.7048866372108459
1776815078398604000,2.31260400390625,0.29451248662974683,3.1718314620167014,-1.8276748613655567
1776815078408641300,2.322641357421875,1.2580758155226708,3.365580594703555,-3.029851387272775
1776815078418679300,2.33267919921875,1.4078040201753377,5.8174675511091944,-2.811268549841642
1776815078428716300,2.34271630859375,1.9332529586464164,3.5896190671920776,-2.2670590890601274
1776815078438753300,2.352753173828125,1.8540309533715247,0.5851233627110719,-1.8276655090153215
1776815078448791300,2.362791259765625,1.8981477429956197,0.1674199286878109,-1.9339856568351388
1776815078458828300,2.372828369140625,1.2506903814464807,7.920776632165908,-5.507672703140973
1776815078468865300,2.382865234375,1.9360697696328162,6.40607174167335,-2.773803327061236
1776815078478903300,2.3929033203125,0.5356446807276457,3.670011285290122,-0.3468435989022255
1776815078488940300,2.402940185546875,-0.9307955797463655,1.236136955437064,0.2962964839696884
1776815078498977300,2.412977294921875,-1.1654079801540822,2.417509470507502,0.029251813447475433
1776815078509015300,2.423015380859375,-0.25955453396253286,2.175550141403079,0.07813391777724027
1776815078519052300,2.43305224609375,-0.05783909857161343,1.6324819596111773,-0.05135697001069784
1776815078529089300,2.44308935546875,-0.2933482286233455,1.0477911430984734,-0.3773521344125271
1776815078539127300,2.453127197265625,1.00097919610627,-0.05532499685883522,-0.372566653701663
1776815078549164300,2.463164306640625,0.5859165589153766,-1.2287146964818239,-0.6577884936884045
1776815078559201300,2.473201171875,-2.3630197554290295,-1.2454349451363087,0.4071712263539433
1776815078569239000,2.483239013671875,0.7176508417159319,-2.519349550303817,2.180181892856955
1776815078579276300,2.4932763671875,-0.16012860263586043,-1.950831869956851,0.9885112711340188
1776815078589313300,2.503313232421875,-0.3185159145623445,-0.9278203633278608,0.21989099742025137
1776815078599351000,2.51335107421875,1.022498953996971,-0.7082756951272488,0.2675394683018327
1776815078609388300,2.52338818359375,1.6122726997971535,-2.0284990470051762,-0.6698334440082311
1776815078619425300,2.53342529296875,0.8648713743966072,-2.1411808388113975,-1.04586718929857
1776815078629463300,2.54346337890625,1.3936580059230326,-1.3498732247322798,-0.06905833865702152
1776815078639500000,2.5535,1.7493360686659811,1.2790923000663519,-0.38080782782435413
1776815078649537300,2.563537353515625,0.18377718924880027,1.3461328691601753,0.10445493846982717
1776815078659575300,2.5735751953125,0.5407336013644933,0.553781883507967,-0.08352817803621292
1776815078669612300,2.5836123046875,-0.9691483259510248,0.04488485138714313,-0.2950482374742627
1776815078679649300,2.593649169921875,-3.247825737416744,0.7469944251000881,0.3295306450515985
1776815078689687300,2.603687255859375,-3.1428572964668273,1.0698878240942955,1.6397408446982502
1776815078699724300,2.613724365234375,-0.6959866338532418,0.2162538099616766,1.954653181810677
1776815078709761000,2.623760986328125,0.7780612520802765,0.7035960128784179,1.3933379801884294
1776815078719803000,2.633802978515625,1.4718278717964888,0.7443366040676832,0.9411965622514485
1776815078729839900,2.64383984375,1.1978502602059393,0.2232294941931963,0.1066430961638689
1776815078739876900,2.653876953125,1.1800112366545945,-1.8109066819161175,-1.9959616360157728
1776815078749915000,2.663914794921875,0.3971592431664467,-1.7471756757616996,-3.2269486613437532
1776815078759952000,2.673951904296875,-0.48148646262586114,0.20999124243557452,-1.0648571364507078
1776815078769988900,2.68398876953125,0.061814943400025364,0.5836369235455989,0.673394059099257
1776815078780027000,2.69402685546875,0.8370248246371745,0.2809405094057321,0.930436683306098
1776815078790063900,2.70406396484375,1.3728648087412119,-0.40106384938955303,0.7038190079793334
1776815078800100900,2.714100830078125,2.828507269412279,-1.7382009266674519,-0.13649901298433542
1776815078810138600,2.724138671875,2.4991928974598645,-2.2779285658597943,-0.466960216884315
1776815078820176000,2.73417578125,2.387759644410014,-1.1524199768304824,-1.920045978809893
1776815078830212900,2.744212890625,-0.7076086825858802,-1.527324133569002,-2.332618479685485
1776815078840250600,2.754250732421875,-3.6861084336102006,-2.490131639125943,-1.9831009853988886
1776815078850287900,2.764287841796875,-2.4179227274835107,-3.286037686911225,-3.155796857538819
1776815078860324900,2.774324951171875,-0.5243944609820842,-2.3861615615636107,-3.5507355020463462
1776815078870363000,2.78436279296875,-1.3777929127931594,-1.1435691463768483,-3.411399512070417
1776815078880399600,2.794399658203125,-0.3164203305225819,-2.6975346186339855,-3.0834000221088527
1776815078890436900,2.804436767578125,1.0631618768401443,-3.816626910880208,-2.5594156032323836
1776815078900475000,2.814474853515625,0.8082518076825886,-3.537981818935275,-1.687524340136349
1776815078910511600,2.82451171875,0.8117337315142155,-2.994921235927939,-0.040375265008211134
1776815078920548600,2.834548583984375,0.9773750331569463,-3.6623540485352275,0.7648942389279604
1776815078930585900,2.8445859375,1.4491203654259441,-4.276441639924049,1.2493418894469737
1776815078940624000,2.854623779296875,0.5607242499917745,-5.743568786683678,2.0722221611365677
1776815078950660600,2.86466064453125,-1.6791145314484834,-6.472599100548028,1.5889648894459008
1776815078960697900,2.87469775390625,-1.4428233111083506,-6.144203012484311,0.27756957166790963
1776815078970735900,2.88473583984375,-0.6638795040398836,-1.4320423893749714,0.4979214645981788
1776815078980772600,2.894772705078125,-0.2974239536296576,1.8797130916386842,1.4747148254096507
1776815078990811000,2.904810791015625,2.0311060146331785,4.939101831302047,2.731630949503183
1776815079000848000,2.914847900390625,5.203025154933333,8.131719476237892,2.5841946551799775
1776815079010884900,2.924884765625,0.8606296451736241,10.993563782584667,4.075743126490712
1776815079020921600,2.934921630859375,-0.03778115686178207,11.413005000185965,4.163816839002073
1776815079030959900,2.9449599609375,-1.7841566221565006,9.75616075273454,2.791851901710033
1776815079040996900,2.954996826171875,-3.759883863916993,7.822830052676797,2.1380217902585863
1776815079051033900,2.965033935546875,-4.21539826541841,5.662585032433271,0.7667807833269238
1776815079061072000,2.97507177734375,-3.3664819274574516,2.735048648992181,-0.30158699159324165
1776815079071108900,2.98510888671875,-2.0581991887420417,2.137448082023859,-0.8106861221574246
1776815079081145900,2.995145751953125,-0.6179010121971369,0.9194324742108583,-0.9827515385635197
1776815079091183900,3.005183837890625,0.7894073334157466,0.03164601510763168,-1.1918237664580345
1776815079101220900,3.015220947265625,1.622009080913663,-1.3277934948712586,-1.4322973870493472
1776815079111257900,3.0252578125,2.0931956833213565,-1.0443225902050732,-1.0066079227082432
1776815079121295600,3.035295654296875,1.751391832152009,-1.5990712729185819,-0.8824405680306255
1776815079131332900,3.045332763671875,0.9392992041975259,-2.7806244052529334,0.15905001361891627
1776815079141369900,3.055369873046875,-0.22912549342922864,-1.3280980307757855,1.8532566079981625
1776815079151407600,3.06540771484375,-0.8502630763947964,-1.103669682186842,0.9118094319865107
1776815079161444900,3.07544482421875,-0.9435966091305017,1.2451304092317819,0.4769413665421307
1776815079171481900,3.08548193359375,-2.202116661289334,-0.5155535674005747,0.8970493774890899
1776815079181520000,3.095519775390625,-0.45825343454387035,0.46133916213214393,0.4808304829351604
1776815079191556600,3.105556640625,0.2823006553104147,0.20917115822434423,0.2617312204144895
1776815079201593900,3.11559375,-0.6185229434877634,-0.5352390956014395,-0.42825653835013505
1776815079211631900,3.1256318359375,1.5983610788226126,0.2220873384207487,-0.3308220000363886
1776815079221668600,3.135668701171875,0.7715607110798358,-0.41044951737225055,-0.08856456476822495
1776815079231705900,3.145705810546875,0.4597042909393087,-0.3192272777020931,-0.47802989243119953
1776815079241744000,3.155743896484375,0.26033494375050065,-0.3808206873059273,-0.3268713627144694
1776815079251780900,3.16578076171875,0.007736768264509737,-0.17426292645037172,-0.24055530752539633
1776815079261817600,3.175817626953125,-0.16373097450938076,0.017800445106625557,-0.09797843593209982
1776815079271855900,3.18585595703125,-0.13158581424057483,0.1970955205053091,0.0072113926835358135
1776815079281892900,3.195892822265625,-0.21155078336987643,0.35105683268308635,-0.11090689108818769
1776815079291929600,3.2059296875,-0.4408025700598955,0.4002057712554931,-0.44563744287043805
1776815079301968000,3.2159677734375,-0.05612290577087551,-0.5234527962177992,-0.7558059464566409
1776815079312004900,3.2260048828125,0.49687747197058046,-1.5132278036773203,-0.6616789252556861
1776815079322041900,3.236041748046875,0.5314601981172338,-1.7279904982984065,-0.09537731352299451
1776815079332079900,3.246079833984375,1.0826146191984414,-2.6426485977143046,0.07976619515419006
1776815079342116900,3.256116943359375,0.4758113761315122,1.2986381275355816,0.2898522762663662
1776815079352153900,3.26615380859375,-0.12420914799273014,1.7035960617542265,0.028829934773594138
1776815079362192000,3.27619189453125,-0.3496604098886251,0.38647944371998305,0.5095125336706638
1776815079372228900,3.286228759765625,-1.156425120818615,-3.48377442792952,0.7621760660104453
1776815079382265900,3.296265869140625,-0.8529846103131771,-5.005684719756245,-0.5428925329640507
1776815079392303600,3.3063037109375,-0.8338760052174329,-4.7557034122377635,-1.008152229540795
1776815079402340900,3.3163408203125,-0.8933551991462707,-4.872153032144904,-0.6479083201870321
1776815079412377900,3.3263779296875,1.1540367643773555,-4.00523049737215,-0.584917172614485
1776815079422415600,3.33641552734375,1.1754290964961052,-4.620061600604653,-0.0545195256948471
1776815079432452600,3.34645263671875,0.7387234403610229,-6.130694711613654,0.33078152189552784
1776815079442489900,3.35648974609375,0.7797837650239468,-6.729550831601023,0.16727204464972018
1776815079452527900,3.36652783203125,0.5154448463290929,-5.198523167338967,-0.30314342725500465
1776815079462564600,3.376564697265625,0.05000058696568012,-3.646016077196598,-0.6784104259565472
1776815079472601900,3.386601806640625,-0.21200725843310356,-3.0459727932512757,-1.2036122577987611
1776815079482640000,3.396639892578125,-0.1344452953249216,-2.9185768319159746,-1.461492501873523
1776815079492676600,3.406676513671875,0.12854805397987365,0.6555202564954757,-1.2241361365199088
1776815079502713600,3.416713623046875,0.8330512448310852,0.9557172550350427,-0.7135342001773417
1776815079512751900,3.426751953125,-0.08699324206458404,4.290324619325995,-0.08871288719773292
1776815079522788900,3.436788818359375,1.217670155376196,6.7817661720067255,0.2941990732990205
1776815079532825600,3.44682568359375,0.9597346739828586,9.372019981095194,0.74786499738954
1776815079542864000,3.45686376953125,-1.4948819996476173,9.210638748049735,0.22524156466796993
1776815079552900900,3.46690087890625,-1.6917127317368983,9.855805952835082,0.14848098107054827
1776815079562937900,3.476937744140625,-0.137404802717641,7.50780490283966,0.9037868690505624
1776815079572975900,3.486975830078125,0.4431681301474571,-1.493465118587017,1.808091624495387
1776815079583012900,3.497012939453125,-0.43984694983549416,-9.207927735525368,0.7320694623645395
1776815079593049900,3.5070498046875,0.2553833857577294,-4.000146325975656,-1.480365398517251
1776815079603088000,3.517087890625,0.6349764309648424,2.4087100779801607,-1.1888792374387382
1776815079613124900,3.527124755859375,-0.6374864410243928,0.8478378950744867,0.19177732115723192
1776815079623161900,3.537161865234375,-2.3977074763201176,0.7887970925629139,0.637686493641138
1776815079633199600,3.54719970703125,-0.19043956974744797,6.04784048731625,2.764593600167334
1776815079643236900,3.55723681640625,2.3923488718964157,4.703475796872377,3.875795723685622
1776815079653273900,3.56727392578125,1.024478802702576,1.6683026300549506,2.458741060084104
1776815079663311600,3.5773115234375,-1.018569140267372,2.299859827160835,1.2785466488823294
1776815079673348900,3.587348876953125,-1.3101682602010667,2.5967320651918646,0.3906186624165624
1776815079683385900,3.5973857421875,-0.6283705298937857,1.6182535277724266,-0.6094899248676374
1776815079693423900,3.607423828125,-0.05256839162707329,0.12883505422770977,-1.9802230918750166
1776815079703460600,3.617460693359375,0.5453684215582907,0.5724602804929018,-2.6519401576727626
1776815079713497900,3.627497802734375,0.9778758953511715,0.14445932433903216,-2.0391765083640814
1776815079723532000,3.637531982421875,0.16720964693799614,0.6832692641645669,-0.8316082064159214
1776815079733569000,3.647569091796875,0.031026568035036322,0.671426266157627,-0.7466320215284824
1776815079743605800,3.657605712890625,0.36245837053284047,-0.22607611579596995,-1.1329754908438772
1776815079753642800,3.667642822265625,0.46992067412510513,-0.13138006253540516,-0.8024533505368977
1776815079763681000,3.677680908203125,0.3936206937767565,-0.028518238475918768,-0.4472340278794989
1776815079773717800,3.6877177734375,0.0835726016998291,0.395759897762537,-0.23751327294837682
1776815079783754800,3.697754638671875,-0.020413842475414275,1.0177788666725158,-0.1909725441129878
1776815079793793000,3.70779296875,0.09382511564493179,1.409092306420207,-0.17079389863293618
1776815079803830000,3.717830078125,0.3013454379223287,1.8150111946254968,-0.2079481009691022
1776815079813866800,3.72786669921875,0.1985456462483853,2.465159110432863,-0.13329660021383313
1776815079823905000,3.737905029296875,-0.11237316424846648,2.40928933917284,-0.11076337269796058
1776815079833942000,3.74794189453125,-1.0375077225584537,1.4489415017277,-0.2094037248712033
1776815079843979000,3.75797900390625,-1.9026877245128153,-0.3778852183759212,-0.39585601508077234
1776815079854016800,3.768016845703125,-1.4976023645222185,-2.016746065369248,-0.7680091560781002
1776815079864054000,3.778053955078125,-0.3449416377384215,-2.634289350169897,-0.5003137665621936
1776815079874091000,3.788091064453125,0.36246567705646154,-2.059478122636676,0.296668568685092
1776815079884128800,3.798128662109375,0.6856664614994078,-1.4172569081753492,0.8755700246740132
1776815079894166000,3.808166015625,0.9045851067561655,-1.2080009942770003,1.4145841818347573
1776815079904203000,3.818203125,0.7256358491204679,-0.740054981225729,1.4818264109805226
1776815079914240800,3.82824072265625,0.33009580465368926,-0.010673954227566718,1.1096008258014918
1776815079924277800,3.83827783203125,-0.0899603299755603,-0.12386428007781505,0.8598707896303385
1776815079934315000,3.84831494140625,-0.2352502599198371,-0.38707331795990463,0.4479433086600154
1776815079944352800,3.858352783203125,-0.32209494209289546,0.10339140089154243,0.17076984190391375
1776815079954389800,3.8683896484375,-0.6567536707479507,0.22086393410563468,-0.0736093712911941
1776815079964427000,3.878427001953125,-0.14879947243519126,-0.1808481500595808,0.04149970246087759
1776815079974464800,3.88846484375,-0.09588738193698226,-0.4419517400950193,0.3020698980056681
1776815079984501800,3.898501708984375,-0.1112391187172383,-0.2826321157544851,0.4873465502982959
1776815079994538800,3.908538818359375,-0.0021205723505467173,0.17042904737591744,0.5083672360930591
1776815080004577000,3.918576904296875,0.17993461541123687,0.03670855919420719,0.402192268897593
1776815080014613800,3.92861376953125,0.29953955754414197,-0.3991232367157936,0.41042072966918347
1776815080024650800,3.938650634765625,0.41370362379737197,-0.5639326906442642,0.448138612036407
1776815080034689000,3.94868896484375,0.3486498446065932,-0.5185498266071081,0.4045665968134999
1776815080044726000,3.95872607421875,0.27547238019295034,-0.37938334797918793,0.25245136916013433
1776815080054762800,3.9687626953125,0.06882862155437469,-0.09970949750840663,0.17467601902959867
1776815080064801000,3.978801025390625,-0.11610950123257935,0.24817981105446815,0.11800587290581314
1776815080074838000,3.988838134765625,-0.23567228472419083,0.2905687539726496,0.04918643930489197
1776815080084873000,3.998873046875,-0.4372808256745338,0.27605332188606263,0.11512951375190168
1776815080094911000,4.008910888671875,-0.4361445881862193,0.3650602235943079,0.19232668040199205
1776815080104947700,4.01894775390625,-0.42150348389334974,0.20141046109497546,0.2785285894257948
1776815080114985000,4.02898486328125,-0.2228291697639972,0.07723989154696465,0.2632804408841766
1776815080125023000,4.03902294921875,-0.13829437196850775,0.1757277383059263,0.2250566548214294
1776815080135059700,4.049059814453125,-0.11233575484752654,0.21371172426342963,0.08108052915576845
1776815080145096700,4.0590966796875,-0.15163557264395058,0.29681203227639197,-0.09559473739964887
1776815080155135000,4.069135009765625,-0.23629881912469863,0.20015140094459055,-0.11273218855289742
1776815080165172000,4.079171875,-0.18743162010312078,-0.027050504010915754,-0.09190892502637579
1776815080175208700,4.089208740234375,-0.18728198249936104,0.006082534784078598,0.00869500057110563
1776815080185247000,4.0992470703125,-0.14325813185572622,0.07454758372306823,0.16509009750075637
1776815080195284000,4.109283935546875,-0.09375731110572814,0.0638654461890459,0.25136158289574084
1776815080205321000,4.119321044921875,-0.1059106171708554,0.07708908489942551,0.27859993762895463
1776815080215359000,4.12935888671875,-0.10311554309222846,0.10894961954057215,0.29007665960676965
1776815080225396000,4.13939599609375,-0.09254972541425377,0.18596622372567653,0.22592907200809567
1776815080235433000,4.149432861328125,-0.24718020555786788,0.2488052494764328,0.20513821291383355
1776815080245470700,4.159470703125,-0.13552845091912893,0.18283201735317706,0.08576492411233484
1776815080255508000,4.169508056640625,-0.18335399540066719,0.20639117211699484,0.008466251582838594
1776815080265545000,4.179544921875,-0.29520108994841576,0.23384791884124279,-0.013264591775275766
1776815080275582700,4.189582763671875,-0.2948375538656488,0.3017085721462965,-0.09373630485031753
1776815080285620000,4.199619873046875,-0.3549684166362509,0.38005379458665844,-0.19708525483962147
1776815080295657000,4.209656982421875,-0.3884031052589416,0.4895388361781835,-0.31227208826933056
1776815080305694700,4.21969482421875,-0.37483397757913917,0.6024947687506675,-0.42348570721913126
1776815080315731700,4.229731689453125,-0.32538696937561035,0.7701274634063243,-0.5104512758255004
1776815080325769000,4.23976904296875,-0.2904594483792782,0.9129016111373901,-0.6282913271777332
1776815080335806700,4.249806640625,-0.4031085069596767,0.9236001152843236,-0.7745534631550312
1776815080345843700,4.25984375,-0.6211725812137127,0.8142986135661602,-0.9152335612162947
1776815080355881000,4.269880859375,-0.7900210813999176,0.6783014126241207,-1.079044797887653
1776815080365919000,4.2799189453125,-0.7513911987543106,0.5652829362094401,-1.1992276129737496
1776815080375955700,4.289955810546875,-0.6432756919503212,0.6981114439874887,-1.232109453486651
1776815080385992700,4.29999267578125,-0.6885363909125327,1.0579606549352407,-1.1569717949159444
1776815080396031000,4.310031005859375,-0.7850192545246333,1.3318974230587481,-1.0293363257363437
1776815080406068000,4.32006787109375,-0.9137363083958625,1.1479448772430418,-0.9694642600324004
1776815080416104700,4.330104736328125,-1.392915078601241,0.8403267887920141,-0.7158711917575449
1776815080426143000,4.34014306640625,-1.7172428943127394,0.6268646553754806,-0.3158831549059599
1776815080436180000,4.350179931640625,-1.4265443764805792,0.14167583110034465,-0.08676420081537216
1776815080446216700,4.360216796875,-0.5384036240469664,-0.5143319166511297,0.05836162460837513
1776815080456255000,4.3702548828125,0.381168550895527,-1.2943313702523707,-0.10629249262791127
1776815080466292000,4.3802919921875,0.9215052618969232,-1.8884142844885587,-0.3323471637770533
1776815080476329000,4.390328857421875,1.1350912408888338,-2.117348712325096,-0.6629311172738671
1776815080486367000,4.400366943359375,0.7313625562041998,-1.7957167115688324,-1.1416347442481667
1776815080496404000,4.410404052734375,0.49182943133339285,-1.4745792163312434,-1.2784697842538355
1776815080506441000,4.42044091796875,1.12303196978271,-1.6293541829794644,-0.609396584028378
1776815080516478700,4.430478759765625,1.800532149026543,-1.9844313572198151,0.4822712197953835
1776815080526516000,4.440515869140625,2.0608903275221584,-2.1386381685912608,1.2884111864231527
1776815080536553000,4.450552978515625,2.1247363383583724,-1.8964508759498595,1.7425051997326313
1776815080546590700,4.4605908203125,1.98888439110592,-1.359337803170085,1.593341789355874
1776815080556628000,4.4706279296875,1.8390940810024736,-0.8175228363096714,0.9150677031300961
1776815080566665000,4.4806650390625,1.575914123084396,-0.9171393948376179,0.1264312444889918
1776815080576702700,4.49070263671875,1.2592565497398376,-1.591825539574027,-0.6877094385690987
1776815080586739700,4.50073974609375,1.0404572930790483,-2.0699445715934037,-1.204294979365915
1776815080596777000,4.51077685546875,0.4977355866372585,-2.11364810424149,-1.5608483636386692
1776815080606815000,4.52081494140625,-0.2800752708785236,-1.365234459993243,-1.7993280339337885
1776815080616851700,4.530851806640625,-0.8098679376423359,-0.24833704744279383,-1.516732889188826
1776815080626889000,4.540888916015625,-0.808571468091011,0.740625474590063,-0.9473775889739393
1776815080636927000,4.550927001953125,-0.7326989193744957,1.5861270356714725,-0.641392727747932
1776815080646963700,4.560963623046875,-0.8445593117952346,1.785360737249255,-0.29299251052085307
1776815080657000700,4.571000732421875,-0.6439503763414919,1.4629261879384516,-0.19196382017266003
1776815080667039000,4.5810390625,-0.18914543828368185,1.2298100905030964,-0.3857584359690547
1776815080677076000,4.591075927734375,-0.15638291330151258,1.486331613445282,-0.7058047749690711
1776815080687112700,4.60111279296875,-0.6495487078052014,2.036724439036846,-1.0695470478326081
1776815080697151000,4.61115087890625,-1.4062849939145148,2.8225404699623584,-1.2771524180449545
1776815080707188000,4.62118798828125,-2.193847430115938,3.216223561450839,-1.2143716983526944
1776815080717225700,4.631225830078125,-2.7987463373988866,2.3495950411885977,-0.7847576079137623
1776815080727263000,4.641262939453125,-2.457623454231024,0.704772655442357,-0.050868455841392275
1776815080737300000,4.651300048828125,-0.7267476097546517,-0.9168775290310383,0.13139398146290332
1776815080747338000,4.661337890625,0.5683356017783284,-2.154035644209385,-0.01770600828882307
1776815080757375000,4.671375,1.5263333689659833,-2.943428949099779,0.04626571128629148
1776815080767412000,4.681411865234375,2.390930091139674,-3.5241947011232373,-0.5737770256472751
1776815080777450000,4.691449951171875,1.9765490795373915,-3.9834056190550324,-1.5637852938733994
1776815080787487000,4.701487060546875,1.4379627193346618,-3.5118852546483277,-1.5397142440646885
1776815080797524000,4.71152392578125,0.7583142760157585,-3.911920930033922,-1.3361916131213307
1776815080807562200,4.721562255859375,1.25373164883852,-3.494045646575093,0.4282999756330624
1776815080817599000,4.731598876953125,2.584452721594274,-3.228591460114717,1.539063525070995
1776815080827636000,4.741635986328125,2.593245392119884,-2.8188176500469444,1.5188054576791823
1776815080837674000,4.751674072265625,1.3882868342787027,-2.2917875798642635,0.9434377653069793
1776815080847711000,4.7617109375,0.8118266704946756,-1.8839093742847441,0.2543798712709918
1776815080857748000,4.771748046875,1.700926550284028,-1.3287562024235724,0.3994789913509041
1776815080867786000,4.781785888671875,2.577542796075344,-0.35816403433978555,0.5826833126151933
1776815080877823200,4.7918232421875,3.224543061506748,0.41284839520752425,1.6119886221587656
1776815080887860000,4.80185986328125,4.550319371336698,0.8698042276889085,3.0360332907781005
1776815080897898000,4.81189794921875,4.135339517058432,1.4971616350173949,3.2414073948070405
1776815080907935000,4.82193505859375,2.4319226112633943,1.8309680576920508,2.2094557720057666
1776815080917972000,4.831971923828125,1.3135001811027527,2.1654612935870885,2.044328922691196
1776815080928010000,4.842010009765625,1.333244161492586,1.9520581968814132,1.5575845395371317
1776815080938047000,4.852046875,1.254742287185788,1.5623223817139864,0.32360826926529407
1776815080948084200,4.862084228515625,0.6504881075471639,0.8903513411551713,-0.8815392352767288
1776815080958122000,4.8721220703125,0.6446779599636793,-0.04362228410542011,-1.2068581078521907
1776815080968159000,4.882158935546875,1.8722446554541587,-0.7688958757847547,-0.6434761098932474
1776815080978196000,4.892196044921875,2.209357133936882,-1.4447405429065228,-0.7432236743897199
1776815080988234000,4.90223388671875,2.0507050335943697,-1.386827867642045,-1.360559161658585
1776815080998271000,4.91227099609375,1.3193079905986784,-0.9977771121293306,-1.8727169491410254
1776815081008308000,4.922307861328125,0.8675427124977111,-0.9942395856529473,-1.6292220810323952
1776815081018346000,4.932345947265625,0.7295809334844351,-0.5166939696073531,-0.8298967993881553
1776815081028383000,4.942383056640625,0.11619476836323737,-0.36714345960915085,-0.4726465919576585
1776815081038420000,4.952419921875,-0.7028577617317437,0.009524199670553207,0.1091706418801099
1776815081048458000,4.9624580078125,-0.17400982847213745,0.010926467683911322,1.2382879959911108
1776815081058495000,4.972494873046875,0.9729285020768642,-0.3867471547454595,1.6163178835347294
1776815081068532000,4.982531982421875,1.4149275884449481,0.3779249658644199,2.4259675022512672
1776815081078570000,4.992570068359375,0.5978472352057695,-0.650019905513525,0.745772701285407
1776815081088607000,5.00260693359375,0.43508945311009883,-0.8517968618333339,1.102018261718005
1776815081098644000,5.01264404296875,0.8215665587425232,-2.092418853729963,0.6768558169256895
1776815081108682000,5.022681884765625,1.5439853455126284,-2.068230168890953,0.6627908320203423
1776815081118719000,5.032718994140625,1.5125240393221377,-2.33407364692986,0.1108421552889049
1776815081128756000,5.042755859375,1.1503063456773757,-2.4241169059485195,-0.5311889434278011
1776815081138794000,5.0527939453125,0.17702303881347178,-2.3244307893157004,-0.41528190596476194
1776815081148831000,5.0628310546875,0.15800269652307034,-2.0762787430509926,-0.3430728481918573
1776815081158868000,5.072867919921875,-0.07920739222764968,-0.9340908218994736,0.3064589084785431
1776815081168906000,5.082906005859375,0.2515840665400028,-1.0036652933850885,0.13171433599106966
1776815081178943000,5.09294287109375,0.35884091068804264,-1.1058335822224616,0.14863924037218093
1776815081188980200,5.102980224609375,0.5685328779160976,-1.5113564568474889,-0.21268683819510042
1776815081199018000,5.11301806640625,1.4025281255990265,-2.6836343958362936,-0.04743775074034929
1776815081209055000,5.123054931640625,0.7952677498817443,-1.646934263333678,-0.4688553099159151
1776815081219092000,5.133092041015625,-0.7019745491564273,-1.4757763171613216,-0.7374332544200122
1776815081229130000,5.1431298828125,-1.629599682173133,-1.4012524065747856,-0.5176483477227389
1776815081239167000,5.1531669921875,-1.915198831039667,-0.5813032199010253,0.34613333174102007
1776815081249204000,5.163203857421875,-1.244559331345558,-0.6515425850361585,1.1101621129460633
1776815081259242000,5.173241943359375,-0.19123218142986295,-0.994283132533729,1.3355097683370112
1776815081269279000,5.183279052734375,0.34927579448521134,-0.7206333646580576,0.6796718972597271
1776815081279316000,5.19331591796875,0.012432780593633652,-0.3603542378604412,-0.012665712566673756
1776815081289354000,5.20335400390625,-1.123960775065422,-0.46861324478834865,-0.012949132617935538
1776815081299391000,5.213390869140625,-1.0054840332448483,-0.1494593245834112,-0.6477868857644498
1776815081309428000,5.223427978515625,-2.1159680716216562,0.3691790570899844,-0.2564148476973176
1776815081319466200,5.23346630859375,-2.714751126372814,0.5470535981662571,0.10501936741955578
1776815081329503000,5.2435029296875,-2.90937178119719,0.1924197837792337,0.8864085218135267
1776815081339540000,5.2535400390625,-1.4514227971494198,0.7183130319517106,1.179326907652244
1776815081349578000,5.263577880859375,-0.10232698653042316,0.9904450887408107,0.9714346102572977
1776815081359615000,5.273614990234375,-1.0972376033127307,-0.09142631087489425,0.8032322990201413
1776815081369652000,5.28365185546875,-1.9282102883040904,0.2831915032029152,0.34319859346337617
1776815081379690000,5.29368994140625,-2.1077491093307734,0.05981332125402987,0.3616160014245659
1776815081389727200,5.303727294921875,-2.485536712551117,0.12971443087812512,-0.2542109079122543
1776815081399764000,5.313763916015625,-2.8688462940633297,0.07188494038507343,0.347951414013654
1776815081409802000,5.323802001953125,-2.9403111093401906,0.5349324773376807,0.8282366841562092
1776815081419839000,5.3338388671875,-3.723424895569682,1.0994529412746428,0.5406829671557992
1776815081429876000,5.3438759765625,-2.3707763609051704,1.9017393377467988,-0.7885557580877095
1776815081439914000,5.3539140625,-1.8464426901996134,1.7048146437637506,-1.314228495377302
1776815081449951000,5.363950927734375,-2.94620601259768,0.8337580779261886,-1.0317735628206282
1776815081459988200,5.37398828125,-3.201524004969001,0.5403704671405255,-0.0680178896933794
1776815081470026000,5.38402587890625,-2.663400293841958,0.14232337175626306,0.535400788969174
1776815081480063000,5.39406298828125,-3.178328422820568,-0.002141158480849117,0.9954915584754198
1776815081490100000,5.404099853515625,-3.1603374235779045,0.46720991732906547,1.0266561467416584
1776815081500138000,5.414137939453125,-3.1150363926053046,0.7838854281891137,0.7100760956127196
1776815081510175000,5.424175048828125,-2.901986347121,0.7897250210627913,-0.31223427700959144
1776815081520212000,5.4342119140625,-2.418396774736047,0.8039927619986236,-0.9456558797478676
1776815081530250000,5.44425,-2.372563244321942,0.7247696607451886,-0.5676468888618051
1776815081540287000,5.454286865234375,-2.696128843489289,1.162691195476055,-0.2179173592597246
1776815081550324000,5.464323974609375,-2.673482127395272,1.2365236166670919,-0.2542532857492566
1776815081560362000,5.474362060546875,-2.6132845560640097,1.1375022475533187,-0.35206864007413385
1776815081570399000,5.48439892578125,-2.197926223862171,0.8858265572071075,-0.6705474374964833
1776815081580437000,5.49443701171875,-1.8052683837682009,0.645504766176641,-0.6086519031409174
1776815081590474000,5.504473876953125,-1.6973416775345802,0.3866073809485882,-0.24217684431262312
1776815081600511000,5.514510986328125,-1.7280255696117877,0.19091891422960905,0.1009960301876068
1776815081610549000,5.524549072265625,-1.9345517662853002,0.1325968544466421,0.3926875045798719
1776815081620586000,5.5345859375,-1.8473785097450017,0.06313607246857136,0.37467312446162104
1776815081630623000,5.544623046875,-1.6798808396458624,0.2032645279964432,-0.10053170061148703
1776815081640661000,5.554660888671875,-1.8163707925409078,0.5507314098961651,-0.1830259324900806
1776815081650698000,5.564697998046875,-1.7633756999343633,0.530835746075958,-0.11228979681394993
1776815081660735000,5.57473486328125,-1.7118717226684093,0.42459545855931935,-0.06633753539100289
1776815081670773000,5.58477294921875,-2.2708996901363134,0.538948982970044,0.20215382680818436
1776815081680810000,5.59481005859375,-1.676257972973585,0.3141408412832767,-0.21738442142680287
1776815081690847000,5.604846923828125,-1.3201181379377842,0.5807438324525952,-0.49054479835033415
1776815081700885000,5.614885009765625,-1.578992361485958,0.7466087867833674,-0.20022227422371505
1776815081710922000,5.624921875,-1.6308581578016281,0.28291106056002896,0.09736176533848047
1776815081720959000,5.634958984375,-1.3644243126541375,0.26786259930897505,0.17174451388865708
1776815081730996700,5.644996826171875,-2.003115014901757,0.38481728266142307,0.1467030116125941
1776815081741033700,5.65503369140625,-1.3036071481198073,-0.24493982448624446,-0.1885220456883311
1776815081751070700,5.66507080078125,-1.3957809894263744,-0.19001255824072286,0.29257527148947116
1776815081761108700,5.675108642578125,-1.473517140057683,-0.10262604254223406,0.5221154101341963
1776815081771145700,5.685145751953125,-0.9375234266966581,-0.3899251271944493,0.5413699995718896
1776815081781182700,5.6951826171875,-1.1965034487068653,-0.31575488888379183,0.16638941659629344
1776815081791220700,5.705220703125,-0.7752788548201323,-0.21407496808525173,-0.2495870475038886
1776815081801257700,5.7152578125,-0.6072212127506733,-0.14835691629946232,-0.3400355263225734
1776815081811294700,5.725294677734375,-0.7210872459053993,-0.44702137150950727,-0.09085895931571722
1776815081821332700,5.735332763671875,-0.23698270973563193,-0.6881004106480628,0.02360299390554428
1776815081831369700,5.74536962890625,-0.5333101733654737,-1.0902782126288861,0.47689862337894734
1776815081841406700,5.75540673828125,-0.7954600575834512,-1.1645667070243506,1.0182047639343887
1776815081851444700,5.76544482421875,-0.1588748031824827,-1.3685875698134302,1.0865960169848055
1776815081861481700,5.775481689453125,-0.22882629128694532,-1.0856941727742553,0.9364103508882224
1776815081871519000,5.78551904296875,-0.3744178345263004,-0.8214994848556816,0.2030173848349601
1776815081881556700,5.795556640625,-0.3984183033168316,-0.7574323786146938,-0.05717603155300021
1776815081891593700,5.80559375,-0.4633142615973949,-0.7227484571158885,-0.017538579300045966
1776815081901630700,5.815630615234375,-0.46269992909133434,-0.7089151620745658,0.17335384878143667
1776815081911668700,5.825668701171875,-0.09295885420441627,-1.0448971752226353,0.5655208366185427
1776815081921705700,5.835705810546875,-0.5321814615964889,-0.9775516318328678,0.7434909470237792
1776815081931742700,5.84574267578125,-0.10042612134516239,-1.0780326982356607,0.17163089744634924
1776815081941780700,5.85578076171875,-0.21134557965397832,-1.103262124299258,0.04771167231090367
1776815081951817700,5.865817626953125,0.04188508504927158,-1.0575213867351412,0.1960181005321443
1776815081961854700,5.875854736328125,0.15320903250575066,-1.0993415898546577,0.33647505736202
1776815081971892700,5.885892822265625,0.1183241816073656,-0.8303399400457739,0.4467848593398928
1776815081981929700,5.8959296875,0.25604396855831146,-1.1388786504730581,0.046779579092562196
1776815081991966700,5.905966796875,-0.19516426018178462,-1.287199034154415,0.19380510065779089
1776815082002004700,5.916004638671875,0.4053407960563898,-1.2232339269831776,0.2801263434786349
1776815082012041700,5.926041748046875,0.06846387989521026,-1.2089628250464797,0.21679558868817983
1776815082022079700,5.936079833984375,0.13527531640827656,-1.049250401996076,0.16222520958893
1776815082032116700,5.94611669921875,0.18000000879764555,-0.6805199654564261,-0.1364793584357947
1776815082042153700,5.95615380859375,0.17440554979145526,-0.6756678492501378,-0.1574841525416821
1776815082052191700,5.966191650390625,0.5956400805503129,-0.5746726958453655,-0.3024856209333986
1776815082062228700,5.976228759765625,1.2043547467291353,-0.7270306644797325,-0.5531339409932494
1776815082072266000,5.986265869140625,0.4130173220336437,-1.1440019848361611,-0.5779364468816668
1776815082082303700,5.9963037109375,-0.1971820297449827,-1.075951946438849,-0.05747391852103173
1776815082092340700,6.0063408203125,-0.2105108823955059,-1.10111824413836,0.4190700462013483
1776815082102377700,6.016377685546875,-0.5972761573195458,-1.1149942092776297,0.6151082396734505
1776815082112415700,6.026415771484375,-0.14744330858588217,-1.026226961544156,0.5713078955873847
1776815082122452700,6.03645263671875,-0.15313421370387076,-1.161742224188149,0.39386049388200045
1776815082132489700,6.04648974609375,-0.2743500250995159,-1.2075009358003734,0.10521942003630101
1776815082142527700,6.05652783203125,-0.11406944677233695,-1.243722003738582,-0.2836930960495025
1776815082152564700,6.066564697265625,-0.23452830232083796,-1.3079501457601785,-0.16174707068316638
1776815082162601700,6.076601806640625,0.02437806993126869,-1.154623039832711,0.2496964992277324
1776815082172639700,6.0866396484375,0.42641807087659833,-0.8338859420895576,0.2585023214958608
1776815082182676700,6.0966767578125,0.5005278477042913,-0.6999801604688167,0.36697175630405543
1776815082192713700,6.106713623046875,0.23486849406063556,-0.6913052711039781,0.32689401293769477
1776815082202751700,6.116751708984375,-0.36387715128958226,-0.5809802715569734,-0.1095750579625368
1776815082212788700,6.126788818359375,-0.6056722297430038,-0.6872235547482967,-0.2583570678062737
1776815082222825700,6.13682568359375,-0.49889761615395545,-0.8192547746688127,0.021026713676750658
1776815082232863700,6.14686376953125,-0.6305594182401895,-0.6673427962362766,0.27444968608170744
1776815082242900700,6.156900634765625,-0.2723053675293922,-0.44331016896665093,0.5587193399101495
1776815082252937700,6.166937744140625,0.6440156966626643,-0.3703805418342352,0.8641447406224906
1776815082262975700,6.176975830078125,0.9465992980778217,-0.19447043269872663,0.8491947165109217
1776815082273012700,6.1870126953125,0.48175242008566854,-0.09116437200307846,0.41664150388017296
1776815082283050800,6.19705078125,-0.0380716642409563,-0.30446342381238933,0.04526647111587226
1776815082293087700,6.207087646484375,0.036702129453420634,-0.45399289102256296,-0.20073373087719082
1776815082303124700,6.217124755859375,0.19207798460423944,-0.40777240711748597,-0.4296055418062955
1776815082313162800,6.227162841796875,0.23518238231539726,-0.32792145628929137,-0.5411280075095594
1776815082323199700,6.23719970703125,0.30381109738349915,-0.007134089663624763,-0.49221178171448404
1776815082333236700,6.24723681640625,0.20372692134380338,0.2297036586433649,-0.4519126506824046
1776815082343274800,6.257274658203125,0.1863730509608984,0.45980888382494445,-0.2836687653258443
1776815082353311700,6.267311767578125,0.2159317384004593,0.5444207654446364,-0.0668351096495986
1776815082363348700,6.2773486328125,0.40130174979865546,0.5199485874891281,0.11732464917600154
1776815082373386800,6.28738671875,0.5791770215272903,0.4736334110379219,0.1807327800516039
1776815082383423700,6.297423828125,0.567526915743947,0.37706104251146316,0.05235423741973936
1776815082393460700,6.307460693359375,0.11977321137189864,0.27214345496594905,-0.11513627228625119
1776815082403498800,6.317498779296875,-0.11139525912702083,0.2235913132429123,-0.26922435264885425
1776815082413535700,6.32753564453125,0.142919109159708,0.2845581153810024,-0.41417767104990777
1776815082423572700,6.33757275390625,0.2857476174265146,0.2831996865093708,-0.3393534623425454
1776815082433610800,6.34761083984375,0.548117866396904,0.2918091094225645,0.022671119882911442
1776815082443647700,6.357647705078125,0.7537450684040784,0.2210673477232456,0.16992160931043326
1776815082453684700,6.367684814453125,0.8849357458472251,0.11520634184777737,0.10296484604254365
1776815082463722800,6.37772265625,0.944748701775074,-0.03523030333518982,-0.14986216976325958
1776815082473759700,6.387759765625,0.5251484942197799,-0.23405016341507434,-0.2538853292196989
1776815082483796700,6.397796630859375,0.28574703290462494,-0.10741466505825518,-0.1631899995004758
1776815082493834800,6.407834716796875,0.6543845304638147,0.0295668707460165,0.14884188680481164
1776815082503871700,6.417871826171875,1.1996098902896046,0.0550076014727354,0.5092407309919595
1776815082513908700,6.42790869140625,1.0810112756550312,0.1022597665131092,0.5762205828744917
1776815082523946800,6.43794677734375,1.0259797087848186,-0.055093526190519326,0.4865398004926741
1776815082533983700,6.447983642578125,1.1242103659123182,-0.007892214554548263,0.42823052712604404
1776815082544020700,6.458020751953125,1.643301459789276,-0.13053133675158024,0.3592227861450985
1776815082554058800,6.468058837890625,1.6156044745683669,-0.09752163207530974,0.41864582943990825
1776815082564095700,6.478095703125,1.2221709739267825,-0.5516185679942369,0.332399734214507
1776815082574133800,6.4881337890625,1.1787903896227478,-0.6558148555278778,0.007338562727160752
1776815082584170800,6.498170654296875,1.4046221752688288,-0.6416407842248678,-0.10886956744114867
1776815082594207700,6.508207763671875,1.4409312137514352,-0.6255225931167602,-0.05632221860210411
1776815082604245800,6.518245849609375,1.373832484729588,-1.0525053121387957,-0.11753685802142134
1776815082614283800,6.52828369140625,1.5999860496759413,-1.4167226551681755,-0.1762722387124784
1776815082624320800,6.53832080078125,1.3962008222736417,-1.794451221677661,-0.14942713934686033
1776815082634357800,6.548357666015625,1.2563906389147041,-2.349786179846525,-0.2967055762272328
1776815082644395800,6.558395751953125,0.7188707388997078,-2.3955285248458384,-0.2575069903155789
1776815082654432800,6.568432861328125,0.2653546716086566,-2.707360431599617,-0.4708088551364839
1776815082664469800,6.5784697265625,-0.36232743762955066,-2.8067858514696358,-0.6184156106557697
1776815082674507800,6.5885078125,-0.8051203777890652,-2.663372236791253,-0.7481274477180093
1776815082684544800,6.598544677734375,-1.0995821206122636,-2.4834365254014727,-0.7122455486062914
1776815082694581800,6.608581787109375,-0.6859943052142858,-2.1383926693975925,-0.5830467391001061
1776815082704619500,6.61861962890625,-0.34571543512251224,-1.8637381083935498,-0.3533664247997105
1776815082714656800,6.62865673828125,-0.516651299509406,-1.6964321614742277,-0.21692206461206076
1776815082724697600,6.638697509765625,-0.950834159168601,-1.4074059607684613,-0.3373747096154839
1776815082734735600,6.648735595703125,-1.2702952456265688,-0.7186170563995837,-0.6563443592946976
1776815082744772600,6.658772705078125,-1.589809523576498,0.23243805204331874,-1.036497595667839
1776815082754809600,6.6688095703125,-1.7042501417487859,0.913250570705533,-1.1015595581650732
1776815082764847900,6.678847900390625,-1.420509772491455,1.1978379121810196,-0.8075342339977621
1776815082774884600,6.688884521484375,-1.0054162287056445,1.2266525032550095,-0.39535489715822036
1776815082784921600,6.698921630859375,-0.6345593015313148,0.9887737214624881,-0.08686068345978856
1776815082794960000,6.7089599609375,-0.380744699460268,0.8845990612387656,0.02765015040449798
1776815082804996600,6.71899658203125,-0.30459903289079665,0.9717717332571745,0.061566375466436146
1776815082815033600,6.72903369140625,-0.22419220174551008,0.7322235569477081,0.23326566197387874
1776815082825071600,6.739071533203125,-0.04456983062122017,0.016692776125669478,0.6266646027587354
1776815082835108900,6.74910888671875,0.2022574333131313,-0.6064741937756538,1.0525872913338243
1776815082845146600,6.759146728515625,0.4405845433950424,-0.7549556132376194,1.4148916403487324
1776815082855183600,6.76918359375,0.45496027474999423,-0.5369026448994875,1.5855521583929657
1776815082865220900,6.779220947265625,0.2261013233024627,-0.2547667882293463,1.4957782178349792
1776815082875258600,6.789258544921875,-0.07923895640969277,-0.1645259608119726,1.0548949106890708
1776815082885295600,6.799295654296875,-0.343683746631816,-0.0672159256607294,0.4506751447767019
1776815082895332600,6.80933251953125,-0.39117030494995414,0.2922790650218725,-0.16185710692889987
1776815082905370600,6.81937060546875,-0.404080055405572,0.5485480745077133,-0.5460573536705225
1776815082915407600,6.82940771484375,-0.48389878446459766,0.6382359442174435,-0.5813818380951881
1776815082925444600,6.839444580078125,-0.4389642852494493,0.6533756456822156,-0.37192411801442504
1776815082935482600,6.849482666015625,-0.36570495123863217,0.6388374172419309,-0.07304587392322719
1776815082945519600,6.85951953125,-0.24638759387545286,0.4697194524645805,0.2748446767486632
1776815082955556600,6.869556640625,-0.09175357006788253,0.3037467999756336,0.44580059754289686
1776815082965595000,6.879594970703125,-0.061491629729792475,0.31280221309065814,0.18197941911183296
1776815082975631600,6.889631591796875,-0.28622509874515234,0.7704296612232923,-0.5014374368298798
1776815082985668600,6.899668701171875,-0.5124607890170068,1.3152858954757451,-1.2471715596705675
1776815082995706600,6.90970654296875,-0.6882990750253201,1.2264087576270102,-1.7777973162576555
1776815083005743600,6.91974365234375,-0.8367489303052424,0.42623920717835423,-1.75015425318107
1776815083015780600,6.929780517578125,-0.6362988386750221,-0.41073184144496916,-1.1050620133280753
1776815083025818600,6.939818603515625,-0.2724982962856069,-0.7290262222111225,-0.4094645249228924
1776815083035856000,6.94985595703125,-0.06441774630956351,-0.5924579433828592,0.010675707793235779
1776815083045892600,6.959892578125,-0.0959901847243309,-0.43022097029089923,0.1660232136324048
1776815083055930600,6.9699306640625,-0.2589642399191856,-0.38902269846200943,0.262796073167026
1776815083065967600,6.979967529296875,-0.31394904503822324,-0.3900982187390327,0.4136344310186803
1776815083076004900,6.9900048828125,-0.25469025239441545,-0.2593658064574003,0.46956762290373444
1776815083086042600,7.000042724609375,-0.27299046371672303,0.16795651978254317,0.4123572506897151
1776815083096079600,7.01007958984375,-0.3595394143462181,0.674565148705244,0.33907362248785794
1776815083106116900,7.020116943359375,-0.4088180802455172,0.7149684707641601,0.19940295719746498
1776815083116154600,7.030154541015625,-0.40232521109487857,0.29431787737309933,0.11146551135163754
1776815083126191600,7.040191650390625,-0.2023451481292024,-0.17939853577315806,0.12241411780212073
1776815083136228600,7.050228515625,0.009856208103895188,-0.40420974619984623,0.14322306054234504
1776815083146266600,7.0602666015625,0.09420856200456619,-0.3924766383081674,0.11137626216560602
1776815083156303600,7.0703037109375,0.08688446619417518,-0.3240215262413025,0.09394022992458194
1776815083166340600,7.080340576171875,0.05773786668684333,-0.23651976839900016,0.10297997054643929
1776815083176378600,7.090378662109375,-0.04383333304021507,-0.1950222213625908,0.12878796368297188
1776815083186415600,7.10041552734375,-0.1370727577516809,-0.20250527059435844,0.10168883475735783
1776815083196452600,7.11045263671875,-0.24957334777209905,-0.1874362962782383,0.06546864360198378
1776815083206491000,7.120490966796875,-0.3208324113437906,-0.07827683337926865,0.07827650458570569
1776815083216527600,7.130527587890625,-0.2692074015140533,0.18198679870069026,0.06974865900874137
1776815083226564600,7.140564697265625,-0.14348025017380714,0.476697474783659,-0.09599588381275534
1776815083236603000,7.150602783203125,-0.1037233727922663,0.5003051448643208,-0.3619563392948359
1776815083246639600,7.1606396484375,-0.23332009557485578,0.1830173107922077,-0.45745406432710584
1776815083256676600,7.170676513671875,-0.24146011087801306,-0.25669687950909137,-0.3279865939473733
1776815083266714600,7.180714599609375,-0.046879824596643443,-0.5564420426279306,-0.08439053048659116
1776815083276752000,7.190751953125,0.13349194012284277,-0.5963888530910014,0.1158877847732976
1776815083286788600,7.20078857421875,0.1782943739235401,-0.4818827684670686,0.2043271522592753
1776815083296826600,7.21082666015625,0.09152915019486099,-0.28786592475473877,0.16733707270994783
1776815083306863900,7.22086376953125,-0.03986786347534507,-0.09572364274263381,0.0846790285717696
1776815083316901600,7.230901611328125,-0.1719417534938082,0.0859212106525898,0.08036050778552889
1776815083326938600,7.240938720703125,-0.2713221651783213,0.26149054352641105,0.1269288187475875
1776815083336975600,7.2509755859375,-0.3174573454201221,0.39410979246795175,0.10474687062110752
1776815083347013600,7.261013671875,-0.31394904503822324,0.3894833017110824,0.006499919945932925
1776815083357050600,7.271050537109375,-0.27942718223333357,0.28948563491106033,-0.07671813269518316
1776815083367087600,7.281087646484375,-0.22660865177009254,0.18055822720229625,-0.11017799229174852
1776815083377125600,7.291125732421875,-0.1539432285318151,0.03150748341977596,-0.05942706188280135
1776815083387162600,7.30116259765625,-0.057623373461700975,-0.08882920705378056,0.014553462542034684
1776815083397199600,7.31119970703125,0.001837773353792727,-0.13035188853144644,0.00038582097981125117
1776815083407238000,7.32123779296875,-0.04755549536850303,-0.10386837075352669,-0.05835245492123067
1776815083417274600,7.331274658203125,-0.1310684758355841,-0.028828619599342343,-0.10961363640725612
1776815083427311600,7.3413115234375,-0.17652444164156914,0.15901275034844875,-0.14047226399686186
1776815083437349600,7.351349609375,-0.14152802012749016,0.34214170482158657,-0.19618297223765402
1776815083447386600,7.36138671875,-0.08978727496359497,0.26259353633224963,-0.22500008406229316
1776815083457423600,7.371423583984375,-0.04247603667974472,0.022364392021298408,-0.15359112715851514
1776815083467461600,7.381461669921875,0.01902034229040146,-0.24692016638219355,0.01414331083856523
1776815083477499000,7.391498779296875,0.09041618398427963,-0.3823533037006855,0.17897450167480855
1776815083487535600,7.40153564453125,0.1508755845895037,-0.330072496843338,0.25143581717573105
1776815083497573600,7.41157373046875,0.13343933315277098,-0.19332009361982344,0.2044168763693422
1776815083507610600,7.421610595703125,0.030668657975457606,-0.043005613511800767,0.10088588434401899
1776815083517647600,7.431647705078125,-0.08729483709335327,0.08512041566371917,0.015875249197706578
1776815083527685600,7.441685546875,-0.16394315595533698,0.19183891515135765,-0.018798698896355926
1776815083537722600,7.45172265625,-0.24259291430022567,0.2325754146873951,-0.025867395173572002
1776815083547759900,7.461759765625,-0.36332711619138713,0.2625590495407581,-0.0005061594238504767
1776815083557797600,7.471797607421875,-0.41375272363610566,0.35505437788665295,-0.04135875962022692
1776815083567834600,7.481834716796875,-0.21072836107108742,0.44035073463916774,-0.13331135939154773
1776815083577871600,7.49187158203125,-0.035831228370405734,0.33211890797913074,-0.10794774902164936
1776815083587909600,7.50190966796875,0.14383330139517783,0.06516074669659137,-0.05487422088403254
1776815083597946600,7.511946533203125,0.15449264257550238,-0.20913842499852178,-0.004263100804574788
1776815083607983600,7.521983642578125,0.05793437563963234,-0.3562976559460163,-0.004149813155829906
1776815083618021600,7.532021728515625,-0.018558569997549054,-0.37216742525100704,-0.018260573431663214
1776815083628058600,7.54205859375,-0.0477787461977452,-0.3113847475081682,-0.02482457158975303
1776815083638095600,7.552095703125,-0.08699315073303877,-0.16045535037219524,-0.0052723874449729915
1776815083648133600,7.562133544921875,-0.1182802694004029,0.024541736060380934,0.013224405895359814
1776815083658170600,7.572170654296875,-0.12432550438139586,0.16447218479812145,0.03860873025972396
1776815083668207600,7.58220751953125,-0.14148823610637337,0.2545990304470062,0.08548059074562042
1776815083678246000,7.592245849609375,-0.13372925601005553,0.3141255706489086,0.10954754890110344
1776815083688282600,7.60228271484375,-0.03112922469191253,0.28266543350219725,0.05187145887147635
1776815083698319600,7.612319580078125,0.10094693034887313,0.10467559548318385,0.02569894327148795
1776815083708357600,7.622357666015625,0.15351882910728454,-0.10739946748912334,0.05166749726459384
1776815083718395000,7.632394775390625,0.05485149759557098,-0.2448047816634178,0.05895206478219479
1776815083728427800,7.642427734375,-0.07894318833351134,-0.21717793906927108,0.031737967707403
1776815083738465500,7.652465576171875,-0.19650581098385153,-0.1363444069445133,0.006003405133262276
1776815083748502800,7.662502685546875,-0.2569955701947212,-0.09430500811636447,-0.00040591391976922746
1776815083758539800,7.672539794921875,-0.2851683562338352,-0.07551789005994797,0.027835224647819994
1776815083768577500,7.68257763671875,-0.2550971161622554,-0.035839959666132924,0.0742145523764193
1776815083778614500,7.692614501953125,-0.2180477807063609,0.021185411369800566,0.11980718670673668
1776815083788651800,7.70265185546875,-0.21817403743453323,0.13792553865611554,0.13806140346284954
1776815083798689500,7.712689453125,-0.15747490978930145,0.27719138600528237,0.09359141648691147
1776815083808726500,7.7227265625,-0.06740238814353942,0.3450818499267101,0.005753485492803156
1776815083818763800,7.732763671875,0.012239815304800868,0.2637362766265869,-0.031748379503563046
1776815083828801500,7.742801513671875,0.09116550451423973,0.09288578896820544,-0.024228505392745136
1776815083838838500,7.752838623046875,0.03157349786069244,-0.09091068950295447,-0.08383497896306216
1776815083848875500,7.76287548828125,-0.1111222874045372,-0.17392507279813288,-0.15535236467737704
1776815083858913500,7.77291357421875,-0.24123919813632963,-0.18984277289807797,-0.1752954843685031
1776815083868950500,7.782950439453125,-0.3044961570382118,-0.1648188062787056,-0.12768924519345162
1776815083878987500,7.792987548828125,-0.31703298252820966,-0.1212824468910694,-0.040163960345089435
1776815083889025800,7.80302587890625,-0.29965624272637065,-0.0797030667901039,0.04576057477574795
1776815083899062500,7.8130625,-0.26969492930267003,-0.027917934495210645,0.09174936881680042
1776815083909099500,7.823099609375,-0.22350016436073927,0.03593289864659309,0.1317874742925167
1776815083919137800,7.8331376953125,-0.13281499070934952,0.13269932844042778,0.1362327997962013
1776815083929174800,7.8431748046875,0.007617562331631779,0.16696107900440693,0.13628058446068317
1776815083939211500,7.85321142578125,0.15153141814973203,0.07369476628601551,0.16029084399286656
1776815083949249800,7.863249755859375,0.20820903519392012,-0.06730185037851333,0.20384590808097272
1776815083959286800,7.873286865234375,0.10168810410499572,-0.23450316787958145,0.1751848636008799
1776815083969323500,7.883323486328125,-0.06617723026275635,-0.24134850372970104,0.06854370366577059
1776815083979361500,7.893361572265625,-0.17095387496761977,-0.1642997508406639,-0.02045950824804604
1776815083989398800,7.903398681640625,-0.20959201398491858,-0.09915829336643218,-0.0445322750898078
1776815083999435800,7.913435791015625,-0.21072598645091056,-0.03482990584075451,-0.025660072565823793
1776815084009473500,7.9234736328125,-0.16585567504577337,0.027219430837035177,0.01243931993227452
1776815084019510800,7.9335107421875,-0.1255530368823558,0.08643851252496242,0.02054382553063333
1776815084029547800,7.9435478515625,-0.10823474926948547,0.14297346969544886,-0.016204261956363916
1776815084039585500,7.95358544921875,-0.06340425841808318,0.18095862469673155,-0.09213570125326513
1776815084049622500,7.96362255859375,-0.009387421548366547,0.18183540753126143,-0.14826613274347036
1776815084059659800,7.97365966796875,0.053600730349496,0.1430284147530794,-0.16261179775372148
1776815084069697500,7.983697509765625,0.1278793609380722,0.10781272446513175,-0.14920472876783458
1776815084079734500,7.993734619140625,0.11600772135853767,0.033091537740826606,-0.13099248798992483
1776815084089771800,8.003771728515625,0.059658642148971555,-0.043024318212270735,-0.1307733288139105
1776815084099808800,8.013808837890625,0.005041062907129526,-0.08492518535256385,-0.14131587521415204
1776815084109845800,8.023845703125,-0.03256137638688087,-0.08468436233401298,-0.12953348482064903
1776815084119883500,8.033883544921874,-0.048351723780110475,-0.039298575687408445,-0.0898955576436594
1776815084129920800,8.043920654296874,0.019118468902632593,0.054119128200411794,-0.03283065831493586
1776815084139957800,8.053957763671875,0.11847907990813254,0.09711363579630851,-0.010212729923985898
1776815084149995500,8.06399560546875,0.17593056740164756,0.04568330828845501,0.007506576237827539
1776815084160032500,8.074032470703125,0.19946809485554695,-0.0157768303245306,0.018723770496621727
1776815084170069800,8.08406982421875,0.17338665507249534,-0.021710896548628806,0.045830607804656025
1776815084180107500,8.094107421875,0.12393025798611342,0.01787000321149826,0.07131985384821891
1776815084190144500,8.10414453125,0.09893741715736687,0.07662965069413184,0.05908584722969681
1776815084200181800,8.114181640625,0.06897124489545822,0.09303016587495803,0.007584792573191225
1776815084210219500,8.124219482421875,0.04007482075691223,0.0783966603666544,-0.03915671953130513
1776815084220256500,8.134256591796875,0.04231127457208931,0.06920330008566379,-0.09865984232500195
1776815084230293500,8.14429345703125,0.03692081370539963,0.10024725764691829,-0.1848555590700358
1776815084240331800,8.154331787109374,0.027128756878897545,0.13230828329622746,-0.26876758532468226
1776815084250368500,8.164368408203124,0.00478489618897438,0.13080547751784324,-0.29851204112730917
1776815084260405500,8.174405517578125,0.015222082518599927,0.1496259133219719,-0.2870621706238016
1776815084270443800,8.18444384765625,0.024449345069192347,0.21123510501682757,-0.2575788134427741
1776815084280480500,8.19448046875,0.03408347138762474,0.3045733139276504,-0.22585914857704192
1776815084290517500,8.204517578125,0.07439568109698594,0.4129302282720804,-0.2286194801358506
1776815084300555800,8.2145556640625,0.08254742337055504,0.4055371954113245,-0.25739658874366433
1776815084310592800,8.2245927734375,0.1065033954322338,0.35736616196036336,-0.2708858195876703
1776815084320629500,8.23462939453125,0.14913264991231262,0.2931184384554624,-0.26278405393566934
1776815084330667800,8.244667724609375,0.14423428341150282,0.2075432647615671,-0.2639481292789802
1776815084340704800,8.254704833984375,0.12602405192758886,0.21113047559857367,-0.32315632424671203
1776815084350741500,8.264741455078125,0.10786997107770294,0.2478939798504114,-0.4540123629080131
1776815084360779500,8.274779541015626,0.13289919839408249,0.3366875310689211,-0.5733603711377829
1776815084370816800,8.284816650390624,0.30315179322455077,0.4847416650295257,-0.6156165545217692
1776815084380853800,8.294853759765624,0.34266192930340766,0.5348924741208553,-0.6026344694823026
1776815084390891500,8.3048916015625,0.24437924972772596,0.4064823673069477,-0.55348140272405
1776815084400928800,8.3149287109375,0.12675589159978554,0.20903321105837822,-0.46752895668298006
1776815084410965800,8.3249658203125,0.13633620537174865,0.13516191916167736,-0.3432665076004341
1776815084421003500,8.33500341796875,0.1494049457813613,0.27682605982422825,-0.2272639008084312
1776815084431040500,8.34504052734375,0.02129646139568649,0.4615799851506948,-0.18796192758753894
1776815084441077800,8.355077880859374,-0.2435807928264141,0.5812111577033996,-0.23855923833735285
1776815084451115500,8.365115478515625,-0.45185529447197914,0.5904208845973015,-0.25315664961896833
1776815084461152500,8.375152587890625,-0.5004746562123298,0.4733662845343351,-0.14406415100898592
1776815084471189800,8.385189697265625,-0.626125235185027,0.20488018303215502,0.12164905171375721
1776815084481227500,8.3952275390625,-0.8683172040015459,-0.12417641476690769,0.4232515696696937
1776815084491264500,8.405264404296876,-0.5388718991458415,-0.4777279868751764,0.5505952162958682
1776815084501301500,8.415301513671874,0.23818039508759975,-0.7949293117076158,0.506666569655016
1776815084511339800,8.42533984375,0.5888205367285758,-1.0887404086023569,0.07253611603649333
1776815084521376500,8.43537646484375,0.6875134776055812,-1.3747247573941945,-0.7546712433382868
1776815084531413500,8.44541357421875,0.9401116896241902,-1.6522130805194377,-1.551290553959459
1776815084541451800,8.45545166015625,1.2527999209463596,-1.8184008370637892,-2.0224416466623545
1776815084551488500,8.465488525390626,2.099513926557451,-1.7184037547856568,-1.9396525965556501
1776815084561525500,8.475525390625,3.2026141382932662,-1.282335227510333,-1.2219350462790577
1776815084571563800,8.485563720703125,1.5661295189119875,-0.756010090726614,-0.09810517671746201
1776815084581600800,8.495600830078125,0.003603577449917793,-0.21196692642271517,0.5005436297953129
1776815084591637500,8.505637451171875,-1.0377950881324707,0.325788535913825,1.2430113712511957
1776815084601675800,8.51567578125,-1.0371299022220075,0.4537152431249618,2.169683733587712
1776815084611712800,8.525712646484376,-0.7114272910259664,0.14207622859477995,2.3321616758286954
1776815084621749800,8.535749755859374,-0.3700707452327013,-0.2782937942892313,1.5767067347668111
1776815084631787500,8.54578759765625,-0.10510814168155193,-0.795190008470416,0.4221148572573438
1776815084641824800,8.55582470703125,-0.14645371302664278,-1.1234072328358888,-0.59472132173758
1776815084651861800,8.56586181640625,-0.22360592629015444,-1.129184647193551,-1.1867887679655105
1776815084661899500,8.5758994140625,0.28512276352643967,-1.040305755779147,-1.2443421814635396
1776815084671936500,8.5859365234375,1.3432000305786729,-1.1716928325772284,-0.8476426647633314
1776815084681973800,8.595973876953124,1.5580127018213272,-1.6497890682429075,-0.17872317552855238
1776815084692010800,8.6060107421875,1.220365093548596,-2.001423993074894,0.21685583097543565
1776815084702048500,8.616048583984375,1.2650658205404877,-2.085174873951077,0.12899184309146366
1776815084712085800,8.626085693359375,1.1822767704337835,-1.966706315436959,-0.3623465076562017
1776815084722122800,8.636122802734375,0.657616059730947,-1.5961463253825903,-1.4602419172905385
1776815084732161300,8.646161376953126,-0.2972948473572731,-1.1628057617664336,-2.3905764553964137
1776815084742198300,8.6561982421875,-0.6564736116975546,-1.02918464230597,-2.105544146632403
1776815084752235300,8.6662353515625,0.8077671659708022,-1.6355197198718785,-0.20939608955401925
1776815084762273000,8.67627294921875,2.70869723316133,-2.193718835300207,1.4454834702283144
1776815084772310300,8.686310302734375,3.1604175030767916,-2.3232617455363274,2.1171901607625183
1776815084782347300,8.69634716796875,2.645798586177826,-2.197640977180004,1.6354120217137038
1776815084792385000,8.706385009765626,1.3807944326967,-1.7126707640916108,0.5947117136590182
1776815084802422300,8.71642236328125,0.09133797500431537,-0.8944055849820375,-0.5029025409463793
1776815084812459300,8.726459228515624,0.19750410130620003,-0.16797113282978535,-0.4566312036368996
1776815084822497000,8.7364970703125,1.48432085814476,0.2151730289876461,0.9953254081282764
1776815084832534000,8.746533935546875,2.599596222451329,0.06686404348313808,2.0402973290875552
1776815084842571300,8.7565712890625,2.326243976217508,-0.17806231873333453,1.586416958528757
1776815084852609300,8.766609375,0.9174287331730127,-0.5195142877250909,0.7401116067837923
1776815084862646000,8.77664599609375,0.3098503775477409,-0.9342179554104805,0.35624687560684976
1776815084872683300,8.786683349609374,0.9806278244078159,-1.131407583940029,-0.11276808185018598
1776815084882721300,8.79672119140625,1.2635931176394224,-0.8369622807949781,-0.7529715998135507
1776815084892758000,8.806758056640625,1.4657207870930433,-0.5758154361397028,-0.9689302262209355
1776815084902795000,8.816794921875,2.079429608297348,-0.5873720184206962,-0.6451348368857055
1776815084912833300,8.826833251953126,2.0530910519480705,-0.5785591818898916,-0.7311782856784761
1776815084922870300,8.836870361328126,1.8044558983415364,-0.41154491139352317,-1.111765310359001
1776815084932907000,8.846906982421874,0.990901965662837,-0.23340952742397783,-1.6291987001568078
1776815084942945300,8.8569453125,0.33804362185299397,-0.42667350694239137,-1.4451906247615813
1776815084952982300,8.866982177734375,0.41048868033885955,-0.2451321139216423,-0.6951265829578042
1776815084963019000,8.87701904296875,0.92830668554008,0.18784779968857765,0.5507977531306445
1776815084973057300,8.887057373046876,0.5851975969910621,0.19958090758025646,1.0328221220254898
1776815084983094300,8.89709423828125,-0.02902794156372547,0.9862187762826681,1.4208423654466866
1776815084993131300,8.90713134765625,0.08113806802928447,0.6004764146655798,1.0749464226581156
1776815085003169000,8.9171689453125,-0.02768997095823288,-0.1660679295569658,0.8773558121122419
1776815085013206300,8.927206298828125,-0.428013231113553,-1.1151754110634327,0.6439725151080637
1776815085023243300,8.9372431640625,0.026211130577325818,-1.5539783317387104,0.2577017457026988
1776815085033281000,8.947281005859375,1.2652221801459789,-1.06748280877918,-0.1690794593978673
1776815085043318300,8.957318359375,1.713854420918226,-1.0119175734236836,-0.9022505263287574
1776815085053355300,8.967355224609374,0.6780716955214738,-0.41452451172620053,-1.1769389165371655
1776815085063393000,8.97739306640625,0.19468436771035194,0.10136164862960577,-1.1891354772221296
1776815085073430000,8.987429931640625,0.6087725338459015,0.6867164820089936,-0.2988146773356944
1776815085083467300,8.99746728515625,0.39458500876426694,1.161896830227971,0.19978629395924508
1776815085093505000,9.007505126953125,0.6599351503282785,1.0135071807026863,0.12016703299507497
1776815085103542000,9.0175419921875,0.021129297268390655,0.18054595224261283,0.2736945568654686
1776815085113579300,9.027579345703124,-0.3374059084713459,-0.6566980681031942,0.43462928825244307
1776815085123617300,9.0376171875,-0.920332053399086,-1.7992019233360885,0.7902792208794504
1776815085133654000,9.047654052734375,0.08314064002335071,-1.84546069342494,1.7713178911104797
1776815085143691000,9.05769091796875,-1.1637567788809537,-1.5075079647257923,2.846655797304213
1776815085153729300,9.067729248046875,-0.868331817048788,-0.7096979830153286,1.9786789311729371
1776815085163766300,9.077766357421876,-0.7298416302472353,-0.4287307317331433,0.7523380511503667
1776815085173803000,9.087802978515626,-0.48068391407132144,0.03715878717973828,-0.8603063315033912
1776815085183841300,9.09784130859375,0.44408992116749285,0.4564674644425511,-2.355724629984796
1776815085193878300,9.107878173828125,-0.23260288721621036,-0.15793752233237027,-2.3218381424739953
1776815085203915000,9.1179150390625,-0.2796703433394432,-0.38689547717496753,-1.0218415860667824
1776815085213953300,9.127953369140625,-1.4336065699517726,-0.5912091123655439,1.2178652395568788
1776815085223990300,9.137990234375,-2.683641117838025,-0.9781113846074789,2.672626679609716
1776815085234027300,9.14802734375,-2.4153403097748756,-1.3147018119774758,2.634531926754117
1776815085244064000,9.15806396484375,-2.339586857393384,-1.0634572065249084,1.7138424382194877
1776815085254102300,9.168102294921875,-1.3073363977760075,0.5989120879583061,-0.05133227396085858
1776815085264139300,9.17813916015625,-0.531674096596241,0.5630830515449866,-1.3929412359558044
1776815085274176000,9.188176025390625,-0.6934989817559719,0.18718997510066254,-1.912967564856261
1776815085284214300,9.19821435546875,-0.9797790986239909,0.5615900365082547,-1.1554486039366572
1776815085294251300,9.208251220703126,-1.9264403560221195,-0.22069277878981083,0.09407382970899343
1776815085304288300,9.218288330078124,-3.1733512189298865,-0.6542719369348138,0.7259593819864094
1776815085314326300,9.228326171875,-3.149889094799757,-1.1319782234348357,1.886807726074755
1776815085324363300,9.23836328125,-3.696615799099207,-0.15325204966356976,1.6321167795605958
1776815085334400300,9.248400146484375,-2.898407319590449,0.5283171508511528,0.15343253906331955
1776815085344438000,9.25843798828125,-2.9058903688222166,0.35249530452098693,-0.8737014543231576
1776815085354475300,9.268475341796876,-2.5236487088024613,0.4050408632617444,-1.514603183683753
1776815085364512300,9.27851220703125,-3.0227333719611167,-0.036384149545431135,-1.0782236176978797
1776815085374550000,9.288550048828125,-3.6477678892999887,-0.49091903849020596,-0.16891528181210158
1776815085384587300,9.298587158203125,-3.8169758704483505,-0.6893608590379356,0.49924942526631055
1776815085394624300,9.308624267578125,-4.442263485765457,-0.4011841147683561,0.9479508588172495
1776815085404662000,9.318662109375,-4.227990620487928,-0.14451682667993007,0.4408100957792252
1776815085414699000,9.328698974609376,-4.186443973612785,0.18024623864367603,-0.3451679938402027
1776815085424736300,9.338736328125,-4.6185020962029695,0.12087021282836795,-0.8722572468642145
1776815085434774300,9.348774169921874,-4.650827325746417,0.18760938782282172,-0.6749355163875966
1776815085444811000,9.35881103515625,-4.551127180588245,0.42041335056908424,-0.06986782840900123
1776815085454848300,9.36884814453125,-4.1670203112185,0.3614112361000851,0.1713806490123272
1776815085464886300,9.37888623046875,-3.677627605512738,0.167488938803412,0.04498480463027954
1776815085474923000,9.388923095703126,-3.775825529414415,0.04961757899746298,-0.04153181463219225
1776815085484960000,9.3989599609375,-3.4759091013818977,-0.1407536564878188,-0.10377134011983871
1776815085494998300,9.408998291015624,-3.555557807636261,0.06629386064605787,0.34351109347864983
1776815085505035300,9.41903515625,-3.394989644539356,0.442562638534978,0.30713520030491054
1776815085515072000,9.429072021484375,-3.0295635102421046,0.7495921865083277,0.01875606533102691
1776815085525110300,9.4391103515625,-2.8946225403547285,0.4667355412829667,-0.20166538570411502
1776815085535147300,9.449147216796876,-2.311036470213532,0.12617341553671285,-0.0604130407128483
1776815085545184300,9.459184326171876,-2.4752701700806616,0.14417952101696282,0.3957283335804939
1776815085555222300,9.46922216796875,-2.2510066566646096,-0.05100713365972042,0.4584927597250789
1776815085565259300,9.47925927734375,-2.001242791289091,-0.4997993872992694,0.4802459610454738
1776815085575296300,9.489296142578125,-1.6849702717393635,-0.6606834114123136,1.171105972599983
1776815085585334000,9.499333984375,-1.130102346560359,-0.6039801850028336,1.1082508724972604
1776815085595371300,9.509371337890625,-1.089549386897683,-0.48335495991148053,0.7100017882674932
1776815085605408300,9.519408203125,-0.7677899603694677,-0.5418526685222983,0.36092305072434244
1776815085615446000,9.529446044921874,-0.7499930223941803,-0.7906346832536161,-0.34630189324095845
1776815085625483300,9.539483154296875,-0.3356739701122045,-1.032592404922843,-0.4712492923803627
1776815085635520300,9.549520263671875,-0.7683990321785211,-0.9986943731047212,-0.0630256343640387
1776815085645558000,9.55955810546875,-0.7847568772614002,-0.9283896876484156,0.37803712100200354
1776815085655595000,9.569594970703125,-0.6915016704589128,-0.6729929309524595,0.5742457756701856
1776815085665632300,9.57963232421875,-0.5027870248079299,-0.659101475983113,0.2627813139893114
1776815085675670300,9.589670166015624,-0.5551408969014883,-0.6999795759469271,-0.43841625944525003
1776815085685707000,9.59970703125,0.1212871230661869,-0.8497630179181694,-0.5987840776644647
1776815085695744300,9.609744140625,-0.045803719797730444,-0.9894052973642945,-0.22565175290405748
1776815085705782300,9.6197822265625,-0.12676584673821925,-0.9796706698134541,-0.3864005332648754
1776815085715819000,9.629819091796875,-0.41941374507248397,-1.3226181380599737,-0.46847617440521716
1776815085725856000,9.63985595703125,-0.45275896531343457,-1.311964642098546,-0.3882806479230523
1776815085735894000,9.64989404296875,-0.11096271292865276,-1.1833484913185237,-0.7095916000314056
1776815085745931000,9.659930908203124,-0.011206453669071198,-1.5314020505324004,-0.6071465400792658
1776815085755968000,9.669968017578125,0.45705987737774845,-1.5512424770340323,-0.7938533530391753
1776815085766006000,9.680006103515625,0.5976818155109882,-1.3839467592477797,-0.6497258910030126
1776815085776043000,9.69004296875,0.270901345950365,-1.340459791959822,-0.1580342607051134
1776815085786080000,9.700080078125,0.011601005944609642,-1.2407482486248016,0.04349105894118547
1776815085796118000,9.710117919921874,-0.18056933311820028,-1.1746785703897475,0.07161459901109338
1776815085806155000,9.720155029296874,0.05217091674208641,-1.123774312582612,0.19525895272791385
1776815085816192000,9.73019189453125,0.1328863754451275,-0.9886363588184117,0.15006912704482675
1776815085826230000,9.74022998046875,-0.06490414158701896,-0.990288217678666,-0.13637962438836693
1776815085836267000,9.75026708984375,-0.2796177363693714,-1.0509200887739658,-0.5199558940127491
1776815085846304000,9.760303955078125,-0.20190672017931938,-1.0215478638172149,-0.4006989615999162
1776815085856342000,9.770342041015626,0.4215525106668472,-0.8003583510190247,-0.33771877381280063
1776815085866379000,9.78037890625,0.30275545085072514,-0.343218978664279,-0.3358046107545495
1776815085876416000,9.790416015625,0.7261147186785936,-0.002239303359389305,-0.1805721095971763
1776815085886454000,9.8004541015625,0.803219001147151,0.3750362586855888,-0.045466304536908864
1776815085896491000,9.810490966796875,0.2936263879776001,0.25726561930775643,0.10356178902238607
1776815085906528000,9.820528076171875,0.7924532769829035,0.12276830153465271,0.16188947482854127
1776815085916566000,9.83056591796875,0.7044213577866554,0.39066345140635966,0.2162821592733264
1776815085926603000,9.84060302734375,0.9179249922573566,0.6063561203539372,0.15854863996803759
1776815085936640000,9.850639892578124,1.285535484856367,0.7891700175285339,-0.002072568490356207
1776815085946678000,9.860677978515625,1.0808832653611897,1.1035621301591396,-0.38521614578589797
1776815085956715000,9.870715087890625,0.5684148044943809,1.2222066297620535,-0.514194773202762
1776815085966752000,9.880751953125,0.5664361978977919,1.0720733514398335,-0.35801337382271886
1776815085976790000,9.8907900390625,0.8976151946783065,0.5159411054134369,-0.17337094604671
1776815085986827000,9.900826904296874,0.8228028225392102,-0.0794505533337593,-0.06350435779169201
1776815085996864000,9.910864013671874,0.5895382565438747,-0.7237129182338714,0.05309636102393269
1776815086006902000,9.920902099609375,0.3857295021355152,-1.3060107021301983,0.22619082821682093
1776815086016939000,9.93093896484375,0.5595137051582336,-1.4799170702278612,0.4748103458628058
1776815086026976000,9.94097607421875,0.8421253626465797,-1.4849229156911372,0.7632366809792817
1776815086037014000,9.951013916015626,0.9687047469019889,-1.4575889185637234,0.6420076447758823
1776815086047051000,9.961051025390624,0.9285480930805206,-1.2109580905169248,0.15413349040690807
1776815086057088000,9.971087890625,1.028895888492465,-0.9000620033085346,-0.1352398067034781
1776815086067126000,9.9811259765625,1.2416174326747655,-0.6458090098202228,-0.07908139122780412
1776815086077163000,9.9911630859375,1.5102321289926766,-0.4722025014519691,0.23155509519632905
1776815086087200000,10.001199951171875,2.0905930996075273,-0.48260114586949343,0.5992550561770796
1776815086097238000,10.011238037109376,2.094576908546686,-0.7498001301705837,0.5882616607367992
1776815086107275000,10.02127490234375,1.7711022025331853,-0.9827174901634455,0.32010106486193834
1776815086117312000,10.03131201171875,1.6275705144330859,-0.9989128381609916,0.37569421113766727
1776815086127350000,10.04135009765625,1.9454180282145737,-1.1937240471214055,0.7221049715805798
1776815086137387000,10.051386962890625,2.0874530480161306,-1.741063330361247,1.0356398828599602
1776815086147424000,10.061424072265625,1.9575448115989564,-2.4415467641770836,1.1344004090804607
1776815086157462000,10.0714619140625,1.4696870603755117,-3.005757687240839,1.159939777876064
1776815086167499000,10.0814990234375,1.1342577126741409,-3.199102330780029,1.0296491180125624
1776815086177536000,10.091535888671874,1.0210340690761803,-3.059946958068013,0.8361221036437898
1776815086187574000,10.101573974609375,0.7845452803373336,-2.8976141233861443,0.5993780249696224
1776815086197611000,10.111611083984375,0.04997369895875454,-3.2080840941369533,0.3946764864400029
1776815086207648000,10.12164794921875,-1.139273348879069,-3.6526650136917826,0.3922358883548528
1776815086217686000,10.13168603515625,-1.7426187431097029,-3.6308880661696192,0.6124280972113832
1776815086227723000,10.141722900390626,-1.1843183592639863,-3.2568291280835866,0.8806377563923596
1776815086237760000,10.151760009765624,-0.6650964786142111,-3.0322137324899434,0.9910400589592754
1776815086247798000,10.161798095703125,-0.565178891313076,-2.990954670384526,0.9025496554058045
1776815086257835000,10.1718349609375,-0.5800473746210336,-3.0643700352072716,0.5733927755700424
1776815086267872000,10.1818720703125,-0.6166285080432892,-3.0194010126680135,0.1092137869020924
1776815086277910000,10.191909912109375,-0.4000795145273208,-2.1605986559867856,-0.4188812821635976
1776815086287947000,10.201947021484376,-0.24130934076309202,-0.9217688082039356,-1.0607504317842422
1776815086297984000,10.21198388671875,-0.37805348761491475,0.1710831273704767,-1.6171179478712379
1776815086308022000,10.22202197265625,-0.8909691077273338,0.9045107994109391,-1.9023653606906532
1776815086318059000,10.23205908203125,-1.456107155573368,1.3011112396508455,-1.808699527260661
1776815086328096000,10.242095947265625,-1.6551684231936932,1.7350059300184248,-1.200271349873021
1776815086338134000,10.252134033203125,-1.5298247182130813,2.314036236551404,-0.32647527606897053
1776815086348171000,10.2621708984375,-1.671779220124334,1.895622023910284,0.35734387706331905
1776815086358208000,10.2722080078125,-1.6909117906175553,2.316846033275127,0.6808230400562286
1776815086368246000,10.28224609375,-1.7099030529439447,4.229263124641776,0.9650027505788952
1776815086378283000,10.292282958984375,-1.3184345687650143,5.4825809319823975,1.0136895515322684
1776815086388320000,10.302320068359375,-0.8808091674365103,4.572893606716394,0.953636868564412
1776815086398358000,10.31235791015625,-0.6024199499487877,2.8969261411219835,1.3568842725381254
1776815086408395000,10.32239501953125,-0.2923511073447764,1.8618904347002505,1.6252556616194545
1776815086418432000,10.332431884765626,0.08930106234923005,1.0071505051523446,1.0067960656914858
1776815086428470000,10.342469970703124,0.16174889731407163,0.08610942670106887,-0.02758906786702573
1776815086438507000,10.352507080078125,-0.09724347272105514,-0.7617074255853891,-0.6075401425067335
1776815086448544000,10.3625439453125,0.21689261932186782,-1.5597452247023582,-0.7373591662704945
1776815086458582000,10.37258203125,0.9111737644314766,-2.061706320080161,-0.8116201150719076
1776815086468619000,10.382618896484376,1.456475550494343,-2.1319921547055243,-1.0720425909753888
1776815086478656000,10.392656005859376,1.4754501539468765,-1.8420108452320099,-1.281970631981641
1776815086488694000,10.402694091796874,1.1709259398579597,-1.2121014153331517,-1.4285254672951995
1776815086498731000,10.41273095703125,0.871019448697567,-0.31296938635110855,-1.4090027284406124
1776815086508768000,10.42276806640625,0.49402383610513056,0.6313695655792951,-1.335414052877575
1776815086518806000,10.432805908203125,-0.10700601119212806,1.0235013359725476,-1.2578913988664746
1776815086528843000,10.442843017578125,-0.6093745913922787,0.6509773523688316,-0.9868511559020727
1776815086538880000,10.4528798828125,-0.63645892460756,-0.18536065904796123,-0.41794944467358286
1776815086548918000,10.46291796875,-0.3709106301229447,-0.9000169951230287,0.29654132557623086
1776815086558955000,10.472955078125,-0.14602401637248694,-1.1748983506202697,0.8306489329297095
1776815086568992000,10.482991943359375,-0.04550860930867493,-1.0853320614635944,1.0269165512435137
1776815086579032000,10.493031982421876,-0.060399888970330357,-0.8151537690907716,0.9429653254896402
1776815086589068800,10.50306884765625,-0.12675357177853583,-0.4480898044586181,0.653354968220368
1776815086599106000,10.51310595703125,-0.12921784300021827,0.046834231889247895,0.29874256194755433
1776815086609144000,10.52314404296875,-0.05585924986600876,0.6609457886755467,-0.007778378916531801
1776815086619180800,10.533180908203125,0.13093874850869178,1.0327350282639265,-0.2732388124546036
1776815086629218000,10.543218017578125,0.2814508700806647,0.8876619559407234,-0.42547428722046315
1776815086639256000,10.553256103515626,0.31300336168594656,0.45231589772105213,-0.4367748123811558
1776815086649293000,10.56329296875,0.3738683108847588,0.12981529743671416,-0.3817382770748809
1776815086659329800,10.573329833984374,0.5036779092330486,-0.021336802539229392,-0.3487421625325456
1776815086669368000,10.5833681640625,0.6070995591323822,-0.07672843489348888,-0.3689709307646379
1776815086679405000,10.593405029296875,0.451494133009389,-0.11380232026875019,-0.39825401613321154
1776815086689441800,10.60344189453125,0.08780103304982184,-0.035004093363881106,-0.42035018567238003
1776815086699480000,10.61347998046875,-0.2993664659995586,0.16180793402493,-0.47182658081166445
1776815086709517000,10.62351708984375,-0.5656535230875015,0.40571313650012014,-0.5498588283127174
1776815086719554000,10.633553955078124,-0.6509059676330536,0.5675216550469399,-0.6080055315287783
1776815086729591600,10.643591552734375,-0.613400851233676,0.5272510194569826,-0.6010256095135584
1776815086739628500,10.653628662109375,-0.4436730839949101,0.31770868983268735,-0.4964961810354143
1776815086749665800,10.663665771484375,-0.21226788213066755,0.10646364794373511,-0.33744719032980497
1776815086759703600,10.67370361328125,-0.07836926090307533,0.04038812448978424,-0.2061956860775128
1776815086769740500,10.683740478515626,-0.07897592155933379,0.058145899498462675,-0.16009572327956556
1776815086779777500,10.693777587890626,-0.14789339044094085,0.04052782522141933,-0.15622618836984037
1776815086789815600,10.703815673828124,-0.16727737841196358,-0.036438510081171986,-0.0927099574772641
1776815086799852500,10.7138525390625,-0.09984112453144044,-0.08971826484799385,0.035993725455738604
1776815086809889500,10.7238896484375,-0.001695223077945411,-0.050769233250617975,0.09014299306608736
1776815086819927800,10.733927734375,0.008246434819698334,0.01802548603415489,0.007470847337320447
1776815086829964500,10.743964599609376,-0.012913257586956023,-0.0141167881578207,-0.1311401528323069
1776815086840001500,10.75400146484375,-0.014964856354519725,-0.1795358984172344,-0.20510796390604227
1776815086850039800,10.764039794921874,0.05162848042845726,-0.3857949685871601,-0.15017430445235222
1776815086860076500,10.77407666015625,0.14123100994229315,-0.5269266098082065,-0.03298588540926575
1776815086870113500,10.784113525390625,0.1959141287010163,-0.5080635039061308,0.028749270752817392
1776815086880151800,10.79415185546875,0.17675825039744375,-0.37112346915602684,-0.027053536218218505
1776815086890188800,10.804188720703126,0.1459831729054451,-0.17308628388643263,-0.12006134413089603
1776815086900225500,10.8142255859375,0.11859839543886481,-0.00926701003909111,-0.18588048167098312
1776815086910263600,10.824263671875,0.08939568183012306,0.04882628248929977,-0.15468557133171706
1776815086920300800,10.83430078125,0.06678626553919166,0.07403963420093058,-0.06456818763092159
1776815086930337800,10.844337890625,0.002276055173203349,0.18241876037716864,-0.026334099369868635
1776815086940375600,10.85437548828125,-0.07378189658019692,0.36417233484387396,-0.10919793174583464
1776815086950412500,10.86441259765625,-0.15027710723970084,0.350115752440691,-0.16965232738237826
1776815086960449800,10.87444970703125,-0.20475217273831367,0.051717327755689615,-0.10781630466170608
1776815086970487600,10.884487548828124,-0.2405576821455732,-0.2770686364084482,0.045252369525283574
1776815086980524500,10.894524658203125,-0.251139829903841,-0.3842980080276727,0.16342578101772814
1776815086990561800,10.904561767578125,-0.22753099077939987,-0.3135328654527664,0.17639033040050417
1776815087000599600,10.914599609375,-0.20566278477720915,-0.20456571025550363,0.11007840437479316
1776815087010636500,10.924636474609375,-0.2035387052953243,-0.13683189820051192,0.0832330675471574
1776815087020673500,10.934673583984376,-0.14773673857450484,-0.057009004423022265,0.1272773764569312
1776815087030711600,10.944711669921874,-0.05568155521154403,0.01011924295425415,0.22388404911179094
1776815087040748500,10.95474853515625,-0.036978096850588914,0.05406009148955345,0.31450320832226425
1776815087050785500,10.96478564453125,-0.06687284784410148,0.13587328230142592,0.34036388149410485
1776815087060823600,10.974823486328125,-0.10061492191553115,0.3072515932261944,0.20152159331925212
1776815087070860500,10.984860595703125,-0.02442263972535729,0.42849020097553725,-0.03527637096662074
1776815087080897500,10.9948974609375,0.07392682147622108,0.25431027663350103,-0.13496679844837636
1776815087090935800,11.004935791015624,0.12432422573976218,-0.0753249978363514,-0.09531824027951806
1776815087100972500,11.01497265625,0.05435235243439674,-0.3107517103016376,0.02397449409905821
1776815087111009500,11.025009521484375,-0.026954715486243366,-0.3628203357130289,0.16614643815327435
1776815087121047800,11.0350478515625,-0.09653269410319626,-0.28047464545965195,0.2606390412636101
1776815087131084800,11.045084716796875,-0.15680976041145622,-0.13301847739219666,0.3119022685762495
1776815087141121500,11.05512158203125,-0.20532734227776525,-0.00033259295523166654,0.34503494204506274
1776815087151159600,11.06515966796875,-0.20436397713832555,0.058987611019611356,0.362528549692221
1776815087161196800,11.07519677734375,-0.1982008513987064,0.07225333530604838,0.37646775279343125
1776815087171233500,11.085233642578125,-0.22013101672120391,0.07957564101815223,0.4102501223426312
1776815087181271600,11.095271484375,-0.19184600247927008,0.11869710657298564,0.37741577423326667
1776815087191308800,11.105308837890625,-0.08379121288657188,0.149707746386528,0.2818496236072853
1776815087201345800,11.115345703125,0.041878582243248814,0.1587450393229723,0.15108177468609063
1776815087211383600,11.125383544921876,0.10338204854130745,0.04774140986204147,0.022800956807658077
1776815087221420500,11.135420654296874,0.08055639568381011,-0.07786299188137054,-0.0527946381310001
1776815087231457800,11.145457763671875,-0.04592946506924927,-0.14975743074715137,-0.09230327637251466
1776815087241495600,11.15549560546875,-0.19029928449392317,-0.17009645442068574,-0.06267075651176274
1776815087251532500,11.165532470703125,-0.28921207866668697,-0.17109481780827043,0.01998308637533337
1776815087261569800,11.17556982421875,-0.30485739156603814,-0.09546879119873046,0.12046641780044882
1776815087271607600,11.185607666015626,-0.2581179983533919,0.020306290447711945,0.1817137539129704
1776815087281644500,11.19564453125,-0.2088474061626941,0.13689911821782588,0.2228825439190492
1776815087291681500,11.205681640625,-0.17478490449786185,0.17848434353768824,0.23707751187961548
1776815087301719600,11.215719482421875,-0.15550620353221892,0.20850012709498406,0.23068244054764508
1776815087311756500,11.225756591796875,-0.13760697422623633,0.20752689814865588,0.21304244669973849
1776815087321793500,11.23579345703125,-0.08832001542262732,0.23947511107325553,0.15645086397118865
1776815087331831800,11.245831787109376,-0.04482354965396225,0.24747780026495456,0.06712112351674586
1776815087341868500,11.25586865234375,0.00712407972626388,0.1314040279328823,-0.02364796555843204
1776815087351905500,11.265905517578124,0.04672660679630935,0.030365327647328376,-0.10477901932504027
1776815087361942500,11.275942626953125,0.015757541102170942,0.019297405666112898,-0.18986169679425655
1776815087371980500,11.28598046875,-0.027625600485131144,0.0431131655395031,-0.27364903722330924
1776815087382017500,11.296017578125,-0.05297638790607452,0.024879005190730094,-0.282471262636967
1776815087392054500,11.306054443359375,-0.025865166683867572,0.016662380987405776,-0.23953067718539386
1776815087402092800,11.3160927734375,0.0278933115106076,0.058901101779937744,-0.1748473022095859
1776815087412129500,11.326129638671874,0.08245499584674834,0.1850397565305233,-0.10741853751577436
1776815087422166500,11.33616650390625,0.14452997842244802,0.34233459704518315,-0.08133304261211305
1776815087432204800,11.346204833984375,0.18570844957232474,0.3976157547622919,-0.10228263593204319
1776815087442241800,11.35624169921875,0.21715802879240362,0.27585283087790013,-0.15424984679557383
1776815087452278500,11.366278564453125,0.2531822224516421,0.11584171714186668,-0.2245433532707393
1776815087462316500,11.376316650390624,0.1981938371360302,0.03018821751475334,-0.3147885646022856
1776815087472353800,11.386353759765624,0.08165770798921584,0.05237374583780765,-0.4014927423261106
1776815087482390500,11.396390625,-0.011419219636917114,0.13351415195465088,-0.46636301817614584
1776815087492428500,11.406428466796875,0.004253054334595799,0.25856501146852967,-0.4921424062727019
1776815087502465800,11.4164658203125,0.027657201199792324,0.29172026209533214,-0.47997894413974135
1776815087512502800,11.426502685546875,0.04021039330270141,0.28810324064195153,-0.47707668335959313
1776815087522540500,11.43654052734375,0.12163896871116012,0.3385977486044168,-0.4910474871754646
1776815087532577500,11.44657763671875,0.17288400277998298,0.35878538110852237,-0.494640872024931
1776815087542614800,11.45661474609375,0.18554361439943312,0.37364568111002444,-0.5013763908250257
1776815087552652500,11.466652587890625,0.21129184017274527,0.4127922811061144,-0.5304958465971052
1776815087562689500,11.476689453125,0.1975321948895231,0.2961690581977367,-0.5482379491126165
1776815087572726800,11.486726806640625,0.044836336070299146,0.09182897339165211,-0.5082446691593155
1776815087582764500,11.4967646484375,-0.05626724614500999,-0.016951719322800634,-0.4233565644141286
1776815087592801500,11.506801513671874,-0.09937222837805747,0.01745908432304859,-0.29879527851548043
1776815087602838500,11.516838623046874,-0.14837969438685103,0.16624562421143055,-0.16001586297638715
1776815087612876500,11.52687646484375,-0.25939912420511246,0.31629063972830773,-0.07047843458801507
1776815087622913500,11.53691357421875,-0.43600715247690675,0.3199152599662542,0.018246143047511577
1776815087632950500,11.546950439453125,-0.6938964566409588,0.22475275823771954,0.14057565130610017
1776815087642988800,11.55698876953125,-0.8596715407311916,0.13837328242361543,0.3292358998887241
1776815087653025500,11.567025634765624,-0.7577022815972566,0.11369652180671691,0.5293483935950324
1776815087663062500,11.5770625,-0.06915708632376044,0.008119009047746657,0.6829813871338963
1776815087673100800,11.587100830078125,1.0003174442619085,-0.36374621838629245,0.8333772619150579
1776815087683137500,11.597137451171875,1.6470792247623205,-0.9645470427006483,0.8959300911355763
1776815087693174500,11.607174560546875,1.7247680291205643,-1.479582139185071,0.6348952554874122
1776815087703212800,11.617212890625,1.6027882476150987,-1.6867209147989748,0.08799078346826135
1776815087713249800,11.627249755859374,1.6152220511220394,-1.5478215626746414,-0.5482635950105265
1776815087723286500,11.63728662109375,1.5854577581077813,-1.2522867107272146,-0.9931721025519072
1776815087733325600,11.64732568359375,1.2315518196038902,-0.960942296206951,-1.0910928169474006
1776815087743362300,11.6573623046875,0.7052636538296938,-0.6853203514754772,-0.8930964020796119
1776815087753399600,11.667399658203125,0.3483376368522644,-0.3232628168284893,-0.5991779358202591
1776815087763437600,11.6774375,0.22401465322151778,0.048370939937233924,-0.17150959088793025
1776815087773474600,11.687474609375,0.17324717353656888,0.3030570641458034,0.15873906623991205
1776815087783511300,11.69751123046875,0.15200623258724807,0.45750820566713807,0.424908287368156
1776815087793549600,11.707549560546875,-0.13696853019222616,0.45387189499139785,0.5438822015885263
1776815087803586600,11.717586669921875,-0.641373657721281,0.08546411453485489,0.4394970404192805
1776815087813623600,11.72762353515625,-0.649199236780405,-0.49720600980520246,0.3328803208056837
1776815087823660500,11.73766064453125,-0.02717880656570196,-0.6657569883495569,0.1254706558285281
1776815087833698600,11.747698486328124,0.07050532259494066,-0.5733534299403429,-0.2700647855283692
1776815087843735600,11.757735595703124,-0.5044520354107022,-0.8638625626802444,-0.3577976121801883
1776815087853772300,11.767772216796875,-0.4337278093680739,-1.5808043793439863,-0.31286563371568915
1776815087863810600,11.777810546875,0.33658348617255684,-2.0161334864288567,-0.5464734967233613
1776815087873847600,11.78784765625,0.5514405810788273,-2.0478017133682966,-1.082435609369725
1776815087883884500,11.797884521484375,0.48960401036888357,-2.10223472982347,-1.50837495681867
1776815087893922600,11.807922607421874,0.5258677484050392,-2.3734259986311197,-1.6846205815188586
1776815087903959600,11.81795947265625,0.1067713987186551,-2.758429524579644,-1.499757496729493
1776815087913996500,11.82799658203125,0.009105097475647925,-2.8207974256873127,-1.0781539134625344
1776815087924034600,11.83803466796875,0.21447394080758095,-2.5101608661979435,-0.8447221011415124
1776815087934071600,11.848071533203125,0.3256365602225065,-2.098252382189035,-0.7667993418969213
1776815087944108500,11.858108642578125,0.5022916425064206,-1.8423375929683445,-0.739935446499288
1776815087954146600,11.868146484375,1.0942331607997418,-1.5941256332099436,-0.6271112505476921
1776815087964183600,11.87818359375,1.6204896162614226,-1.320015846607089,-0.512615468122065
1776815087974220500,11.888220458984375,1.8362883759319781,-1.0186480507224798,-0.4211738866128027
1776815087984258300,11.89825830078125,1.6435817380353808,-0.5725806920021772,0.04631627242974937
1776815087994295600,11.908295654296875,1.7604256179571152,-0.3693330786079168,1.0113809092637152
1776815088004332500,11.91833251953125,2.3037328692018986,-0.5712134953022003,1.7504501673877237
1776815088014370600,11.92837060546875,2.4436954666435717,-0.7301566875457763,1.3580015861302615
1776815088024407300,11.9384072265625,1.4067442819893359,-0.6698235071361065,0.17663915406242012
1776815088034444500,11.948444580078124,0.6882160729169845,-0.2891296610802412,-1.008019177745655
1776815088044482600,11.958482666015625,0.8328829025268554,0.1252256315588951,-1.158014508901909
1776815088054519300,11.968519287109375,2.1201941648840905,0.3168295689105987,-0.7809707097861915
1776815088064556500,11.978556640625,2.6309774491429327,0.5230149893224239,-0.2772679583728313
1776815088074594600,11.988594482421876,2.054291075387597,0.5673088890790939,-0.48450683336034417
1776815088084629500,11.99862939453125,0.8332955749809742,0.64387482688725,-0.8156070658162236
1776815088094666500,12.00866650390625,0.9781395147234201,0.5750181482821702,-0.29218013469204307
1776815088104704500,12.01870458984375,1.3683464545339346,0.46473289622366426,0.41419703333750363
1776815088114741500,12.028741455078125,1.2522031240969895,0.21094284407198427,0.378284739087522
1776815088124778500,12.038778564453125,1.1875579257071018,-0.0881388867020607,0.06861570945605636
1776815088134815500,12.0488154296875,0.9957505747377872,0.026752397847175598,0.2841496807105839
1776815088144853500,12.058853515625,0.7400479669630528,0.256930688264966,0.44436230836808677
1776815088154890500,12.068890380859376,0.34894144796431065,0.4870049337863922,0.15734642457142473
1776815088164927500,12.078927490234374,0.009439443996548651,0.6144359664350748,-0.0515808418944478
1776815088174965500,12.088965576171875,0.5692196911364793,0.3728980776131153,0.06313844708874822
1776815088185002500,12.09900244140625,1.3280495154589413,-0.024765607944130897,0.34261809016168115
1776815088195039500,12.10903955078125,0.6713339116990565,-0.3581535129457712,0.1539963834911585
1776815088205077500,12.119077392578125,0.27604806118905545,-0.7118915475368499,-0.09073913232833146
1776815088215114500,12.129114501953126,0.7855132485866546,-1.380488727748394,-0.030964316453784703
1776815088225151500,12.1391513671875,0.8415338264942168,-1.7089204716473816,0.03329232100993395
1776815088235189500,12.149189453125,0.891437382826209,-0.8669140592053532,0.29072072966396806
1776815088245226500,12.1592265625,0.33171558787524696,-0.3203703102573752,0.7719336360454558
1776815088255263500,12.169263427734375,0.2935726119637489,-0.1846294221639633,1.0252127430003135
1776815088265301500,12.179301513671875,0.47543490750193595,0.8271297458276152,0.7215526714600622
1776815088275338500,12.18933837890625,0.338534035718441,0.335453020837903,-0.11476963093094528
1776815088285375500,12.19937548828125,0.2760691039770841,-0.5559145116224885,-0.8789348979972302
1776815088295413500,12.20941357421875,-0.11628127760291099,-0.612169482807815,-0.7554710154138505
1776815088305450500,12.219450439453125,0.40368776815235613,-1.0304302584528922,-0.12184833714552223
1776815088315487700,12.22948779296875,0.36183775441646576,-0.5339525629222392,0.39987361669167876
1776815088325525500,12.239525390625,-0.19191724108457564,-0.4050447357192635,0.9601055531218647
1776815088335562500,12.2495625,0.12962065164744854,-0.17851356963217258,1.0025698262985796
1776815088345599500,12.259599609375,-0.11435235536694525,-0.5007856218576431,0.7725373010270297
1776815088355636500,12.269636474609374,-0.8527490479916333,-0.7810892946645617,0.0723478817217052
1776815088365674500,12.279674560546875,-1.2310878553539515,-0.4910036480337381,-0.8138231050089001
1776815088375711500,12.28971142578125,-0.46114451634287834,-0.36719606657922266,-1.1687956498309968
1776815088385748500,12.29974853515625,-0.39886663160622116,-0.13179814181700347,-0.5501033411256968
1776815088395786500,12.309786376953125,-1.6540408804684876,0.2670366333462298,0.3244187819305807
1776815088405823500,12.319823486328126,-1.8240034793764353,0.03427373326271772,1.8361935372553764
1776815088415860500,12.329860595703124,-3.0342198116153476,-0.08465235976055265,2.9229964019238945
1776815088425898500,12.3398984375,-2.8030186078906056,0.05420907150618732,1.663614033847302
1776815088435935500,12.349935546875,-1.526848917272687,0.15127411892041562,0.22274309891574084
1776815088445972500,12.359972412109375,-0.9503805701822042,0.4431489870555699,-0.9555680558227002
1776815088456010500,12.370010498046875,0.8281085277318954,0.9173759800724685,-1.9756150135576724
1776815088466047500,12.380047607421876,1.4937158784776925,1.6346169258132577,-1.7457263537362218
1776815088476084500,12.39008447265625,-0.6022329029440879,0.285391479198914,-1.0111666089259088
1776815088486122500,12.40012255859375,-2.119265944123268,-0.8909015223838388,0.24177717747054991
1776815088496159500,12.410159423828125,-2.8641870700806376,-1.2944006360962985,1.455581816525012
1776815088506196500,12.420196533203125,-3.213699595931172,-1.3200618777059019,1.3503700683385134
1776815088516234500,12.430234375,-3.088770316970348,-1.1845890659641474,0.657550227953121
1776815088526271500,12.440271484375,-1.500675196096301,-1.0734342645294963,0.10142667668983339
1776815088536308500,12.45030859375,-1.5832809985905885,-1.5741335232779383,-0.13303148300424217
1776815088546345500,12.460345458984374,-0.7721978399395942,-1.2543148555539547,-0.38775596646182237
1776815088556383500,12.470383544921875,-0.9895932211518287,-1.0948447168268263,-0.1640926108960062
1776815088566420500,12.48042041015625,-2.146404126417637,-1.1020964415207504,-0.2985454319402575
1776815088576457500,12.49045751953125,-2.450849430051446,-1.0355250243086367,-0.696784871558845
1776815088586495500,12.50049560546875,-2.5005600941598414,-0.8289309500306844,-0.5374590366732329
1776815088596532500,12.510532470703126,-2.022248169916868,-0.8142000485625117,-0.6497733834065497
1776815088606569500,12.520569580078124,-2.1268401787698266,-0.9837723329786211,-0.3675952219646424
1776815088616607500,12.530607421875,-2.5866058079749346,-0.939962928803265,0.26841559354923666
1776815088626644700,12.540644775390625,-3.2268641979306936,-1.173405773974955,0.613437895308435
1776815088636681500,12.550681396484375,-3.657151219195127,-0.7685411440629512,1.1035448136981576
1776815088646719500,12.560719482421876,-3.5438603555798527,-0.08289251048117875,0.7043925700835884
1776815088656756500,12.570756591796876,-3.981989322516322,0.5435929363183677,-0.1671377507455647
1776815088666793500,12.58079345703125,-3.5504835731118916,0.5787003439262509,-0.9958226170606911
1776815088676831500,12.59083154296875,-3.0899948903292414,0.6571892856862396,-0.6586542436722665
