time,seconds_elapsed,z,y,x
1776815076190391600,0.1043916015625,0.5592512488365173,1.3702410459518433,0.20737667381763458
1776815076200429300,0.11442919921875,0.7161835432052612,1.57029128074646,0.24090918898582458
1776815076210466300,0.12446630859375,0.8359927535057068,1.774018406867981,0.14082306623458862
1776815076220503300,0.13450341796875,0.7731772661209106,2.207411527633667,0.09446994215250015
1776815076230540500,0.14454052734375,0.4881516396999359,2.514683246612549,0.24963264167308807
1776815076240578300,0.154578369140625,0.3019647002220154,2.557551622390747,0.43123316764831543
1776815076250615300,0.164615234375,0.5687686800956726,1.66146981716156,0.9675019979476929
1776815076260652300,0.17465234375,0.9446483254432678,1.0118603706359863,1.3364543914794922
1776815076270690600,0.184690673828125,1.1438243389129639,0.2545287013053894,1.3979425430297852
1776815076280727300,0.194727294921875,0.9367477297782898,-0.37076708674430847,1.044408917427063
1776815076290764300,0.204764404296875,0.31130754947662354,-0.11459921300411224,0.1557559072971344
1776815076300802600,0.214802490234375,-0.06827956438064575,0.2863594591617584,-0.6530802845954895
1776815076310839300,0.22483935546875,-0.15268339216709137,0.29653114080429077,-1.0788654088974
1776815076320876300,0.234876220703125,-0.13541731238365173,0.02028273232281208,-1.0496833324432373
1776815076330914600,0.24491455078125,-0.1494297981262207,-0.1331116110086441,-0.770412027835846
1776815076340951600,0.25495166015625,-0.21373462677001953,-0.1858229786157608,-0.44766944646835327
1776815076350988300,0.26498828125,-0.36502134799957275,-0.26759588718414307,-0.21042120456695557
1776815076361026600,0.275026611328125,-0.4147278368473053,-0.41197627782821655,-0.12594535946846008
1776815076371063600,0.2850634765625,-0.3885897099971771,-0.6498599648475647,-0.1583951711654663
1776815076381100500,0.2951005859375,-0.3606622815132141,-0.8914153575897217,-0.20274296402931213
1776815076391138300,0.30513818359375,-0.3784268796443939,-1.0248794555664062,-0.2125074416399002
1776815076401175600,0.315175537109375,-0.35588669776916504,-1.0374248027801514,-0.1769459843635559
1776815076411212500,0.325212646484375,-0.2760097086429596,-1.0461519956588745,-0.10722097009420395
1776815076421250300,0.335250244140625,-0.20578518509864807,-1.0130704641342163,-0.022062182426452637
1776815076431287600,0.34528759765625,-0.20259259641170502,-0.9453864097595215,0.09991858899593353
1776815076441324500,0.355324462890625,-0.22236672043800354,-0.8953783512115479,0.2153172492980957
1776815076451362300,0.3653623046875,-0.23088644444942474,-0.7915984392166138,0.2834552824497223
1776815076461399300,0.3753994140625,-0.24883857369422913,-0.754643976688385,0.29981154203414917
1776815076471436500,0.3854365234375,-0.22519584000110626,-0.8274537920951843,0.25331488251686096
1776815076481474300,0.395474365234375,-0.23366813361644745,-0.8136706948280334,0.19276106357574463
1776815076491511300,0.40551123046875,-0.252622127532959,-0.8017866015434265,0.13584132492542267
1776815076501548500,0.415548583984375,-0.23679372668266296,-0.8049739599227905,0.10557619482278824
1776815076511586300,0.42558642578125,-0.2231181263923645,-0.797994077205658,0.12225823849439621
1776815076521623300,0.435623291015625,-0.18227866291999817,-0.7800928354263306,0.14647148549556732
1776815076531660300,0.445660400390625,-0.115977942943573,-0.6915991902351379,0.18629851937294006
1776815076541698600,0.455698486328125,-0.09285591542720795,-0.623245894908905,0.2259529083967209
1776815076551735300,0.4657353515625,-0.11670026183128357,-0.5288403034210205,0.25010403990745544
1776815076561772300,0.475772216796875,-0.1308857947587967,-0.42589622735977173,0.22812020778656006
1776815076571810600,0.485810546875,-0.09480608999729156,-0.3081733286380768,0.17852015793323517
1776815076581847600,0.49584765625,-0.07324662059545517,-0.13503295183181763,0.1528288722038269
1776815076591884300,0.50588427734375,-0.0931050181388855,0.029738683253526688,0.16798996925354004
1776815076601921300,0.51592138671875,-0.08639432489871979,0.09424159675836563,0.142621248960495
1776815076611959600,0.52595947265625,-0.03610957786440849,0.22241421043872833,0.12880823016166687
1776815076621996300,0.535996337890625,-0.015377949923276901,0.3325914442539215,0.13810917735099792
1776815076632033300,0.546033203125,0.039062656462192535,0.41639605164527893,0.1311468780040741
1776815076642071600,0.556071533203125,0.10741830617189407,0.5412059426307678,0.1494145691394806
1776815076652108500,0.566108642578125,0.14380109310150146,0.766243577003479,0.19300732016563416
1776815076662145300,0.576145263671875,0.13200591504573822,0.9878158569335938,0.2031363844871521
1776815076672183600,0.58618359375,0.12266141176223755,1.301059603691101,0.18173016607761383
1776815076682220500,0.596220458984375,0.1603481024503708,1.7140971422195435,0.11997246742248535
1776815076692257300,0.60625732421875,0.17865732312202454,2.305882692337036,0.08352870494127274
1776815076702295300,0.61629541015625,0.15133453905582428,2.923119306564331,0.07040742039680481
1776815076712332500,0.62633251953125,0.08767195045948029,3.2360146045684814,0.08809693157672882
1776815076722369300,0.636369384765625,-0.03861862048506737,3.3243308067321777,-0.0013150421436876059
1776815076732407300,0.6464072265625,-0.2138623297214508,3.3843908309936523,-0.1531466543674469
1776815076742444300,0.6564443359375,-0.35850828886032104,3.5740811824798584,-0.2952028810977936
1776815076752481300,0.666481201171875,-0.3529726266860962,3.5427916049957275,-0.3976312577724457
1776815076762519300,0.676519287109375,-0.20770417153835297,2.9085073471069336,-0.3860152065753937
1776815076772556300,0.686556396484375,-0.19081814587116241,1.991127848625183,-0.5284192562103271
1776815076782593300,0.69659326171875,-0.38688191771507263,1.2831320762634277,-0.7546190619468689
1776815076792631300,0.70663134765625,-0.5649328231811523,0.7989736795425415,-1.0041226148605347
1776815076802668300,0.716668212890625,-0.5511870384216309,0.5203799605369568,-1.1665273904800415
1776815076812705300,0.726705322265625,-0.44201451539993286,0.5562689900398254,-1.1248794794082642
1776815076822743300,0.736743408203125,-0.2739294469356537,0.527945339679718,-0.9065370559692383
1776815076832780300,0.7467802734375,-0.10851970314979553,0.19504328072071075,-0.5361723303794861
1776815076842817300,0.7568173828125,-0.008918588049709797,-0.3546234369277954,-0.24867352843284607
1776815076852855300,0.766855224609375,-0.1235748678445816,-0.9503549933433533,-0.07889354228973389
1776815076862892300,0.776892333984375,-0.24779601395130157,-1.3717694282531738,-0.006855601444840431
1776815076872929300,0.78692919921875,-0.23544907569885254,-1.4645872116088867,-0.07242662459611893
1776815076882967300,0.79696728515625,-0.12878000736236572,-1.3703937530517578,-0.26121166348457336
1776815076893004300,0.80700439453125,-0.019814113155007362,-1.0770518779754639,-0.43695420026779175
1776815076903041300,0.817041259765625,-0.03028024733066559,-0.7354644536972046,-0.4925541281700134
1776815076913079300,0.827079345703125,-0.1437612622976303,-0.5063306093215942,-0.47326380014419556
1776815076923116300,0.8371162109375,-0.1798221468925476,-0.3561462461948395,-0.47492051124572754
1776815076933153300,0.8471533203125,-0.1214030534029007,-0.23674260079860687,-0.48866215348243713
1776815076943191300,0.85719140625,-0.06357018649578094,-0.117964006960392,-0.4684625566005707
1776815076953228300,0.867228271484375,-0.03703578561544418,0.03931296616792679,-0.3746201992034912
1776815076963265300,0.877265380859375,0.01858079992234707,0.12654010951519012,-0.21551001071929932
1776815076973303300,0.88730322265625,0.08065082877874374,0.13020089268684387,-0.06883508712053299
1776815076983340300,0.89734033203125,0.17032717168331146,0.14056609570980072,0.004509368911385536
1776815076993377300,0.907377197265625,0.23241771757602692,0.1635260134935379,-0.06690488755702972
1776815077003415300,0.917415283203125,0.25661802291870117,0.21846918761730194,-0.20152884721755981
1776815077013452300,0.927452392578125,0.22954991459846497,0.3385127782821655,-0.33996474742889404
1776815077023489300,0.9374892578125,0.0686633363366127,0.37158724665641785,-0.504289984703064
1776815077033527300,0.94752734375,-0.32297420501708984,0.24884241819381714,-0.6174860596656799
1776815077043564300,0.957564208984375,-0.8263530135154724,0.29783573746681213,-0.6984889507293701
1776815077053601300,0.967601318359375,-1.2368733882904053,0.5049103498458862,-0.7641941905021667
1776815077063639300,0.977639404296875,-1.4364675283432007,0.9298281073570251,-0.7537417411804199
1776815077073676300,0.98767626953125,-1.4252485036849976,1.4328595399856567,-0.6742392182350159
1776815077083713300,0.99771337890625,-1.4916868209838867,1.783596396446228,-0.6687130331993103
1776815077093751300,1.007751220703125,-1.8864096403121948,1.837825894355774,-0.7802371978759766
1776815077103788300,1.017788330078125,-2.36692214012146,1.7721203565597534,-1.0954190492630005
1776815077113825300,1.0278251953125,-2.652710199356079,1.6673811674118042,-1.560333251953125
1776815077123863300,1.03786328125,-2.713038921356201,1.5264592170715332,-2.12955379486084
1776815077133900300,1.047900390625,-2.700378656387329,1.2348084449768066,-2.754045009613037
1776815077143937300,1.057937255859375,-2.7118067741394043,0.9747391939163208,-3.508615255355835
1776815077153975300,1.067975341796875,-2.6816751956939697,1.0685113668441772,-4.436203956604004
1776815077164012300,1.07801220703125,-2.6491997241973877,1.4095319509506226,-5.287720680236816
1776815077174049300,1.08804931640625,-2.6342921257019043,1.8239086866378784,-5.815144062042236
1776815077184087300,1.09808740234375,-2.7081379890441895,1.8691543340682983,-6.0323638916015625
1776815077194124300,1.108124267578125,-2.92207932472229,1.7002177238464355,-6.117093086242676
1776815077204161300,1.118161376953125,-3.228942632675171,1.5085439682006836,-6.29345178604126
1776815077214199300,1.12819921875,-3.389904737472534,1.7116975784301758,-6.542471408843994
1776815077224236300,1.138236328125,-3.2758100032806396,1.9341485500335693,-6.6922149658203125
1776815077234273300,1.148273193359375,-2.963574171066284,2.0023205280303955,-6.434446334838867
1776815077244311300,1.158311279296875,-2.5370376110076904,1.5124576091766357,-5.791049957275391
1776815077254348300,1.168348388671875,-2.1456034183502197,0.9825513958930969,-5.107120990753174
1776815077264385300,1.17838525390625,-1.8677260875701904,0.37783297896385193,-4.5834808349609375
1776815077274423300,1.18842333984375,-1.6123079061508179,-0.21189315617084503,-4.327314376831055
1776815077284460300,1.198460205078125,-1.3659082651138306,-0.8317291736602783,-4.185694217681885
1776815077294497300,1.208497314453125,-0.9869969487190247,-1.7540338039398193,-4.116217613220215
1776815077304535300,1.218535400390625,-0.41785386204719543,-2.4801743030548096,-4.036772727966309
1776815077314572300,1.228572265625,0.18848426640033722,-2.7442846298217773,-3.8242945671081543
1776815077324609300,1.238609375,0.7217121720314026,-2.129779100418091,-3.3247506618499756
1776815077334647300,1.248647216796875,0.8752812147140503,-0.6610899567604065,-2.389752149581909
1776815077344684300,1.258684326171875,0.9649893641471863,0.16675430536270142,-1.345999002456665
1776815077354721300,1.26872119140625,1.1605433225631714,0.6610686779022217,-0.3813740313053131
1776815077364759300,1.27875927734375,0.6418644785881042,2.306307792663574,0.30128827691078186
1776815077374796300,1.28879638671875,0.8503433465957642,1.6437681913375854,1.0971462726593018
1776815077384833300,1.298833251953125,0.9034616351127625,1.0950325727462769,1.9069335460662842
1776815077394871300,1.308871337890625,0.25342392921447754,0.6736358404159546,2.044631242752075
1776815077404908300,1.318908203125,-0.3562951982021332,0.9148443341255188,1.3279086351394653
1776815077414945300,1.3289453125,-0.3115767240524292,1.4514439105987549,0.23545680940151215
1776815077424983300,1.3389833984375,-0.13289017975330353,1.5707322359085083,-0.6303572058677673
1776815077435020300,1.349020263671875,0.02268075942993164,1.6711530685424805,-0.987684965133667
1776815077445057300,1.359057373046875,-0.2914583683013916,1.7379133701324463,-1.1748876571655273
1776815077455095300,1.36909521484375,-0.9362464547157288,2.9488625526428223,-1.6710240840911865
1776815077465132300,1.37913232421875,-0.22955171763896942,4.558629989624023,-2.1900079250335693
1776815077475169300,1.389169189453125,0.8458545804023743,4.9710235595703125,-2.044528007507324
1776815077485207300,1.399207275390625,0.8758628368377686,3.2605812549591064,-1.8685814142227173
1776815077495244300,1.409244384765625,0.3029468357563019,3.032719373703003,-2.001032829284668
1776815077505281300,1.41928125,-0.3706631064414978,5.367818355560303,-2.180457830429077
1776815077515319300,1.4293193359375,0.6085814833641052,7.414224147796631,-3.1810295581817627
1776815077525356300,1.439356201171875,1.9983742237091064,7.1900553703308105,-4.240524768829346
1776815077535393300,1.449393310546875,2.3331429958343506,5.661103248596191,-4.460306167602539
1776815077545431300,1.459431396484375,2.22051739692688,3.1628377437591553,-3.886364698410034
1776815077555468300,1.46946826171875,2.45950984954834,0.9132673740386963,-1.9137595891952515
1776815077565505300,1.47950537109375,2.5200583934783936,-0.45915448665618896,-0.5087230205535889
1776815077575543300,1.489543212890625,2.0590553283691406,-1.0261056423187256,-0.34102535247802734
1776815077585580300,1.499580322265625,0.8923798203468323,-1.0596369504928589,-0.33715203404426575
1776815077595617300,1.5096171875,-0.19631054997444153,-0.19067394733428955,-0.4563087821006775
1776815077605655300,1.5196552734375,-0.5560575127601624,0.746884286403656,-1.0817323923110962
1776815077615692300,1.5296923828125,-0.3802787959575653,1.3293287754058838,-1.8777579069137573
1776815077625729300,1.539729248046875,-0.1293080747127533,0.9713349938392639,-1.9372215270996094
1776815077635767300,1.549767333984375,0.23110602796077728,0.3003939390182495,-1.088783621788025
1776815077645804300,1.55980419921875,0.4803166389465332,0.17726127803325653,-0.8576327562332153
1776815077655841300,1.56984130859375,0.43751752376556396,0.40808412432670593,-1.1558045148849487
1776815077665879300,1.57987939453125,0.19890332221984863,0.8605039715766907,-1.4750261306762695
1776815077675916300,1.589916259765625,0.17389969527721405,1.2226289510726929,-1.6220046281814575
1776815077685953300,1.599953369140625,0.2383030205965042,1.1160420179367065,-1.31736421585083
1776815077695991300,1.6099912109375,0.16741687059402466,0.9511196613311768,-0.801826536655426
1776815077706028300,1.6200283203125,0.12957003712654114,1.1056954860687256,-1.0963772535324097
1776815077716065300,1.630065185546875,0.11937946081161499,1.1037753820419312,-1.096801519393921
1776815077726103300,1.640103271484375,0.1216956377029419,0.8981771469116211,-1.0532599687576294
1776815077736140300,1.650140380859375,0.20076356828212738,0.5227651596069336,-0.5778633952140808
1776815077746177300,1.66017724609375,0.23213352262973785,0.23852750658988953,-0.22051788866519928
1776815077756215300,1.67021533203125,0.1658085584640503,0.2642112672328949,0.16907061636447906
1776815077766252300,1.680252197265625,0.17417491972446442,0.25767195224761963,0.19783329963684082
1776815077776289300,1.690289306640625,0.1685766875743866,-0.12499260902404785,0.014541230164468288
1776815077786327300,1.700327392578125,0.015527025796473026,-0.6251539587974548,0.21686707437038422
1776815077796364300,1.7103642578125,-0.11457531899213791,-1.1016203165054321,0.6469936966896057
1776815077806401300,1.7204013671875,-0.258411169052124,-1.5913007259368896,0.8356003761291504
1776815077816439000,1.73043896484375,-0.35920143127441406,-2.0514674186706543,0.7732693552970886
1776815077826476300,1.740476318359375,-0.4221566319465637,-2.431035280227661,1.0085099935531616
1776815077836513300,1.75051318359375,-0.4125197231769562,-2.6603589057922363,1.2896630764007568
1776815077846551300,1.76055126953125,-0.35323336720466614,-2.5470669269561768,1.203452467918396
1776815077856588300,1.77058837890625,-0.47275498509407043,-2.401700258255005,1.0758124589920044
1776815077866625300,1.780625244140625,-0.44728049635887146,-2.3853418827056885,1.0831934213638306
1776815077876663300,1.790663330078125,-0.5229334235191345,-2.0596954822540283,0.9217831492424011
1776815077886700000,1.800699951171875,-0.8347395062446594,-1.8809295892715454,0.7061042189598083
1776815077896737300,1.8107373046875,-0.7888617515563965,-1.611240029335022,0.6990670561790466
1776815077906775300,1.820775390625,-0.623765766620636,-1.4066476821899414,0.6583167314529419
1776815077916812300,1.830812255859375,-0.40015506744384766,-1.3394089937210083,0.5597070455551147
1776815077926849300,1.840849365234375,-0.33124417066574097,-1.6300197839736938,0.5939192175865173
1776815077936887300,1.85088720703125,-0.17728549242019653,-1.87671959400177,0.6466314196586609
1776815077946924300,1.86092431640625,0.02932838350534439,-2.3746254444122314,0.46588414907455444
1776815077956961300,1.870961181640625,0.13115833699703217,-2.3367843627929688,0.2768409848213196
1776815077966999300,1.880999267578125,0.055558279156684875,-1.614593744277954,0.13104967772960663
1776815077977036300,1.891036376953125,-0.12336859852075577,-1.0660909414291382,-0.02509305626153946
1776815077987073300,1.9010732421875,-0.16411587595939636,-0.5028058290481567,-0.1734662503004074
1776815077997111300,1.911111328125,-0.1632106751203537,-0.2747630774974823,-0.4023228883743286
1776815078007148300,1.921148193359375,-0.11621236801147461,-0.30948981642723083,-0.6074607372283936
1776815078017185300,1.931185302734375,-0.004116457886993885,-0.4579634666442871,-0.6253715753555298
1776815078027223300,1.941223388671875,0.2873055636882782,-0.1077323630452156,-0.5259327292442322
1776815078037260300,1.95126025390625,0.2393103539943695,-0.2782513499259949,-0.39516571164131165
1776815078047297300,1.96129736328125,0.05268329009413719,-0.4651552140712738,-0.2305688112974167
1776815078057335000,1.9713349609375,-0.043215811252593994,-0.386234313249588,-0.09268764406442642
1776815078067372300,1.981372314453125,-0.06934571266174316,-0.19479329884052277,0.011058718897402287
1776815078077409300,1.9914091796875,-0.10200991481542587,-0.1091521605849266,0.21188104152679443
1776815078087447000,2.001447021484375,-0.13973122835159302,-0.2429930865764618,0.43584567308425903
1776815078097484300,2.011484375,-0.15624921023845673,-0.3371928334236145,0.5377629995346069
1776815078107521300,2.021521240234375,-0.18545527756214142,-0.5982779860496521,0.5641058683395386
1776815078117559300,2.031559326171875,-0.29718342423439026,-0.9347963333129883,0.48974132537841797
1776815078127596000,2.041595947265625,-0.5147293210029602,-1.2172892093658447,0.43581879138946533
1776815078137633300,2.05163330078125,-0.6097053289413452,-1.6859314441680908,0.46936556696891785
1776815078147671300,2.06167138671875,-1.0249286890029907,-1.7962779998779297,0.4716024100780487
1776815078157708300,2.071708251953125,-1.765136480331421,-1.0346158742904663,0.2544400095939636
1776815078167745300,2.081745361328125,-2.544858932495117,-0.2213059514760971,-0.17671163380146027
1776815078177783300,2.091783203125,-2.8220927715301514,0.397621214389801,-0.5648702383041382
1776815078187820300,2.1018203125,-2.7009329795837402,0.6639979481697083,-0.5643791556358337
1776815078197857000,2.11185693359375,-2.4956164360046387,1.1707082986831665,-0.503390371799469
1776815078207895300,2.121895263671875,-2.3577897548675537,2.2266273498535156,-0.6736794710159302
1776815078217932300,2.131932373046875,-2.1680498123168945,3.1851038932800293,-0.8163468837738037
1776815078227969300,2.14196923828125,-1.6086865663528442,3.54252290725708,-0.6690315008163452
1776815078238007300,2.15200732421875,-1.1993927955627441,3.4463624954223633,-0.5822651982307434
1776815078248044300,2.162044189453125,-0.7702462673187256,2.8533055782318115,-0.5037943720817566
1776815078258081300,2.172081298828125,-0.3810071349143982,1.987733244895935,-0.36989009380340576
1776815078268119300,2.182119384765625,0.029671911150217056,0.7764263153076172,-0.2574287950992584
1776815078278156300,2.19215625,-0.2386319786310196,-0.07742391526699066,-0.30487194657325745
1776815078288193300,2.202193359375,-0.6694842576980591,-0.3762369751930237,-0.2717882990837097
1776815078298231300,2.212231201171875,-0.8180844187736511,-0.4167995750904083,-0.1273203194141388
1776815078308268300,2.222268310546875,-0.8309786319732666,-0.4006078243255615,0.14093908667564392
1776815078318305300,2.23230517578125,-0.5960752964019775,-0.49316519498825073,0.4483424425125122
1776815078328343000,2.242343017578125,-0.37254464626312256,-0.8584671020507812,0.7416276335716248
1776815078338380300,2.25238037109375,-0.35875824093818665,-0.7645747065544128,0.7670203447341919
1776815078348417300,2.262417236328125,-0.4759104549884796,-0.9217686057090759,0.7311033010482788
1776815078358455300,2.272455322265625,-0.6362742781639099,-1.1487398147583008,0.7343617081642151
1776815078368492300,2.2824921875,-0.6560268998146057,-1.5190075635910034,0.6941308975219727
1776815078378529300,2.292529296875,0.10944334417581558,-2.6949574947357178,0.8353825211524963
1776815078388567300,2.3025673828125,0.10004088282585144,-3.102221965789795,0.669802725315094
1776815078398604000,2.31260400390625,-0.23813611268997192,-2.8535470962524414,0.3723156452178955
1776815078408641300,2.322641357421875,-0.49800756573677063,-2.53061842918396,0.18284323811531067
1776815078418679300,2.33267919921875,-0.6360769867897034,-2.1240530014038086,0.10029535740613937
1776815078428716300,2.34271630859375,-0.5471822023391724,-1.7443727254867554,0.2945117652416229
1776815078438753300,2.352753173828125,-0.22371381521224976,-1.7428702116012573,0.21501988172531128
1776815078448791300,2.362791259765625,-0.49352705478668213,-1.423153042793274,0.6609196662902832
1776815078458828300,2.372828369140625,-0.6048077940940857,-0.9920980334281921,0.4787842035293579
1776815078468865300,2.382865234375,-0.5911746621131897,-0.6729801297187805,0.2562592029571533
1776815078478903300,2.3929033203125,-0.40835532546043396,-0.4366150498390198,0.1625974029302597
1776815078488940300,2.402940185546875,-0.3653447926044464,-0.2704671323299408,0.1991431564092636
1776815078498977300,2.412977294921875,-0.3941042423248291,-0.12886926531791687,0.2916957139968872
1776815078509015300,2.423015380859375,-0.426036536693573,-0.09372153878211975,0.3567259609699249
1776815078519052300,2.43305224609375,-0.40121376514434814,-0.2750591039657593,0.24698960781097412
1776815078529089300,2.44308935546875,-0.27650773525238037,-0.35404691100120544,0.10299715399742126
1776815078539127300,2.453127197265625,-0.08428634703159332,-0.03457704558968544,-0.012116115540266037
1776815078549164300,2.463164306640625,0.15449410676956177,-0.4931471347808838,-0.29521995782852173
1776815078559201300,2.473201171875,0.045809436589479446,-0.1766890287399292,-0.2246944010257721
1776815078569239000,2.483239013671875,0.02211909182369709,-0.04874366894364357,0.043039657175540924
1776815078579276300,2.4932763671875,0.1468074917793274,-0.22153674066066742,0.2059878259897232
1776815078589313300,2.503313232421875,0.2562989592552185,-0.2166668325662613,0.08629921078681946
1776815078599351000,2.51335107421875,0.4074820876121521,-0.01992313750088215,-0.08529757708311081
1776815078609388300,2.52338818359375,0.6585981249809265,0.03748183697462082,-0.07424694299697876
1776815078619425300,2.53342529296875,1.0161056518554688,0.15426038205623627,0.14907962083816528
1776815078629463300,2.54346337890625,0.8571856021881104,0.5043628215789795,0.37457266449928284
1776815078639500000,2.5535,0.6794885396957397,0.2889232337474823,0.7020930647850037
1776815078649537300,2.563537353515625,0.6767822504043579,0.34384793043136597,0.8664501905441284
1776815078659575300,2.5735751953125,0.6829535961151123,0.4841208755970001,0.7293168306350708
1776815078669612300,2.5836123046875,0.5445013642311096,0.16503648459911346,0.2321498692035675
1776815078679649300,2.593649169921875,0.17554888129234314,-0.41487133502960205,-0.4267129898071289
1776815078689687300,2.603687255859375,-0.16244783997535706,-0.4706380069255829,-0.7859220504760742
1776815078699724300,2.613724365234375,-0.38458317518234253,-0.18552717566490173,-0.781450092792511
1776815078709761000,2.623760986328125,-0.49660202860832214,0.17816443741321564,-0.5616434812545776
1776815078719803000,2.633802978515625,-0.5336675643920898,0.3030347526073456,-0.31378602981567383
1776815078729839900,2.64383984375,-0.3080405592918396,0.32826870679855347,-0.12260553240776062
1776815078739876900,2.653876953125,-0.011484770104289055,0.13940557837486267,0.10629662871360779
1776815078749915000,2.663914794921875,0.1045578345656395,-0.20122578740119934,0.11021099984645844
1776815078759952000,2.673951904296875,-0.043945878744125366,-0.3145938813686371,0.061262357980012894
1776815078769988900,2.68398876953125,-0.2775906026363373,-0.06569734215736389,0.1477484554052353
1776815078780027000,2.69402685546875,-0.5395971536636353,-0.08126617968082428,0.45924055576324463
1776815078790063900,2.70406396484375,-0.7791416645050049,0.12572051584720612,0.9688150882720947
1776815078800100900,2.714100830078125,-0.8929635286331177,0.6178085207939148,1.4659417867660522
1776815078810138600,2.724138671875,-1.0654730796813965,1.6033257246017456,1.46737539768219
1776815078820176000,2.73417578125,-1.228904366493225,2.5912399291992188,0.9695507287979126
1776815078830212900,2.744212890625,-1.3733513355255127,2.0047202110290527,0.6263281106948853
1776815078840250600,2.754250732421875,-1.378183364868164,1.2136234045028687,0.357353150844574
1776815078850287900,2.764287841796875,-1.404602289199829,0.8964929580688477,0.14111357927322388
1776815078860324900,2.774324951171875,-1.4375402927398682,0.5521606206893921,-0.09934696555137634
1776815078870363000,2.78436279296875,-1.551308035850525,0.42618465423583984,-0.31026503443717957
1776815078880399600,2.794399658203125,-1.5329359769821167,0.7619104981422424,-0.46931007504463196
1776815078890436900,2.804436767578125,-1.4028571844100952,0.9625644087791443,-0.4962112009525299
1776815078900475000,2.814474853515625,-1.1900755167007446,0.9360976219177246,-0.2895970344543457
1776815078910511600,2.82451171875,-1.0874840021133423,0.8796534538269043,-0.04599440097808838
1776815078920548600,2.834548583984375,-1.140859603881836,1.1033451557159424,0.016656994819641113
1776815078930585900,2.8445859375,-1.0981473922729492,1.5098308324813843,-0.30756819248199463
1776815078940624000,2.854623779296875,-0.9880550503730774,1.5594106912612915,-0.595863401889801
1776815078950660600,2.86466064453125,-0.7343409061431885,0.9060673117637634,-0.7814658284187317
1776815078960697900,2.87469775390625,-0.4725494980812073,0.2573343515396118,-0.7700027823448181
1776815078970735900,2.88473583984375,-0.6324456930160522,-0.3605150282382965,-0.24803359806537628
1776815078980772600,2.894772705078125,-0.6700929403305054,-0.27889639139175415,0.48752689361572266
1776815078990811000,2.904810791015625,-1.0457136631011963,1.0001139640808105,0.8975660800933838
1776815079000848000,2.914847900390625,-1.374571681022644,1.724915862083435,0.9973767995834351
1776815079010884900,2.924884765625,-1.3406976461410522,1.8701952695846558,0.8914702534675598
1776815079020921600,2.934921630859375,-1.0595288276672363,1.6525830030441284,0.5532714128494263
1776815079030959900,2.9449599609375,-0.5930144786834717,0.9229961037635803,-0.017317308112978935
1776815079040996900,2.954996826171875,-0.07631493359804153,0.22357386350631714,-0.515448808670044
1776815079051033900,2.965033935546875,0.047793418169021606,-0.17669080197811127,-0.7408524751663208
1776815079061072000,2.97507177734375,0.09995569288730621,-0.3353789746761322,-0.7316970229148865
1776815079071108900,2.98510888671875,0.24767449498176575,-0.41982290148735046,-0.5084487795829773
1776815079081145900,2.995145751953125,0.18497249484062195,-0.4430512487888336,-0.1516195684671402
1776815079091183900,3.005183837890625,0.024702351540327072,-0.5063568353652954,0.17189103364944458
1776815079101220900,3.015220947265625,0.09295570850372314,-0.5051554441452026,0.331633061170578
1776815079111257900,3.0252578125,0.07370568811893463,-0.2871505320072174,0.20252177119255066
1776815079121295600,3.035295654296875,-0.29943594336509705,-0.0792258083820343,0.10021056979894638
1776815079131332900,3.045332763671875,-0.2629487216472626,0.18231070041656494,0.07936035096645355
1776815079141369900,3.055369873046875,0.13632279634475708,0.01630442589521408,-0.08743449300527573
1776815079151407600,3.06540771484375,-0.03250422328710556,0.21341827511787415,-0.010443412698805332
1776815079161444900,3.07544482421875,-0.08410962671041489,-0.17955270409584045,0.0003921911120414734
1776815079171481900,3.08548193359375,-0.12651991844177246,-0.2753518521785736,-0.05415647104382515
1776815079181520000,3.095519775390625,-0.07714198529720306,-0.11440984159708023,0.008538603782653809
1776815079191556600,3.105556640625,0.04243467003107071,-0.39714667201042175,-0.035027604550123215
1776815079201593900,3.11559375,-0.012238428927958012,-0.15740488469600677,0.042059190571308136
1776815079211631900,3.1256318359375,0.01760200783610344,-0.13248825073242188,0.03403015434741974
1776815079221668600,3.135668701171875,0.022374659776687622,-0.11252838373184204,-0.016825299710035324
1776815079231705900,3.145705810546875,0.03614121675491333,-0.09534958750009537,-0.045647718012332916
1776815079241744000,3.155743896484375,0.052675455808639526,-0.0884123221039772,-0.06772079318761826
1776815079251780900,3.16578076171875,0.040563251823186874,-0.09633450210094452,-0.08310818672180176
1776815079261817600,3.175817626953125,0.03300093859434128,-0.06716569513082504,-0.07724470645189285
1776815079271855900,3.18585595703125,0.022571368142962456,-0.03600320219993591,-0.055946215987205505
1776815079281892900,3.195892822265625,0.008542634546756744,-0.07140140980482101,-0.06247388944029808
1776815079291929600,3.2059296875,0.012586468830704689,-0.13030080497264862,-0.03382991999387741
1776815079301968000,3.2159677734375,0.05321698263287544,-0.01957589015364647,0.08184394985437393
1776815079312004900,3.2260048828125,0.0673128068447113,-0.01572093367576599,0.39799341559410095
1776815079322041900,3.236041748046875,0.20028790831565857,0.22295662760734558,0.5757107138633728
1776815079332079900,3.246079833984375,0.15783850848674774,0.4673221707344055,0.4461335241794586
1776815079342116900,3.256116943359375,-0.14763645827770233,0.48359808325767517,0.1166464164853096
1776815079352153900,3.26615380859375,-0.3962181508541107,0.41048291325569153,-0.08018716424703598
1776815079362192000,3.27619189453125,-0.5366309285163879,0.20961825549602509,-0.22237466275691986
1776815079372228900,3.286228759765625,-0.6216889023780823,-0.0028432945255190134,-0.4398902356624603
1776815079382265900,3.296265869140625,-0.6306632161140442,-0.16289022564888,-0.5128490924835205
1776815079392303600,3.3063037109375,-0.5891439318656921,-0.5695464611053467,-0.45196333527565
1776815079402340900,3.3163408203125,-0.48028454184532166,-0.5018038749694824,-0.2894716262817383
1776815079412377900,3.3263779296875,-0.3485696613788605,-0.3020990788936615,-0.20516179502010345
1776815079422415600,3.33641552734375,-0.21967823803424835,-0.24800333380699158,-0.24355392158031464
1776815079432452600,3.34645263671875,-0.13265469670295715,-0.23731759190559387,-0.32488441467285156
1776815079442489900,3.35648974609375,-0.19549492001533508,-0.2973436415195465,-0.3504140079021454
1776815079452527900,3.36652783203125,-0.37308448553085327,-0.35650861263275146,-0.41362443566322327
1776815079462564600,3.376564697265625,-0.4122265577316284,-0.3976059854030609,-0.4419013261795044
1776815079472601900,3.386601806640625,-0.306529700756073,-0.49138614535331726,-0.6783560514450073
1776815079482640000,3.396639892578125,-0.34975600242614746,-0.545015811920166,-0.7846732139587402
1776815079492676600,3.406676513671875,-0.3882758319377899,-0.2358340322971344,-0.6002566814422607
1776815079502713600,3.416713623046875,-0.5515510439872742,-0.3212253749370575,-0.9190623760223389
1776815079512751900,3.426751953125,-0.7880867123603821,-0.16591452062129974,-1.0448802709579468
1776815079522788900,3.436788818359375,-1.0973668098449707,0.2212449163198471,-0.8449229001998901
1776815079532825600,3.44682568359375,-1.0008734464645386,0.042379334568977356,-0.9590378999710083
1776815079542864000,3.45686376953125,-0.6948021650314331,-0.6364556550979614,-1.357486367225647
1776815079552900900,3.46690087890625,-0.450296014547348,-0.8793208003044128,-1.0253560543060303
1776815079562937900,3.476937744140625,-0.34072691202163696,-0.7850976586341858,-0.26667600870132446
1776815079572975900,3.486975830078125,-0.39982011914253235,-0.9078602194786072,-0.4712209701538086
1776815079583012900,3.497012939453125,-0.022611329331994057,-0.9207427501678467,-0.6956740617752075
1776815079593049900,3.5070498046875,0.09099641442298889,-0.6614028811454773,-0.5906023383140564
1776815079603088000,3.517087890625,-0.3889174461364746,-0.5811777710914612,-0.7856227159500122
1776815079613124900,3.527124755859375,-0.4910518229007721,-1.3268941640853882,-1.5303988456726074
1776815079623161900,3.537161865234375,-0.542436957359314,-1.6253598928451538,-1.4847313165664673
1776815079633199600,3.54719970703125,-1.125678539276123,-0.8000406622886658,-0.5917258262634277
1776815079643236900,3.55723681640625,-1.1720569133758545,-0.23956485092639923,-0.2681155204772949
1776815079653273900,3.56727392578125,-1.0996509790420532,-0.5114060640335083,-0.29310280084609985
1776815079663311600,3.5773115234375,-1.1557265520095825,-0.937021017074585,-0.35361620783805847
1776815079673348900,3.587348876953125,-1.1331411600112915,-1.1586990356445312,-0.3972245752811432
1776815079683385900,3.5973857421875,-0.8649675250053406,-1.0915263891220093,-0.4663242995738983
1776815079693423900,3.607423828125,-0.6080149412155151,-0.8103587031364441,-0.4524987041950226
1776815079703460600,3.617460693359375,-0.31427037715911865,-0.3757508099079132,-0.29187867045402527
1776815079713497900,3.627497802734375,-0.09557683765888214,-0.2459949105978012,-0.0697433277964592
1776815079723532000,3.637531982421875,-0.020183809101581573,-0.4003985822200775,0.06130896136164665
1776815079733569000,3.647569091796875,0.04592716321349144,-0.42560523748397827,0.0897504910826683
1776815079743605800,3.657605712890625,0.041688211262226105,-0.3235315978527069,0.08226247876882553
1776815079753642800,3.667642822265625,0.03530719876289368,-0.11765376478433609,0.12310563027858734
1776815079763681000,3.677680908203125,0.025525936856865883,0.03648173436522484,0.21769499778747559
1776815079773717800,3.6877177734375,-0.004710014443844557,0.146074578166008,0.32038596272468567
1776815079783754800,3.697754638671875,-0.05209244042634964,0.2136152684688568,0.4290162920951843
1776815079793793000,3.70779296875,-0.1459464579820633,0.3494110405445099,0.6122312545776367
1776815079803830000,3.717830078125,-0.2254631221294403,0.41564011573791504,0.8052193522453308
1776815079813866800,3.72786669921875,-0.33443722128868103,0.4442278742790222,0.8940234780311584
1776815079823905000,3.737905029296875,-0.37957140803337097,0.30422574281692505,0.7796819806098938
1776815079833942000,3.74794189453125,-0.40681424736976624,-0.12280875444412231,0.5162287354469299
1776815079843979000,3.75797900390625,-0.2852103114128113,-0.47662514448165894,0.16106393933296204
1776815079854016800,3.768016845703125,-0.1260373294353485,-0.587904691696167,-0.005386857781559229
1776815079864054000,3.778053955078125,-0.09023219347000122,-0.48107948899269104,0.010246163234114647
1776815079874091000,3.788091064453125,-0.024045871570706367,-0.2876249849796295,0.06605161726474762
1776815079884128800,3.798128662109375,-0.00417602714151144,-0.07682324945926666,0.18083998560905457
1776815079894166000,3.808166015625,-0.00602311035618186,0.09005661308765411,0.2812536954879761
1776815079904203000,3.818203125,-0.003921077586710453,0.18513359129428864,0.24431777000427246
1776815079914240800,3.82824072265625,0.002896152436733246,0.21275153756141663,0.2009698450565338
1776815079924277800,3.83827783203125,-0.04069606587290764,0.20130766928195953,0.1785457581281662
1776815079934315000,3.84831494140625,-0.04139736294746399,0.17590638995170593,0.20954179763793945
1776815079944352800,3.858352783203125,-0.03857601061463356,-0.002204228425398469,0.14749334752559662
1776815079954389800,3.8683896484375,-0.05683109164237976,-0.04334680736064911,0.10818798094987869
1776815079964427000,3.878427001953125,-0.047671154141426086,-0.07167351990938187,0.0933443158864975
1776815079974464800,3.88846484375,-0.05100562423467636,-0.10107172280550003,0.08048559725284576
1776815079984501800,3.898501708984375,-0.07038012146949768,-0.13604088127613068,0.0832691341638565
1776815079994538800,3.908538818359375,-0.07055497169494629,-0.15337315201759338,0.08295463770627975
1776815080004577000,3.918576904296875,-0.06447843462228775,-0.149702787399292,0.058203745633363724
1776815080014613800,3.92861376953125,-0.057070694863796234,-0.10371208935976028,0.042764246463775635
1776815080024650800,3.938650634765625,-0.0444001704454422,-0.06150498613715172,0.04238474369049072
1776815080034689000,3.94868896484375,-0.023118942975997925,-0.01953769102692604,0.04792270436882973
1776815080044726000,3.95872607421875,-0.02308885008096695,-0.010767636820673943,0.04451518878340721
1776815080054762800,3.9687626953125,-0.021971292793750763,-0.029226668179035187,0.04770569130778313
1776815080064801000,3.978801025390625,-0.022705527022480965,-0.04156136512756348,0.056125007569789886
1776815080074838000,3.988838134765625,-0.035300806164741516,-0.08878019452095032,0.03417066112160683
1776815080084873000,3.998873046875,-0.07111979275941849,-0.09976493567228317,0.042470935732126236
1776815080094911000,4.008910888671875,-0.08278056979179382,-0.10236205905675888,0.057607658207416534
1776815080104947700,4.01894775390625,-0.06617602705955505,-0.06190144643187523,0.06654283404350281
1776815080114985000,4.02898486328125,-0.056509800255298615,-0.017355583608150482,0.09650071710348129
1776815080125023000,4.03902294921875,-0.05961478129029274,0.005265307147055864,0.10890544950962067
1776815080135059700,4.049059814453125,-0.05616804584860802,0.025326011702418327,0.12247887253761292
1776815080145096700,4.0590966796875,-0.08074928820133209,-0.004571433179080486,0.1413108855485916
1776815080155135000,4.069135009765625,-0.07604846358299255,0.0043786377646028996,0.15422922372817993
1776815080165172000,4.079171875,-0.07316798716783524,0.024133434519171715,0.16924253106117249
1776815080175208700,4.089208740234375,-0.08046090602874756,0.03198831155896187,0.172499880194664
1776815080185247000,4.0992470703125,-0.07636070251464844,0.04177223518490791,0.17882782220840454
1776815080195284000,4.109283935546875,-0.07094451785087585,0.03836217150092125,0.18104885518550873
1776815080205321000,4.119321044921875,-0.06283039599657059,0.01519852876663208,0.19300724565982819
1776815080215359000,4.12935888671875,-0.06110963225364685,0.01234961487352848,0.21680690348148346
1776815080225396000,4.13939599609375,-0.0669747143983841,-0.02640789933502674,0.22526642680168152
1776815080235433000,4.149432861328125,-0.05896461755037308,-0.03686397150158882,0.22679077088832855
1776815080245470700,4.159470703125,-0.05783756822347641,-0.012524539604783058,0.2279260754585266
1776815080255508000,4.169508056640625,-0.06209889054298401,-0.006658927537500858,0.23729906976222992
1776815080265545000,4.179544921875,-0.06317773461341858,0.004650984425097704,0.25283220410346985
1776815080275582700,4.189582763671875,-0.06764230132102966,0.018400758504867554,0.274697482585907
1776815080285620000,4.199619873046875,-0.07934263348579407,0.017620185390114784,0.3024654686450958
1776815080295657000,4.209656982421875,-0.08742766082286835,0.02037106081843376,0.3413974344730377
1776815080305694700,4.21969482421875,-0.09773062914609909,0.025245442986488342,0.3855515718460083
1776815080315731700,4.229731689453125,-0.10689450800418854,0.052626483142375946,0.4294542968273163
1776815080325769000,4.23976904296875,-0.12069287896156311,0.1204175129532814,0.47871318459510803
1776815080335806700,4.249806640625,-0.13915924727916718,0.18319088220596313,0.5308703780174255
1776815080345843700,4.25984375,-0.15873853862285614,0.20057892799377441,0.5831993222236633
1776815080355881000,4.269880859375,-0.16628852486610413,0.16579082608222961,0.6144168972969055
1776815080365919000,4.2799189453125,-0.1562124490737915,0.12478134036064148,0.6477522253990173
1776815080375955700,4.289955810546875,-0.1560213416814804,0.11171896755695343,0.7036303877830505
1776815080385992700,4.29999267578125,-0.16510698199272156,0.09618901461362839,0.8081996440887451
1776815080396031000,4.310031005859375,-0.16342580318450928,0.04295720160007477,0.8952903747558594
1776815080406068000,4.32006787109375,-0.1216045692563057,-0.03025202825665474,0.9634966254234314
1776815080416104700,4.330104736328125,-0.07674465328454971,-0.08678895235061646,1.0577806234359741
1776815080426143000,4.34014306640625,-0.0008855750784277916,-0.08517321199178696,1.1388999223709106
1776815080436180000,4.350179931640625,0.054408423602581024,-0.07449968159198761,1.1379307508468628
1776815080446216700,4.360216796875,0.06510234624147415,-0.045906923711299896,1.201413869857788
1776815080456255000,4.3702548828125,0.03860534355044365,-0.011201826855540276,1.3244292736053467
1776815080466292000,4.3802919921875,0.020662561058998108,0.03618113324046135,1.3577358722686768
1776815080476329000,4.390328857421875,0.009484694339334965,0.024631598964333534,1.217808723449707
1776815080486367000,4.400366943359375,0.0063416315242648125,-0.09974654763936996,0.9814936518669128
1776815080496404000,4.410404052734375,0.04005272313952446,-0.13752509653568268,0.7422773241996765
1776815080506441000,4.42044091796875,0.051775962114334106,-0.05150365084409714,0.530930757522583
1776815080516478700,4.430478759765625,0.08141941577196121,0.09544796496629715,0.3461109697818756
1776815080526516000,4.440515869140625,0.1140170469880104,0.19602757692337036,0.15634584426879883
1776815080536553000,4.450552978515625,0.14888177812099457,0.21762560307979584,0.0005582253215834498
1776815080546590700,4.4605908203125,0.1674642413854599,0.17579133808612823,-0.1308397501707077
1776815080556628000,4.4706279296875,0.13755767047405243,0.08237919211387634,-0.259443074464798
1776815080566665000,4.4806650390625,0.07724212855100632,-0.03611976280808449,-0.34484612941741943
1776815080576702700,4.49070263671875,-0.004466832149773836,-0.14354273676872253,-0.4030488431453705
1776815080586739700,4.50073974609375,-0.07392287254333496,-0.2501927614212036,-0.44626957178115845
1776815080596777000,4.51077685546875,-0.12109887599945068,-0.39523881673812866,-0.44248253107070923
1776815080606815000,4.52081494140625,-0.122205950319767,-0.5875851511955261,-0.3929453194141388
1776815080616851700,4.530851806640625,-0.040677301585674286,-0.6999114155769348,-0.3150540292263031
1776815080626889000,4.540888916015625,0.06860844045877457,-0.6595794558525085,-0.23920585215091705
1776815080636927000,4.550927001953125,0.19550807774066925,-0.6129112243652344,-0.20350156724452972
1776815080646963700,4.560963623046875,0.3214353919029236,-0.5922714471817017,-0.1908736675977707
1776815080657000700,4.571000732421875,0.38144126534461975,-0.5001850128173828,-0.17611408233642578
1776815080667039000,4.5810390625,0.3911932408809662,-0.43656501173973083,-0.13321775197982788
1776815080677076000,4.591075927734375,0.3631054162979126,-0.4811674654483795,-0.016486667096614838
1776815080687112700,4.60111279296875,0.33776193857192993,-0.7042298316955566,0.20862847566604614
1776815080697151000,4.61115087890625,0.2756069302558899,-1.0279076099395752,0.5490603446960449
1776815080707188000,4.62118798828125,0.19238342344760895,-1.319312572479248,0.9719226360321045
1776815080717225700,4.631225830078125,0.13815021514892578,-1.5375347137451172,1.428652286529541
1776815080727263000,4.641262939453125,0.11816506087779999,-1.6311285495758057,1.7643272876739502
1776815080737300000,4.651300048828125,0.10174493491649628,-1.5983754396438599,1.9446004629135132
1776815080747338000,4.661337890625,0.0607125498354435,-1.604645848274231,2.046091079711914
1776815080757375000,4.671375,0.003498293459415436,-1.35795259475708,2.107757091522217
1776815080767412000,4.681411865234375,0.05438384413719177,-0.8894842267036438,2.161836862564087
1776815080777450000,4.691449951171875,0.057542331516742706,-0.3410112261772156,2.186890125274658
1776815080787487000,4.701487060546875,0.21948835253715515,-0.09205759316682816,2.2075328826904297
1776815080797524000,4.71152392578125,0.35374072194099426,0.12782911956310272,2.302053928375244
1776815080807562200,4.721562255859375,0.5155221819877625,0.5529218316078186,2.344400644302368
1776815080817599000,4.731598876953125,0.6583893895149231,0.8686896562576294,2.232616901397705
1776815080827636000,4.741635986328125,0.6979005336761475,0.7551779747009277,2.154433250427246
1776815080837674000,4.751674072265625,0.6799986958503723,0.4527854919433594,2.2187445163726807
1776815080847711000,4.7617109375,0.6642759442329407,0.19222953915596008,2.261051893234253
1776815080857748000,4.771748046875,0.6454947590827942,0.18002213537693024,2.2273147106170654
1776815080867786000,4.781785888671875,0.6032218933105469,0.29378199577331543,2.1568615436553955
1776815080877823200,4.7918232421875,0.6469659209251404,0.5431177616119385,2.163487195968628
1776815080887860000,4.80185986328125,0.6778357028961182,0.5652505159378052,2.14267635345459
1776815080897898000,4.81189794921875,0.7433217167854309,0.35132256150245667,2.114691972732544
1776815080907935000,4.82193505859375,0.7724571824073792,0.08637586236000061,2.1310904026031494
1776815080917972000,4.831971923828125,0.8444922566413879,-0.13883823156356812,2.1057093143463135
1776815080928010000,4.842010009765625,0.9526535868644714,-0.2941279411315918,2.0357158184051514
1776815080938047000,4.852046875,1.021071434020996,-0.42955413460731506,1.9879865646362305
1776815080948084200,4.862084228515625,0.9918147325515747,-0.47901543974876404,2.0075454711914062
1776815080958122000,4.8721220703125,0.8808390498161316,-0.4408450126647949,2.0638911724090576
1776815080968159000,4.882158935546875,0.7061806917190552,-0.3978877067565918,2.147923469543457
1776815080978196000,4.892196044921875,0.6242021918296814,-0.3946329653263092,2.1932718753814697
1776815080988234000,4.90223388671875,0.5067160725593567,-0.2660835087299347,2.190807819366455
1776815080998271000,4.91227099609375,0.46118125319480896,-0.12408218532800674,2.145312547683716
1776815081008308000,4.922307861328125,0.42870399355888367,0.007744817994534969,2.1062324047088623
1776815081018346000,4.932345947265625,0.4146135151386261,0.17369399964809418,2.107041120529175
1776815081028383000,4.942383056640625,0.4825078845024109,0.18004031479358673,2.073004961013794
1776815081038420000,4.952419921875,0.4612601399421692,0.015639137476682663,2.0434019565582275
1776815081048458000,4.9624580078125,0.6207568645477295,-0.1389096975326538,2.0032308101654053
1776815081058495000,4.972494873046875,0.5713728070259094,-0.28262850642204285,2.035057783126831
1776815081068532000,4.982531982421875,0.5664328932762146,-0.4839669466018677,2.1114466190338135
1776815081078570000,4.992570068359375,0.4519229531288147,-0.5306814312934875,2.163518190383911
1776815081088607000,5.00260693359375,0.4072670638561249,-0.5309227108955383,2.174410104751587
1776815081098644000,5.01264404296875,0.350116491317749,-0.4673652946949005,2.223862886428833
1776815081108682000,5.022681884765625,0.3366142511367798,-0.33383437991142273,2.2684521675109863
1776815081118719000,5.032718994140625,0.2984198331832886,-0.22964198887348175,2.2673513889312744
1776815081128756000,5.042755859375,0.22237008810043335,-0.28498008847236633,2.26395845413208
1776815081138794000,5.0527939453125,0.2568475902080536,-0.24591906368732452,2.260650873184204
1776815081148831000,5.0628310546875,0.2724619507789612,-0.15219496190547943,2.262624502182007
1776815081158868000,5.072867919921875,0.3458729386329651,-0.17030571401119232,2.2258479595184326
1776815081168906000,5.082906005859375,0.4413834810256958,-0.07736751437187195,2.1840193271636963
1776815081178943000,5.09294287109375,0.3816401958465576,-0.26783519983291626,2.1981701850891113
1776815081188980200,5.102980224609375,0.34563982486724854,-0.186931312084198,2.188882350921631
1776815081199018000,5.11301806640625,0.26446935534477234,-0.05758892372250557,2.231768846511841
1776815081209055000,5.123054931640625,0.2154669314622879,0.05703219771385193,2.2140679359436035
1776815081219092000,5.133092041015625,0.20432357490062714,0.11813134700059891,2.1402065753936768
1776815081229130000,5.1431298828125,0.18400739133358002,0.09097936004400253,2.0565578937530518
1776815081239167000,5.1531669921875,0.17235882580280304,-0.010342896915972233,2.0138797760009766
1776815081249204000,5.163203857421875,0.16804371774196625,-0.07135032117366791,1.9748904705047607
1776815081259242000,5.173241943359375,0.1753392368555069,-0.12124702334403992,1.946764588356018
1776815081269279000,5.183279052734375,0.08932338654994965,-0.16609013080596924,1.8837699890136719
1776815081279316000,5.19331591796875,0.08199640363454819,-0.08842131495475769,1.8112592697143555
1776815081289354000,5.20335400390625,0.06664860248565674,-0.06720683723688126,1.7467790842056274
1776815081299391000,5.213390869140625,0.05477576702833176,0.10271651297807693,1.7223037481307983
1776815081309428000,5.223427978515625,0.037252701818943024,0.14698144793510437,1.7149797677993774
1776815081319466200,5.23346630859375,0.06030096113681793,0.1448763906955719,1.7061176300048828
1776815081329503000,5.2435029296875,0.09396198391914368,0.004278792999684811,1.674564003944397
1776815081339540000,5.2535400390625,0.0917331650853157,-0.07491506636142731,1.6329199075698853
1776815081349578000,5.263577880859375,0.14053267240524292,-0.05503430590033531,1.5807358026504517
1776815081359615000,5.273614990234375,0.14146822690963745,-0.0814145877957344,1.4184993505477905
1776815081369652000,5.28365185546875,0.18913507461547852,-0.025265568867325783,1.259783148765564
1776815081379690000,5.29368994140625,0.21574516594409943,0.030536655336618423,1.161689281463623
1776815081389727200,5.303727294921875,0.22479911148548126,0.06125089153647423,1.1476677656173706
1776815081399764000,5.313763916015625,0.21275657415390015,0.06011992692947388,1.1409308910369873
1776815081409802000,5.323802001953125,0.2270423024892807,0.08806820213794708,1.1276816129684448
1776815081419839000,5.3338388671875,0.2148413509130478,0.038235150277614594,1.0883547067642212
1776815081429876000,5.3438759765625,0.1985529214143753,0.16181541979312897,1.0562236309051514
1776815081439914000,5.3539140625,0.18557964265346527,0.2569689154624939,0.9482080936431885
1776815081449951000,5.363950927734375,0.18489226698875427,0.2155493050813675,0.8106966018676758
1776815081459988200,5.37398828125,0.20582923293113708,0.17424747347831726,0.6996725797653198
1776815081470026000,5.38402587890625,0.19211502373218536,0.06804860383272171,0.6047229170799255
1776815081480063000,5.39406298828125,0.15931491553783417,-0.022891148924827576,0.5472599864006042
1776815081490100000,5.404099853515625,0.1501254141330719,-0.07525315880775452,0.4626827538013458
1776815081500138000,5.414137939453125,0.16197602450847626,-0.08381723612546921,0.3771868944168091
1776815081510175000,5.424175048828125,0.12973099946975708,-0.08493443578481674,0.3210623562335968
1776815081520212000,5.4342119140625,0.11357400566339493,-0.052459828555583954,0.2822418212890625
1776815081530250000,5.44425,0.11159288883209229,-0.0097669567912817,0.2540045976638794
1776815081540287000,5.454286865234375,0.10789728164672852,-0.000022349413484334946,0.2232288420200348
1776815081550324000,5.464323974609375,0.11855179071426392,0.057303790003061295,0.20247508585453033
1776815081560362000,5.474362060546875,0.10142520070075989,0.07698551565408707,0.16118302941322327
1776815081570399000,5.48439892578125,0.07676832377910614,0.11790844798088074,0.13402783870697021
1776815081580437000,5.49443701171875,0.037645529955625534,0.133550226688385,0.0698862373828888
1776815081590474000,5.504473876953125,0.0034510763362050056,0.14317701756954193,-0.005056448746472597
1776815081600511000,5.514510986328125,-0.02258669026196003,0.1345551609992981,-0.07313225418329239
1776815081610549000,5.524549072265625,-0.03758880868554115,0.10735683888196945,-0.14524692296981812
1776815081620586000,5.5345859375,-0.04437553882598877,0.07869664579629898,-0.2091236710548401
1776815081630623000,5.544623046875,-0.047108739614486694,0.10308587551116943,-0.25227993726730347
1776815081640661000,5.554660888671875,-0.053845856338739395,0.11472240090370178,-0.2936567962169647
1776815081650698000,5.564697998046875,-0.06749269366264343,0.11764415353536606,-0.33432886004447937
1776815081660735000,5.57473486328125,-0.08562615513801575,0.15302610397338867,-0.3703526258468628
1776815081670773000,5.58477294921875,-0.10786169022321701,0.12175846844911575,-0.4338138997554779
1776815081680810000,5.59481005859375,-0.1462186574935913,0.11120143532752991,-0.4777161180973053
1776815081690847000,5.604846923828125,-0.16404639184474945,0.10092722624540329,-0.5151681303977966
1776815081700885000,5.614885009765625,-0.1509602963924408,0.07781700789928436,-0.5668376088142395
1776815081710922000,5.624921875,-0.15590019524097443,0.0907176285982132,-0.6142767071723938
1776815081720959000,5.634958984375,-0.17698171734809875,0.05596987158060074,-0.6447771191596985
1776815081730996700,5.644996826171875,-0.22442753612995148,-0.02337954193353653,-0.6957753300666809
1776815081741033700,5.65503369140625,-0.2601710557937622,-0.025504134595394135,-0.7287892699241638
1776815081751070700,5.66507080078125,-0.2730112075805664,-0.07548554241657257,-0.7777323126792908
1776815081761108700,5.675108642578125,-0.26454031467437744,-0.07419835031032562,-0.8202473521232605
1776815081771145700,5.685145751953125,-0.2363147884607315,-0.06754497438669205,-0.8745790719985962
1776815081781182700,5.6951826171875,-0.2236006259918213,-0.08751634508371353,-0.9320386052131653
1776815081791220700,5.705220703125,-0.21021132171154022,-0.07036425173282623,-0.9442084431648254
1776815081801257700,5.7152578125,-0.20854055881500244,-0.027799680829048157,-0.9834036827087402
1776815081811294700,5.725294677734375,-0.21208494901657104,-0.011732564307749271,-1.040858507156372
1776815081821332700,5.735332763671875,-0.2234818935394287,0.009250359609723091,-1.0782443284988403
1776815081831369700,5.74536962890625,-0.2264648973941803,-0.04353002831339836,-1.1133692264556885
1776815081841406700,5.75540673828125,-0.22605054080486298,-0.14518356323242188,-1.1604561805725098
1776815081851444700,5.76544482421875,-0.20369064807891846,-0.13414369523525238,-1.1811031103134155
1776815081861481700,5.775481689453125,-0.19865871965885162,-0.13460484147071838,-1.1865906715393066
1776815081871519000,5.78551904296875,-0.19575907289981842,-0.11341407150030136,-1.2060251235961914
1776815081881556700,5.795556640625,-0.17136436700820923,-0.06625460088253021,-1.2567472457885742
1776815081891593700,5.80559375,-0.12946033477783203,-0.06659361720085144,-1.2857820987701416
1776815081901630700,5.815630615234375,-0.08763696253299713,-0.07566844671964645,-1.3159351348876953
1776815081911668700,5.825668701171875,-0.07033360749483109,-0.0898207500576973,-1.334338665008545
1776815081921705700,5.835705810546875,-0.05729605257511139,-0.13763627409934998,-1.3377971649169922
1776815081931742700,5.84574267578125,-0.06982117146253586,-0.15482936799526215,-1.3240019083023071
1776815081941780700,5.85578076171875,-0.07944287359714508,-0.17453989386558533,-1.3385698795318604
1776815081951817700,5.865817626953125,-0.07362226396799088,-0.11669018119573593,-1.3742527961730957
1776815081961854700,5.875854736328125,-0.05216783285140991,-0.04054979607462883,-1.3637937307357788
1776815081971892700,5.885892822265625,-0.029000993818044662,-0.014991971664130688,-1.3750303983688354
1776815081981929700,5.8959296875,-0.035795584321022034,-0.0031447377987205982,-1.4037367105484009
1776815081991966700,5.905966796875,-0.03906168043613434,-0.03544408455491066,-1.4264243841171265
1776815082002004700,5.916004638671875,-0.04714503884315491,-0.004849141463637352,-1.4254496097564697
1776815082012041700,5.926041748046875,-0.05065907910466194,0.0035685778129845858,-1.423492431640625
1776815082022079700,5.936079833984375,-0.06635008007287979,-0.005383603740483522,-1.4144762754440308
1776815082032116700,5.94611669921875,-0.057762447744607925,0.04891878366470337,-1.4058561325073242
1776815082042153700,5.95615380859375,-0.05501604452729225,0.1259743571281433,-1.4432389736175537
1776815082052191700,5.966191650390625,-0.06549212336540222,0.20128190517425537,-1.4418834447860718
1776815082062228700,5.976228759765625,-0.09615013748407364,0.315639853477478,-1.4492353200912476
1776815082072266000,5.986265869140625,-0.12486886978149414,0.3365989327430725,-1.4671634435653687
1776815082082303700,5.9963037109375,-0.1417904794216156,0.3402496576309204,-1.4660226106643677
1776815082092340700,6.0063408203125,-0.1405062973499298,0.3197537064552307,-1.4690005779266357
1776815082102377700,6.016377685546875,-0.1511775106191635,0.26722294092178345,-1.4839262962341309
1776815082112415700,6.026415771484375,-0.17621149122714996,0.2572169303894043,-1.5044044256210327
1776815082122452700,6.03645263671875,-0.22531752288341522,0.25851690769195557,-1.5180304050445557
1776815082132489700,6.04648974609375,-0.2685385048389435,0.17612962424755096,-1.5201382637023926
1776815082142527700,6.05652783203125,-0.3005349636077881,0.17570659518241882,-1.4956222772598267
1776815082152564700,6.066564697265625,-0.3135157525539398,0.22955331206321716,-1.4797502756118774
1776815082162601700,6.076601806640625,-0.34568336606025696,0.2972338795661926,-1.4991579055786133
1776815082172639700,6.0866396484375,-0.3858928382396698,0.37862807512283325,-1.5220978260040283
1776815082182676700,6.0966767578125,-0.4119984805583954,0.45571035146713257,-1.528874397277832
1776815082192713700,6.106713623046875,-0.43208298087120056,0.4309357702732086,-1.5022255182266235
1776815082202751700,6.116751708984375,-0.4539317786693573,0.36589059233665466,-1.4942433834075928
1776815082212788700,6.126788818359375,-0.4540465772151947,0.3831513226032257,-1.5098236799240112
1776815082222825700,6.13682568359375,-0.4526546597480774,0.4012492597103119,-1.5277272462844849
1776815082232863700,6.14686376953125,-0.48952558636665344,0.34037578105926514,-1.5161068439483643
1776815082242900700,6.156900634765625,-0.5266313552856445,0.33313095569610596,-1.528205156326294
1776815082252937700,6.166937744140625,-0.5763291120529175,0.33213919401168823,-1.5017505884170532
1776815082262975700,6.176975830078125,-0.6334697604179382,0.2961605191230774,-1.4233169555664062
1776815082273012700,6.1870126953125,-0.6798985004425049,0.26959308981895447,-1.374598503112793
1776815082283050800,6.19705078125,-0.6886627078056335,0.28127598762512207,-1.3962526321411133
1776815082293087700,6.207087646484375,-0.6846948862075806,0.35479068756103516,-1.4452321529388428
1776815082303124700,6.217124755859375,-0.6648766994476318,0.4243941605091095,-1.4717438220977783
1776815082313162800,6.227162841796875,-0.6725902557373047,0.4831501543521881,-1.4419864416122437
1776815082323199700,6.23719970703125,-0.6658832430839539,0.44176214933395386,-1.4264310598373413
1776815082333236700,6.24723681640625,-0.670276403427124,0.37361985445022583,-1.4054490327835083
1776815082343274800,6.257274658203125,-0.7183985710144043,0.32499390840530396,-1.3887423276901245
1776815082353311700,6.267311767578125,-0.7803346514701843,0.3140997290611267,-1.382867455482483
1776815082363348700,6.2773486328125,-0.8310393691062927,0.33777374029159546,-1.3777090311050415
1776815082373386800,6.28738671875,-0.8568108081817627,0.413689523935318,-1.3669874668121338
1776815082383423700,6.297423828125,-0.8623296618461609,0.4602571427822113,-1.371360182762146
1776815082393460700,6.307460693359375,-0.8491078615188599,0.43546977639198303,-1.3672385215759277
1776815082403498800,6.317498779296875,-0.8380529880523682,0.3895883858203888,-1.363388180732727
1776815082413535700,6.32753564453125,-0.8279566764831543,0.3507714867591858,-1.3720709085464478
1776815082423572700,6.33757275390625,-0.8119458556175232,0.352566123008728,-1.4243499040603638
1776815082433610800,6.34761083984375,-0.8115274906158447,0.41335543990135193,-1.499778389930725
1776815082443647700,6.357647705078125,-0.8223675489425659,0.5193157196044922,-1.5798749923706055
1776815082453684700,6.367684814453125,-0.8423628211021423,0.6171118021011353,-1.6396803855895996
1776815082463722800,6.37772265625,-0.8330408930778503,0.6202633380889893,-1.656896710395813
1776815082473759700,6.387759765625,-0.8216326832771301,0.5740207433700562,-1.6720434427261353
1776815082483796700,6.397796630859375,-0.803085207939148,0.5387982726097107,-1.702967882156372
1776815082493834800,6.407834716796875,-0.7627271413803101,0.570898711681366,-1.791532278060913
1776815082503871700,6.417871826171875,-0.7349725365638733,0.5008432865142822,-1.8519762754440308
1776815082513908700,6.42790869140625,-0.6796874403953552,0.4312697947025299,-1.919060468673706
1776815082523946800,6.43794677734375,-0.6371415853500366,0.3915630280971527,-1.9798799753189087
1776815082533983700,6.447983642578125,-0.6142056584358215,0.4262584149837494,-2.033170223236084
1776815082544020700,6.458020751953125,-0.6297602653503418,0.49745482206344604,-2.0997843742370605
1776815082554058800,6.468058837890625,-0.6170564293861389,0.4296797513961792,-2.14786958694458
1776815082564095700,6.478095703125,-0.5924926400184631,0.38853737711906433,-2.1723873615264893
1776815082574133800,6.4881337890625,-0.5907711982727051,0.40329742431640625,-2.1860568523406982
1776815082584170800,6.498170654296875,-0.581512987613678,0.3654647469520569,-2.2242987155914307
1776815082594207700,6.508207763671875,-0.5742385983467102,0.21670375764369965,-2.2399251461029053
1776815082604245800,6.518245849609375,-0.5455318093299866,0.1585000604391098,-2.2439489364624023
1776815082614283800,6.52828369140625,-0.5180909037590027,0.16988347470760345,-2.282402753829956
1776815082624320800,6.53832080078125,-0.47701019048690796,0.23564636707305908,-2.329319953918457
1776815082634357800,6.548357666015625,-0.48525774478912354,0.23782110214233398,-2.3389322757720947
1776815082644395800,6.558395751953125,-0.4921586811542511,0.2385653257369995,-2.268087387084961
1776815082654432800,6.568432861328125,-0.4997233748435974,0.1823856681585312,-2.178738594055176
1776815082664469800,6.5784697265625,-0.4982835352420807,0.1278567910194397,-2.091430902481079
1776815082674507800,6.5885078125,-0.4923025965690613,0.08360890299081802,-1.9717901945114136
1776815082684544800,6.598544677734375,-0.4820561408996582,0.14548663794994354,-1.824718952178955
1776815082694581800,6.608581787109375,-0.4731004536151886,0.2574712336063385,-1.7138174772262573
1776815082704619500,6.61861962890625,-0.42909732460975647,0.29868853092193604,-1.6010791063308716
1776815082714656800,6.62865673828125,-0.35453465580940247,0.2649470567703247,-1.4405968189239502
1776815082724697600,6.638697509765625,-0.2877010107040405,0.22828862071037292,-1.2592531442642212
1776815082734735600,6.648735595703125,-0.27452290058135986,0.19986896216869354,-1.0873974561691284
1776815082744772600,6.658772705078125,-0.28609439730644226,0.13780651986598969,-0.9515861868858337
1776815082754809600,6.6688095703125,-0.3045295774936676,0.08760194480419159,-0.8225808143615723
1776815082764847900,6.678847900390625,-0.32170844078063965,0.05884869024157524,-0.7038281559944153
1776815082774884600,6.688884521484375,-0.31195539236068726,0.05132179707288742,-0.6075916290283203
1776815082784921600,6.698921630859375,-0.2886061668395996,0.07750336825847626,-0.5228570103645325
1776815082794960000,6.7089599609375,-0.2699435353279114,0.08714081346988678,-0.46468159556388855
1776815082804996600,6.71899658203125,-0.26035064458847046,0.06974880397319794,-0.43164968490600586
1776815082815033600,6.72903369140625,-0.2409609705209732,0.07223646342754364,-0.4180377423763275
1776815082825071600,6.739071533203125,-0.20259089767932892,0.11272524297237396,-0.4303078353404999
1776815082835108900,6.74910888671875,-0.14129024744033813,0.18259912729263306,-0.4493744671344757
1776815082845146600,6.759146728515625,-0.07140716165304184,0.23887479305267334,-0.44505637884140015
1776815082855183600,6.76918359375,0.016850261017680168,0.24713991582393646,-0.4103735089302063
1776815082865220900,6.779220947265625,0.08928617835044861,0.22376225888729095,-0.35452404618263245
1776815082875258600,6.789258544921875,0.13974882662296295,0.1816403716802597,-0.2956213355064392
1776815082885295600,6.799295654296875,0.144029900431633,0.11501848697662354,-0.24906188249588013
1776815082895332600,6.80933251953125,0.12604983150959015,0.028135791420936584,-0.1934574842453003
1776815082905370600,6.81937060546875,0.0971468985080719,-0.07532506436109543,-0.11683882027864456
1776815082915407600,6.82940771484375,0.07720674574375153,-0.13238434493541718,-0.018375633284449577
1776815082925444600,6.839444580078125,0.06185423210263252,-0.1623457968235016,0.08693727850914001
1776815082935482600,6.849482666015625,0.06344041228294373,-0.16743402183055878,0.1632688045501709
1776815082945519600,6.85951953125,0.08791842311620712,-0.12458280473947525,0.17214806377887726
1776815082955556600,6.869556640625,0.13533839583396912,-0.012604606337845325,0.13516154885292053
1776815082965595000,6.879594970703125,0.17339059710502625,0.1159292683005333,0.09499900043010712
1776815082975631600,6.889631591796875,0.1715458184480667,0.16016517579555511,0.05804897099733353
1776815082985668600,6.899668701171875,0.12494800984859467,0.055747900158166885,0.005172045901417732
1776815082995706600,6.90970654296875,0.05890586972236633,-0.10156262665987015,-0.0026943995617330074
1776815083005743600,6.91974365234375,0.0092312665656209,-0.17578963935375214,0.05817408114671707
1776815083015780600,6.929780517578125,-0.003204098902642727,-0.09594940394163132,0.1209530383348465
1776815083025818600,6.939818603515625,0.005298116244375706,0.05539236590266228,0.16275754570960999
1776815083035856000,6.94985595703125,0.01709165796637535,0.18353569507598877,0.182236447930336
1776815083045892600,6.959892578125,0.026373106986284256,0.23537234961986542,0.18231715261936188
1776815083055930600,6.9699306640625,0.04009664058685303,0.2520107328891754,0.1602291613817215
1776815083065967600,6.979967529296875,0.06275203078985214,0.2898311913013458,0.10713829100131989
1776815083076004900,6.9900048828125,0.07323796302080154,0.33080074191093445,0.05632571503520012
1776815083086042600,7.000042724609375,0.08025771379470825,0.29025259613990784,0.013818658888339996
1776815083096079600,7.01007958984375,0.07523100078105927,0.18527904152870178,-0.0026159742847085
1776815083106116900,7.020116943359375,0.06328393518924713,0.044140323996543884,0.00875873863697052
1776815083116154600,7.030154541015625,0.04527376964688301,-0.06083882227540016,0.052482251077890396
1776815083126191600,7.040191650390625,0.035926494747400284,-0.10658376663923264,0.1001187190413475
1776815083136228600,7.050228515625,0.028668314218521118,-0.12432041764259338,0.12847313284873962
1776815083146266600,7.0602666015625,0.0265186820179224,-0.12664300203323364,0.1385158747434616
1776815083156303600,7.0703037109375,0.024978043511509895,-0.11200840026140213,0.13608120381832123
1776815083166340600,7.080340576171875,0.024465998634696007,-0.10544716566801071,0.12735576927661896
1776815083176378600,7.090378662109375,0.02226676233112812,-0.0992763563990593,0.10544833540916443
1776815083186415600,7.10041552734375,0.01982942596077919,-0.09327295422554016,0.07944078743457794
1776815083196452600,7.11045263671875,0.018163884058594704,-0.08388238400220871,0.05415353924036026
1776815083206491000,7.120490966796875,0.011665210127830505,-0.07988761365413666,0.027719646692276
1776815083216527600,7.130527587890625,0.005582815036177635,-0.05619906261563301,-0.003853726666420698
1776815083226564600,7.140564697265625,-0.007829785346984863,-0.035560764372348785,-0.03930594027042389
1776815083236603000,7.150602783203125,-0.023801561444997787,-0.0421970933675766,-0.06409703940153122
1776815083246639600,7.1606396484375,-0.03405853360891342,-0.05101184546947479,-0.0639987364411354
1776815083256676600,7.170676513671875,-0.025057047605514526,-0.03082721307873726,-0.05405742675065994
1776815083266714600,7.180714599609375,-0.01447648461908102,0.01367907039821148,-0.04133661463856697
1776815083276752000,7.190751953125,0.0018423013389110565,0.04739735275506973,-0.02966664358973503
1776815083286788600,7.20078857421875,0.011897744610905647,0.04604035243391991,-0.016546543687582016
1776815083296826600,7.21082666015625,0.022108836099505424,0.014088813215494156,-0.008034282363951206
1776815083306863900,7.22086376953125,0.027934258803725243,-0.037973616272211075,-0.0007553915493190289
1776815083316901600,7.230901611328125,0.031132450327277184,-0.09698207676410675,-0.005730975419282913
1776815083326938600,7.240938720703125,0.021524157375097275,-0.14492544531822205,-0.02518399804830551
1776815083336975600,7.2509755859375,0.014020968228578568,-0.1688787192106247,-0.052696581929922104
1776815083347013600,7.261013671875,0.015096159651875496,-0.15719439089298248,-0.07991041243076324
1776815083357050600,7.271050537109375,0.012540856376290321,-0.11085778474807739,-0.09787236899137497
1776815083367087600,7.281087646484375,0.013895420357584953,-0.04241451621055603,-0.0964757576584816
1776815083377125600,7.291125732421875,0.013834699988365173,0.015378208830952644,-0.09225917607545853
1776815083387162600,7.30116259765625,0.01240344624966383,0.05558960139751434,-0.08051115274429321
1776815083397199600,7.31119970703125,0.008183932863175869,0.05236770585179329,-0.05980640649795532
1776815083407238000,7.32123779296875,0.008288505487143993,0.013085685670375824,-0.036214884370565414
1776815083417274600,7.331274658203125,0.007212587632238865,-0.04403885081410408,-0.018327493220567703
1776815083427311600,7.3413115234375,-0.00046493206173181534,-0.09022790193557739,-0.017664942890405655
1776815083437349600,7.351349609375,-0.007193142082542181,-0.10590193420648575,-0.031627628952264786
1776815083447386600,7.36138671875,-0.012495835311710835,-0.08650738000869751,-0.04118659347295761
1776815083457423600,7.371423583984375,-0.004204349592328072,-0.03758005052804947,-0.049816567450761795
1776815083467461600,7.381461669921875,0.008065671660006046,0.027043284848332405,-0.05160480737686157
1776815083477499000,7.391498779296875,0.020058952271938324,0.09148059785366058,-0.0489317923784256
1776815083487535600,7.40153564453125,0.026991209015250206,0.1327427625656128,-0.03882361948490143
1776815083497573600,7.41157373046875,0.03145013749599457,0.12908996641635895,-0.030153963714838028
1776815083507610600,7.421610595703125,0.03547148033976555,0.10409162193536758,-0.020716795697808266
1776815083517647600,7.431647705078125,0.03537188097834587,0.06637327373027802,-0.017815547063946724
1776815083527685600,7.441685546875,0.030551420524716377,0.03234359622001648,-0.014001867733895779
1776815083537722600,7.45172265625,0.03069016896188259,-0.01644551195204258,-0.01106413546949625
1776815083547759900,7.461759765625,0.02312508225440979,-0.08322910964488983,-0.015451055951416492
1776815083557797600,7.471797607421875,0.004757259972393513,-0.11737296730279922,-0.028505604714155197
1776815083567834600,7.481834716796875,-0.013738764449954033,-0.10428030788898468,-0.029905712231993675
1776815083577871600,7.49187158203125,-0.03231457993388176,-0.04661460965871811,-0.02776293456554413
1776815083587909600,7.50190966796875,-0.028949342668056488,0.017045697197318077,-0.03187937289476395
1776815083597946600,7.511946533203125,-0.021837905049324036,0.05095359683036804,-0.03376409038901329
1776815083607983600,7.521983642578125,-0.016620676964521408,0.05774347856640816,-0.022057613357901573
1776815083618021600,7.532021728515625,-0.009341191500425339,0.04898034408688545,-0.008468035608530045
1776815083628058600,7.54205859375,-0.0010234620422124863,0.03114663064479828,0.0030230144038796425
1776815083638095600,7.552095703125,0.0057446956634521484,0.0007658214308321476,0.01025402918457985
1776815083648133600,7.562133544921875,0.01324270386248827,-0.02962661162018776,0.009221685118973255
1776815083658170600,7.572170654296875,0.019544009119272232,-0.06611831486225128,0.003296951064839959
1776815083668207600,7.58220751953125,0.018355682492256165,-0.10597115010023117,-0.006850431207567453
1776815083678246000,7.592245849609375,0.008809049613773823,-0.1192169114947319,-0.021287959069013596
1776815083688282600,7.60228271484375,-0.006435868795961142,-0.09744399040937424,-0.032144978642463684
1776815083698319600,7.612319580078125,-0.014981154352426529,-0.04747376590967178,-0.039137907326221466
1776815083708357600,7.622357666015625,-0.010191434994339943,0.0018383583519607782,-0.04332578927278519
1776815083718395000,7.632394775390625,-0.008890748023986816,0.027732539921998978,-0.044036053121089935
1776815083728427800,7.642427734375,-0.012941188178956509,0.028956934809684753,-0.030451614409685135
1776815083738465500,7.652465576171875,-0.0149028729647398,0.005522715859115124,-0.01628466136753559
1776815083748502800,7.662502685546875,-0.015766534954309464,-0.021164022386074066,-0.006072769872844219
1776815083758539800,7.672539794921875,-0.011026907712221146,-0.06028878316283226,0.0028016811702400446
1776815083768577500,7.68257763671875,-0.005593752954155207,-0.09933321923017502,0.000991216511465609
1776815083778614500,7.692614501953125,0.0014740098267793655,-0.13948142528533936,-0.006201981101185083
1776815083788651800,7.70265185546875,0.005821515806019306,-0.17962726950645447,-0.017541958019137383
1776815083798689500,7.712689453125,0.00037961266934871674,-0.2053760439157486,-0.036693815141916275
1776815083808726500,7.7227265625,-0.01077478751540184,-0.20129463076591492,-0.05667644739151001
1776815083818763800,7.732763671875,-0.018196484073996544,-0.14945779740810394,-0.054467085748910904
1776815083828801500,7.742801513671875,-0.011013615876436234,-0.0745214894413948,-0.04286135360598564
1776815083838838500,7.752838623046875,-0.006215132772922516,-0.022607160732150078,-0.03700878843665123
1776815083848875500,7.76287548828125,-0.00799941923469305,-0.006856910418719053,-0.019251085817813873
1776815083858913500,7.77291357421875,-0.012629324570298195,-0.013990188017487526,0.0012102453038096428
1776815083868950500,7.782950439453125,-0.014723698608577251,-0.0225070733577013,0.011537432670593262
1776815083878987500,7.792987548828125,-0.016296828165650368,-0.0380207821726799,0.018426764756441116
1776815083889025800,7.80302587890625,-0.012921803630888462,-0.06856591254472733,0.013680744916200638
1776815083899062500,7.8130625,-0.009593651629984379,-0.11153974384069443,0.0015891948714852333
1776815083909099500,7.823099609375,-0.015228459611535072,-0.15651428699493408,-0.018290312960743904
1776815083919137800,7.8331376953125,-0.018842902034521103,-0.17640703916549683,-0.045374926179647446
1776815083929174800,7.8431748046875,-0.02320048399269581,-0.16401810944080353,-0.07577861845493317
1776815083939211500,7.85321142578125,-0.023401819169521332,-0.1103314533829689,-0.081293486058712
1776815083949249800,7.863249755859375,-0.019598519429564476,-0.06338512152433395,-0.08420158177614212
1776815083959286800,7.873286865234375,-0.007382333278656006,-0.024526135995984077,-0.08340662717819214
1776815083969323500,7.883323486328125,-0.009803678840398788,-0.01845945604145527,-0.07185729593038559
1776815083979361500,7.893361572265625,-0.009477442130446434,-0.033365167677402496,-0.06043872609734535
1776815083989398800,7.903398681640625,-0.007839136756956577,-0.0487043522298336,-0.044432152062654495
1776815083999435800,7.913435791015625,-0.008271634578704834,-0.06463431566953659,-0.03725653141736984
1776815084009473500,7.9234736328125,-0.007091444917023182,-0.08228300511837006,-0.03590932488441467
1776815084019510800,7.9335107421875,-0.008115164004266262,-0.1016407236456871,-0.036887504160404205
1776815084029547800,7.9435478515625,-0.007763042580336332,-0.11371389031410217,-0.03996371850371361
1776815084039585500,7.95358544921875,-0.006935864686965942,-0.11609102785587311,-0.04009155184030533
1776815084049622500,7.96362255859375,-0.003445541486144066,-0.10181637853384018,-0.04141048714518547
1776815084059659800,7.97365966796875,0.0016480199992656708,-0.06245219334959984,-0.04169357940554619
1776815084069697500,7.983697509765625,0.001370968297123909,-0.011905448511242867,-0.04113220050930977
1776815084079734500,7.993734619140625,0.0005017127841711044,0.024694640189409256,-0.04042166844010353
1776815084089771800,8.003771728515625,-0.00010543875396251678,0.04951183870434761,-0.027854468673467636
1776815084099808800,8.013808837890625,-0.0006338097155094147,0.04859491437673569,-0.018114756792783737
1776815084109845800,8.023845703125,-0.004217346198856831,0.036898400634527206,-0.004264439456164837
1776815084119883500,8.033883544921874,-0.009687213227152824,0.010190091095864773,0.003810265101492405
1776815084129920800,8.043920654296874,-0.018304819241166115,-0.005265186540782452,0.007897166535258293
1776815084139957800,8.053957763671875,-0.015905044972896576,-0.015137524344027042,0.006356794387102127
1776815084149995500,8.06399560546875,-0.011542325839400291,-0.026166651397943497,0.0025337417609989643
1776815084160032500,8.074032470703125,-0.0073491791263222694,-0.036854181438684464,-0.002479392569512129
1776815084170069800,8.08406982421875,-0.0013921884819865227,-0.04754885658621788,-0.008911184966564178
1776815084180107500,8.094107421875,0.00035857316106557846,-0.0471765473484993,-0.017432235181331635
1776815084190144500,8.10414453125,0.0018882527947425842,-0.03546276316046715,-0.019048050045967102
1776815084200181800,8.114181640625,0.0046238526701927185,-0.012813907116651535,-0.014732398092746735
1776815084210219500,8.124219482421875,0.009346951730549335,0.0069876015186309814,-0.00596061535179615
1776815084220256500,8.134256591796875,0.015509507618844509,0.0128145981580019,0.005414544604718685
1776815084230293500,8.14429345703125,0.022209733724594116,0.01279253140091896,0.03323153778910637
1776815084240331800,8.154331787109374,0.028161633759737015,-0.006856802850961685,0.055286504328250885
1776815084250368500,8.164368408203124,0.03214051201939583,-0.024530760943889618,0.08236102014780045
1776815084260405500,8.174405517578125,0.03455919399857521,-0.04884834960103035,0.10878276824951172
1776815084270443800,8.18444384765625,0.035606499761343,-0.06652412563562393,0.13564206659793854
1776815084280480500,8.19448046875,0.03616922348737717,-0.08062716573476791,0.1564410924911499
1776815084290517500,8.204517578125,0.0372423380613327,-0.07596378028392792,0.17820772528648376
1776815084300555800,8.2145556640625,0.041298333555459976,-0.0669790729880333,0.19282129406929016
1776815084310592800,8.2245927734375,0.05130576342344284,-0.03456876054406166,0.20227211713790894
1776815084320629500,8.23462939453125,0.06423221528530121,0.008014385588467121,0.21588140726089478
1776815084330667800,8.244667724609375,0.07384362816810608,0.045785900205373764,0.22422893345355988
1776815084340704800,8.254704833984375,0.08354659378528595,0.06804034113883972,0.2296663075685501
1776815084350741500,8.264741455078125,0.09059853106737137,0.05688166990876198,0.24965794384479523
1776815084360779500,8.274779541015626,0.08639100193977356,0.021241914480924606,0.2748998999595642
1776815084370816800,8.284816650390624,0.08106794208288193,-0.0245869979262352,0.30809807777404785
1776815084380853800,8.294853759765624,0.0779467225074768,-0.07005275785923004,0.35349488258361816
1776815084390891500,8.3048916015625,0.08439074456691742,-0.08185558021068573,0.4030427634716034
1776815084400928800,8.3149287109375,0.1011260524392128,-0.062100253999233246,0.45927780866622925
1776815084410965800,8.3249658203125,0.1211942657828331,-0.025167129933834076,0.513782799243927
1776815084421003500,8.33500341796875,0.14012987911701202,-0.004274097736924887,0.5715649127960205
1776815084431040500,8.34504052734375,0.15892601013183594,-0.02475648745894432,0.6524977087974548
1776815084441077800,8.355077880859374,0.17748397588729858,-0.0833420380949974,0.7593370676040649
1776815084451115500,8.365115478515625,0.20207346975803375,-0.14994460344314575,0.8970392942428589
1776815084461152500,8.375152587890625,0.2366548776626587,-0.20925000309944153,1.0531079769134521
1776815084471189800,8.385189697265625,0.28455737233161926,-0.28217774629592896,1.2041752338409424
1776815084481227500,8.3952275390625,0.3524775803089142,-0.27102044224739075,1.356560468673706
1776815084491264500,8.405264404296876,0.41974133253097534,-0.15894922614097595,1.4489463567733765
1776815084501301500,8.415301513671874,0.45279115438461304,-0.009241754189133644,1.4407731294631958
1776815084511339800,8.42533984375,0.4257292151451111,0.023273512721061707,1.3872431516647339
1776815084521376500,8.43537646484375,0.3391890227794647,-0.13431291282176971,1.3234919309616089
1776815084531413500,8.44541357421875,0.21174928545951843,-0.370985209941864,1.2683327198028564
1776815084541451800,8.45545166015625,0.07812411338090897,-0.39738699793815613,1.230974793434143
1776815084551488500,8.465488525390626,0.02938731014728546,-0.2763669788837433,1.2141674757003784
1776815084561525500,8.475525390625,0.007683347910642624,-0.398438036441803,1.3669970035552979
1776815084571563800,8.485563720703125,0.03674096614122391,-0.5486533641815186,1.4339545965194702
1776815084581600800,8.495600830078125,0.1305692046880722,-0.6043475270271301,1.391903042793274
1776815084591637500,8.505637451171875,0.2624906599521637,-0.5590585470199585,1.2934428453445435
1776815084601675800,8.51567578125,0.40590107440948486,-0.550711452960968,1.239513874053955
1776815084611712800,8.525712646484376,0.4732488989830017,-0.5863418579101562,1.2855114936828613
1776815084621749800,8.535749755859374,0.44475921988487244,-0.7083852291107178,1.3797879219055176
1776815084631787500,8.54578759765625,0.35698017477989197,-0.8675089478492737,1.482068419456482
1776815084641824800,8.55582470703125,0.24200567603111267,-1.01742684841156,1.6378569602966309
1776815084651861800,8.56586181640625,0.17031200230121613,-1.0868748426437378,1.7950005531311035
1776815084661899500,8.5758994140625,0.1438351273536682,-0.9601954221725464,1.8824388980865479
1776815084671936500,8.5859365234375,0.19649598002433777,-0.8277239203453064,1.8869884014129639
1776815084681973800,8.595973876953124,0.3243628442287445,-0.8029367923736572,1.8762813806533813
1776815084692010800,8.6060107421875,0.4932548999786377,-0.6596953272819519,1.9188588857650757
1776815084702048500,8.616048583984375,0.6673068404197693,-0.36124175786972046,1.918221116065979
1776815084712085800,8.626085693359375,0.7488822340965271,-0.055530376732349396,1.8658088445663452
1776815084722122800,8.636122802734375,0.7210386395454407,0.021238168701529503,1.8594976663589478
1776815084732161300,8.646161376953126,0.6363009214401245,-0.07361036539077759,1.9632489681243896
1776815084742198300,8.6561982421875,0.6168462634086609,-0.09749652445316315,2.0255677700042725
1776815084752235300,8.6662353515625,0.6888880729675293,0.013437333516776562,1.9675135612487793
1776815084762273000,8.67627294921875,0.7416711449623108,0.07731697708368301,1.8380612134933472
1776815084772310300,8.686310302734375,0.7574402093887329,0.10202623903751373,1.790639877319336
1776815084782347300,8.69634716796875,0.7591212391853333,0.09194137901067734,1.8498824834823608
1776815084792385000,8.706385009765626,0.7301127314567566,0.03860452026128769,1.9477806091308594
1776815084802422300,8.71642236328125,0.7368026375770569,-0.078229159116745,1.9813703298568726
1776815084812459300,8.726459228515624,0.7818559408187866,-0.09002641588449478,1.966123342514038
1776815084822497000,8.7364970703125,0.8542515635490417,-0.07147190719842911,1.9408360719680786
1776815084832534000,8.746533935546875,0.9312741756439209,-0.05472107604146004,1.8592033386230469
1776815084842571300,8.7565712890625,0.9389312863349915,-0.20892903208732605,1.8426477909088135
1776815084852609300,8.766609375,0.8858259320259094,-0.3846205174922943,1.9654182195663452
1776815084862646000,8.77664599609375,0.8226656317710876,-0.44632571935653687,2.059610605239868
1776815084872683300,8.786683349609374,0.7558484673500061,-0.44979897141456604,2.0750346183776855
1776815084882721300,8.79672119140625,0.7133814692497253,-0.4279578626155853,2.1249520778656006
1776815084892758000,8.806758056640625,0.7285701036453247,-0.37309378385543823,2.1925394535064697
1776815084902795000,8.816794921875,0.726609468460083,-0.2972557544708252,2.228306293487549
1776815084912833300,8.826833251953126,0.6663185954093933,-0.2381553053855896,2.190294027328491
1776815084922870300,8.836870361328126,0.5557765960693359,-0.0819244235754013,2.1659271717071533
1776815084932907000,8.846906982421874,0.48409831523895264,0.0460512712597847,2.1589133739471436
1776815084942945300,8.8569453125,0.4582102596759796,0.017568767070770264,2.120889186859131
1776815084952982300,8.866982177734375,0.4028201699256897,0.0664907917380333,2.1136724948883057
1776815084963019000,8.87701904296875,0.33313775062561035,-0.03975548595190048,2.1910111904144287
1776815084973057300,8.887057373046876,0.2546078562736511,-0.19102473556995392,2.2688210010528564
1776815084983094300,8.89709423828125,0.18160207569599152,-0.44775131344795227,2.4043946266174316
1776815084993131300,8.90713134765625,0.15300315618515015,-0.5433539748191833,2.4098567962646484
1776815085003169000,8.9171689453125,0.08015770465135574,-0.6572158336639404,2.4099419116973877
1776815085013206300,8.927206298828125,-0.00931562576442957,-0.7508026361465454,2.358449697494507
1776815085023243300,8.9372431640625,-0.07597028464078903,-0.6995580792427063,2.3663973808288574
1776815085033281000,8.947281005859375,-0.12505565583705902,-0.5853708982467651,2.395759344100952
1776815085043318300,8.957318359375,-0.18482257425785065,-0.37508583068847656,2.38077712059021
1776815085053355300,8.967355224609374,-0.18146586418151855,-0.296406090259552,2.3069145679473877
1776815085063393000,8.97739306640625,-0.15067732334136963,-0.1800565868616104,2.277393102645874
1776815085073430000,8.987429931640625,-0.03050243854522705,-0.10348788648843765,2.255650043487549
1776815085083467300,8.99746728515625,0.0700361505150795,-0.11477702111005783,2.290757179260254
1776815085093505000,9.007505126953125,0.12255997955799103,-0.07013991475105286,2.3000879287719727
1776815085103542000,9.0175419921875,0.21849636733531952,0.09580857306718826,2.2522060871124268
1776815085113579300,9.027579345703124,0.10860566049814224,-0.02888379618525505,2.2276532649993896
1776815085123617300,9.0376171875,0.08177511394023895,-0.02851201593875885,2.152757406234741
1776815085133654000,9.047654052734375,0.09483674168586731,-0.06455419957637787,2.0616202354431152
1776815085143691000,9.05769091796875,0.122394859790802,-0.21457965672016144,2.011988639831543
1776815085153729300,9.067729248046875,0.14777156710624695,-0.2334790825843811,1.9769948720932007
1776815085163766300,9.077766357421876,0.19988670945167542,-0.1360156536102295,1.9353078603744507
1776815085173803000,9.087802978515626,0.22991372644901276,0.06103799492120743,1.9134598970413208
1776815085183841300,9.09784130859375,0.23049962520599365,0.2740333676338196,1.871388554573059
1776815085193878300,9.107878173828125,0.23743322491645813,0.36795735359191895,1.8325799703598022
1776815085203915000,9.1179150390625,0.20789717137813568,0.35464927554130554,1.7400777339935303
1776815085213953300,9.127953369140625,0.2419087290763855,0.1789446920156479,1.6491831541061401
1776815085223990300,9.137990234375,0.27374547719955444,-0.004683723207563162,1.5831716060638428
1776815085234027300,9.14802734375,0.31602850556373596,-0.10356897860765457,1.5300923585891724
1776815085244064000,9.15806396484375,0.32059237360954285,-0.17791831493377686,1.5126094818115234
1776815085254102300,9.168102294921875,0.2866983115673065,-0.1611292064189911,1.4809354543685913
1776815085264139300,9.17813916015625,0.32401585578918457,0.008770080283284187,1.4187477827072144
1776815085274176000,9.188176025390625,0.2434616982936859,0.06685648113489151,1.3461188077926636
1776815085284214300,9.19821435546875,0.2714299261569977,0.18420067429542542,1.2579748630523682
1776815085294251300,9.208251220703126,0.25558191537857056,0.04401899129152298,1.1411597728729248
1776815085304288300,9.218288330078124,0.26296713948249817,-0.06301238387823105,1.0459206104278564
1776815085314326300,9.228326171875,0.26748958230018616,-0.1996755450963974,0.9694279432296753
1776815085324363300,9.23836328125,0.2521825432777405,-0.33205676078796387,0.9066013097763062
1776815085334400300,9.248400146484375,0.23382742702960968,-0.2974548935890198,0.8133448362350464
1776815085344438000,9.25843798828125,0.18886102735996246,-0.15288813412189484,0.7242751717567444
1776815085354475300,9.268475341796876,0.14671014249324799,0.0044443621300160885,0.5949010848999023
1776815085364512300,9.27851220703125,0.12578356266021729,0.051731716841459274,0.4679849147796631
1776815085374550000,9.288550048828125,0.09791213274002075,-0.021264752373099327,0.33827143907546997
1776815085384587300,9.298587158203125,0.06305988132953644,-0.05417449772357941,0.23304516077041626
1776815085394624300,9.308624267578125,0.03824567049741745,-0.06825674325227737,0.11093517392873764
1776815085404662000,9.318662109375,0.025690196081995964,-0.000019636936485767365,-0.005904090590775013
1776815085414699000,9.328698974609376,0.04057661443948746,0.09118898957967758,-0.1498100906610489
1776815085424736300,9.338736328125,0.06343479454517365,0.14064309000968933,-0.2802796959877014
1776815085434774300,9.348774169921874,0.07963908463716507,0.17885597050189972,-0.38143032789230347
1776815085444811000,9.35881103515625,0.07077448815107346,0.16376782953739166,-0.4831545650959015
1776815085454848300,9.36884814453125,0.04330744594335556,0.17615631222724915,-0.5916650891304016
1776815085464886300,9.37888623046875,0.010264539159834385,0.20342415571212769,-0.7098526954650879
1776815085474923000,9.388923095703126,-0.037480950355529785,0.17730821669101715,-0.8424257040023804
1776815085484960000,9.3989599609375,-0.06885964423418045,0.1566556692123413,-0.9384965896606445
1776815085494998300,9.408998291015624,-0.08298833668231964,0.13350234925746918,-1.021533489227295
1776815085505035300,9.41903515625,-0.07962209731340408,0.14112858474254608,-1.0850123167037964
1776815085515072000,9.429072021484375,-0.07457142323255539,0.12545625865459442,-1.15750253200531
1776815085525110300,9.4391103515625,-0.0739612951874733,0.13246969878673553,-1.242291808128357
1776815085535147300,9.449147216796876,-0.06138817220926285,0.19410906732082367,-1.3191927671432495
1776815085545184300,9.459184326171876,-0.038740649819374084,0.18430224061012268,-1.384006142616272
1776815085555222300,9.46922216796875,-0.040658846497535706,0.08466033637523651,-1.4690660238265991
1776815085565259300,9.47925927734375,-0.029759591445326805,0.08374633640050888,-1.5347012281417847
1776815085575296300,9.489296142578125,-0.0030552921816706657,0.07291962951421738,-1.5892112255096436
1776815085585334000,9.499333984375,0.0016816724091768265,0.021273212507367134,-1.6786388158798218
1776815085595371300,9.509371337890625,0.016833145171403885,0.07277481257915497,-1.7269433736801147
1776815085605408300,9.519408203125,0.023696377873420715,0.1195835992693901,-1.7834519147872925
1776815085615446000,9.529446044921874,0.026226729154586792,0.23659303784370422,-1.782611608505249
1776815085625483300,9.539483154296875,-0.021306170150637627,0.2096697986125946,-1.838507890701294
1776815085635520300,9.549520263671875,-0.05823168158531189,0.23900121450424194,-1.8620036840438843
1776815085645558000,9.55955810546875,-0.06631091237068176,0.24740853905677795,-1.8861806392669678
1776815085655595000,9.569594970703125,-0.05538838356733322,0.2523103952407837,-1.9385262727737427
1776815085665632300,9.57963232421875,-0.06079593300819397,0.22580555081367493,-2.015178680419922
1776815085675670300,9.589670166015624,-0.0949593260884285,0.24292945861816406,-2.0571658611297607
1776815085685707000,9.59970703125,-0.1406133621931076,0.33605194091796875,-2.0417447090148926
1776815085695744300,9.609744140625,-0.18500354886054993,0.35064420104026794,-2.0155317783355713
1776815085705782300,9.6197822265625,-0.21332547068595886,0.3909436762332916,-2.0261619091033936
1776815085715819000,9.629819091796875,-0.2666228115558624,0.38015660643577576,-2.1009836196899414
1776815085725856000,9.63985595703125,-0.316415399312973,0.3824043273925781,-2.1218247413635254
1776815085735894000,9.64989404296875,-0.3767988383769989,0.47752469778060913,-2.1381871700286865
1776815085745931000,9.659930908203124,-0.4353620111942291,0.5000395774841309,-2.187218189239502
1776815085755968000,9.669968017578125,-0.49353328347206116,0.5652722716331482,-2.1954550743103027
1776815085766006000,9.680006103515625,-0.5469517707824707,0.6398929953575134,-2.1862287521362305
1776815085776043000,9.69004296875,-0.596656322479248,0.6300773620605469,-2.1653764247894287
1776815085786080000,9.700080078125,-0.6708453297615051,0.6301207542419434,-2.1068344116210938
1776815085796118000,9.710117919921874,-0.7439793944358826,0.5979121327400208,-2.0739121437072754
1776815085806155000,9.720155029296874,-0.7994317412376404,0.5564085841178894,-2.076517343521118
1776815085816192000,9.73019189453125,-0.8302607536315918,0.5229819416999817,-2.0738983154296875
1776815085826230000,9.74022998046875,-0.8412718772888184,0.5188173055648804,-2.0780770778656006
1776815085836267000,9.75026708984375,-0.8626932501792908,0.49565646052360535,-2.0785818099975586
1776815085846304000,9.760303955078125,-0.8278718590736389,0.539874255657196,-2.0676109790802
1776815085856342000,9.770342041015626,-0.8276833891868591,0.5425018072128296,-2.0497617721557617
1776815085866379000,9.78037890625,-0.8414063453674316,0.5599484443664551,-2.0077452659606934
1776815085876416000,9.790416015625,-0.8909347653388977,0.5083251595497131,-1.9617211818695068
1776815085886454000,9.8004541015625,-0.9225209355354309,0.44792887568473816,-1.9521201848983765
1776815085896491000,9.810490966796875,-0.9047704339027405,0.3701275885105133,-1.9759546518325806
1776815085906528000,9.820528076171875,-0.9222436547279358,0.3210303485393524,-1.9462969303131104
1776815085916566000,9.83056591796875,-0.963021457195282,0.32280057668685913,-1.8917289972305298
1776815085926603000,9.84060302734375,-0.9707752466201782,0.2896535396575928,-1.870273470878601
1776815085936640000,9.850639892578124,-0.9710723161697388,0.24756960570812225,-1.811531662940979
1776815085946678000,9.860677978515625,-0.9585953950881958,0.2530551850795746,-1.7218854427337646
1776815085956715000,9.870715087890625,-0.9511691331863403,0.27093541622161865,-1.6775057315826416
1776815085966752000,9.880751953125,-0.9472337365150452,0.2648024260997772,-1.6865018606185913
1776815085976790000,9.8907900390625,-0.9649981260299683,0.17325156927108765,-1.73307466506958
1776815085986827000,9.900826904296874,-0.9986660480499268,0.1141485646367073,-1.7531473636627197
1776815085996864000,9.910864013671874,-0.9992226362228394,0.04676150158047676,-1.7994824647903442
1776815086006902000,9.920902099609375,-0.9915154576301575,0.057845842093229294,-1.8429945707321167
1776815086016939000,9.93093896484375,-0.9986255168914795,0.09123256057500839,-1.865229845046997
1776815086026976000,9.94097607421875,-0.9747812151908875,0.06265205144882202,-1.9036797285079956
1776815086037014000,9.951013916015626,-0.9472644329071045,0.05536868795752525,-1.9720792770385742
1776815086047051000,9.961051025390624,-0.931527316570282,0.08083303272724152,-2.0594654083251953
1776815086057088000,9.971087890625,-0.9178911447525024,0.11454550921916962,-2.1298463344573975
1776815086067126000,9.9811259765625,-0.9109533429145813,0.16225656867027283,-2.209569215774536
1776815086077163000,9.9911630859375,-0.8900402188301086,0.3016371428966522,-2.3006346225738525
1776815086087200000,10.001199951171875,-0.865721583366394,0.4003394842147827,-2.4049882888793945
1776815086097238000,10.011238037109376,-0.8309996128082275,0.41992270946502686,-2.4690189361572266
1776815086107275000,10.02127490234375,-0.8022862076759338,0.43196550011634827,-2.5152153968811035
1776815086117312000,10.03131201171875,-0.7755908370018005,0.4767620861530304,-2.5254592895507812
1776815086127350000,10.04135009765625,-0.7460257411003113,0.5293763279914856,-2.577479362487793
1776815086137387000,10.051386962890625,-0.6951860785484314,0.589881420135498,-2.6812191009521484
1776815086147424000,10.061424072265625,-0.6126203536987305,0.6362180113792419,-2.7598185539245605
1776815086157462000,10.0714619140625,-0.5370496511459351,0.6640011668205261,-2.7694854736328125
1776815086167499000,10.0814990234375,-0.48889145255088806,0.6226835250854492,-2.7627525329589844
1776815086177536000,10.091535888671874,-0.5101177096366882,0.5795685052871704,-2.7789602279663086
1776815086187574000,10.101573974609375,-0.5653050541877747,0.5921740531921387,-2.8036611080169678
1776815086197611000,10.111611083984375,-0.5852704048156738,0.5481173396110535,-2.7565629482269287
1776815086207648000,10.12164794921875,-0.5658391714096069,0.42751505970954895,-2.6148064136505127
1776815086217686000,10.13168603515625,-0.5131606459617615,0.36024630069732666,-2.4524831771850586
1776815086227723000,10.141722900390626,-0.43592602014541626,0.3845641613006592,-2.309361696243286
1776815086237760000,10.151760009765624,-0.34413614869117737,0.37306296825408936,-2.1595776081085205
1776815086247798000,10.161798095703125,-0.28554821014404297,0.3090679943561554,-1.977570652961731
1776815086257835000,10.1718349609375,-0.24666762351989746,0.25142306089401245,-1.7439218759536743
1776815086267872000,10.1818720703125,-0.23382294178009033,0.2611151337623596,-1.5169856548309326
1776815086277910000,10.191909912109375,-0.2680681049823761,0.2898928225040436,-1.3602713346481323
1776815086287947000,10.201947021484376,-0.33329105377197266,0.27504676580429077,-1.2654238939285278
1776815086297984000,10.21198388671875,-0.4085915982723236,0.192373588681221,-1.1693915128707886
1776815086308022000,10.22202197265625,-0.46340906620025635,0.06729397177696228,-1.0421090126037598
1776815086318059000,10.23205908203125,-0.47549885511398315,-0.09131523221731186,-0.9299134612083435
1776815086328096000,10.242095947265625,-0.4261382520198822,-0.18924525380134583,-0.8683273196220398
1776815086338134000,10.252134033203125,-0.2917473316192627,-0.24194645881652832,-0.8262325525283813
1776815086348171000,10.2621708984375,-0.13036349415779114,-0.2756279706954956,-0.7553184032440186
1776815086358208000,10.2722080078125,0.017753850668668747,-0.4487358331680298,-0.6265926957130432
1776815086368246000,10.28224609375,0.08367907255887985,-0.66502845287323,-0.48590564727783203
1776815086378283000,10.292282958984375,0.0916682630777359,-0.7811233401298523,-0.3185591995716095
1776815086388320000,10.302320068359375,0.1275666058063507,-0.7768630385398865,-0.014047219417989254
1776815086398358000,10.31235791015625,0.16988135874271393,-0.6971369981765747,0.34225398302078247
1776815086408395000,10.32239501953125,0.2075059562921524,-0.5095817446708679,0.6040691137313843
1776815086418432000,10.332431884765626,0.18899379670619965,-0.14954409003257751,0.7791269421577454
1776815086428470000,10.342469970703124,0.14005181193351746,0.10624959319829941,0.8857423663139343
1776815086438507000,10.352507080078125,0.11556708812713623,0.2563048005104065,0.9219651818275452
1776815086448544000,10.3625439453125,0.11168420314788818,0.3957175612449646,0.8653650283813477
1776815086458582000,10.37258203125,0.09315542876720428,0.5115468502044678,0.7256097793579102
1776815086468619000,10.382618896484376,0.08534464240074158,0.5398117899894714,0.5384718179702759
1776815086478656000,10.392656005859376,0.07807639241218567,0.4540019929409027,0.3383844196796417
1776815086488694000,10.402694091796874,0.06335470080375671,0.3168899416923523,0.16504965722560883
1776815086498731000,10.41273095703125,0.040376611053943634,0.1433885395526886,0.0021437425166368484
1776815086508768000,10.42276806640625,0.0030864980071783066,-0.07740827649831772,-0.14415274560451508
1776815086518806000,10.432805908203125,-0.029696214944124222,-0.2891697883605957,-0.21188092231750488
1776815086528843000,10.442843017578125,-0.04958949610590935,-0.39189377427101135,-0.19144834578037262
1776815086538880000,10.4528798828125,-0.04322957620024681,-0.3700985014438629,-0.15638284385204315
1776815086548918000,10.46291796875,-0.019981512799859047,-0.2538616359233856,-0.12731896340847015
1776815086558955000,10.472955078125,0.002947786822915077,-0.10629545897245407,-0.10090133547782898
1776815086568992000,10.482991943359375,-0.0001404155045747757,0.012698305770754814,-0.06990507245063782
1776815086579032000,10.493031982421876,0.00034312717616558075,0.021818235516548157,-0.04850839823484421
1776815086589068800,10.50306884765625,0.005334955640137196,-0.0790785476565361,-0.0523846261203289
1776815086599106000,10.51310595703125,0.01257212832570076,-0.2293470948934555,-0.07844871282577515
1776815086609144000,10.52314404296875,0.0006121387705206871,-0.3565806746482849,-0.11661766469478607
1776815086619180800,10.533180908203125,-0.013338821940124035,-0.43980199098587036,-0.1586068570613861
1776815086629218000,10.543218017578125,-0.015334328636527061,-0.4692443013191223,-0.1765967756509781
1776815086639256000,10.553256103515626,0.001271866261959076,-0.43824082612991333,-0.16576522588729858
1776815086649293000,10.56329296875,0.02878418378531933,-0.345470666885376,-0.13146211206912994
1776815086659329800,10.573329833984374,0.04528537392616272,-0.19415302574634552,-0.08208304643630981
1776815086669368000,10.5833681640625,0.06464362889528275,-0.040101148188114166,-0.0397944450378418
1776815086679405000,10.593405029296875,0.07937117666006088,0.08742192387580872,0.0005950550548732281
1776815086689441800,10.60344189453125,0.08293691277503967,0.18506091833114624,0.050800178200006485
1776815086699480000,10.61347998046875,0.07717035710811615,0.23796683549880981,0.09178662300109863
1776815086709517000,10.62351708984375,0.05631087347865105,0.24160365760326385,0.12405534833669662
1776815086719554000,10.633553955078124,0.03661847114562988,0.213263601064682,0.15412771701812744
1776815086729591600,10.643591552734375,0.023411057889461517,0.18160207569599152,0.17844291031360626
1776815086739628500,10.653628662109375,0.014975428581237793,0.17484521865844727,0.18545140326023102
1776815086749665800,10.663665771484375,0.007771044969558716,0.1715085357427597,0.17539450526237488
1776815086759703600,10.67370361328125,0.004342555068433285,0.14390496909618378,0.15288254618644714
1776815086769740500,10.683740478515626,0.0025840699672698975,0.082406185567379,0.13386306166648865
1776815086779777500,10.693777587890626,0.0074836742132902145,0.0007435639854520559,0.12212368100881577
1776815086789815600,10.703815673828124,0.014838259667158127,-0.054166022688150406,0.11238663643598557
1776815086799852500,10.7138525390625,0.029872681945562363,-0.06540484726428986,0.09363521635532379
1776815086809889500,10.7238896484375,0.044752828776836395,-0.04827725887298584,0.07190275937318802
1776815086819927800,10.733927734375,0.049002014100551605,-0.03231655806303024,0.05597733333706856
1776815086829964500,10.743964599609376,0.046780407428741455,-0.010485298000276089,0.05041505768895149
1776815086840001500,10.75400146484375,0.046759478747844696,0.024799490347504616,0.04617440700531006
1776815086850039800,10.764039794921874,0.05154385417699814,0.07881186157464981,0.036679707467556
1776815086860076500,10.77407666015625,0.061257023364305496,0.1326960027217865,0.022661127150058746
1776815086870113500,10.784113525390625,0.06743235886096954,0.1591276079416275,0.015437036752700806
1776815086880151800,10.79415185546875,0.06767970323562622,0.15176911652088165,0.013168195262551308
1776815086890188800,10.804188720703126,0.05677219480276108,0.11714936047792435,0.011838744394481182
1776815086900225500,10.8142255859375,0.04251597821712494,0.0721965953707695,0.013313720002770424
1776815086910263600,10.824263671875,0.0318731814622879,0.03628334030508995,0.013979244977235794
1776815086920300800,10.83430078125,0.028821147978305817,0.009809103794395924,0.0060292258858680725
1776815086930337800,10.844337890625,0.013158830814063549,-0.010134777054190636,-0.009611252695322037
1776815086940375600,10.85437548828125,-0.01086617074906826,-0.018113218247890472,-0.027297377586364746
1776815086950412500,10.86441259765625,-0.02566801942884922,-0.003778754733502865,-0.04933770000934601
1776815086960449800,10.87444970703125,-0.023347340524196625,0.03111238405108452,-0.057266462594270706
1776815086970487600,10.884487548828124,-0.011685358360409737,0.07214955985546112,-0.05664514750242233
1776815086980524500,10.894524658203125,0.0012495452538132668,0.08627939224243164,-0.057396385818719864
1776815086990561800,10.904561767578125,0.005553213879466057,0.06739172339439392,-0.04490908980369568
1776815087000599600,10.914599609375,0.0027941931039094925,0.01129871979355812,-0.023701000958681107
1776815087010636500,10.924636474609375,0.0017137490212917328,-0.04973720386624336,-0.01295035146176815
1776815087020673500,10.934673583984376,0.004364416003227234,-0.08456312865018845,-0.017995767295360565
1776815087030711600,10.944711669921874,0.010404199361801147,-0.10191015899181366,-0.0272878035902977
1776815087040748500,10.95474853515625,0.025214483961462975,-0.1099894568324089,-0.0370224229991436
1776815087050785500,10.96478564453125,0.02981243096292019,-0.11505585163831711,-0.04668756574392319
1776815087060823600,10.974823486328125,0.016092004254460335,-0.09308936446905136,-0.05667011812329292
1776815087070860500,10.984860595703125,0.0016363663598895073,-0.03204358369112015,-0.06706949323415756
1776815087080897500,10.9948974609375,-0.007331889122724533,0.04904451221227646,-0.07091809064149857
1776815087090935800,11.004935791015624,-0.004931049421429634,0.12201059609651566,-0.06681708991527557
1776815087100972500,11.01497265625,-0.008207419887185097,0.15496733784675598,-0.049519047141075134
1776815087111009500,11.025009521484375,-0.01298113539814949,0.1480441838502884,-0.03150089830160141
1776815087121047800,11.0350478515625,-0.016476253047585487,0.10671127587556839,-0.00829104520380497
1776815087131084800,11.045084716796875,-0.012378446757793427,0.0356576070189476,0.007381390780210495
1776815087141121500,11.05512158203125,-0.0015134699642658234,-0.04359808191657066,0.014895128086209297
1776815087151159600,11.06515966796875,0.0019715428352355957,-0.10566359013319016,0.0073575833812355995
1776815087161196800,11.07519677734375,0.0034852195531129837,-0.15062183141708374,0.0017204476753249764
1776815087171233500,11.085233642578125,0.007174231112003326,-0.17666754126548767,-0.010321300476789474
1776815087181271600,11.095271484375,0.010691831819713116,-0.1720787137746811,-0.024987174198031425
1776815087191308800,11.105308837890625,0.0016432097181677818,-0.13470017910003662,-0.04608100652694702
1776815087201345800,11.115345703125,-0.007683975156396627,-0.08084306865930557,-0.06136653572320938
1776815087211383600,11.125383544921876,-0.014671577140688896,-0.019907547160983086,-0.0677621141076088
1776815087221420500,11.135420654296874,-0.018796585500240326,0.01816008798778057,-0.06900189816951752
1776815087231457800,11.145457763671875,-0.01750095747411251,0.013170922175049782,-0.06085343286395073
1776815087241495600,11.15549560546875,-0.018169380724430084,-0.02143894135951996,-0.047547198832035065
1776815087251532500,11.165532470703125,-0.019734520465135574,-0.06249263882637024,-0.028395608067512512
1776815087261569800,11.17556982421875,-0.01468223799020052,-0.10810352861881256,-0.009347348473966122
1776815087271607600,11.185607666015626,-0.011874999850988388,-0.15075644850730896,-0.0014609298668801785
1776815087281644500,11.19564453125,-0.006412223447114229,-0.17734096944332123,0.003817332908511162
1776815087291681500,11.205681640625,-0.004175168462097645,-0.19440118968486786,0.007556144148111343
1776815087301719600,11.215719482421875,0.0036121737211942673,-0.19309736788272858,0.007401346229016781
1776815087311756500,11.225756591796875,0.0071858689188957214,-0.17896264791488647,0.0061174361035227776
1776815087321793500,11.23579345703125,0.007225128822028637,-0.15276509523391724,0.006203889846801758
1776815087331831800,11.245831787109376,0.0007405979558825493,-0.11148876696825027,0.009504079818725586
1776815087341868500,11.25586865234375,-0.003446737304329872,-0.06788156926631927,0.02060052379965782
1776815087351905500,11.265905517578124,-0.0010970300063490868,-0.03317578509449959,0.03201589733362198
1776815087361942500,11.275942626953125,0.003912690095603466,-0.02678452990949154,0.051250193268060684
1776815087371980500,11.28598046875,0.0012684371322393417,-0.04975935444235802,0.06939084827899933
1776815087382017500,11.296017578125,0.009262189269065857,-0.07804843783378601,0.08901788294315338
1776815087392054500,11.306054443359375,0.018577395007014275,-0.10415833443403244,0.10777346044778824
1776815087402092800,11.3160927734375,0.022994166240096092,-0.12407263368368149,0.11999721080064774
1776815087412129500,11.326129638671874,0.028254443779587746,-0.1395469456911087,0.12046486139297485
1776815087422166500,11.33616650390625,0.026006273925304413,-0.13787350058555603,0.11436764150857925
1776815087432204800,11.346204833984375,0.021340414881706238,-0.11917544901371002,0.1179615780711174
1776815087442241800,11.35624169921875,0.022360624745488167,-0.07287180423736572,0.1308138519525528
1776815087452278500,11.366278564453125,0.03240446746349335,-0.025448892265558243,0.14608149230480194
1776815087462316500,11.376316650390624,0.047032810747623444,-0.0010674679651856422,0.17258131504058838
1776815087472353800,11.386353759765624,0.05910331755876541,0.004951275885105133,0.20354029536247253
1776815087482390500,11.396390625,0.060378529131412506,0.008612999692559242,0.23176054656505585
1776815087492428500,11.406428466796875,0.06161077320575714,0.016401680186390877,0.25064530968666077
1776815087502465800,11.4164658203125,0.0681401714682579,0.014381250366568565,0.2598728537559509
1776815087512502800,11.426502685546875,0.06732071191072464,0.020690012723207474,0.2601221203804016
1776815087522540500,11.43654052734375,0.06584196537733078,0.028271710500121117,0.255170077085495
1776815087532577500,11.44657763671875,0.06745583564043045,0.04087778553366661,0.2603408694267273
1776815087542614800,11.45661474609375,0.05935055762529373,0.03954514488577843,0.2699042558670044
1776815087552652500,11.466652587890625,0.05603652447462082,0.02513078600168228,0.28902095556259155
1776815087562689500,11.476689453125,0.05138539522886276,-0.01608607918024063,0.3234314024448395
1776815087572726800,11.486726806640625,0.04865805432200432,-0.05415356904268265,0.38737255334854126
1776815087582764500,11.4967646484375,0.04988972842693329,-0.07703637331724167,0.47259974479675293
1776815087592801500,11.506801513671874,0.06594432890415192,-0.08896653354167938,0.5547776818275452
1776815087602838500,11.516838623046874,0.09415317326784134,-0.08675634860992432,0.6329331398010254
1776815087612876500,11.52687646484375,0.1152600571513176,-0.10217578709125519,0.7058486342430115
1776815087622913500,11.53691357421875,0.1366567313671112,-0.15325528383255005,0.7875375151634216
1776815087632950500,11.546950439453125,0.15187031030654907,-0.23046058416366577,0.8922407627105713
1776815087642988800,11.55698876953125,0.16901715099811554,-0.3140898048877716,1.0062297582626343
1776815087653025500,11.567025634765624,0.20973289012908936,-0.3645995855331421,1.097961187362671
1776815087663062500,11.5770625,0.2732495367527008,-0.3245358169078827,1.148935079574585
1776815087673100800,11.587100830078125,0.35240936279296875,-0.22046266496181488,1.164901614189148
1776815087683137500,11.597137451171875,0.41108888387680054,-0.0886073037981987,1.190968632698059
1776815087693174500,11.607174560546875,0.42541030049324036,-0.004204808734357357,1.2206569910049438
1776815087703212800,11.617212890625,0.39033764600753784,-0.007530284114181995,1.2098116874694824
1776815087713249800,11.627249755859374,0.32055139541625977,-0.08116482198238373,1.1394221782684326
1776815087723286500,11.63728662109375,0.24720124900341034,-0.21564480662345886,1.0391864776611328
1776815087733325600,11.64732568359375,0.1979074627161026,-0.38557523488998413,0.9517894983291626
1776815087743362300,11.6573623046875,0.1733737289905548,-0.4835066795349121,0.9003585577011108
1776815087753399600,11.667399658203125,0.17923028767108917,-0.49076247215270996,0.859844982624054
1776815087763437600,11.6774375,0.21231740713119507,-0.45023003220558167,0.834963321685791
1776815087773474600,11.687474609375,0.26174086332321167,-0.4006393253803253,0.8563796281814575
1776815087783511300,11.69751123046875,0.30173951387405396,-0.37964192032814026,0.9334860444068909
1776815087793549600,11.707549560546875,0.3330138027667999,-0.4294736683368683,1.045417308807373
1776815087803586600,11.717586669921875,0.3811510503292084,-0.4688389301300049,1.1625175476074219
1776815087813623600,11.72762353515625,0.4496832489967346,-0.45827868580818176,1.2707854509353638
1776815087823660500,11.73766064453125,0.5025956630706787,-0.4881119430065155,1.3539115190505981
1776815087833698600,11.747698486328124,0.5209712386131287,-0.6839853525161743,1.4291136264801025
1776815087843735600,11.757735595703124,0.5691956281661987,-0.8101640939712524,1.5386544466018677
1776815087853772300,11.767772216796875,0.6540436744689941,-0.6212401986122131,1.6651191711425781
1776815087863810600,11.777810546875,0.6994273066520691,-0.3345601260662079,1.7422940731048584
1776815087873847600,11.78784765625,0.6409078240394592,-0.16364669799804688,1.7913026809692383
1776815087883884500,11.797884521484375,0.5486586093902588,-0.11032997816801071,1.830926775932312
1776815087893922600,11.807922607421874,0.49651870131492615,-0.20559097826480865,1.8798823356628418
1776815087903959600,11.81795947265625,0.48654603958129883,-0.3159499168395996,1.9696235656738281
1776815087913996500,11.82799658203125,0.5024639964103699,-0.35578814148902893,2.0545756816864014
1776815087924034600,11.83803466796875,0.5406767129898071,-0.3373994529247284,2.08183217048645
1776815087934071600,11.848071533203125,0.5879585146903992,-0.3360937237739563,2.0493500232696533
1776815087944108500,11.858108642578125,0.6218766570091248,-0.3413424491882324,1.997435450553894
1776815087954146600,11.868146484375,0.6448495984077454,-0.3011747896671295,1.9641175270080566
1776815087964183600,11.87818359375,0.6574164628982544,-0.17501968145370483,1.9443460702896118
1776815087974220500,11.888220458984375,0.6626839637756348,-0.026160161942243576,1.9506546258926392
1776815087984258300,11.89825830078125,0.6381470561027527,-0.0008572572842240334,2.0309057235717773
1776815087994295600,11.908295654296875,0.6236628890037537,-0.08555590361356735,2.1650736331939697
1776815088004332500,11.91833251953125,0.6221160292625427,-0.07699168473482132,2.2467384338378906
1776815088014370600,11.92837060546875,0.6166994571685791,-0.07282064110040665,2.204784631729126
1776815088024407300,11.9384072265625,0.5943986177444458,-0.026682673022150993,2.123380422592163
1776815088034444500,11.948444580078124,0.5485155582427979,-0.055203262716531754,2.0482966899871826
1776815088044482600,11.958482666015625,0.5920040607452393,-0.09957972913980484,1.9682894945144653
1776815088054519300,11.968519287109375,0.6377174854278564,0.004621243104338646,1.9090237617492676
1776815088064556500,11.978556640625,0.6430692672729492,0.11145229637622833,1.9282557964324951
1776815088074594600,11.988594482421876,0.6011867523193359,0.019807064905762672,2.0506844520568848
1776815088084629500,11.99862939453125,0.5983566641807556,-0.1218734011054039,2.1446456909179688
1776815088094666500,12.00866650390625,0.6550620198249817,-0.11277258396148682,2.103715181350708
1776815088104704500,12.01870458984375,0.7006821632385254,-0.06100798398256302,2.058943748474121
1776815088114741500,12.028741455078125,0.7489298582077026,-0.09083645045757294,2.027799606323242
1776815088124778500,12.038778564453125,0.7251782417297363,-0.1259581595659256,2.010777235031128
1776815088134815500,12.0488154296875,0.6386249661445618,-0.11071129888296127,2.0391838550567627
1776815088144853500,12.058853515625,0.5549317002296448,-0.25380510091781616,2.069561243057251
1776815088154890500,12.068890380859376,0.5308846831321716,-0.3952128291130066,2.097849130630493
1776815088164927500,12.078927490234374,0.5030212998390198,-0.5258662700653076,2.1295626163482666
1776815088174965500,12.088965576171875,0.43854376673698425,-0.5197015404701233,2.1922495365142822
1776815088185002500,12.09900244140625,0.2801315486431122,-0.5131962299346924,2.316495656967163
1776815088195039500,12.10903955078125,0.09792392700910568,-0.602436363697052,2.412660837173462
1776815088205077500,12.119077392578125,0.07599665224552155,-0.6565044522285461,2.3754401206970215
1776815088215114500,12.129114501953126,0.03465135022997856,-0.6449146270751953,2.3888356685638428
1776815088225151500,12.1391513671875,0.07868050783872604,-0.530158281326294,2.3369767665863037
1776815088235189500,12.149189453125,0.07616355270147324,-0.5055980682373047,2.304410696029663
1776815088245226500,12.1592265625,0.08416391909122467,-0.4369160532951355,2.2989659309387207
1776815088255263500,12.169263427734375,0.157271146774292,-0.3960455656051636,2.2454352378845215
1776815088265301500,12.179301513671875,0.12000294774770737,-0.49848034977912903,2.310182809829712
1776815088275338500,12.18933837890625,0.16081802546977997,-0.37449023127555847,2.3230812549591064
1776815088285375500,12.19937548828125,0.19526076316833496,-0.25879791378974915,2.318495035171509
1776815088295413500,12.20941357421875,0.18553435802459717,-0.11341886967420578,2.2797152996063232
1776815088305450500,12.219450439453125,0.1709642857313156,-0.05849633738398552,2.232715606689453
1776815088315487700,12.22948779296875,0.17158134281635284,-0.09417977184057236,2.2014405727386475
1776815088325525500,12.239525390625,0.15673723816871643,-0.181704580783844,2.185833215713501
1776815088335562500,12.2495625,0.14821937680244446,-0.1788209080696106,2.1657259464263916
1776815088345599500,12.259599609375,0.14848892390727997,-0.09563694894313812,2.094602108001709
1776815088355636500,12.269636474609374,0.1654902845621109,0.009623690508306026,2.0531058311462402
1776815088365674500,12.279674560546875,0.1784489005804062,0.1058863028883934,2.0030410289764404
1776815088375711500,12.28971142578125,0.1813538670539856,0.23054860532283783,1.937025785446167
1776815088385748500,12.29974853515625,0.17065249383449554,0.24841967225074768,1.8855940103530884
1776815088395786500,12.309786376953125,0.17635458707809448,0.07420472055673599,1.8208400011062622
1776815088405823500,12.319823486328126,0.2573084831237793,-0.06171093136072159,1.7348252534866333
1776815088415860500,12.329860595703124,0.3021414279937744,-0.3007163107395172,1.6790751218795776
1776815088425898500,12.3398984375,0.3237265646457672,-0.32674047350883484,1.6630836725234985
1776815088435935500,12.349935546875,0.3273945450782776,-0.23959384858608246,1.6449706554412842
1776815088445972500,12.359972412109375,0.35436123609542847,-0.1634037345647812,1.6385689973831177
1776815088456010500,12.370010498046875,0.32320117950439453,-0.048626288771629333,1.638103723526001
1776815088466047500,12.380047607421876,0.3427022397518158,0.048037026077508926,1.589978814125061
1776815088476084500,12.39008447265625,0.40127578377723694,0.13540469110012054,1.5059995651245117
1776815088486122500,12.40012255859375,0.42862334847450256,0.09548012167215347,1.396098256111145
1776815088496159500,12.410159423828125,0.4338231682777405,-0.015663977712392807,1.3067065477371216
1776815088506196500,12.420196533203125,0.39484408497810364,-0.19217003881931305,1.2794597148895264
1776815088516234500,12.430234375,0.31556257605552673,-0.29892683029174805,1.245719313621521
1776815088526271500,12.440271484375,0.24866245687007904,-0.3610019385814667,1.1299233436584473
1776815088536308500,12.45030859375,0.22163377702236176,-0.36467498540878296,1.0415468215942383
