time,seconds_elapsed,z,y,x
1776815076167574500,0.081574462890625,-90.87043762207031,28.391006469726562,-77.55764770507812
1776815076177676500,0.091676513671875,-90.87727355957031,28.36932373046875,-77.23672485351562
1776815076187779300,0.101779296875,-90.73454284667969,28.332595825195312,-76.94868469238281
1776815076197882400,0.11188232421875,-91.5606689453125,28.559967041015625,-76.47207641601562
1776815076207984400,0.121984375,-91.84664916992188,28.55462646484375,-75.74250793457031
1776815076218086400,0.13208642578125,-92.41275024414062,28.736190795898438,-75.39041137695312
1776815076228187400,0.1421875,-92.79350280761719,28.88409423828125,-74.66294860839844
1776815076238289400,0.152289306640625,-93.65629577636719,28.922653198242188,-73.78509521484375
1776815076248390400,0.162390380859375,-93.68882751464844,28.78082275390625,-73.21702575683594
1776815076258492400,0.172492431640625,-93.63844299316406,28.520904541015625,-72.70463562011719
1776815076268594400,0.182594482421875,-93.84848022460938,28.009368896484375,-72.45872497558594
1776815076278695400,0.1926953125,-93.8785400390625,27.725601196289062,-72.47085571289062
1776815076288797400,0.20279736328125,-93.72052001953125,27.391311645507812,-72.59309387207031
1776815076298898400,0.2128984375,-93.77801513671875,27.846206665039062,-72.53157043457031
1776815076309000400,0.22300048828125,-93.82218933105469,27.896163940429688,-72.48417663574219
1776815076319102500,0.2331025390625,-93.80604553222656,28.613677978515625,-72.64260864257812
1776815076329203500,0.243203369140625,-94.12178039550781,28.680648803710938,-72.56340026855469
1776815076339305500,0.253305419921875,-93.57023620605469,29.075057983398438,-72.61616516113281
1776815076349406500,0.263406494140625,-93.92132568359375,28.924148559570312,-72.40089416503906
1776815076359506400,0.27350634765625,-93.90957641601562,28.928009033203125,-72.72802734375
1776815076369607400,0.283607421875,-93.83854675292969,29.033950805664062,-72.90898132324219
1776815076379708400,0.29370849609375,-93.76145935058594,29.098846435546875,-73.15394592285156
1776815076389807400,0.303807373046875,-93.15061950683594,28.948272705078125,-73.56019592285156
1776815076399907300,0.3139072265625,-93.53378295898438,29.08050537109375,-73.63467407226562
1776815076410008300,0.32400830078125,-93.34951782226562,29.040603637695312,-74.00373840332031
1776815076420108300,0.3341083984375,-93.097900390625,29.1043701171875,-74.46949768066406
1776815076430207500,0.34420751953125,-93.11317443847656,28.953536987304688,-74.67315673828125
1776815076440307500,0.354307373046875,-93.14012145996094,28.806259155273438,-74.91566467285156
1776815076450407400,0.364407470703125,-92.83929443359375,28.5418701171875,-75.04997253417969
1776815076460507400,0.37450732421875,-92.48199462890625,28.415008544921875,-75.33834838867188
1776815076470607600,0.384607666015625,-92.24545288085938,28.240921020507812,-75.54142761230469
1776815076480707300,0.394707275390625,-92.04391479492188,28.43896484375,-75.92111206054688
1776815076490807600,0.4048076171875,-91.94732666015625,28.215927124023438,-76.09909057617188
1776815076500908300,0.414908203125,-91.8382568359375,28.075592041015625,-76.4461669921875
1776815076511010300,0.42501025390625,-91.68557739257812,28.1673583984375,-76.65432739257812
1776815076521111600,0.435111572265625,-91.60414123535156,27.938446044921875,-76.885986328125
1776815076531212300,0.44521240234375,-91.36126708984375,27.971710205078125,-76.96383666992188
1776815076541313500,0.4553134765625,-90.60867309570312,27.935516357421875,-77.00437927246094
1776815076551414500,0.46541455078125,-90.80950927734375,27.5003662109375,-77.37232971191406
1776815076561515300,0.475515380859375,-90.745849609375,27.378875732421875,-77.49400329589844
1776815076571616500,0.485616455078125,-90.88526916503906,27.500381469726562,-77.65226745605469
1776815076581718500,0.495718505859375,-90.986572265625,27.375350952148438,-77.74168395996094
1776815076591819500,0.505819580078125,-90.82487487792969,27.29095458984375,-77.55364990234375
1776815076601922600,0.515922607421875,-90.93370056152344,27.292037963867188,-77.66899108886719
1776815076612024300,0.5260244140625,-90.65066528320312,27.115890502929688,-77.59004211425781
1776815076622126300,0.536126220703125,-91.03793334960938,26.9134521484375,-77.42042541503906
1776815076632228400,0.546228271484375,-90.91499328613281,27.072463989257812,-77.31948852539062
1776815076642330400,0.556330322265625,-90.87741088867188,26.910659790039062,-77.02532958984375
1776815076652431600,0.566431640625,-91.36299133300781,27.179779052734375,-77.11282348632812
1776815076662533600,0.57653369140625,-91.36720275878906,27.128372192382812,-76.76548767089844
1776815076672634400,0.58663427734375,-91.64778137207031,27.034957885742188,-76.27508544921875
1776815076682736400,0.596736328125,-91.93077087402344,27.00701904296875,-75.67131042480469
1776815076692837400,0.60683740234375,-92.5184326171875,26.904190063476562,-75.10563659667969
1776815076702939400,0.616939453125,-92.87870788574219,26.886474609375,-74.38737487792969
1776815076713040400,0.627040283203125,-93.3717041015625,27.061294555664062,-73.26229858398438
1776815076723141000,0.63714111328125,-93.85047912597656,27.00726318359375,-72.25917053222656
1776815076733242400,0.647242431640625,-93.85812377929688,26.972854614257812,-70.80245971679688
1776815076743341300,0.65734130859375,-94.84765625,27.143707275390625,-69.73666381835938
1776815076753441300,0.667441162109375,-95.39524841308594,26.936569213867188,-68.42605590820312
1776815076763542500,0.67754248046875,-95.61918640136719,27.2471923828125,-67.41189575195312
1776815076773643300,0.687643310546875,-95.64466857910156,27.379867553710938,-66.55503845214844
1776815076783744300,0.697744140625,-96.1175537109375,27.587234497070312,-66.04714965820312
1776815076793845500,0.707845458984375,-96.26242065429688,27.883560180664062,-65.66131591796875
1776815076803946200,0.7179462890625,-96.29022216796875,28.1220703125,-65.48530578613281
1776815076814048300,0.72804833984375,-95.88800048828125,28.8753662109375,-65.31826782226562
1776815076824149200,0.738149169921875,-96.30072021484375,29.131668090820312,-64.9498291015625
1776815076834249200,0.748249267578125,-96.11045837402344,29.382919311523438,-65.07933044433594
1776815076844350500,0.7583505859375,-96.49064636230469,29.364791870117188,-65.14530944824219
1776815076854451200,0.768451171875,-96.50796508789062,29.2923583984375,-65.3585205078125
1776815076864552200,0.77855224609375,-96.33187866210938,29.547607421875,-65.84248352050781
1776815076874653400,0.7886533203125,-96.09620666503906,29.407501220703125,-66.16671752929688
1776815076884755500,0.79875537109375,-96.03724670410156,29.323745727539062,-66.85678100585938
1776815076894857500,0.808857421875,-96.15489196777344,29.5400390625,-67.335693359375
1776815076904958200,0.818958251953125,-95.97947692871094,30.106231689453125,-67.67929077148438
1776815076915060200,0.829060302734375,-96.03471374511719,30.005996704101562,-67.83021545410156
1776815076925162200,0.839162353515625,-95.84390258789062,30.305496215820312,-67.84989929199219
1776815076935262200,0.84926220703125,-95.98182678222656,30.406356811523438,-68.16265869140625
1776815076945363200,0.85936328125,-95.73464965820312,30.438247680664062,-67.98954772949219
1776815076955464400,0.86946435546875,-95.87455749511719,30.909866333007812,-68.0606689453125
1776815076965566500,0.87956640625,-95.79927062988281,30.59442138671875,-67.97686767578125
1776815076975666200,0.889666259765625,-96.09791564941406,30.84808349609375,-68.02740478515625
1776815076985768200,0.899768310546875,-95.66851806640625,30.892379760742188,-67.85089111328125
1776815076995870500,0.909870361328125,-96.02033996582031,30.68157958984375,-67.87281799316406
1776815077005971200,0.91997119140625,-96.08193969726562,30.702117919921875,-67.79124450683594
1776815077016074200,0.93007421875,-95.95866394042969,31.030487060546875,-67.40126037597656
1776815077026176300,0.94017626953125,-96.23814392089844,31.502578735351562,-67.72256469726562
1776815077036277200,0.95027734375,-96.40719604492188,31.437042236328125,-67.43148803710938
1776815077046379300,0.960379150390625,-96.1685791015625,31.731643676757812,-67.21073913574219
1776815077056478200,0.970478271484375,-96.23757934570312,31.636642456054688,-66.9317626953125
1776815077066580200,0.980580322265625,-96.06208801269531,31.688308715820312,-66.35824584960938
1776815077076682200,0.99068212890625,-96.25328063964844,32.03627014160156,-66.1707763671875
1776815077086783500,1.000783447265625,-96.72088623046875,32.18501281738281,-65.43231201171875
1776815077096884200,1.01088427734375,-96.83590698242188,32.33512878417969,-64.75608825683594
1776815077106984400,1.020984375,-97.00566101074219,32.72575378417969,-63.9576416015625
1776815077117085200,1.031085205078125,-96.81089782714844,33.313079833984375,-63.28193664550781
1776815077127186200,1.041186279296875,-97.02302551269531,34.01493835449219,-62.84312438964844
1776815077137287400,1.051287353515625,-97.16598510742188,35.052276611328125,-62.46223449707031
1776815077147389400,1.061389404296875,-96.90057373046875,36.39788818359375,-62.11871337890625
1776815077157490200,1.071490234375,-97.02194213867188,37.88551330566406,-61.658447265625
1776815077167589000,1.081589111328125,-96.73112487792969,40.207275390625,-61.500213623046875
1776815077177691100,1.091691162109375,-96.3441162109375,42.143829345703125,-60.968597412109375
1776815077187792400,1.10179248046875,-95.96022033691406,44.491455078125,-60.76411437988281
1776815077197893400,1.111893310546875,-95.12651062011719,46.64678955078125,-60.51655578613281
1776815077207994000,1.121994140625,-93.8873291015625,48.97535705566406,-60.22813415527344
1776815077218094300,1.13209423828125,-93.16152954101562,51.5220947265625,-60.50526428222656
1776815077228195000,1.142195068359375,-91.76609802246094,53.82710266113281,-60.63825988769531
1776815077238296300,1.15229638671875,-90.36543273925781,56.199798583984375,-60.911285400390625
1776815077248395300,1.162395263671875,-89.15077209472656,57.6199951171875,-60.89276123046875
1776815077258496300,1.172496337890625,-87.46237182617188,59.36497497558594,-61.14849853515625
1776815077268597200,1.18259716796875,-86.56138610839844,60.614837646484375,-61.95970153808594
1776815077278697200,1.192697265625,-85.06361389160156,61.609130859375,-62.54473876953125
1776815077288798200,1.202798095703125,-84.33384704589844,62.69500732421875,-63.15623474121094
1776815077298899500,1.2128994140625,-83.19747924804688,63.73063659667969,-64.02542114257812
1776815077309000200,1.223000244140625,-81.87367248535156,64.56060791015625,-64.73431396484375
1776815077319100400,1.233100341796875,-80.38282775878906,65.70860290527344,-65.42788696289062
1776815077329201200,1.243201171875,-79.2762451171875,66.43521118164062,-65.71847534179688
1776815077339301400,1.25330126953125,-78.63552856445312,66.81739807128906,-65.46095275878906
1776815077349401300,1.2634013671875,-78.36964416503906,67.11466979980469,-65.17475891113281
1776815077359502300,1.27350244140625,-78.07240295410156,67.39476013183594,-64.7305908203125
1776815077369603300,1.283603271484375,-78.61381530761719,67.32589721679688,-64.15744018554688
1776815077379704300,1.293704345703125,-78.75009155273438,67.1939697265625,-63.449462890625
1776815077389804300,1.30380419921875,-79.88970947265625,66.6895751953125,-62.93147277832031
1776815077399905300,1.3139052734375,-80.16787719726562,66.39286804199219,-62.63059997558594
1776815077410008300,1.32400830078125,-81.04379272460938,66.0361328125,-62.830841064453125
1776815077420110300,1.3341103515625,-80.90908813476562,65.99330139160156,-62.539398193359375
1776815077430212400,1.34421240234375,-80.59550476074219,66.08883666992188,-62.073333740234375
1776815077440313300,1.354313232421875,-80.34202575683594,66.61842346191406,-61.98100280761719
1776815077450415400,1.364415283203125,-79.93226623535156,67.02284240722656,-61.60780334472656
1776815077460516000,1.37451611328125,-79.66825866699219,67.3623046875,-61.35014343261719
1776815077470618400,1.384618408203125,-78.8433837890625,67.88754272460938,-60.511016845703125
1776815077480719400,1.39471923828125,-78.05224609375,68.55140686035156,-59.392547607421875
1776815077490820400,1.4048203125,-77.49339294433594,68.53660583496094,-58.574554443359375
1776815077500920300,1.41492041015625,-76.58027648925781,69.15682983398438,-58.038177490234375
1776815077511021300,1.425021240234375,-75.49873352050781,69.57145690917969,-57.249298095703125
1776815077521122300,1.435122314453125,-73.88137817382812,70.16973876953125,-55.79266357421875
1776815077531222300,1.44522216796875,-71.53459167480469,70.81492614746094,-54.14631652832031
1776815077541323300,1.4553232421875,-69.37171936035156,71.08169555664062,-52.75923156738281
1776815077551424300,1.46542431640625,-68.36434936523438,71.24676513671875,-51.79035949707031
1776815077561525200,1.475525146484375,-67.921630859375,71.13009643554688,-50.82197570800781
1776815077571627300,1.485627197265625,-67.72433471679688,70.87655639648438,-50.12593078613281
1776815077581728300,1.495728271484375,-67.80979919433594,70.72100830078125,-49.499267578125
1776815077591828200,1.505828125,-67.64633178710938,71.006591796875,-49.244354248046875
1776815077601930500,1.515930419921875,-67.42410278320312,70.74655151367188,-49.502471923828125
1776815077612031200,1.52603125,-67.17610168457031,71.16961669921875,-49.74110412597656
1776815077622132200,1.53613232421875,-66.3822021484375,71.293212890625,-49.77825927734375
1776815077632233500,1.5462333984375,-65.51246643066406,71.37924194335938,-49.62577819824219
1776815077642335500,1.55633544921875,-65.12356567382812,71.46037292480469,-49.51361083984375
1776815077652437200,1.566437255859375,-64.9949951171875,71.62623596191406,-49.50361633300781
1776815077662541300,1.576541259765625,-64.22494506835938,71.56600952148438,-49.359130859375
1776815077672643000,1.58664306640625,-63.66514587402344,71.49122619628906,-49.20947265625
1776815077682747400,1.596747314453125,-62.93373107910156,71.63534545898438,-49.04481506347656
1776815077692850400,1.606850341796875,-62.31488037109375,71.82057189941406,-49.12823486328125
1776815077702954200,1.616954345703125,-61.7799072265625,71.97145080566406,-48.89167785644531
1776815077713057300,1.627057373046875,-61.40965270996094,72.0382080078125,-49.058929443359375
1776815077723159300,1.6371591796875,-60.65338134765625,71.79916381835938,-48.912017822265625
1776815077733261300,1.64726123046875,-60.06672668457031,72.11308288574219,-48.693634033203125
1776815077743363000,1.657363037109375,-60.0989990234375,71.95451354980469,-48.66450500488281
1776815077753465000,1.667465087890625,-59.815216064453125,71.77822875976562,-48.60038757324219
1776815077763567000,1.677567138671875,-59.87353515625,72.06068420410156,-48.577484130859375
1776815077773669000,1.687669189453125,-59.962615966796875,71.923095703125,-48.44929504394531
1776815077783772200,1.697772216796875,-59.994659423828125,71.97174072265625,-48.1182861328125
1776815077793875200,1.707875244140625,-59.99336242675781,72.05784606933594,-48.48896789550781
1776815077803977200,1.717977294921875,-60.54817199707031,72.06700134277344,-48.48594665527344
1776815077814079200,1.728079345703125,-61.330322265625,71.87593078613281,-48.65812683105469
1776815077824181200,1.73818115234375,-61.37593078613281,71.93312072753906,-48.845672607421875
1776815077834284300,1.7482841796875,-62.57810974121094,71.86116027832031,-48.9366455078125
1776815077844385000,1.758385009765625,-63.37269592285156,71.82254028320312,-49.31756591796875
1776815077854487300,1.7684873046875,-64.16947937011719,71.77702331542969,-49.5303955078125
1776815077864587300,1.778587158203125,-64.82150268554688,71.646484375,-49.76203918457031
1776815077874687200,1.788687255859375,-65.42681884765625,71.55560302734375,-49.79728698730469
1776815077884787200,1.798787109375,-65.95458984375,71.59075927734375,-50.360382080078125
1776815077894889500,1.808889404296875,-66.24671936035156,71.64157104492188,-50.72747802734375
1776815077904990200,1.818990234375,-66.69773864746094,71.70951843261719,-51.23046875
1776815077915090400,1.82909033203125,-67.04924011230469,71.79620361328125,-51.44256591796875
1776815077925192400,1.8391923828125,-67.26007080078125,71.72001647949219,-51.417694091796875
1776815077935293200,1.849293212890625,-67.96890258789062,71.88595581054688,-51.88792419433594
1776815077945395200,1.859395263671875,-68.5584716796875,71.57023620605469,-52.08918762207031
1776815077955497200,1.869497314453125,-68.80393981933594,71.26312255859375,-52.38447570800781
1776815077965599200,1.87959912109375,-68.86752319335938,71.34799194335938,-52.58062744140625
1776815077975701200,1.889701171875,-68.943603515625,71.28707885742188,-52.316650390625
1776815077985804300,1.89980419921875,-69.14633178710938,71.50669860839844,-52.75032043457031
1776815077995907300,1.9099072265625,-68.81253051757812,71.37966918945312,-52.745452880859375
1776815078006011100,1.92001123046875,-68.61933898925781,71.42277526855469,-52.82659912109375
1776815078016115200,1.930115234375,-68.36119079589844,71.55735778808594,-52.82734680175781
1776815078026218200,1.94021826171875,-68.7110595703125,71.46099853515625,-52.832794189453125
1776815078036320300,1.9503203125,-68.65286254882812,71.62985229492188,-52.84333801269531
1776815078046422300,1.96042236328125,-68.53237915039062,71.36503601074219,-52.799713134765625
1776815078056523300,1.970523193359375,-68.46249389648438,71.66835021972656,-52.85905456542969
1776815078066625300,1.980625244140625,-68.07514953613281,71.47247314453125,-52.769073486328125
1776815078076727000,1.99072705078125,-68.46589660644531,71.84957885742188,-53.00721740722656
1776815078086826200,2.000826171875,-68.86781311035156,71.67268371582031,-53.006622314453125
1776815078096926200,2.01092626953125,-68.87466430664062,71.61138916015625,-53.253570556640625
1776815078107027200,2.021027099609375,-69.49317932128906,71.78396606445312,-53.34397888183594
1776815078117128400,2.03112841796875,-69.16929626464844,71.72076416015625,-53.11195373535156
1776815078127230200,2.041230224609375,-69.87803649902344,71.5423583984375,-53.69581604003906
1776815078137331200,2.051331298828125,-69.99861145019531,71.74861145019531,-53.931610107421875
1776815078147433200,2.06143310546875,-70.02630615234375,71.86187744140625,-54.65528869628906
1776815078157533200,2.071533203125,-70.51773071289062,71.81283569335938,-55.08256530761719
1776815078167634200,2.08163427734375,-70.60989379882812,72.06217956542969,-56.09220886230469
1776815078177735400,2.0917353515625,-70.45687866210938,72.09857177734375,-57.02546691894531
1776815078187837400,2.10183740234375,-70.308349609375,72.42799377441406,-58.19969177246094
1776815078197939200,2.111939208984375,-70.15184020996094,72.43171691894531,-58.9852294921875
1776815078208040200,2.122040283203125,-69.79823303222656,72.57826232910156,-59.59332275390625
1776815078218141400,2.132141357421875,-69.38912963867188,72.70570373535156,-60.18873596191406
1776815078228243500,2.142243408203125,-69.28028869628906,72.78263854980469,-60.479339599609375
1776815078238345200,2.15234521484375,-68.86628723144531,72.77435302734375,-60.61900329589844
1776815078248448300,2.1624482421875,-68.49578857421875,72.60635375976562,-60.54753112792969
1776815078258551300,2.17255126953125,-68.17994689941406,72.88523864746094,-60.50364685058594
1776815078268655400,2.1826552734375,-68.27996826171875,72.94029235839844,-60.614593505859375
1776815078278758400,2.19275830078125,-67.95048522949219,72.82518005371094,-60.52311706542969
1776815078288861200,2.202861083984375,-67.97366333007812,72.88661193847656,-60.80503845214844
1776815078298964200,2.212964111328125,-68.11993408203125,72.96417236328125,-61.20713806152344
1776815078309066200,2.223066162109375,-67.48252868652344,73.02937316894531,-61.41200256347656
1776815078319168300,2.233168212890625,-68.25459289550781,72.89578247070312,-61.74690246582031
1776815078329270300,2.243270263671875,-68.41545104980469,72.45545959472656,-61.95552062988281
1776815078339373300,2.253373291015625,-68.55810546875,72.64895629882812,-62.23765563964844
1776815078349475000,2.26347509765625,-69.09550476074219,72.5201416015625,-62.429229736328125
1776815078359577000,2.2735771484375,-69.47492980957031,72.22175598144531,-62.7579345703125
1776815078369679000,2.28367919921875,-69.46925354003906,72.28155517578125,-63.03125
1776815078379781000,2.293781005859375,-69.82962036132812,72.24501037597656,-63.38227844238281
1776815078389883400,2.30388330078125,-70.10932922363281,72.08106994628906,-63.601806640625
1776815078399984400,2.313984375,-69.97248840332031,72.01390075683594,-63.77500915527344
1776815078410086100,2.324086181640625,-69.73869323730469,71.76089477539062,-64.33055114746094
1776815078420188200,2.334188232421875,-69.92355346679688,71.72454833984375,-64.69482421875
1776815078430292500,2.34429248046875,-69.87141418457031,71.89179992675781,-65.17459106445312
1776815078440395300,2.354395263671875,-70.17330932617188,71.77070617675781,-65.31919860839844
1776815078450498300,2.364498291015625,-69.50360107421875,71.58460998535156,-65.35716247558594
1776815078460601300,2.374601318359375,-70.38264465332031,71.59980773925781,-65.97142028808594
1776815078470703400,2.384703369140625,-70.45060729980469,71.33566284179688,-66.37727355957031
1776815078480805000,2.39480517578125,-70.27813720703125,71.2259521484375,-66.64021301269531
1776815078490908200,2.404908203125,-70.24867248535156,71.27645874023438,-66.55198669433594
1776815078501010200,2.41501025390625,-70.21664428710938,71.38246154785156,-66.62471008300781
1776815078511112200,2.4251123046875,-70.53128051757812,71.36842346191406,-66.99928283691406
1776815078521216300,2.43521630859375,-70.7122802734375,71.11544799804688,-66.9951171875
1776815078531319000,2.445319091796875,-70.68417358398438,71.06954956054688,-67.13980102539062
1776815078541421000,2.455421142578125,-70.64289855957031,71.0010986328125,-67.22679138183594
1776815078551523300,2.4655234375,-70.20523071289062,71.12838745117188,-67.219970703125
1776815078561624300,2.475624267578125,-70.18498229980469,71.047607421875,-67.20347595214844
1776815078571727400,2.485727294921875,-70.34938049316406,71.25123596191406,-67.22125244140625
1776815078581829400,2.495829345703125,-70.11013793945312,71.42588806152344,-67.15803527832031
1776815078591932400,2.505932373046875,-70.07225036621094,71.03738403320312,-66.92329406738281
1776815078602034400,2.516034423828125,-70.23088073730469,71.1849365234375,-67.0260009765625
1776815078612136400,2.526136474609375,-70.23637390136719,71.05802917480469,-66.76617431640625
1776815078622238200,2.53623828125,-70.40870666503906,71.21192932128906,-66.45968627929688
1776815078632342300,2.54634228515625,-70.69001770019531,71.44914245605469,-66.07125854492188
1776815078642445300,2.5564453125,-70.54762268066406,71.50625610351562,-65.47402954101562
1776815078652549400,2.56654931640625,-70.99815368652344,71.32777404785156,-65.40657043457031
1776815078662652200,2.576652099609375,-71.46258544921875,70.96366882324219,-65.24148559570312
1776815078672755200,2.586755126953125,-71.4351806640625,71.24380493164062,-64.88041687011719
1776815078682858200,2.596858154296875,-71.34852600097656,71.0792236328125,-64.85859680175781
1776815078692960300,2.606960205078125,-70.94273376464844,71.28829956054688,-65.00784301757812
1776815078703061200,2.617061279296875,-70.37950134277344,71.46734619140625,-65.26045227050781
1776815078713163300,2.627163330078125,-70.37997436523438,71.41252136230469,-65.32843017578125
1776815078723269600,2.63726953125,-70.1094970703125,71.54379272460938,-65.61390686035156
1776815078733372700,2.64737255859375,-70.14437866210938,71.38861083984375,-65.6407470703125
1776815078743477800,2.657477783203125,-70.09974670410156,71.45797729492188,-65.5321044921875
1776815078753581800,2.667581787109375,-70.09494018554688,71.48387145996094,-65.57020568847656
1776815078763685600,2.677685546875,-70.25559997558594,71.4697265625,-65.72071838378906
1776815078773790000,2.6877900390625,-70.6103515625,71.20365905761719,-65.66313171386719
1776815078783893000,2.69789306640625,-70.34376525878906,71.11186218261719,-65.58055114746094
1776815078793995800,2.707995849609375,-71.03288269042969,70.92671203613281,-66.20170593261719
1776815078804096800,2.7180966796875,-71.51106262207031,70.6546630859375,-66.33660888671875
1776815078814199800,2.72819970703125,-72.21641540527344,70.61904907226562,-66.57417297363281
1776815078824302800,2.738302734375,-72.38749694824219,70.61087036132812,-66.69439697265625
1776815078834407000,2.748406982421875,-72.86756896972656,70.38638305664062,-66.83580017089844
1776815078844509000,2.758509033203125,-73.05783081054688,69.96968078613281,-67.18124389648438
1776815078854612000,2.768612060546875,-73.10018920898438,70.06600952148438,-67.66476440429688
1776815078864714800,2.77871484375,-73.20526123046875,70.06053161621094,-68.01422119140625
1776815078874818800,2.78881884765625,-73.2041015625,70.13140869140625,-68.48793029785156
1776815078884922600,2.798922607421875,-72.75210571289062,69.5819091796875,-68.77603149414062
1776815078895026700,2.809026611328125,-73.0018310546875,69.43858337402344,-69.19172668457031
1776815078905128700,2.819128662109375,-72.88063049316406,69.41177368164062,-69.39717102050781
1776815078915231700,2.829231689453125,-72.9266357421875,69.5167236328125,-69.60049438476562
1776815078925334800,2.839334716796875,-72.83970642089844,69.13046264648438,-69.61294555664062
1776815078935437600,2.8494375,-73.06953430175781,69.06166076660156,-69.81462097167969
1776815078945539800,2.859539794921875,-72.80088806152344,69.22274780273438,-70.07002258300781
1776815078955642600,2.869642578125,-72.76846313476562,68.89186096191406,-70.14907836914062
1776815078965745700,2.87974560546875,-72.51080322265625,69.11514282226562,-70.37702941894531
1776815078975847700,2.88984765625,-72.02487182617188,68.98515319824219,-70.28007507324219
1776815078985949000,2.899948974609375,-72.22743225097656,68.91879272460938,-70.88558959960938
1776815078996053800,2.9100537109375,-72.97517395019531,68.54939270019531,-71.00521850585938
1776815079006156800,2.92015673828125,-73.43492126464844,68.14373779296875,-71.23284912109375
1776815079016260900,2.9302607421875,-73.85649108886719,67.87028503417969,-71.28115844726562
1776815079026365000,2.940364990234375,-73.93687438964844,67.61003112792969,-71.38191223144531
1776815079036468700,2.95046875,-73.99839782714844,67.52194213867188,-71.23782348632812
1776815079046571800,2.96057177734375,-73.89166259765625,67.76605224609375,-71.43704223632812
1776815079056676900,2.9706767578125,-73.7236328125,68.07560729980469,-71.43431091308594
1776815079066781000,2.980781005859375,-73.42062377929688,67.80244445800781,-71.21815490722656
1776815079076883700,2.9908837890625,-73.13648986816406,68.22126770019531,-71.4305419921875
1776815079086986800,3.00098681640625,-73.11456298828125,68.03126525878906,-71.4053955078125
1776815079097090800,3.0110908203125,-73.22114562988281,67.79295349121094,-71.34596252441406
1776815079107193600,3.021193603515625,-73.26130676269531,67.99752807617188,-71.46395874023438
1776815079117298000,3.0312978515625,-73.23260498046875,67.8204345703125,-71.23355102539062
1776815079127402800,3.04140283203125,-73.62300109863281,67.8624267578125,-71.53244018554688
1776815079137507800,3.0515078125,-73.40617370605469,68.10781860351562,-71.69546508789062
1776815079147612000,3.06161181640625,-73.45100402832031,67.82777404785156,-71.58335876464844
1776815079157716700,3.071716796875,-73.54356384277344,67.78050231933594,-71.58755493164062
1776815079167820800,3.08182080078125,-73.44041442871094,67.97233581542969,-71.47856140136719
1776815079177926000,3.09192578125,-73.32070922851562,68.02265930175781,-71.60263061523438
1776815079188030700,3.10203076171875,-73.43869018554688,67.90744018554688,-71.75869750976562
1776815079198134800,3.112134765625,-73.38664245605469,68.05497741699219,-71.70625305175781
1776815079208238800,3.12223876953125,-73.25421142578125,67.96025085449219,-71.80134582519531
1776815079218342000,3.132341796875,-73.44650268554688,68.00851440429688,-71.74296569824219
1776815079228445700,3.14244580078125,-72.82608032226562,68.02232360839844,-71.73216247558594
1776815079238549800,3.1525498046875,-73.39253234863281,67.88050842285156,-71.69905090332031
1776815079248652800,3.16265283203125,-73.273193359375,67.98410034179688,-71.8023681640625
1776815079258755600,3.172755615234375,-73.02928161621094,67.98049926757812,-71.64079284667969
1776815079268859000,3.18285888671875,-72.96055603027344,67.93304443359375,-71.66378784179688
1776815079278963000,3.192962890625,-72.74577331542969,67.60993957519531,-71.7188720703125
1776815079289065700,3.203065673828125,-73.182861328125,67.60488891601562,-71.50767517089844
1776815079299168800,3.213168701171875,-72.50540161132812,67.83201599121094,-71.797607421875
1776815079309271800,3.223271728515625,-72.50636291503906,67.92518615722656,-71.62892150878906
1776815079319374800,3.233374755859375,-73.17556762695312,67.73185729980469,-71.71150207519531
1776815079329478000,3.243477783203125,-73.12025451660156,67.82621765136719,-71.50114440917969
1776815079339580700,3.25358056640625,-73.6417236328125,67.75570678710938,-71.36849975585938
1776815079349683700,3.26368359375,-73.97341918945312,67.51719665527344,-71.40109252929688
1776815079359785700,3.27378564453125,-73.50099182128906,67.43511962890625,-71.25611877441406
1776815079369888800,3.283888671875,-73.88371276855469,67.47532653808594,-71.70526123046875
1776815079379991800,3.29399169921875,-73.51058959960938,67.65066528320312,-71.89042663574219
1776815079390094800,3.3040947265625,-73.26930236816406,67.71861267089844,-72.14656066894531
1776815079400197600,3.31419775390625,-72.9166259765625,67.65711975097656,-72.46514892578125
1776815079410300700,3.32430078125,-72.42086791992188,67.52000427246094,-72.56639099121094
1776815079420403700,3.33440380859375,-72.60067749023438,67.33964538574219,-72.69354248046875
1776815079430506800,3.3445068359375,-72.21888732910156,67.43203735351562,-72.70967102050781
1776815079440609800,3.35460986328125,-72.22468566894531,67.64576721191406,-72.91011047363281
1776815079450712600,3.364712646484375,-72.07438659667969,67.46614074707031,-72.80630493164062
1776815079460816000,3.37481591796875,-72.08639526367188,67.49305725097656,-73.036865234375
1776815079470920000,3.384919921875,-71.6900634765625,67.40782165527344,-73.21157836914062
1776815079481022700,3.395022705078125,-71.57095336914062,67.421630859375,-73.48211669921875
1776815079491126800,3.405126708984375,-71.00917053222656,67.31382751464844,-73.42662048339844
1776815079501228800,3.415228759765625,-70.39451599121094,67.26805114746094,-73.3642578125
1776815079511331800,3.425331787109375,-70.19471740722656,67.32568359375,-73.91622924804688
1776815079521433900,3.435433837890625,-70.16419982910156,67.36540222167969,-74.15396118164062
1776815079531537000,3.445536865234375,-69.77104187011719,67.318115234375,-74.49421691894531
1776815079541639700,3.4556396484375,-69.46214294433594,67.06161499023438,-74.67782592773438
1776815079551742000,3.465741943359375,-68.67755126953125,67.12193298339844,-74.89007568359375
1776815079561844000,3.475843994140625,-68.47669982910156,66.97662353515625,-75.27961730957031
1776815079571944700,3.48594482421875,-68.28776550292969,67.13108825683594,-75.39141845703125
1776815079582045700,3.496045654296875,-67.92607116699219,67.07086181640625,-75.53790283203125
1776815079592145700,3.506145751953125,-67.53842163085938,67.16714477539062,-75.52372741699219
1776815079602246000,3.516245849609375,-67.33769226074219,67.21244812011719,-75.68498229980469
1776815079612345600,3.526345703125,-66.80262756347656,67.23367309570312,-75.69590759277344
1776815079622446800,3.53644677734375,-65.99603271484375,66.95303344726562,-76.08204650878906
1776815079632546800,3.546546875,-65.326171875,67.09101867675781,-76.11293029785156
1776815079642646800,3.556646728515625,-65.20455932617188,66.65193176269531,-76.48619079589844
1776815079652748800,3.566748779296875,-65.31088256835938,66.67216491699219,-77.11593627929688
1776815079662850800,3.576850830078125,-65.12081909179688,66.54145812988281,-77.52842712402344
1776815079672951800,3.586951904296875,-64.65911865234375,66.38935852050781,-78.05587768554688
1776815079683052800,3.597052734375,-64.60220336914062,66.24343872070312,-78.26820373535156
1776815079693153800,3.60715380859375,-63.387237548828125,65.88215637207031,-78.30784606933594
1776815079703254800,3.6172548828125,-63.919708251953125,65.95841979980469,-78.68890380859375
1776815079713354800,3.627354736328125,-63.99006652832031,65.87911987304688,-78.831298828125
1776815079723454000,3.637453857421875,-63.30079650878906,66.11114501953125,-78.85662841796875
1776815079733558000,3.64755810546875,-63.502349853515625,65.79159545898438,-78.82762145996094
1776815079743660800,3.657660888671875,-63.74159240722656,65.85540771484375,-79.00080871582031
1776815079753764900,3.667764892578125,-63.71136474609375,66.15032958984375,-78.88043212890625
1776815079763868000,3.677867919921875,-63.73173522949219,66.02151489257812,-78.99296569824219
1776815079773970000,3.687969970703125,-64.04417419433594,65.905517578125,-78.935791015625
1776815079784073000,3.698072998046875,-63.63114929199219,65.91902160644531,-78.82298278808594
1776815079794175000,3.708175048828125,-64.13259887695312,65.98690795898438,-78.92279052734375
1776815079804274700,3.718274658203125,-64.728759765625,65.91322326660156,-78.79313659667969
1776815079814376700,3.728376708984375,-64.71430969238281,65.4801025390625,-78.96965026855469
1776815079824479000,3.73847900390625,-64.991943359375,65.61607360839844,-79.07241821289062
1776815079834581000,3.7485810546875,-64.97761535644531,65.28482055664062,-78.85397338867188
1776815079844683000,3.75868310546875,-65.6949462890625,65.24220275878906,-79.38822937011719
1776815079854785000,3.768784912109375,-65.25440979003906,65.16403198242188,-79.48246765136719
1776815079864886800,3.77888671875,-65.3834228515625,65.28085327148438,-79.53598022460938
1776815079874990000,3.788989990234375,-65.22163391113281,65.25924682617188,-79.577880859375
1776815079885091800,3.799091796875,-64.74282836914062,65.39739990234375,-79.49015808105469
1776815079895192800,3.80919287109375,-65.40992736816406,65.4638671875,-79.56655883789062
1776815079905293800,3.8192939453125,-65.17213439941406,65.33869934082031,-79.65327453613281
1776815079915394800,3.829394775390625,-65.60261535644531,65.46328735351562,-79.55087280273438
1776815079925494800,3.839494873046875,-65.43359375,65.45759582519531,-79.48696899414062
1776815079935596000,3.849595947265625,-65.78591918945312,65.20791625976562,-79.51310729980469
1776815079945697800,3.85969775390625,-65.78282165527344,65.32272338867188,-79.59983825683594
1776815079955798800,3.869798828125,-66.04592895507812,65.23249816894531,-79.42277526855469
1776815079965897700,3.879897705078125,-65.5540771484375,65.10768127441406,-79.51397705078125
1776815079975999000,3.8899990234375,-65.56266784667969,65.27589416503906,-79.35176086425781
1776815079986100000,3.900099853515625,-65.76113891601562,65.15626525878906,-79.61895751953125
1776815079996200700,3.91020068359375,-65.92767333984375,65.18595886230469,-79.45860290527344
1776815080006302000,3.920302001953125,-65.86671447753906,65.11724853515625,-79.64530944824219
1776815080016404000,3.930404052734375,-65.86570739746094,65.09480285644531,-79.57041931152344
1776815080026503700,3.940503662109375,-65.33590698242188,64.97579956054688,-79.35920715332031
1776815080036605000,3.95060498046875,-65.73905944824219,64.90544128417969,-79.62931823730469
1776815080046706000,3.960705810546875,-65.76023864746094,65.13873291015625,-79.71597290039062
1776815080056808000,3.970807861328125,-65.98342895507812,65.268798828125,-79.73149108886719
1776815080066909700,3.98090966796875,-66.05938720703125,65.18212890625,-79.74755859375
1776815080077012700,3.9910126953125,-65.77279663085938,65.06373596191406,-79.70779418945312
1776815080087115800,4.00111572265625,-66.015380859375,65.18400573730469,-79.73445129394531
1776815080097219000,4.011218994140625,-65.92240905761719,65.0968017578125,-79.9542236328125
1776815080107320800,4.02132080078125,-66.13877868652344,65.01802062988281,-79.86251831054688
1776815080117423900,4.031423828125,-66.2227783203125,65.0198974609375,-79.76127624511719
1776815080127527000,4.04152685546875,-65.851806640625,65.14828491210938,-79.93257141113281
1776815080137630000,4.0516298828125,-65.88577270507812,65.05995178222656,-79.93177795410156
1776815080147733000,4.06173291015625,-65.81173706054688,64.81060791015625,-79.78880310058594
1776815080157834800,4.071834716796875,-66.22245788574219,64.85096740722656,-79.98863220214844
1776815080167938000,4.08193798828125,-66.11398315429688,64.85580444335938,-79.60017395019531
1776815080178041900,4.092041748046875,-65.82569885253906,64.80886840820312,-80.01554870605469
1776815080188146000,4.10214599609375,-66.0767822265625,64.86827087402344,-80.02458190917969
1776815080198249700,4.112249755859375,-66.36225891113281,64.93339538574219,-80.11000061035156
1776815080208354000,4.12235400390625,-66.3092041015625,64.72781372070312,-79.93545532226562
1776815080218457000,4.13245703125,-66.370849609375,64.70307922363281,-79.81729125976562
1776815080228560000,4.142559814453125,-66.57716369628906,64.57101440429688,-80.07150268554688
1776815080238664000,4.152663818359375,-66.53553771972656,64.390380859375,-79.91543579101562
1776815080248765000,4.162764892578125,-66.4984130859375,64.47145080566406,-80.05229187011719
1776815080258866000,4.172865966796875,-66.50384521484375,64.28970336914062,-79.95782470703125
1776815080268968000,4.182968017578125,-66.54563903808594,64.43406677246094,-79.97511291503906
1776815080279070000,4.193070068359375,-66.98501586914062,64.38626098632812,-80.09956359863281
1776815080289172000,4.203171875,-67.01808166503906,64.44552612304688,-79.96971130371094
1776815080299275800,4.21327587890625,-67.16061401367188,64.41339111328125,-80.09283447265625
1776815080309378800,4.22337890625,-67.20039367675781,64.35133361816406,-79.98751831054688
1776815080319483000,4.23348291015625,-67.52973937988281,64.33116149902344,-80.10494995117188
1776815080329585700,4.243585693359375,-67.44467163085938,64.34783935546875,-80.09037780761719
1776815080339688000,4.25368798828125,-67.8349609375,64.048095703125,-80.02801513671875
1776815080349790700,4.263790771484375,-67.9805908203125,64.32661437988281,-80.24432373046875
1776815080359892700,4.273892822265625,-67.87315368652344,64.27041625976562,-79.96768188476562
1776815080369994800,4.283994873046875,-68.463134765625,64.16136169433594,-80.17976379394531
1776815080380097000,4.294096923828125,-68.51017761230469,63.86006164550781,-80.36642456054688
1776815080390199800,4.30419970703125,-69.04478454589844,64.09005737304688,-80.3848876953125
1776815080400301000,4.314301025390625,-68.96937561035156,63.8240966796875,-80.44674682617188
1776815080410402800,4.32440283203125,-69.49501037597656,63.42561340332031,-80.34317016601562
1776815080420503800,4.33450390625,-69.73039245605469,63.38078308105469,-80.443115234375
1776815080430604000,4.34460400390625,-69.71319580078125,63.132537841796875,-80.36276245117188
1776815080440703000,4.354702880859375,-70.16386413574219,63.151092529296875,-80.51699829101562
1776815080450802700,4.364802734375,-70.48599243164062,63.13917541503906,-80.56510925292969
1776815080460902000,4.37490185546875,-70.60296630859375,62.90556335449219,-80.43635559082031
1776815080471000800,4.385000732421875,-71.22235107421875,62.62681579589844,-80.33694458007812
1776815080481099800,4.395099853515625,-71.40692138671875,62.6942138671875,-80.51393127441406
1776815080491198700,4.40519873046875,-71.976318359375,62.42864990234375,-80.37057495117188
1776815080501300000,4.415300048828125,-71.98509216308594,62.50379943847656,-80.130859375
1776815080511400000,4.42539990234375,-71.87283325195312,62.64656066894531,-80.35734558105469
1776815080521500000,4.4355,-71.83531188964844,62.50689697265625,-80.48416137695312
1776815080531598800,4.445598876953125,-71.9527587890625,62.48455810546875,-80.28768920898438
1776815080541699800,4.455699951171875,-72.28739929199219,62.61131286621094,-80.15754699707031
1776815080551799800,4.4657998046875,-72.22065734863281,62.49171447753906,-79.89338684082031
1776815080561899800,4.475899658203125,-71.69554138183594,62.511260986328125,-79.91775512695312
1776815080572002000,4.486001953125,-71.9696044921875,62.47654724121094,-79.88795471191406
1776815080582102800,4.496102783203125,-71.5452880859375,62.42210388183594,-79.94020080566406
1776815080592203000,4.506203125,-71.8017578125,62.5274658203125,-80.11126708984375
1776815080602304000,4.516303955078125,-71.18870544433594,62.73796081542969,-80.05902099609375
1776815080612404000,4.526404052734375,-71.28031921386719,62.72291564941406,-80.29241943359375
1776815080622504000,4.53650390625,-71.14646911621094,62.569580078125,-80.31002807617188
1776815080632607000,4.54660693359375,-70.9124755859375,62.876983642578125,-80.51966857910156
1776815080642707700,4.556707763671875,-70.48902893066406,62.82319641113281,-80.14488220214844
1776815080652810800,4.566810791015625,-70.22087097167969,62.90667724609375,-80.29743957519531
1776815080662913800,4.576913818359375,-70.49468994140625,62.852874755859375,-80.27391052246094
1776815080673015800,4.587015869140625,-70.15411376953125,63.314056396484375,-80.41897583007812
1776815080683116800,4.59711669921875,-69.94244384765625,63.21971130371094,-80.26972961425781
1776815080693219000,4.607218994140625,-69.58596801757812,63.21257019042969,-79.99525451660156
1776815080703319800,4.61731982421875,-69.55320739746094,62.91900634765625,-80.17379760742188
1776815080713421800,4.627421875,-69.89971923828125,63.10076904296875,-80.48103332519531
1776815080723524000,4.637524169921875,-70.09361267089844,62.89898681640625,-80.66961669921875
1776815080733625900,4.6476259765625,-70.28465270996094,62.76884460449219,-80.78431701660156
1776815080743727900,4.657727783203125,-70.31730651855469,62.540802001953125,-80.78169250488281
1776815080753830000,4.667829833984375,-70.66734313964844,62.126983642578125,-81.07028198242188
1776815080763933000,4.677932861328125,-71.03294372558594,61.91925048828125,-81.202392578125
1776815080774035000,4.688034912109375,-71.65989685058594,61.81233215332031,-81.22187805175781
1776815080784136000,4.698135986328125,-72.10606384277344,61.68302917480469,-81.20246887207031
1776815080794237000,4.70823681640625,-72.71617126464844,61.391357421875,-81.10078430175781
1776815080804338000,4.718337890625,-73.32243347167969,61.08343505859375,-81.08932495117188
1776815080814438100,4.728438232421875,-73.99606323242188,60.90226745605469,-80.78840637207031
1776815080824539000,4.738538818359375,-74.75111389160156,60.67018127441406,-80.43887329101562
1776815080834640100,4.74864013671875,-75.40299987792969,60.36662292480469,-79.953857421875
1776815080844741000,4.7587412109375,-75.72396850585938,60.120147705078125,-79.95306396484375
1776815080854841900,4.768841796875,-76.62815856933594,59.997467041015625,-79.72529602050781
1776815080864945000,4.77894482421875,-77.09733581542969,59.62025451660156,-79.57408142089844
1776815080875046000,4.7890458984375,-77.67611694335938,59.14909362792969,-79.14262390136719
1776815080885147100,4.799147216796875,-77.99957275390625,58.87849426269531,-78.72117614746094
1776815080895249000,4.809248779296875,-78.70268249511719,58.325225830078125,-78.69720458984375
1776815080905352200,4.819352294921875,-79.44212341308594,58.232666015625,-78.5751953125
1776815080915454000,4.829453857421875,-79.87174987792969,57.63002014160156,-78.51603698730469
1776815080925555000,4.839554931640625,-80.17167663574219,57.370941162109375,-78.0716552734375
1776815080935657000,4.849656982421875,-80.52386474609375,56.91047668457031,-77.90280151367188
1776815080945759000,4.859759033203125,-81.22322082519531,56.89653015136719,-78.02455139160156
1776815080955860000,4.86985986328125,-81.61276245117188,56.41929626464844,-77.91947937011719
1776815080965961000,4.8799609375,-82.01768493652344,56.15711975097656,-77.93649291992188
1776815080976062000,4.89006201171875,-82.00485229492188,55.70228576660156,-77.84619140625
1776815080986163000,4.900162841796875,-82.92668151855469,54.897308349609375,-77.66043090820312
1776815080996265000,4.910264892578125,-83.31840515136719,54.45045471191406,-77.72718811035156
1776815081006365200,4.920365234375,-83.52813720703125,53.72822570800781,-77.59664916992188
1776815081016467200,4.93046728515625,-83.57243347167969,53.38336181640625,-77.59249877929688
1776815081026569000,4.94056884765625,-83.70027160644531,52.734893798828125,-77.35284423828125
1776815081036670000,4.950669921875,-84.43948364257812,52.36602783203125,-77.31666564941406
1776815081046772000,4.96077197265625,-84.64131164550781,51.962005615234375,-77.27392578125
1776815081056873000,4.970873046875,-85.26350402832031,51.34272766113281,-77.09263610839844
1776815081066974000,4.980973876953125,-85.32392883300781,50.678955078125,-77.1295166015625
1776815081077075000,4.991074951171875,-85.27352905273438,50.1016845703125,-76.99395751953125
1776815081087176200,5.00117626953125,-85.39004516601562,49.41795349121094,-77.17732238769531
1776815081097276000,5.01127587890625,-86.10696411132812,48.8670654296875,-77.3360595703125
1776815081107377200,5.021377197265625,-86.46250915527344,48.161468505859375,-77.52163696289062
1776815081117478000,5.031477783203125,-86.22261047363281,47.530181884765625,-77.57585144042969
1776815081127579000,5.041578857421875,-86.76588439941406,46.76200866699219,-77.55026245117188
1776815081137680100,5.05168017578125,-86.71369934082031,45.81193542480469,-77.54293823242188
1776815081147782100,5.0617822265625,-86.97027587890625,45.282440185546875,-77.64599609375
1776815081157883000,5.0718828125,-86.80287170410156,44.41523742675781,-77.48968505859375
1776815081167984000,5.081984130859375,-87.24752807617188,43.781280517578125,-77.62184143066406
1776815081178086100,5.092086181640625,-87.03196716308594,43.28584289550781,-77.73274230957031
1776815081188187100,5.102187255859375,-87.56172180175781,42.444061279296875,-77.91229248046875
1776815081198288000,5.112287841796875,-87.58175659179688,41.813720703125,-77.86810302734375
1776815081208389000,5.12238916015625,-87.71534729003906,41.040130615234375,-77.97767639160156
1776815081218490000,5.132489990234375,-87.50692749023438,40.126922607421875,-77.58006286621094
1776815081228593200,5.14259326171875,-87.67762756347656,39.530609130859375,-77.76559448242188
1776815081238696200,5.1526962890625,-87.89051818847656,39.01298522949219,-77.80316162109375
1776815081248799000,5.162799072265625,-87.80131530761719,38.3133544921875,-77.61882019042969
1776815081258902000,5.172902099609375,-87.92263793945312,37.355712890625,-77.865234375
1776815081269005000,5.183005126953125,-87.48751831054688,36.882293701171875,-77.83842468261719
1776815081279107000,5.193107177734375,-87.53947448730469,36.29548645019531,-77.90550231933594
1776815081289211100,5.203211181640625,-87.49996948242188,35.63401794433594,-78.13856506347656
1776815081299314000,5.21331396484375,-87.60403442382812,34.88800048828125,-77.91128540039062
1776815081309418000,5.22341796875,-87.28013610839844,34.38140869140625,-77.80032348632812
1776815081319520000,5.23352001953125,-87.16709899902344,33.81242370605469,-77.60116577148438
1776815081329623000,5.243623046875,-86.93466186523438,33.36181640625,-77.84564208984375
1776815081339725000,5.25372509765625,-86.97915649414062,32.86427307128906,-77.89845275878906
1776815081349827000,5.2638271484375,-86.91844177246094,32.13594055175781,-78.16877746582031
1776815081359927800,5.273927734375,-86.81524658203125,31.853988647460938,-77.88392639160156
1776815081370029800,5.28402978515625,-87.04046630859375,31.1829833984375,-78.0531005859375
1776815081380131000,5.294131103515625,-86.14820861816406,31.07177734375,-77.84939575195312
1776815081390235000,5.30423486328125,-86.6727294921875,30.286956787109375,-78.13357543945312
1776815081400339000,5.3143388671875,-86.62654113769531,30.012741088867188,-78.0523681640625
1776815081410442200,5.324442138671875,-86.07139587402344,29.983413696289062,-77.80502319335938
1776815081420545000,5.334544921875,-86.33949279785156,29.434844970703125,-78.08638000488281
1776815081430646800,5.344646728515625,-86.27252197265625,29.116668701171875,-78.0865478515625
1776815081440749000,5.3547490234375,-86.03184509277344,28.798355102539062,-77.95060729980469
1776815081450851000,5.36485107421875,-85.97018432617188,28.85009765625,-77.99043273925781
1776815081460953000,5.374953125,-86.03482055664062,28.495025634765625,-78.02827453613281
1776815081471056000,5.385055908203125,-86.05158996582031,28.1407470703125,-77.90570068359375
1776815081481157000,5.3951572265625,-86.08148193359375,28.111526489257812,-77.89289855957031
1776815081491260200,5.40526025390625,-86.22392272949219,28.053680419921875,-77.95220947265625
1776815081501363000,5.415363037109375,-86.10858154296875,28.00592041015625,-77.97319030761719
1776815081511464200,5.425464111328125,-85.70805358886719,27.844345092773438,-78.19047546386719
1776815081521567200,5.435567138671875,-85.74002075195312,27.74627685546875,-77.79014587402344
1776815081531670000,5.445669921875,-85.60911560058594,27.807403564453125,-78.1336669921875
1776815081541773000,5.45577294921875,-85.72711181640625,27.5850830078125,-78.11843872070312
1776815081551875000,5.465875,-85.47645568847656,27.5968017578125,-77.860107421875
1776815081561976800,5.475976806640625,-85.57572937011719,27.677978515625,-78.16256713867188
1776815081572079900,5.486079833984375,-85.72084045410156,27.484588623046875,-78.17135620117188
1776815081582183200,5.49618310546875,-85.64814758300781,27.386947631835938,-77.98529052734375
1776815081592286200,5.5062861328125,-85.90678405761719,27.268020629882812,-77.90422058105469
1776815081602389000,5.516388916015625,-85.65480041503906,27.57659912109375,-77.73136901855469
1776815081612492000,5.526491943359375,-85.93948364257812,27.433670043945312,-77.86111450195312
1776815081622595000,5.536594970703125,-85.94160461425781,27.535003662109375,-77.89967346191406
1776815081632697000,5.546697021484375,-86.15702819824219,27.600601196289062,-77.88136291503906
1776815081642798800,5.556798828125,-86.29806518554688,27.736663818359375,-77.58958435058594
1776815081652902000,5.56690185546875,-86.11619567871094,27.640701293945312,-77.66096496582031
1776815081663006000,5.577005859375,-86.19706726074219,27.73089599609375,-77.63119506835938
1776815081673109000,5.58710888671875,-86.26449584960938,27.837432861328125,-77.59661865234375
1776815081683211000,5.5972109375,-86.41470336914062,28.104293823242188,-77.5330810546875
1776815081693314000,5.60731396484375,-86.4169921875,28.28717041015625,-77.32661437988281
1776815081703417000,5.6174169921875,-86.73371887207031,28.171371459960938,-77.56195068359375
1776815081713517800,5.627517822265625,-86.84245300292969,28.556442260742188,-77.47904968261719
1776815081723618800,5.637618896484375,-86.86419677734375,28.785873413085938,-77.53395080566406
1776815081733720800,5.647720947265625,-87.08526611328125,28.78753662109375,-77.49679565429688
1776815081743821800,5.65782177734375,-86.87577819824219,29.217788696289062,-77.33401489257812
1776815081753922800,5.6679228515625,-87.02348327636719,29.360504150390625,-77.55462646484375
1776815081764023800,5.67802392578125,-87.02854919433594,29.444137573242188,-77.39823913574219
1776815081774124800,5.688124755859375,-87.47210693359375,29.847091674804688,-77.56654357910156
1776815081784225800,5.698225830078125,-87.32749938964844,30.252426147460938,-77.390380859375
1776815081794325800,5.70832568359375,-87.35488891601562,30.382553100585938,-77.14842224121094
1776815081804427800,5.718427734375,-87.76237487792969,30.656784057617188,-77.39900207519531
1776815081814528800,5.72852880859375,-87.99815368652344,31.048370361328125,-77.4583740234375
1776815081824629800,5.738629638671875,-87.63105773925781,31.190261840820312,-77.45895385742188
1776815081834730800,5.748730712890625,-87.99546813964844,31.560089111328125,-77.37098693847656
1776815081844831700,5.758831787109375,-88.08331298828125,32.21099853515625,-77.42623901367188
1776815081854932700,5.7689326171875,-87.82774353027344,32.64994812011719,-77.48213195800781
1776815081865032700,5.77903271484375,-88.13275146484375,32.703704833984375,-77.46104431152344
1776815081875132700,5.789132568359375,-88.18101501464844,33.29248046875,-77.41244506835938
1776815081885235000,5.79923486328125,-88.09193420410156,33.71856689453125,-77.15028381347656
1776815081895335700,5.809335693359375,-88.36587524414062,33.802032470703125,-77.36970520019531
1776815081905436700,5.819436767578125,-88.38070678710938,34.69068908691406,-77.53076171875
1776815081915538700,5.82953857421875,-88.42138671875,35.06219482421875,-77.33522033691406
1776815081925640000,5.839639892578125,-88.35148620605469,35.414825439453125,-77.35923767089844
1776815081935741700,5.84974169921875,-88.240966796875,36.00457763671875,-77.2584228515625
1776815081945842700,5.8598427734375,-88.28364562988281,36.57627868652344,-77.56805419921875
1776815081955943000,5.86994287109375,-88.4249267578125,36.72874450683594,-77.50901794433594
1776815081966044700,5.880044677734375,-88.57157897949219,37.19554138183594,-77.53021240234375
1776815081976145700,5.890145751953125,-88.43765258789062,37.890167236328125,-77.54531860351562
1776815081986247700,5.90024755859375,-88.17044067382812,38.56962585449219,-77.484619140625
1776815081996349700,5.910349609375,-88.29669189453125,38.85490417480469,-77.46119689941406
1776815082006450700,5.92045068359375,-88.49020385742188,39.34049987792969,-77.69454956054688
1776815082016551700,5.9305517578125,-88.56678771972656,39.84129333496094,-77.5130615234375
1776815082026653000,5.94065283203125,-88.33218383789062,40.55535888671875,-77.40040588378906
1776815082036753700,5.950753662109375,-87.96400451660156,40.89384460449219,-77.26039123535156
1776815082046854700,5.960854736328125,-88.46963500976562,41.37261962890625,-77.4315185546875
1776815082056955000,5.970954833984375,-88.52351379394531,41.81037902832031,-77.3604736328125
1776815082067056600,5.981056640625,-88.36924743652344,42.42726135253906,-77.37318420410156
1776815082077157600,5.99115771484375,-87.84164428710938,42.999176025390625,-77.1533203125
1776815082087259600,6.001259765625,-88.2904052734375,43.3895263671875,-77.14585876464844
1776815082097362700,6.01136279296875,-88.40093994140625,43.87077331542969,-77.12675476074219
1776815082107464700,6.021464599609375,-88.32046508789062,44.37934875488281,-77.02642822265625
1776815082117566700,6.031566650390625,-87.87396240234375,44.701263427734375,-76.96946716308594
1776815082127668700,6.041668701171875,-87.65960693359375,45.20530700683594,-76.6649169921875
1776815082137768700,6.051768798828125,-88.14871215820312,45.7447509765625,-76.8055419921875
1776815082147869000,6.061868896484375,-87.92771911621094,46.121612548828125,-76.89790344238281
1776815082157968600,6.07196875,-87.88023376464844,46.70628356933594,-76.84210205078125
1776815082168068600,6.082068603515625,-87.59410095214844,47.06156921386719,-76.5838623046875
1776815082178169600,6.092169677734375,-87.51423645019531,47.59492492675781,-76.70866394042969
1776815082188271900,6.10227197265625,-87.6927490234375,48.238494873046875,-76.67843627929688
1776815082198374000,6.112373779296875,-87.57525634765625,48.46195983886719,-76.63209533691406
1776815082208474600,6.122474609375,-87.23524475097656,48.75810241699219,-76.48072814941406
1776815082218575600,6.13257568359375,-86.796875,49.43560791015625,-76.30934143066406
1776815082228676900,6.1426767578125,-86.65057373046875,49.75270080566406,-76.46438598632812
1776815082238775800,6.15277587890625,-86.79457092285156,49.91221618652344,-76.29489135742188
1776815082248875800,6.162875732421875,-86.2611083984375,50.52919006347656,-76.28883361816406
1776815082258976800,6.172976806640625,-86.16291809082031,50.95671081542969,-76.29222106933594
1776815082269077800,6.183077880859375,-85.80508422851562,51.13874816894531,-76.15550231933594
1776815082279179800,6.1931796875,-85.78031921386719,51.60777282714844,-76.48753356933594
1776815082289281800,6.20328173828125,-85.67018127441406,51.838409423828125,-76.40025329589844
1776815082299383600,6.213383544921875,-85.43048095703125,52.24006652832031,-76.47734069824219
1776815082309485600,6.223485595703125,-85.14852905273438,52.2825927734375,-76.40803527832031
1776815082319587600,6.233587646484375,-84.86933898925781,53.05961608886719,-76.36314392089844
1776815082329689900,6.24368994140625,-84.98104858398438,53.12286376953125,-76.25686645507812
1776815082339792000,6.2537919921875,-84.74661254882812,53.63304138183594,-76.62104797363281
1776815082349894700,6.263894775390625,-84.35429382324219,53.81732177734375,-76.59355163574219
1776815082359996000,6.273995849609375,-84.26559448242188,54.041168212890625,-76.66676330566406
1776815082370097700,6.28409765625,-84.27183532714844,54.2369384765625,-76.81678771972656
1776815082380199700,6.29419970703125,-83.566650390625,54.44281005859375,-76.91093444824219
1776815082390302700,6.304302734375,-83.72966003417969,54.9241943359375,-77.02046203613281
1776815082400403700,6.31440380859375,-83.5572509765625,54.860809326171875,-76.82305908203125
1776815082410505700,6.324505615234375,-82.87434387207031,55.175872802734375,-76.95170593261719
1776815082420607000,6.33460693359375,-82.88957214355469,55.458160400390625,-77.15380859375
1776815082430707700,6.344707763671875,-82.77108764648438,55.480438232421875,-77.19961547851562
1776815082440808700,6.35480859375,-82.37454223632812,55.828033447265625,-77.22640991210938
1776815082450910000,6.364909912109375,-81.91795349121094,56.05743408203125,-77.23896789550781
1776815082461011700,6.37501171875,-81.41581726074219,56.568145751953125,-77.10694885253906
1776815082471112700,6.38511279296875,-81.59873962402344,56.874267578125,-77.2843017578125
1776815082481214700,6.395214599609375,-81.21775817871094,57.080596923828125,-77.51121520996094
1776815082491316700,6.405316650390625,-80.966796875,57.48020935058594,-77.44430541992188
1776815082501417700,6.415417724609375,-80.728515625,57.74461364746094,-77.67845153808594
1776815082511517700,6.425517578125,-80.26655578613281,58.09822082519531,-77.61512756347656
1776815082521619700,6.43561962890625,-79.823486328125,58.35099792480469,-77.72894287109375
1776815082531721700,6.4457216796875,-79.64773559570312,58.764190673828125,-77.66972351074219
1776815082541823700,6.45582373046875,-79.54254150390625,59.05784606933594,-77.892822265625
1776815082551924700,6.4659248046875,-78.87013244628906,59.298248291015625,-77.78311157226562
1776815082562025700,6.476025634765625,-78.11656188964844,59.65399169921875,-78.1087646484375
1776815082572127000,6.486126953125,-77.76649475097656,60.19635009765625,-78.20005798339844
1776815082582227700,6.496227783203125,-77.3154296875,60.34773254394531,-78.34832763671875
1776815082592328700,6.50632861328125,-76.74580383300781,60.70393371582031,-78.37875366210938
1776815082602430700,6.5164306640625,-75.9896240234375,61.24223327636719,-78.33123779296875
1776815082612531700,6.52653173828125,-75.69929504394531,61.46527099609375,-78.64933776855469
1776815082622632700,6.5366328125,-75.3760986328125,61.75892639160156,-78.770263671875
1776815082632733700,6.546733642578125,-74.4530029296875,62.17658996582031,-78.90357971191406
1776815082642834700,6.556834716796875,-73.73667907714844,62.31201171875,-79.07334899902344
1776815082652936700,6.566936767578125,-73.30436706542969,62.61436462402344,-78.87193298339844
1776815082663038700,6.577038818359375,-72.84199523925781,62.884613037109375,-79.34245300292969
1776815082673140700,6.587140625,-72.35552978515625,63.25260925292969,-79.50323486328125
1776815082683241700,6.59724169921875,-71.66134643554688,63.123748779296875,-79.58529663085938
1776815082693343700,6.60734375,-71.34417724609375,63.422760009765625,-79.67445373535156
1776815082703445800,6.61744580078125,-70.93191528320312,63.53608703613281,-79.73567199707031
1776815082713546800,6.627546630859375,-70.2659912109375,63.66801452636719,-79.67247009277344
1776815082723647700,6.637647705078125,-70.10256958007812,63.39753723144531,-79.89436340332031
1776815082733753600,6.647753662109375,-69.97384643554688,63.684783935546875,-79.83958435058594
1776815082743854800,6.657854736328125,-69.73423767089844,63.90521240234375,-79.91722106933594
1776815082753955600,6.66795556640625,-69.35877990722656,63.7061767578125,-79.92433166503906
1776815082764057600,6.6780576171875,-69.43409729003906,63.57173156738281,-80.02993774414062
1776815082774159600,6.68815966796875,-69.23947143554688,63.65315246582031,-80.16278076171875
1776815082784260900,6.6982607421875,-68.64775085449219,63.639984130859375,-80.34934997558594
1776815082794363000,6.70836279296875,-68.53581237792969,63.622314453125,-80.01600646972656
1776815082804464600,6.718464599609375,-68.75910949707031,63.6617431640625,-80.51362609863281
1776815082814566700,6.728566650390625,-68.81199645996094,63.74436950683594,-80.4249267578125
1776815082824668700,6.738668701171875,-68.501220703125,63.74761962890625,-80.64547729492188
1776815082834770700,6.748770751953125,-68.51351928710938,63.778106689453125,-80.68264770507812
1776815082844872700,6.758872802734375,-67.84750366210938,63.778961181640625,-80.54103088378906
1776815082854975700,6.768975830078125,-68.32621765136719,63.82978820800781,-80.66445922851562
1776815082865076700,6.77907666015625,-68.26322937011719,63.92796325683594,-80.44866943359375
1776815082875177700,6.789177734375,-67.97508239746094,64.1466064453125,-80.44200134277344
1776815082885279700,6.79927978515625,-68.15939331054688,64.0787353515625,-80.3623046875
1776815082895381800,6.8093818359375,-67.95664978027344,64.01811218261719,-80.29273986816406
1776815082905483800,6.81948388671875,-68.2021484375,64.12921142578125,-80.4788818359375
1776815082915583500,6.82958349609375,-68.50318908691406,63.780609130859375,-80.25248718261719
1776815082925685800,6.839685791015625,-67.91154479980469,63.99909973144531,-80.35459899902344
1776815082935786800,6.849786865234375,-68.11994934082031,63.98881530761719,-80.31922912597656
1776815082945887500,6.859887451171875,-68.2908935546875,64.32127380371094,-80.39476013183594
1776815082955990500,6.869990478515625,-68.4783935546875,64.20510864257812,-80.48426818847656
1776815082966092500,6.880092529296875,-68.47990417480469,64.17787170410156,-80.34663391113281
1776815082976193800,6.89019384765625,-68.14085388183594,64.12435913085938,-80.15074157714844
1776815082986295800,6.9002958984375,-67.87092590332031,64.22517395019531,-79.92781066894531
1776815082996396800,6.910396728515625,-68.40928649902344,63.91558837890625,-79.92362976074219
1776815083006497500,6.92049755859375,-68.398681640625,64.35147094726562,-80.12054443359375
1776815083016599600,6.930599609375,-68.04969787597656,64.04890441894531,-80.13078308105469
1776815083026701600,6.94070166015625,-68.30776977539062,64.10867309570312,-80.13066101074219
1776815083036802800,6.950802734375,-68.57830810546875,63.95060729980469,-79.94955444335938
1776815083046905900,6.96090576171875,-68.47459411621094,64.02688598632812,-80.09970092773438
1776815083057005600,6.971005615234375,-68.30963134765625,64.12342834472656,-79.96620178222656
1776815083067107600,6.981107666015625,-68.85527038574219,64.16209411621094,-80.03193664550781
1776815083077210600,6.991210693359375,-68.81559753417969,64.20289611816406,-79.93399047851562
1776815083087312600,7.001312744140625,-68.87324523925781,64.11378479003906,-79.86026000976562
1776815083097414000,7.011413818359375,-68.92764282226562,64.26002502441406,-79.972412109375
1776815083107515600,7.021515625,-68.9237060546875,64.331298828125,-79.96702575683594
1776815083117617700,7.03161767578125,-68.95835876464844,64.27532958984375,-79.85993957519531
1776815083127718700,7.04171875,-68.420654296875,64.31013488769531,-79.72528076171875
1776815083137819600,7.051819580078125,-69.15472412109375,64.22166442871094,-79.98472595214844
1776815083147921700,7.061921630859375,-69.03462219238281,64.46711730957031,-79.9425048828125
1776815083158021600,7.072021728515625,-69.11351013183594,64.2957763671875,-79.97119140625
1776815083168123000,7.082122802734375,-69.10774230957031,64.21073913574219,-79.84596252441406
1776815083178222600,7.09222265625,-68.71176147460938,63.93377685546875,-79.77084350585938
1776815083188324600,7.10232470703125,-68.66708374023438,64.27151489257812,-79.79847717285156
1776815083198424600,7.112424560546875,-68.91102600097656,64.00851440429688,-79.75628662109375
1776815083208526600,7.122526611328125,-68.95974731445312,63.9931640625,-79.88525390625
1776815083218628600,7.132628662109375,-69.058837890625,64.4063720703125,-79.98187255859375
1776815083228730600,7.142730712890625,-68.94253540039062,64.1243896484375,-79.85232543945312
1776815083238831900,7.152831787109375,-68.95252990722656,64.07122802734375,-79.84211730957031
1776815083248931600,7.162931640625,-69.09878540039062,64.09379577636719,-80.01025390625
1776815083259032800,7.17303271484375,-68.47843933105469,64.37255859375,-80.01783752441406
1776815083269133600,7.183133544921875,-68.17561340332031,64.0987548828125,-79.71636962890625
1776815083279233800,7.19323388671875,-68.62045288085938,64.25190734863281,-79.786865234375
1776815083289333500,7.20333349609375,-68.58554077148438,64.06446838378906,-79.781494140625
1776815083299435500,7.213435546875,-69.15374755859375,64.123046875,-80.00930786132812
1776815083309536800,7.223536865234375,-68.50779724121094,64.11381530761719,-79.95556640625
1776815083319637800,7.2336376953125,-68.44270324707031,64.17543029785156,-79.60250854492188
1776815083329738500,7.243738525390625,-68.62384033203125,63.84739685058594,-79.88706970214844
1776815083339839700,7.25383984375,-68.7703857421875,64.14500427246094,-79.89625549316406
1776815083349941800,7.263941650390625,-68.47525024414062,64.22966003417969,-79.90609741210938
1776815083360042500,7.27404248046875,-68.14663696289062,64.05264282226562,-79.84281921386719
1776815083370144500,7.28414453125,-68.12226867675781,64.18911743164062,-79.80006408691406
1776815083380246500,7.29424658203125,-68.45213317871094,64.37544250488281,-79.99656677246094
1776815083390346800,7.3043466796875,-68.28535461425781,64.23435974121094,-80.01272583007812
1776815083400448500,7.314448486328125,-68.72926330566406,64.36849975585938,-79.97520446777344
1776815083410550500,7.324550537109375,-68.09719848632812,63.990936279296875,-79.78927612304688
1776815083420652500,7.334652587890625,-68.31402587890625,64.07075500488281,-79.90010070800781
1776815083430755600,7.344755615234375,-68.30531311035156,64.09873962402344,-79.82427978515625
1776815083440856600,7.354856689453125,-68.36378479003906,64.33164978027344,-79.98457336425781
1776815083450959600,7.364959716796875,-68.23974609375,64.19993591308594,-79.95669555664062
1776815083461062700,7.375062744140625,-67.98524475097656,64.30274963378906,-79.78654479980469
1776815083471165700,7.385165771484375,-68.20681762695312,64.28311157226562,-79.86114501953125
1776815083481268700,7.395268798828125,-67.84815979003906,64.25128173828125,-79.8890380859375
1776815083491373800,7.405373779296875,-67.65730285644531,63.958282470703125,-79.77470397949219
1776815083501476900,7.415476806640625,-67.96122741699219,64.36650085449219,-79.78117370605469
1776815083511578600,7.42557861328125,-67.97785949707031,64.33152770996094,-79.64762878417969
1776815083521681700,7.435681640625,-68.09185791015625,64.08175659179688,-79.74908447265625
1776815083531783700,7.44578369140625,-68.1453857421875,64.25076293945312,-79.73956298828125
1776815083541885700,7.4558857421875,-67.93768310546875,64.34091186523438,-79.79054260253906
1776815083551987700,7.46598779296875,-67.85630798339844,64.34980773925781,-79.86274719238281
1776815083562089700,7.47608984375,-67.98268127441406,64.134033203125,-79.76509094238281
1776815083572189700,7.486189697265625,-67.89125061035156,64.27275085449219,-79.802001953125
1776815083582290700,7.496290771484375,-67.87852478027344,64.22052001953125,-79.64483642578125
1776815083592392700,7.506392822265625,-68.04653930664062,64.04454040527344,-79.77920532226562
1776815083602493700,7.51649365234375,-68.09562683105469,64.20404052734375,-79.63137817382812
1776815083612595500,7.526595458984375,-68.16384887695312,64.23835754394531,-79.70069885253906
1776815083622696700,7.53669677734375,-68.24900817871094,64.37448120117188,-79.75630187988281
1776815083632796700,7.546796630859375,-68.24093627929688,64.41316223144531,-79.7396240234375
1776815083642896600,7.556896728515625,-67.88479614257812,63.878387451171875,-79.75776672363281
1776815083652995600,7.56699560546875,-67.94389343261719,64.27061462402344,-79.583984375
1776815083663097600,7.57709765625,-68.27017211914062,64.28610229492188,-79.6983642578125
1776815083673199600,7.58719970703125,-68.046630859375,64.26808166503906,-79.78431701660156
1776815083683300600,7.597300537109375,-67.89889526367188,64.09164428710938,-79.6832275390625
1776815083693403000,7.60740283203125,-68.23045349121094,63.990509033203125,-79.67503356933594
1776815083703503600,7.617503662109375,-67.91731262207031,64.33137512207031,-79.58206176757812
1776815083713604600,7.6276044921875,-68.14956665039062,64.2166748046875,-79.638916015625
1776815083723705900,7.637705810546875,-68.00204467773438,64.30960083007812,-79.67190551757812
1776815083733802500,7.647802490234375,-68.09849548339844,64.14872741699219,-79.71730041503906
1776815083743903700,7.65790380859375,-68.09698486328125,64.32546997070312,-79.86044311523438
1776815083754003500,7.66800341796875,-67.77241516113281,64.52557373046875,-79.87689208984375
1776815083764103700,7.678103759765625,-67.92118835449219,64.58613586425781,-79.83485412597656
1776815083774203600,7.68820361328125,-68.25648498535156,64.349609375,-79.84027099609375
1776815083784303600,7.6983037109375,-67.98895263671875,64.39198303222656,-79.8170166015625
1776815083794404900,7.70840478515625,-68.08544921875,64.36932373046875,-79.82963562011719
1776815083804504600,7.718504638671875,-67.68588256835938,64.43035888671875,-79.83888244628906
1776815083814604500,7.7286044921875,-67.96864318847656,64.26809692382812,-79.92866516113281
1776815083824706600,7.73870654296875,-67.92324829101562,64.36422729492188,-80.02554321289062
1776815083834807600,7.7488076171875,-67.73538208007812,64.32078552246094,-79.91734313964844
1776815083844909600,7.75890966796875,-67.39222717285156,64.38885498046875,-79.529541015625
1776815083855012600,7.7690126953125,-67.91307067871094,64.33445739746094,-79.94186401367188
1776815083865114600,7.779114501953125,-67.80574035644531,64.26190185546875,-79.89494323730469
1776815083875216600,7.789216552734375,-67.75782775878906,64.20358276367188,-79.83140563964844
1776815083885318400,7.799318359375,-67.38250732421875,64.33561706542969,-79.93247985839844
1776815083895420700,7.809420654296875,-67.60110473632812,64.11927795410156,-79.76951599121094
1776815083905521700,7.819521728515625,-67.57473754882812,64.26118469238281,-79.80690002441406
1776815083915622700,7.82962255859375,-67.50154113769531,64.40559387207031,-80.00682067871094
1776815083925723600,7.8397236328125,-67.5213623046875,64.29389953613281,-80.05050659179688
1776815083935825700,7.84982568359375,-67.54507446289062,64.53330993652344,-80.03828430175781
1776815083945926700,7.8599267578125,-67.28688049316406,64.31201171875,-80.02488708496094
1776815083956027600,7.870027587890625,-67.36386108398438,64.37432861328125,-79.89495849609375
1776815083966129700,7.880129638671875,-67.49137878417969,64.4613037109375,-79.92597961425781
1776815083976232400,7.890232421875,-67.55491638183594,64.23226928710938,-79.86799621582031
1776815083986334500,7.90033447265625,-67.32363891601562,64.19924926757812,-79.94158935546875
1776815083996435700,7.910435791015625,-67.3245849609375,64.21296691894531,-80.15486145019531
1776815084006536700,7.92053662109375,-67.23432922363281,64.35342407226562,-80.02583312988281
1776815084016636700,7.93063671875,-67.20854187011719,64.41050720214844,-79.9765625
1776815084026737700,7.940737548828125,-67.30206298828125,64.47322082519531,-80.0003662109375
1776815084036839700,7.950839599609375,-67.11727905273438,64.39547729492188,-79.74006652832031
1776815084046941400,7.96094140625,-67.24482727050781,64.26858520507812,-80.12159729003906
1776815084057042700,7.971042724609375,-67.15777587890625,64.43545532226562,-79.99641418457031
1776815084067143700,7.981143798828125,-67.0364990234375,64.23287963867188,-79.93449401855469
1776815084077244400,7.991244384765625,-67.06233215332031,64.15107727050781,-80.02442932128906
1776815084087346400,8.001346435546875,-66.86494445800781,64.18783569335938,-79.89236450195312
1776815084097446700,8.01144677734375,-67.27197265625,64.19287109375,-80.01261901855469
1776815084107547600,8.021547607421875,-67.35762023925781,64.53732299804688,-80.07957458496094
1776815084117648600,8.031648681640625,-67.28175354003906,64.31465148925781,-79.95954895019531
1776815084127749600,8.04174951171875,-66.90785217285156,64.55368041992188,-79.96440124511719
1776815084137851600,8.0518515625,-67.31454467773438,64.2078857421875,-79.96920776367188
1776815084147952600,8.06195263671875,-67.0396728515625,64.17762756347656,-80.105712890625
1776815084158053600,8.0720537109375,-67.18716430664062,64.00802612304688,-79.91024780273438
1776815084168154600,8.082154541015624,-67.03590393066406,64.21040344238281,-80.01901245117188
1776815084178256400,8.09225634765625,-66.81141662597656,63.941162109375,-79.68840026855469
1776815084188357600,8.102357666015624,-66.95469665527344,64.03857421875,-79.958984375
1776815084198459600,8.112459716796875,-66.97885131835938,63.87446594238281,-79.86976623535156
1776815084208561700,8.122561767578125,-66.92292785644531,64.17057800292969,-79.9527587890625
1776815084218661600,8.13266162109375,-67.39614868164062,64.03024291992188,-79.86814880371094
1776815084228761600,8.14276171875,-66.80424499511719,64.05357360839844,-79.66484069824219
1776815084238860500,8.152860595703125,-66.90534973144531,64.23123168945312,-79.90182495117188
1776815084248959500,8.16295947265625,-66.86640930175781,64.20254516601562,-80.00411987304688
1776815084259059700,8.173059814453126,-67.02717590332031,64.01168823242188,-79.964599609375
1776815084269159700,8.18315966796875,-67.19920349121094,64.25425720214844,-79.91401672363281
1776815084279259600,8.193259765625,-66.9703369140625,64.36393737792969,-79.98442077636719
1776815084289359600,8.203359619140626,-67.31697082519531,64.06277465820312,-79.85006713867188
1776815084299460600,8.213460693359375,-67.195068359375,64.20744323730469,-79.89617919921875
1776815084309561900,8.223561767578126,-67.29737854003906,63.91377258300781,-79.83305358886719
1776815084319661600,8.23366162109375,-67.02761840820312,63.8817138671875,-79.64826965332031
1776815084329762800,8.2437626953125,-67.55999755859375,64.12332153320312,-79.80142211914062
1776815084339863600,8.253863525390624,-67.462646484375,64.27859497070312,-79.80665588378906
1776815084349965600,8.263965576171875,-67.63386535644531,64.14622497558594,-79.67999267578125
1776815084360066600,8.274066650390624,-67.62713623046875,64.2991943359375,-79.75077819824219
1776815084370168600,8.28416845703125,-67.51992797851562,64.21810913085938,-79.50616455078125
1776815084380269600,8.29426953125,-67.85073852539062,63.98216247558594,-79.93057250976562
1776815084390369500,8.30436962890625,-67.78555297851562,64.29603576660156,-79.71589660644531
1776815084400469500,8.314469482421876,-68.04867553710938,64.2567138671875,-79.6607666015625
1776815084410571500,8.324571533203125,-68.1417236328125,64.2398681640625,-79.71330261230469
1776815084420673500,8.334673583984374,-67.80795288085938,64.08340454101562,-79.62089538574219
1776815084430775600,8.344775634765625,-68.39141845703125,64.13565063476562,-79.69134521484375
1776815084440876800,8.354876708984374,-68.46710205078125,64.09187316894531,-79.61817932128906
1776815084450978600,8.364978515625,-68.72012329101562,63.89268493652344,-79.66384887695312
1776815084461079600,8.37507958984375,-68.93440246582031,64.10960388183594,-79.48779296875
1776815084471180800,8.385180908203125,-69.53517150878906,64.08892822265625,-79.54463195800781
1776815084481281500,8.395281494140624,-69.84864807128906,63.91328430175781,-79.48692321777344
1776815084491382500,8.405382568359375,-70.17118835449219,63.794708251953125,-79.25363159179688
1776815084501483800,8.41548388671875,-70.79888916015625,63.840179443359375,-79.21554565429688
1776815084511584500,8.42558447265625,-71.16987609863281,63.867279052734375,-79.143310546875
1776815084521686500,8.4356865234375,-71.48027038574219,63.53680419921875,-79.09393310546875
1776815084531787500,8.44578759765625,-71.81199645996094,63.259765625,-78.97802734375
1776815084541888800,8.455888671875,-71.82890319824219,63.25715637207031,-78.87220764160156
1776815084551990800,8.46599072265625,-72.29763793945312,63.2159423828125,-79.13014221191406
1776815084562092500,8.476092529296874,-72.3232421875,62.914520263671875,-78.96546936035156
1776815084572195600,8.486195556640626,-72.88938903808594,62.76637268066406,-79.43547058105469
1776815084582297600,8.496297607421875,-73.2486572265625,62.639984130859375,-79.20429992675781
1776815084592398600,8.506398681640626,-73.49563598632812,62.39115905761719,-79.15711975097656
1776815084602500600,8.51650048828125,-73.7978515625,62.40167236328125,-79.14559936523438
1776815084612601600,8.5266015625,-73.765625,61.96064758300781,-79.07783508300781
1776815084622702600,8.53670263671875,-74.239501953125,62.0540771484375,-79.19091796875
1776815084632803600,8.546803466796876,-74.39509582519531,61.94456481933594,-79.29386901855469
1776815084642905600,8.556905517578125,-74.70854187011719,61.44743347167969,-79.31056213378906
1776815084653006600,8.567006591796876,-74.5286865234375,61.32557678222656,-79.19613647460938
1776815084663108600,8.577108642578125,-75.51261901855469,61.16839599609375,-79.68710327148438
1776815084673209600,8.587209716796876,-75.78611755371094,60.869384765625,-79.67753601074219
1776815084683310800,8.597310791015625,-76.04519653320312,60.70021057128906,-79.67549133300781
1776815084693412600,8.60741259765625,-76.45855712890625,60.519195556640625,-79.73158264160156
1776815084703514600,8.6175146484375,-76.26104736328125,60.044891357421875,-79.35263061523438
1776815084713617700,8.62761767578125,-77.11058044433594,59.61576843261719,-79.49871826171875
1776815084723718700,8.63771875,-77.76727294921875,59.76567077636719,-79.20350646972656
1776815084733821200,8.6478212890625,-77.93914794921875,59.38714599609375,-79.152587890625
1776815084743922200,8.657922119140625,-78.68428039550781,59.0616455078125,-79.08857727050781
1776815084754023200,8.668023193359375,-79.08207702636719,58.69688415527344,-78.7601318359375
1776815084764123100,8.678123046875,-79.69754028320312,58.32142639160156,-78.65280151367188
1776815084774223000,8.68822314453125,-80.248291015625,58.358367919921875,-78.50376892089844
1776815084784324000,8.698323974609375,-80.21833801269531,57.59172058105469,-78.14387512207031
1776815084794425300,8.70842529296875,-81.12942504882812,57.36723327636719,-78.03546142578125
1776815084804526000,8.718526123046875,-81.38043212890625,57.12605285644531,-77.78005981445312
1776815084814626300,8.728626220703125,-81.85856628417969,56.82171630859375,-77.77294921875
1776815084824725200,8.738725341796876,-82.27363586425781,56.53950500488281,-77.43443298339844
1776815084834824200,8.74882421875,-82.66818237304688,55.98658752441406,-77.34385681152344
1776815084844925200,8.75892529296875,-82.97651672363281,55.606597900390625,-76.9569091796875
1776815084855026200,8.769026123046874,-83.61117553710938,55.27783203125,-76.77143859863281
1776815084865125000,8.779125,-83.74310302734375,54.889739990234375,-76.85939025878906
1776815084875227100,8.78922705078125,-84.25404357910156,54.599456787109375,-76.9427490234375
1776815084885329200,8.7993291015625,-84.59834289550781,53.90818786621094,-76.884033203125
1776815084895431200,8.80943115234375,-84.21771240234375,53.53173828125,-76.53475952148438
1776815084905532200,8.8195322265625,-85.2880859375,52.78955078125,-76.78311157226562
1776815084915634200,8.82963427734375,-85.53230285644531,52.21299743652344,-76.69235229492188
1776815084925736200,8.839736083984375,-85.67599487304688,51.678253173828125,-76.60572814941406
1776815084935837200,8.849837158203124,-85.989501953125,51.05670166015625,-76.6619873046875
1776815084945939000,8.85993896484375,-86.30343627929688,50.3162841796875,-76.53166198730469
1776815084956039200,8.8700390625,-87.00930786132812,50.108367919921875,-76.5833740234375
1776815084966141200,8.88014111328125,-86.81082153320312,49.33302307128906,-76.51104736328125
1776815084976243200,8.8902431640625,-87.32121276855469,48.46217346191406,-76.41343688964844
1776815084986345000,8.900344970703125,-87.34443664550781,47.67094421386719,-76.61923217773438
1776815084996448300,8.9104482421875,-87.79953002929688,46.79730224609375,-76.59364318847656
1776815085006550000,8.920550048828124,-87.84681701660156,46.020233154296875,-76.83917236328125
1776815085016653000,8.930653076171875,-88.24375915527344,45.238433837890625,-77.03343200683594
1776815085026754000,8.940754150390624,-88.41326904296875,44.32615661621094,-77.14927673339844
1776815085036855300,8.950855224609375,-88.02253723144531,43.72123718261719,-77.22006225585938
1776815085046957300,8.960957275390625,-87.90345764160156,42.868408203125,-77.27346801757812
1776815085057058000,8.97105810546875,-88.24874877929688,41.74237060546875,-77.34526062011719
1776815085067159300,8.9811591796875,-88.3414306640625,40.868255615234375,-77.54139709472656
1776815085077260300,8.99126025390625,-88.13529968261719,40.135162353515625,-77.57615661621094
1776815085087363300,9.00136328125,-87.94790649414062,39.48565673828125,-77.54920959472656
1776815085097466000,9.011466064453124,-88.44873046875,38.6151123046875,-77.77684020996094
1776815085107568400,9.021568359375,-88.5589599609375,37.82148742675781,-77.82266235351562
1776815085117669000,9.031669189453124,-88.40945434570312,36.90582275390625,-77.77986145019531
1776815085127770000,9.04177001953125,-88.16902160644531,35.98078918457031,-77.53419494628906
1776815085137871400,9.051871337890624,-88.64265441894531,35.315887451171875,-77.77651977539062
1776815085147974100,9.06197412109375,-87.80221557617188,34.709991455078125,-77.80364990234375
1776815085158077200,9.0720771484375,-88.16656494140625,34.05067443847656,-77.75015258789062
1776815085168179200,9.08217919921875,-88.10777282714844,33.28834533691406,-77.99971008300781
1776815085178281000,9.092281005859375,-88.05647277832031,32.789764404296875,-77.97831726074219
1776815085188383000,9.102383056640624,-87.76095581054688,32.132781982421875,-77.82447814941406
1776815085198486000,9.112486083984376,-87.87176513671875,31.37017822265625,-77.69039916992188
1776815085208590300,9.12259033203125,-88.08468627929688,31.016281127929688,-77.70063781738281
1776815085218694100,9.132694091796875,-88.14378356933594,30.313735961914062,-77.63803100585938
1776815085228797200,9.142797119140624,-87.4102783203125,29.801300048828125,-77.51206970214844
1776815085238898200,9.152898193359375,-87.40206909179688,29.433151245117188,-77.72813415527344
1776815085249001200,9.163001220703125,-87.13768005371094,28.866546630859375,-77.81953430175781
1776815085259104300,9.173104248046876,-87.33224487304688,28.638580322265625,-77.84593200683594
1776815085269207300,9.183207275390625,-87.17144775390625,28.09521484375,-78.06520080566406
1776815085279311000,9.19331103515625,-86.59614562988281,27.788040161132812,-77.78704833984375
1776815085289416200,9.203416259765625,-86.37051391601562,27.4898681640625,-77.60807800292969
1776815085299520300,9.213520263671874,-86.68751525878906,27.222869873046875,-78.01763916015625
1776815085309623300,9.223623291015626,-86.49736022949219,26.707138061523438,-78.18550109863281
1776815085319727000,9.23372705078125,-86.01361083984375,26.592453002929688,-78.14457702636719
1776815085329832200,9.243832275390625,-85.80368041992188,26.372482299804688,-78.26142883300781
1776815085339936300,9.253936279296875,-85.41641235351562,26.201919555664062,-78.371826171875
1776815085350040300,9.264040283203125,-85.81825256347656,25.900283813476562,-78.509033203125
1776815085360144100,9.27414404296875,-85.68873596191406,25.6485595703125,-78.53118896484375
1776815085370248200,9.284248291015626,-85.67826843261719,25.648666381835938,-78.42942810058594
1776815085380352300,9.294352294921875,-85.64273071289062,25.623214721679688,-78.6414794921875
1776815085390455300,9.304455322265625,-85.58779907226562,25.401016235351562,-78.49111938476562
1776815085400558300,9.314558349609374,-85.53829956054688,25.476348876953125,-78.6632080078125
1776815085410662100,9.324662109375,-85.29296875,25.788864135742188,-78.53343200683594
1776815085420766200,9.33476611328125,-85.18263244628906,25.63824462890625,-78.35487365722656
1776815085430870000,9.3448701171875,-85.72650146484375,25.647232055664062,-78.51876831054688
1776815085440974300,9.354974365234375,-85.71354675292969,25.970413208007812,-78.66653442382812
1776815085451079200,9.3650791015625,-85.56179809570312,26.05706787109375,-78.48580932617188
1776815085461182200,9.37518212890625,-85.83343505859375,26.241119384765625,-78.37397766113281
1776815085471287300,9.385287353515626,-85.91996765136719,26.563522338867188,-78.26022338867188
1776815085481391000,9.39539111328125,-85.80459594726562,26.787872314453125,-78.27177429199219
1776815085491494100,9.405494140625,-86.06179809570312,27.106124877929688,-78.1390380859375
1776815085501597200,9.41559716796875,-86.41860961914062,27.441696166992188,-78.07133483886719
1776815085511699200,9.42569921875,-86.85073852539062,27.858840942382812,-78.01019287109375
1776815085521802200,9.43580224609375,-86.75778198242188,28.41070556640625,-78.0699462890625
1776815085531906000,9.445906005859374,-86.81643676757812,28.742568969726562,-78.00067138671875
1776815085542009000,9.456009033203125,-87.23971557617188,29.079910278320312,-77.78909301757812
1776815085552113200,9.466113037109375,-87.41259765625,29.591323852539062,-77.75515747070312
1776815085562216200,9.47621630859375,-87.79527282714844,30.089004516601562,-77.36543273925781
1776815085572320300,9.4863203125,-87.78318786621094,30.475799560546875,-77.61810302734375
1776815085582424000,9.496424072265626,-88.09194946289062,31.2275390625,-77.58575439453125
1776815085592526000,9.506526123046875,-88.23329162597656,31.78936767578125,-77.59992980957031
1776815085602630100,9.516630126953125,-88.33033752441406,32.28895568847656,-77.54173278808594
1776815085612733200,9.526733154296876,-88.17449951171875,33.145294189453125,-77.19648742675781
1776815085622836200,9.536836181640625,-88.00727844238281,33.76518249511719,-77.37367248535156
1776815085632938200,9.546938232421875,-88.22637939453125,34.50755310058594,-77.27847290039062
1776815085643041000,9.557041015625,-88.40711975097656,35.039154052734375,-77.20686340332031
1776815085653144000,9.56714404296875,-88.89471435546875,35.62333679199219,-77.19766235351562
1776815085663247000,9.5772470703125,-88.7191162109375,36.519256591796875,-77.05998229980469
1776815085673349000,9.58734912109375,-88.90550231933594,37.30751037597656,-77.07756042480469
1776815085683452200,9.5974521484375,-88.93666076660156,38.053314208984375,-76.98152160644531
1776815085693555200,9.60755517578125,-88.67485046386719,38.73565673828125,-76.695556640625
1776815085703658000,9.617657958984376,-88.84072875976562,39.18287658691406,-76.56588745117188
1776815085713759200,9.62775927734375,-89.08717346191406,39.938934326171875,-76.57032775878906
1776815085723860200,9.637860107421876,-88.91542053222656,40.65422058105469,-76.31167602539062
1776815085733961200,9.647961181640625,-89.16043090820312,41.3494873046875,-76.39218139648438
1776815085744063000,9.65806298828125,-89.17219543457031,41.96513366699219,-76.04248046875
1776815085754165000,9.6681650390625,-88.87614440917969,42.87351989746094,-75.69549560546875
1776815085764267000,9.67826708984375,-89.08236694335938,43.3402099609375,-75.79124450683594
1776815085774369000,9.688369140625,-88.71894836425781,44.020050048828125,-75.5299072265625
1776815085784470000,9.698469970703124,-89.05108642578125,44.77882385253906,-75.50068664550781
1776815085794572000,9.708572021484375,-88.70829772949219,45.49639892578125,-75.55082702636719
1776815085804675000,9.718675048828125,-88.38845825195312,46.01202392578125,-75.18138122558594
1776815085814778000,9.728778076171874,-88.35565185546875,46.731048583984375,-75.31353759765625
1776815085824882000,9.7388818359375,-88.19644165039062,47.21826171875,-75.429931640625
1776815085834984200,9.748984130859375,-87.86952209472656,47.92198181152344,-75.39735412597656
1776815085845085000,9.7590849609375,-87.94966125488281,48.16233825683594,-75.06855773925781
1776815085855187000,9.76918701171875,-87.79763793945312,48.947509765625,-75.19810485839844
1776815085865290000,9.7792900390625,-87.56881713867188,49.540313720703125,-75.24014282226562
1776815085875393000,9.78939306640625,-87.23048400878906,50.128265380859375,-75.1378173828125
1776815085885495000,9.7994951171875,-86.95121765136719,50.38325500488281,-74.9951171875
1776815085895597800,9.809597900390624,-86.69036865234375,51.14869689941406,-74.97389221191406
1776815085905700000,9.8197001953125,-86.57656860351562,51.557037353515625,-75.14816284179688
1776815085915803000,9.829802978515625,-86.33988952636719,52.11817932128906,-75.21986389160156
1776815085925905000,9.83990478515625,-85.88427734375,52.34953308105469,-75.31767272949219
1776815085936008000,9.850008056640625,-85.52870178222656,52.95063781738281,-75.5299072265625
1776815085946111000,9.860111083984375,-85.20002746582031,53.38362121582031,-75.36338806152344
1776815085956214000,9.870214111328124,-84.734375,53.861114501953125,-75.58526611328125
1776815085966317000,9.880317138671876,-84.98666381835938,53.98506164550781,-75.65385437011719
1776815085976419800,9.890419921875,-84.59405517578125,54.59173583984375,-75.92210388183594
1776815085986521900,9.90052197265625,-84.36990356445312,54.6895751953125,-76.03953552246094
1776815085996624000,9.910623779296875,-83.68586730957031,55.29747009277344,-76.19305419921875
1776815086006727000,9.920726806640625,-83.57157897949219,55.68876647949219,-76.47048950195312
1776815086016829000,9.930828857421876,-83.09503173828125,55.97865295410156,-76.75283813476562
1776815086026931000,9.940930908203125,-82.63652038574219,56.33795166015625,-76.92643737792969
1776815086037033000,9.951032958984374,-82.00784301757812,56.64886474609375,-77.10641479492188
1776815086047136000,9.961135986328125,-81.50135803222656,56.75880432128906,-77.4072265625
1776815086057238000,9.971238037109375,-81.55729675292969,57.33067321777344,-77.63072204589844
1776815086067341000,9.981341064453124,-80.70623779296875,57.99664306640625,-77.99273681640625
1776815086077443000,9.991443115234375,-79.99046325683594,57.90498352050781,-77.9066162109375
1776815086087544800,10.001544921875,-79.79222106933594,58.707550048828125,-77.95578002929688
1776815086097647900,10.01164794921875,-79.37995910644531,59.08772277832031,-78.35823059082031
1776815086107750000,10.02175,-79.12797546386719,59.663238525390625,-78.60293579101562
1776815086117852000,10.031851806640624,-78.46868896484375,59.905853271484375,-78.58351135253906
1776815086127954000,10.041953857421875,-77.71440124511719,60.37648010253906,-78.72297668457031
1776815086138058000,10.05205810546875,-77.1556396484375,60.88133239746094,-78.61598205566406
1776815086148160000,10.062159912109376,-76.66618347167969,60.97673034667969,-78.86283874511719
1776815086158262000,10.072261962890625,-76.14596557617188,61.5743408203125,-79.05517578125
1776815086168365000,10.082364990234375,-75.30717468261719,61.79319763183594,-78.89576721191406
1776815086178468000,10.092468017578126,-74.46443176269531,62.15193176269531,-79.01298522949219
1776815086188570000,10.102570068359375,-74.15765380859375,62.63954162597656,-79.0400390625
1776815086198672100,10.112672119140624,-73.11378479003906,62.967010498046875,-79.04389953613281
1776815086208776000,10.12277587890625,-72.63865661621094,63.114166259765625,-79.17091369628906
1776815086218879000,10.13287890625,-72.23280334472656,63.48854064941406,-79.22305297851562
1776815086228983000,10.142983154296875,-71.47845458984375,63.475616455078125,-79.19326782226562
1776815086239085000,10.1530849609375,-71.01524353027344,63.81666564941406,-79.27432250976562
1776815086249187800,10.163187744140625,-70.31825256347656,63.92694091796875,-79.48350524902344
1776815086259291000,10.173290771484375,-69.74769592285156,64.22154235839844,-79.44630432128906
1776815086269395200,10.183395263671875,-69.72801208496094,64.27262878417969,-79.34912109375
1776815086279499000,10.1934990234375,-68.72760009765625,64.48347473144531,-79.33578491210938
1776815086289602000,10.20360205078125,-68.58004760742188,64.39811706542969,-79.53964233398438
1776815086299705000,10.213705078125,-68.23158264160156,64.28257751464844,-79.46624755859375
1776815086309809000,10.223808837890624,-68.125732421875,64.38973999023438,-79.79608154296875
1776815086319912000,10.233911865234376,-67.82147216796875,64.46575927734375,-79.88623046875
1776815086330015000,10.244014892578125,-67.11485290527344,64.31182861328125,-80.04475402832031
1776815086340117000,10.254116943359374,-67.09114074707031,64.25575256347656,-80.23628234863281
1776815086350219000,10.264218994140625,-67.06472778320312,64.08282470703125,-80.13009643554688
1776815086360321000,10.274321044921875,-66.24189758300781,64.47993469238281,-80.20072937011719
1776815086370421800,10.284421875,-66.53016662597656,64.46549987792969,-80.13655090332031
1776815086380525000,10.294525146484375,-66.24855041503906,64.54132080078125,-80.18112182617188
1776815086390626800,10.304626708984374,-66.25245666503906,64.28289794921875,-80.34226989746094
1776815086400728800,10.314728759765625,-66.2398681640625,64.67098999023438,-80.38801574707031
1776815086410830800,10.324830810546874,-66.23406982421875,64.44252014160156,-80.24662780761719
1776815086420934000,10.334933837890626,-66.4482421875,64.3951416015625,-80.07150268554688
1776815086431034000,10.3450341796875,-66.51533508300781,64.24635314941406,-80.1053466796875
1776815086441136000,10.35513623046875,-67.00115966796875,64.31207275390625,-80.02088928222656
1776815086451236900,10.36523681640625,-67.20603942871094,64.3853759765625,-79.92558288574219
1776815086461339000,10.3753388671875,-67.8079833984375,64.34085083007812,-80.09172058105469
1776815086471442000,10.38544189453125,-67.89419555664062,64.18218994140625,-79.74952697753906
1776815086481544000,10.3955439453125,-67.93325805664062,64.35504150390625,-79.85374450683594
1776815086491645200,10.405645263671875,-68.01768493652344,64.13137817382812,-79.74168395996094
1776815086501747000,10.415746826171874,-68.10227966308594,64.14741516113281,-79.78501892089844
1776815086511849000,10.425848876953125,-68.21263122558594,64.23828125,-79.61904907226562
1776815086521951000,10.435950927734375,-68.05474853515625,64.01101684570312,-79.74235534667969
1776815086532054000,10.446053955078124,-68.0731201171875,64.15463256835938,-79.76161193847656
1776815086542156000,10.456156005859375,-67.59722900390625,64.34268188476562,-79.66731262207031
1776815086552259000,10.466259033203125,-67.63911437988281,64.31785583496094,-79.77737426757812
1776815086562361000,10.476361083984376,-67.4344482421875,64.51936340332031,-79.77285766601562
1776815086572463900,10.4864638671875,-67.70193481445312,64.11970520019531,-79.81550598144531
1776815086582567000,10.49656689453125,-67.38046264648438,64.35577392578125,-79.96429443359375
1776815086592670000,10.506669921875,-67.29679870605469,64.27580261230469,-79.86427307128906
1776815086602772000,10.51677197265625,-67.60443115234375,64.35566711425781,-79.90623474121094
1776815086612874000,10.5268740234375,-67.05477905273438,64.23187255859375,-79.59892272949219
1776815086622976000,10.53697607421875,-67.12405395507812,64.37799072265625,-79.97433471679688
1776815086633078000,10.547078125,-67.152587890625,64.26719665527344,-79.90055847167969
1776815086643181000,10.55718115234375,-67.30476379394531,64.42848205566406,-80.05795288085938
1776815086653283000,10.567282958984375,-66.93293762207031,64.32305908203125,-79.93829345703125
1776815086663384800,10.577384765625,-66.58596801757812,64.286865234375,-79.77336120605469
1776815086673486800,10.58748681640625,-67.07418823242188,64.47798156738281,-79.93501281738281
1776815086683590000,10.59758984375,-66.99456787109375,64.51943969726562,-79.89639282226562
1776815086693691100,10.607691162109376,-66.56364440917969,64.38516235351562,-79.97982788085938
1776815086703794000,10.6177939453125,-67.23135375976562,64.65249633789062,-80.08845520019531
1776815086713896000,10.62789599609375,-67.15354919433594,64.78096008300781,-79.93296813964844
1776815086723999000,10.6379990234375,-67.2646484375,64.44526672363281,-79.67196655273438
1776815086734100500,10.6481005859375,-67.09536743164062,64.61000061035156,-79.91804504394531
1776815086744203500,10.65820361328125,-67.27790832519531,64.5924072265625,-79.80081176757812
1776815086754305500,10.668305419921875,-67.00787353515625,64.22599792480469,-79.63136291503906
1776815086764407600,10.678407470703124,-67.47885131835938,64.19239807128906,-79.7855224609375
1776815086774510600,10.688510498046876,-67.42677307128906,64.25540161132812,-79.84288024902344
1776815086784613600,10.698613525390625,-67.83358764648438,64.38829040527344,-79.8282470703125
1776815086794715600,10.708715576171874,-67.73408508300781,64.29594421386719,-79.8927001953125
1776815086804817700,10.718817626953125,-67.47093200683594,64.3604736328125,-79.80502319335938
1776815086814918400,10.72891845703125,-66.99581909179688,64.03688049316406,-79.81332397460938
1776815086825020700,10.739020751953126,-67.61721801757812,64.18328857421875,-79.70417785644531
1776815086835123500,10.74912353515625,-67.3521728515625,64.47232055664062,-79.8209228515625
1776815086845226500,10.7592265625,-67.26487731933594,64.43626403808594,-79.71981811523438
1776815086855327500,10.769327392578125,-67.50511169433594,64.41535949707031,-79.7384033203125
1776815086865429800,10.7794296875,-67.66815185546875,64.2850341796875,-79.62565612792969
1776815086875530800,10.78953076171875,-67.74922180175781,64.41806030273438,-79.66841125488281
1776815086885632500,10.799632568359375,-67.56619262695312,64.39425659179688,-79.67245483398438
1776815086895734500,10.809734619140626,-67.70069885253906,64.29615783691406,-79.61724853515625
1776815086905836500,10.81983642578125,-67.79762268066406,64.50140380859375,-79.71223449707031
1776815086915937500,10.8299375,-67.68841552734375,64.44577026367188,-79.68116760253906
1776815086926039800,10.840039794921875,-67.69091796875,64.56948852539062,-79.59585571289062
1776815086936141800,10.850141845703124,-67.7216796875,64.2825927734375,-79.5595703125
1776815086946244600,10.86024462890625,-67.42768859863281,64.35284423828125,-79.20465087890625
1776815086956346600,10.8703466796875,-67.85646057128906,64.46067810058594,-79.60281372070312
1776815086966451700,10.88045166015625,-67.33755493164062,64.419677734375,-79.55178833007812
1776815086976554800,10.8905546875,-67.03877258300781,64.51866149902344,-79.62956237792969
1776815086986658600,10.900658447265625,-67.65829467773438,64.79066467285156,-79.67933654785156
1776815086996761600,10.91076171875,-67.46101379394531,64.69944763183594,-79.5169677734375
1776815087006865700,10.92086572265625,-67.53932189941406,64.50852966308594,-79.6104736328125
1776815087016968700,10.93096875,-67.55569458007812,64.57058715820312,-79.55827331542969
1776815087027071700,10.94107177734375,-67.61775207519531,64.56744384765625,-79.70388793945312
1776815087037173800,10.951173828125,-67.43403625488281,64.38352966308594,-79.4283447265625
1776815087047276800,10.96127685546875,-67.02442932128906,64.77101135253906,-79.54296875
1776815087057378600,10.971378662109375,-67.18275451660156,64.54856872558594,-79.64981079101562
1776815087067480600,10.98148046875,-67.17250061035156,64.57359313964844,-79.79971313476562
1776815087077584600,10.991584716796876,-67.47782897949219,64.28866577148438,-79.67160034179688
1776815087087687700,11.001687744140625,-67.24171447753906,64.45120239257812,-79.31898498535156
1776815087097789400,11.01178955078125,-67.39071655273438,64.43644714355469,-79.47903442382812
1776815087107891500,11.021891357421875,-67.36769104003906,64.46348571777344,-79.55282592773438
1776815087117994500,11.031994384765625,-67.66798400878906,64.5035400390625,-79.54704284667969
1776815087128097500,11.04209765625,-67.36480712890625,64.601806640625,-79.59959411621094
1776815087138200600,11.05220068359375,-66.987060546875,64.56971740722656,-79.30085754394531
1776815087148302600,11.062302490234375,-67.17166137695312,64.36628723144531,-79.40264892578125
1776815087158405600,11.072405517578124,-67.18214416503906,64.3331298828125,-79.5418701171875
1776815087168508400,11.08250830078125,-67.47311401367188,64.55155944824219,-79.65126037597656
1776815087178610700,11.092610595703125,-67.31106567382812,64.48068237304688,-79.7381591796875
1776815087188714800,11.10271484375,-67.21273803710938,64.45231628417969,-79.60845947265625
1776815087198816500,11.11281640625,-67.28970336914062,64.28292846679688,-79.53532409667969
1776815087208917500,11.12291748046875,-67.1500244140625,64.25114440917969,-79.55389404296875
1776815087219019800,11.133019775390625,-66.93553161621094,64.51327514648438,-79.65774536132812
1776815087229120800,11.143120849609375,-67.52934265136719,64.26263427734375,-79.6910400390625
1776815087239221500,11.153221435546875,-67.1787109375,64.54057312011719,-79.49339294433594
1776815087249322800,11.16332275390625,-67.08015441894531,64.38966369628906,-79.62797546386719
1776815087259424800,11.1734248046875,-67.34658813476562,64.54634094238281,-79.55813598632812
1776815087269525500,11.183525390625,-67.19126892089844,64.56468200683594,-79.75816345214844
1776815087279627500,11.19362744140625,-67.28704833984375,64.526611328125,-79.59219360351562
1776815087289730600,11.20373046875,-67.30921936035156,64.29318237304688,-79.62998962402344
1776815087299832600,11.21383251953125,-67.11831665039062,64.59663391113281,-79.69119262695312
1776815087309933600,11.22393359375,-66.888916015625,64.65080261230469,-79.80424499511719
1776815087320036600,11.23403662109375,-66.88340759277344,64.47842407226562,-79.71661376953125
1776815087330138600,11.244138671875,-66.68716430664062,64.44866943359375,-79.56192016601562
1776815087340241700,11.25424169921875,-67.252685546875,64.54559326171875,-79.68220520019531
1776815087350342400,11.26434228515625,-67.02967834472656,64.52818298339844,-79.75465393066406
1776815087360443600,11.274443603515625,-67.52346801757812,64.32887268066406,-79.59638977050781
1776815087370545700,11.284545654296876,-67.26603698730469,64.17393493652344,-79.49598693847656
1776815087380646700,11.294646728515625,-67.18411254882812,64.36444091796875,-79.70698547363281
1776815087390748700,11.304748779296874,-67.28414916992188,64.56196594238281,-79.68888854980469
1776815087400849700,11.314849609375,-67.17617797851562,64.22079467773438,-79.59107971191406
1776815087410950700,11.32495068359375,-67.10073852539062,64.70233154296875,-79.78605651855469
1776815087421052700,11.335052734375,-67.3743896484375,64.29052734375,-79.48184204101562
1776815087431153400,11.3451533203125,-67.23045349121094,64.59907531738281,-79.71136474609375
1776815087441255700,11.355255615234375,-67.16868591308594,64.52854919433594,-79.6201171875
1776815087451356700,11.365356689453124,-67.37088012695312,64.25308227539062,-79.68760681152344
1776815087461458700,11.375458740234375,-67.42304992675781,64.26504516601562,-79.67941284179688
1776815087471560700,11.385560791015624,-67.14814758300781,64.41365051269531,-79.29029846191406
1776815087481661400,11.395661376953125,-67.34481811523438,64.46246337890625,-79.6048583984375
1776815087491762700,11.4057626953125,-67.30718994140625,64.489013671875,-79.57637023925781
1776815087501864700,11.41586474609375,-67.25559997558594,64.22564697265625,-79.54379272460938
1776815087511967700,11.4259677734375,-67.61540222167969,64.35662841796875,-79.69374084472656
1776815087522068700,11.43606884765625,-67.44792175292969,64.21092224121094,-79.38435363769531
1776815087532169500,11.44616943359375,-67.78849792480469,64.24641418457031,-79.56611633300781
1776815087542271500,11.456271484375,-68.02317810058594,64.03167724609375,-79.34747314453125
1776815087552371700,11.466371826171875,-68.2828369140625,64.29414367675781,-79.48731994628906
1776815087562474800,11.476474853515626,-68.13050842285156,63.97615051269531,-79.43659973144531
1776815087572576500,11.486576416015625,-68.03901672363281,64.17802429199219,-79.36946105957031
1776815087582678500,11.496678466796874,-67.73759460449219,64.25271606445312,-79.50553894042969
1776815087592780500,11.506780517578125,-68.50886535644531,64.10256958007812,-79.51211547851562
1776815087602882600,11.516882568359375,-68.73628234863281,64.2667236328125,-79.44895935058594
1776815087612983800,11.52698388671875,-68.53378295898438,64.23236083984375,-79.44631958007812
1776815087623085800,11.5370859375,-68.54411315917969,64.25711059570312,-79.26309204101562
1776815087633187600,11.5471875,-69.00927734375,63.981536865234375,-79.43986511230469
1776815087643288600,11.55728857421875,-68.93075561523438,64.04373168945312,-79.55494689941406
1776815087653390600,11.567390625,-69.71221923828125,63.74681091308594,-79.37283325195312
1776815087663492600,11.57749267578125,-69.51931762695312,64.00498962402344,-79.017333984375
1776815087673595600,11.587595703125,-70.09495544433594,63.71516418457031,-79.37324523925781
1776815087683696600,11.597696533203125,-70.63027954101562,63.81797790527344,-79.26986694335938
1776815087693798700,11.607798583984374,-71.19622802734375,63.78086853027344,-79.05996704101562
1776815087703901400,11.6179013671875,-71.01121520996094,63.70921325683594,-78.9586181640625
1776815087714003500,11.62800341796875,-71.10890197753906,63.67108154296875,-78.74644470214844
1776815087724105500,11.63810546875,-71.72392272949219,63.3184814453125,-78.72465515136719
1776815087734208500,11.64820849609375,-72.08067321777344,63.38990783691406,-78.67982482910156
1776815087744309500,11.6583095703125,-72.10627746582031,63.34815979003906,-78.94017028808594
1776815087754411500,11.66841162109375,-71.98028564453125,63.19758605957031,-78.97976684570312
1776815087764512500,11.678512451171875,-72.18603515625,63.10589599609375,-79.14956665039062
1776815087774614500,11.688614501953126,-72.63594055175781,63.04170227050781,-79.06391906738281
1776815087784717600,11.698717529296875,-72.81712341308594,62.98939514160156,-78.97874450683594
1776815087794818300,11.708818359375,-73.25540161132812,62.97328186035156,-79.06671142578125
1776815087804920300,11.71892041015625,-73.37364196777344,62.92448425292969,-78.81048583984375
1776815087815021600,11.729021484375,-73.32321166992188,62.7525634765625,-78.77499389648438
1776815087825123600,11.73912353515625,-73.81224060058594,62.496246337890625,-78.73963928222656
1776815087835224300,11.749224365234374,-74.19992065429688,62.45436096191406,-78.84184265136719
1776815087845326300,11.759326416015625,-74.29940795898438,62.20100402832031,-78.65048217773438
1776815087855428400,11.769428466796874,-74.70310974121094,61.995086669921875,-78.45405578613281
1776815087865530400,11.7795302734375,-74.98442077636719,61.87968444824219,-78.43739318847656
1776815087875631600,11.789631591796875,-75.10740661621094,61.70710754394531,-78.3936767578125
1776815087885732400,11.799732421875,-76.0966796875,61.64134216308594,-78.28596496582031
1776815087895832600,11.80983251953125,-76.55484008789062,61.43048095703125,-78.03981018066406
1776815087905933600,11.81993359375,-76.69915771484375,60.76171875,-78.04251098632812
1776815087916036600,11.83003662109375,-77.39801025390625,60.701446533203125,-78.04132080078125
1776815087926136600,11.840136474609375,-77.61631774902344,60.51092529296875,-77.95721435546875
1776815087936238600,11.850238525390624,-78.5911865234375,59.882720947265625,-77.78382873535156
1776815087946340600,11.860340576171875,-78.78923034667969,59.68116760253906,-77.73065185546875
1776815087956441300,11.87044140625,-79.17436218261719,59.34735107421875,-77.57064819335938
1776815087966542600,11.88054248046875,-79.68577575683594,58.94801330566406,-77.4498291015625
1776815087976643600,11.8906435546875,-80.32931518554688,58.76051330566406,-77.26173400878906
1776815087986745600,11.90074560546875,-80.748291015625,58.083038330078125,-77.12765502929688
1776815087996846300,11.910846435546874,-80.37168884277344,58.0286865234375,-76.85102844238281
1776815088006947600,11.920947509765625,-81.96145629882812,57.346221923828125,-76.90374755859375
1776815088017049600,11.931049560546874,-81.8218994140625,57.174163818359375,-76.76953125
1776815088027151600,11.941151611328126,-82.5504150390625,56.43556213378906,-76.55857849121094
1776815088037252400,11.95125244140625,-82.84811401367188,56.15678405761719,-76.57734680175781
1776815088047354400,11.961354248046876,-83.38351440429688,55.59716796875,-76.34648132324219
1776815088057454600,11.97145458984375,-83.73406982421875,55.2249755859375,-76.170166015625
1776815088067555300,11.981555419921875,-84.3175048828125,54.649322509765625,-75.98017883300781
1776815088077657300,11.9916572265625,-84.33735656738281,54.22975158691406,-75.97023010253906
1776815088087759600,12.001759521484376,-84.92324829101562,53.68290710449219,-75.86729431152344
1776815088097862400,12.0118623046875,-85.38516235351562,53.03950500488281,-75.8228759765625
1776815088107964400,12.02196435546875,-85.71481323242188,52.584869384765625,-75.52497863769531
1776815088118065700,12.032065673828125,-86.26629638671875,52.02592468261719,-75.54037475585938
1776815088128166400,12.04216650390625,-86.48518371582031,51.50299072265625,-75.5726318359375
1776815088138267400,12.052267333984375,-86.62248229980469,50.89158630371094,-75.14576721191406
1776815088148367400,12.062367431640626,-86.89276123046875,50.066619873046875,-75.36376953125
1776815088158467600,12.072467529296874,-87.02780151367188,49.41717529296875,-75.20440673828125
1776815088168568600,12.082568603515625,-87.45890808105469,48.81840515136719,-75.42161560058594
1776815088178669600,12.092669677734374,-87.42015075683594,48.24101257324219,-75.28416442871094
1776815088188770600,12.1027705078125,-87.29844665527344,47.62797546386719,-75.34210205078125
1776815088198871600,12.11287158203125,-87.83462524414062,46.72645568847656,-75.67250061035156
1776815088208972500,12.12297265625,-88.09066772460938,45.71678161621094,-75.88238525390625
1776815088219073500,12.133073486328126,-88.29354858398438,45.060333251953125,-76.08950805664062
1776815088229173500,12.143173583984375,-88.35101318359375,43.98008728027344,-76.218994140625
1776815088239275500,12.153275634765626,-88.54388427734375,43.49275207519531,-76.34478759765625
1776815088249377500,12.16337744140625,-88.08515930175781,42.442413330078125,-76.44158935546875
1776815088259478500,12.173478515625,-88.22195434570312,41.63916015625,-76.53016662597656
1776815088269578500,12.18357861328125,-88.73980712890625,40.909271240234375,-76.81379699707031
1776815088279677400,12.193677490234375,-88.71797180175781,39.909027099609375,-76.82154846191406
1776815088289776600,12.203776611328125,-88.78327941894531,39.349151611328125,-77.06294250488281
1776815088299877400,12.21387744140625,-88.62271118164062,38.35078430175781,-77.11016845703125
1776815088309977600,12.2239775390625,-88.78741455078125,37.63078308105469,-77.17866516113281
1776815088320079600,12.23407958984375,-88.59799194335938,36.90394592285156,-77.0068359375
1776815088330180400,12.244180419921875,-88.33383178710938,36.24696350097656,-77.15408325195312
1776815088340281600,12.254281494140624,-88.45977783203125,35.29594421386719,-77.19607543945312
1776815088350383600,12.264383544921875,-88.64678955078125,34.5546875,-77.27713012695312
1776815088360485600,12.274485595703124,-88.06510925292969,33.922271728515625,-77.193115234375
1776815088370588400,12.28458837890625,-88.77902221679688,33.26057434082031,-77.29388427734375
1776815088380690700,12.294690673828125,-87.80247497558594,32.71807861328125,-76.92271423339844
1776815088390794500,12.30479443359375,-88.2547607421875,31.942825317382812,-77.05226135253906
1776815088400897500,12.3148974609375,-88.6600341796875,31.045852661132812,-76.90293884277344
1776815088410999600,12.32499951171875,-88.22859191894531,30.759078979492188,-77.0279541015625
1776815088421102600,12.3351025390625,-87.83326721191406,30.258880615234375,-77.21795654296875
1776815088431204600,12.34520458984375,-87.69342041015625,29.683639526367188,-77.21435546875
1776815088441305300,12.355305419921875,-87.52662658691406,29.274139404296875,-77.408447265625
1776815088451408400,12.365408447265626,-87.43635559082031,28.945083618164062,-77.74800109863281
1776815088461510400,12.375510498046875,-87.52003479003906,28.279678344726562,-77.68353271484375
1776815088471613400,12.385613525390625,-86.96110534667969,27.78167724609375,-77.58734130859375
1776815088481714400,12.39571435546875,-86.98709106445312,27.323394775390625,-77.73544311523438
1776815088491816400,12.40581640625,-86.48419189453125,27.096221923828125,-77.43264770507812
1776815088501919500,12.41591943359375,-86.66830444335938,26.686492919921875,-77.69644165039062
1776815088512022500,12.4260224609375,-86.32969665527344,26.261398315429688,-77.85467529296875
1776815088522125600,12.43612548828125,-86.27920532226562,25.94195556640625,-77.67877197265625
1776815088532228400,12.446228271484374,-85.91288757324219,25.603744506835938,-78.05992126464844
1776815088542331400,12.456331298828125,-85.87077331542969,25.505111694335938,-78.37521362304688
1776815088552434400,12.466434326171875,-85.92924499511719,25.38421630859375,-78.30809020996094
1776815088562535400,12.476535400390626,-85.82768249511719,25.218002319335938,-78.38397216796875
1776815088572637400,12.486637451171875,-85.59078979492188,24.803421020507812,-78.42439270019531
1776815088582739700,12.49673974609375,-85.59620666503906,24.8109130859375,-78.63529968261719
1776815088592841500,12.506841552734375,-85.39402770996094,24.6597900390625,-78.58674621582031
1776815088602943500,12.516943603515625,-85.24073791503906,24.3062744140625,-78.39216613769531
1776815088613046500,12.527046630859376,-85.47833251953125,24.430343627929688,-78.56430053710938
1776815088623148500,12.5371484375,-85.39964294433594,24.241165161132812,-78.45573425292969
1776815088633252600,12.547252685546875,-85.1131591796875,24.297714233398438,-78.61767578125
1776815088643355600,12.557355712890624,-85.26213073730469,24.429168701171875,-78.404296875
1776815088653458700,12.567458740234375,-85.21041870117188,24.670608520507812,-78.5103759765625
1776815088663561500,12.5775615234375,-85.47111511230469,24.5699462890625,-78.33657836914062
1776815088673664500,12.58766455078125,-85.32138061523438,24.830169677734375,-78.24920654296875
1776815088683767600,12.597767578125,-85.77020263671875,25.136428833007812,-78.26199340820312
1776815088693870600,12.60787060546875,-85.94515991210938,25.097824096679688,-78.07028198242188
1776815088703972600,12.61797265625,-86.16738891601562,25.425643920898438,-77.96479797363281
1776815088714075600,12.62807568359375,-85.84489440917969,25.721542358398438,-77.85914611816406
1776815088724179500,12.638179443359375,-86.41143798828125,25.695953369140625,-77.81092834472656
1776815088734282800,12.64828271484375,-86.5692138671875,26.077438354492188,-77.6414794921875
1776815088744386600,12.658386474609374,-86.6397705078125,26.410263061523438,-77.68679809570312
1776815088754489600,12.668489501953125,-87.10969543457031,26.887176513671875,-77.60853576660156
1776815088764592600,12.678592529296875,-86.70620727539062,27.375274658203125,-77.26675415039062
1776815088774694700,12.688694580078124,-87.02235412597656,27.671905517578125,-77.18923950195312
1776815088784797700,12.698797607421875,-87.34089660644531,28.27667236328125,-77.23219299316406
1776815088794901500,12.708901611328125,-87.45205688476562,28.76629638671875,-77.12083435058594
1776815088805003500,12.71900341796875,-87.72563171386719,29.362747192382812,-77.29208374023438
1776815088815106600,12.7291064453125,-87.89422607421875,29.749832153320312,-76.89176940917969
1776815088825207800,12.739207763671875,-88.12271118164062,30.306167602539062,-77.14938354492188
1776815088835310600,12.749310546875,-88.06582641601562,30.671279907226562,-77.0498046875
1776815088845410600,12.75941064453125,-88.68925476074219,31.180587768554688,-77.0447998046875
1776815088855511600,12.769511474609375,-88.49667358398438,31.795516967773438,-76.59161376953125
1776815088865612800,12.77961279296875,-88.69882202148438,32.53205871582031,-76.9278564453125
1776815088875714800,12.78971484375,-88.90473937988281,33.017425537109375,-76.73883056640625
1776815088885817900,12.79981787109375,-88.98898315429688,33.84700012207031,-76.7996826171875
1776815088895919600,12.809919677734374,-88.96600341796875,34.384735107421875,-76.67039489746094
1776815088906021600,12.820021728515625,-88.88636779785156,35.063934326171875,-76.39018249511719
1776815088916122600,12.83012255859375,-89.13771057128906,35.88726806640625,-76.48245239257812
1776815088926224600,12.840224609375,-89.12852478027344,36.54841613769531,-76.31381225585938
1776815088936326700,12.85032666015625,-89.3309326171875,37.404083251953125,-76.43635559082031
1776815088946429700,12.8604296875,-89.67633056640625,38.08375549316406,-76.26052856445312
1776815088956532700,12.87053271484375,-89.69837951660156,38.48741149902344,-76.0596923828125
1776815088966635800,12.8806357421875,-89.64460754394531,39.41862487792969,-76.02630615234375
1776815088976736800,12.89073681640625,-89.70944213867188,40.01518249511719,-75.92266845703125
1776815088986838500,12.900838623046875,-89.58779907226562,40.9703369140625,-75.78431701660156
1776815088996941600,12.910941650390624,-89.38385009765625,41.69892883300781,-75.58670043945312
1776815089007044600,12.921044677734375,-89.49000549316406,42.12678527832031,-75.5792236328125
1776815089017146600,12.931146728515625,-88.96414184570312,42.73432922363281,-75.0693359375
1776815089027247600,12.94124755859375,-89.06742858886719,43.26744079589844,-75.23255920410156
1776815089037350700,12.9513505859375,-89.26272583007812,43.94798278808594,-75.1734619140625
1776815089047451600,12.96145166015625,-89.04756164550781,44.589996337890625,-74.96725463867188
1776815089057552600,12.971552734375,-89.08537292480469,44.98445129394531,-75.02629089355469
1776815089067653600,12.981653564453126,-88.90301513671875,45.687835693359375,-74.95231628417969
1776815089077754600,12.991754638671875,-88.66194152832031,46.537078857421875,-74.96571350097656
1776815089087857000,13.00185693359375,-88.22674560546875,47.13043212890625,-74.782470703125
1776815089097957600,13.01195751953125,-88.18519592285156,47.54222106933594,-74.68760681152344
1776815089108059600,13.0220595703125,-87.97846984863281,48.24186706542969,-74.78573608398438
1776815089118160600,13.03216064453125,-87.68417358398438,48.59556579589844,-74.8701171875
1776815089128260600,13.042260498046875,-87.64179992675781,49.303619384765625,-74.92222595214844
1776815089138361600,13.052361572265625,-87.39004516601562,49.91069030761719,-74.58909606933594
1776815089148463600,13.062463623046876,-87.06297302246094,50.38584899902344,-74.84922790527344
1776815089158562600,13.0725625,-86.62942504882812,50.91790771484375,-74.73069763183594
1776815089168664600,13.08266455078125,-86.39775085449219,51.29591369628906,-74.97010803222656
1776815089178765800,13.092765869140624,-86.19100952148438,51.864715576171875,-75.04872131347656
1776815089188865500,13.102865478515625,-85.64018249511719,52.39161682128906,-75.20620727539062
1776815089198965800,13.1129658203125,-85.30209350585938,52.51776123046875,-75.44859313964844
1776815089209064700,13.123064697265624,-84.83389282226562,53.19371032714844,-75.6578369140625
1776815089219164700,13.13316455078125,-84.98484802246094,53.41827392578125,-75.8409423828125
1776815089229266700,13.1432666015625,-84.27388000488281,53.98805236816406,-76.12934875488281
