time,seconds_elapsed,z,y,x
1776554601833235500,0.0852353515625,0.307602890881896,0.18385873005241155,-0.18153021403960884
1776554601843276500,0.095276611328125,0.14438742814660072,0.021787176655232905,0.00799319071099162
1776554601853316600,0.105316650390625,-0.028736849662661552,-0.04928104051947593,0.08386435118801891
1776554601863357400,0.115357421875,-0.07014496484994888,-0.0333925665140152,-0.02523914374001324
1776554601873397500,0.1253974609375,-0.09210603676736354,-0.005741758522391319,-0.08863697241730988
1776554601883438600,0.1354384765625,-0.23775544767379758,-0.026895897971093652,-0.07377784145958721
1776554601893478700,0.145478759765625,-0.3246878811955452,-0.02988718874156475,0.06350618442259728
1776554601903519700,0.155519775390625,-0.4089794448196888,-0.13633388555049897,0.17602153362073003
1776554601913560600,0.165560546875,-0.3451695282101631,-0.10171323854625225,0.11130853069163858
1776554601923600600,0.1756005859375,-0.10591595093309879,0.06743833623975515,0.004885287823528051
1776554601933641700,0.185641845703125,-0.009224339941143989,0.041614743675291534,-0.030382717173546552
1776554601943681800,0.195681884765625,-0.06443535503149032,-0.05063274738937616,0.19437939341440796
1776554601953722600,0.20572265625,-0.0651899727910757,-0.12746931883245705,0.4498928352925926
1776554601963762400,0.215762451171875,-0.056875733432173725,-0.02823006918430328,0.13032616956830023
1776554601973803500,0.225803466796875,-0.23870763383209703,-0.026386194883286952,-0.22090105124562978
1776554601983843600,0.235843505859375,-0.30809798092246055,-0.116130178694427,-0.14680493761710822
1776554601993884700,0.245884765625,-0.2914636569857597,-0.02832388494759798,0.09005553397834301
1776554602003924700,0.2559248046875,-0.11337737285494803,0.07396861479133367,0.12478490205407142
1776554602013965600,0.265965576171875,0.029915245792269705,0.09364946681708097,-0.008614829740673303
1776554602024006700,0.276006591796875,0.17930442774891853,0.08232757007479667,-0.11850319143608212
1776554602034046700,0.286046630859375,0.3458668628245592,0.08581424314677714,-0.19362886730805037
1776554602044087600,0.296087646484375,0.43308395850658415,0.07375789465010166,-0.24156119663231074
1776554602054127400,0.30612744140625,0.4831698856681585,0.028503625428676602,-0.21858064547404646
1776554602064168400,0.31616845703125,0.19124270282387731,-0.05678337897360324,-0.034915757493302224
1776554602074208500,0.32620849609375,-0.07874795802235603,0.05325052867233753,0.02087671074680984
1776554602084249600,0.33624951171875,-0.1896621556341648,0.09944061743915081,0.282127819494158
1776554602094289700,0.34628955078125,-0.027812136033177375,0.0795943457186222,0.2509668114244938
1776554602104330500,0.35633056640625,0.2639098796278238,0.12057108375132083,-0.11713394890949129
1776554602114370600,0.36637060546875,0.30324761828184127,0.10149053570628165,-0.4954715872280299
1776554602124411600,0.37641162109375,0.49198272219896316,0.16739917816072702,-0.5207121922727674
1776554602134452500,0.386452392578125,0.6332675081551075,0.05419190117567777,-0.44272754677310583
1776554602144492500,0.396492431640625,0.5056394916296005,-0.15483429562002418,-0.4163569147851318
1776554602154533600,0.40653369140625,-0.06379296547472477,-0.133610890327394,-0.14960121727213263
1776554602164573700,0.41657373046875,-0.3687362817585468,-0.145158997040987,0.07965941031146793
1776554602174614800,0.42661474609375,-0.29520167447030543,0.08645224878937005,-0.045477191257104276
1776554602184654600,0.436654541015625,-0.19654373184144497,0.33407968665808435,-0.03544745321720838
1776554602194695400,0.4466953125,0.09672259065210818,0.28325755417644977,0.008184913890808821
1776554602204735500,0.456735595703125,0.09657704470157623,-0.029294483545422554,-0.28481296692490576
1776554602214776600,0.466776611328125,0.1360229199051857,-0.22553864791840314,-0.4252074895104393
1776554602224816600,0.476816650390625,0.6763157917648553,-0.07176131400540471,-0.434610547019355
1776554602234857500,0.486857421875,1.6935814482182263,-0.23009528830945492,-0.7845538289699703
1776554602244898600,0.496898681640625,3.002971271392703,-0.4410409088604152,-1.2739393012173472
1776554602254938600,0.506938720703125,2.397773088902235,0.5011459796026349,-0.6355833838820457
1776554602264979700,0.516979736328125,2.124450653284788,1.7003182091273366,-0.14342046454427762
1776554602275019500,0.52701953125,1.8532447714298963,2.2902622699931263,-0.24690228366563094
1776554602285060600,0.537060546875,0.7749585368245839,1.917321230021119,-0.01686426023505628
1776554602295100400,0.547100341796875,-0.29331951398551465,0.8709450682871043,0.3152476334813982
1776554602305141500,0.5571416015625,-3.630005438116193,-0.6982996600359678,-0.8765018986966461
1776554602315181600,0.567181640625,-1.1749959657758473,0.023475422003120184,-0.40961131298243997
1776554602325222400,0.577222412109375,-1.4068191007912159,0.10815993046760558,0.0008263678215444087
1776554602335262500,0.587262451171875,-0.6344014806210995,-0.6847906285129487,-1.265339084523916
1776554602345303600,0.597303466796875,-0.5846124905794858,-0.33876609090864657,-1.309097854490578
1776554602355343600,0.607343505859375,-0.6338368324756622,-0.0780072226576507,-0.9081558779150247
1776554602365384700,0.617384765625,-0.5450064563781023,0.10365691995993256,-0.7646598456501961
1776554602375425500,0.627425537109375,-0.5044125801831484,0.29187647557035085,-0.8063625598698854
1776554602385465600,0.637465576171875,-0.9199614665210246,0.4604937973491847,-0.6760783297471702
1776554602395506700,0.647506591796875,-1.629515511021018,0.12600202275887132,-0.006380640947818756
1776554602405546800,0.657546630859375,-1.4641437470346688,-0.33348274367824193,0.5879707149662077
1776554602415587600,0.667587646484375,-0.5346206714421511,-1.1076214885525404,0.5866127244859933
1776554602425627400,0.67762744140625,-0.5480477237701415,-1.0677284541033207,0.17392507279813288
1776554602435668500,0.68766845703125,-0.21267653599679467,-0.5245910064674913,-0.6167183782838285
1776554602445708500,0.69770849609375,-0.4428858060747385,-0.03449190605804324,-1.046438997837156
1776554602455749600,0.70774951171875,-1.1033014333963393,0.5053082138486206,-0.8766749902412295
1776554602465789400,0.71778955078125,-1.3603256451636552,0.6478624352186918,-0.689971976673603
1776554602475830500,0.72783056640625,-0.860073691791296,0.5308303392484783,-0.5013935246229172
1776554602485871600,0.73787158203125,-1.779032703271508,0.376789970485121,0.17529110045433044
1776554602495911700,0.74791162109375,-2.61554022603631,-0.12457666613087057,0.4833347208410501
1776554602505952500,0.757952392578125,-2.746213601607084,-0.3210021784201264,1.077548275719583
1776554602515992600,0.76799267578125,-2.6615765855461357,-0.6942974386572838,2.0330396130442616
1776554602526033700,0.77803369140625,-2.017165752086043,-0.8032628402888774,2.205903486351669
1776554602536073500,0.788073486328125,-1.4717629898667335,-0.49193888305723665,1.7960422902613877
1776554602546114600,0.798114501953125,-0.8674129486382007,-0.02453165305778384,1.0992688168793916
1776554602556154400,0.808154296875,-0.9314099122524261,0.4317578244693577,0.916710063509643
1776554602566195500,0.818195556640625,-1.6802590253084897,0.9218298907414079,0.801169375140965
1776554602576235500,0.828235595703125,-2.446382513770461,1.3339035021841525,0.6659943042367696
1776554602586276600,0.838276611328125,-2.4632331108063457,1.1426008858665824,0.8701806597858667
1776554602596317400,0.8483173828125,-2.1628893972724677,0.8908169128403067,0.8751622475907206
1776554602606357500,0.858357421875,-1.5303057797282933,0.9623267363026737,0.48311698643714185
1776554602616398600,0.868398681640625,-0.050042672541737554,0.8445011518672109,0.3251100521303713
1776554602626438700,0.878438720703125,0.417614002174139,0.5945856030613184,0.22143661942705511
1776554602636479700,0.888479736328125,0.28599019401073456,-0.05047025030404329,-0.152463328704983
1776554602646519600,0.89851953125,0.9050275167614221,-1.0091437247961759,-0.5843649455592036
1776554602656560600,0.908560546875,0.9957605116099119,-1.6106705252975224,-1.0387743084281682
1776554602666600400,0.918600341796875,-0.08708090208172797,-1.5767399063840508,-1.3102839955352246
1776554602676641500,0.9286416015625,-1.3036737836152315,-0.5753372972339391,-1.4820855003081261
1776554602686681600,0.938681640625,-0.9385516007006168,0.9948486574620008,-0.1741140925642103
1776554602696722400,0.948722412109375,-1.3206290100693703,1.00599344407171,1.5043293346896767
1776554602706763500,0.958763427734375,-2.377501869767904,2.090722278945148,0.9417813033368438
1776554602716803600,0.968803466796875,-3.3860926368564366,3.1016084634944794,0.4580871015336364
1776554602726844700,0.9788447265625,-2.211949488517642,1.7804203582376241,-1.3535453373737631
1776554602736884500,0.988884521484375,-1.3584241954565048,-0.042429567189514635,-1.1991541093461215
1776554602746925600,0.998925537109375,-2.0558231072604656,-0.39263621278405186,0.01975855690445751
1776554602756965600,1.008965576171875,-2.193808267149329,0.9357003029227257,-0.19139329027570784
1776554602767006700,1.0190068359375,-2.1496201658546923,2.174061656410992,-0.9431535415381193
1776554602777046500,1.029046630859375,-2.5946388923048973,2.815593719564378,-1.0481388605576007
1776554602787087600,1.039087646484375,-1.5684312199831008,3.6862937270492315,-0.5824364617146551
1776554602797127400,1.04912744140625,-1.4115607423603533,3.7151284841284156,0.9695556646429002
1776554602807168500,1.05916845703125,-2.911619852384925,3.314125132754445,1.039699241253361
1776554602817209600,1.069209716796875,-3.3100212045669553,3.801738261567056,0.000450520246475935
1776554602827249400,1.07924951171875,-3.5817759524762627,4.27919941419959,-0.9910806832306086
1776554602837290500,1.08929052734375,-3.8541064544469115,4.360027101105452,-1.1534079649545252
1776554602847330600,1.09933056640625,-2.7606740886360406,4.0197248866707085,-1.3118553365051746
1776554602857371600,1.10937158203125,-2.4585078358501193,3.396162195450067,-1.9204380468674003
1776554602867411700,1.11941162109375,-1.2544400893688201,3.456022205390036,-1.102252216604352
1776554602877452500,1.12945263671875,-0.5353220977097749,4.317890963904559,-0.7393697754405438
1776554602887492600,1.13949267578125,0.44002807855606074,5.32781882481575,-2.2147826661169527
1776554602897533700,1.14953369140625,1.1248463257282972,4.780224105510116,-3.4519068790256977
1776554602907573500,1.159573486328125,1.4635107098281384,3.966828870524466,-3.421773022046685
1776554602917614300,1.1696142578125,3.2612212255626916,3.0004896837100383,-2.8378242560729383
1776554602927655400,1.179655517578125,4.64269019652009,3.0767090000376105,-2.704208689570427
1776554602937695500,1.189695556640625,5.182723540660739,3.6828619990348814,-3.6310631304755803
1776554602947736600,1.199736572265625,5.302581507706642,5.092362886255979,-4.901978846088052
1776554602957776400,1.2097763671875,5.307967292398214,6.4988505631357425,-6.649754825830459
1776554602967817200,1.219817138671875,4.025619205406308,6.27132424853146,-7.9859028920710085
1776554602977857300,1.229857177734375,3.2285669101953505,4.91059879039526,-7.8003125159204005
1776554602987898400,1.2398984375,2.294304531121254,4.671197329080105,-8.062246127039193
1776554602997938400,1.2499384765625,2.2453712811261415,5.637720640289783,-9.162671712738275
1776554603007979500,1.2599794921875,2.5672411822915078,7.26802116420865,-10.5323222356081
1776554603018020400,1.270020263671875,2.712462138652801,7.77069596081376,-11.227287198263406
1776554603028060400,1.280060302734375,2.7808681508809325,7.2925079552114,-10.685057805383204
1776554603038101500,1.2901015625,2.9789807394742964,6.188135677713156,-9.046437781408429
1776554603048141300,1.300141357421875,2.9681594857305287,4.993689746057987,-6.841143659126758
1776554603058182100,1.31018212890625,2.658655729663372,4.310140788169205,-4.598602632990479
1776554603068222200,1.32022216796875,2.1419155828267336,4.409112911313772,-2.098963745328784
1776554603078263300,1.33026318359375,1.6450275529295204,4.444848241561651,0.13102876487970352
1776554603088303400,1.340303466796875,2.6469664609134194,6.15755933766365,2.330750639986992
1776554603098344400,1.350344482421875,4.6075493250340225,7.002719537961482,4.281816318699717
1776554603108384300,1.36038427734375,5.980973521223664,6.667375822716951,6.859066269308328
1776554603118425300,1.37042529296875,7.5809829517751925,5.500632721501589,8.680380363470315
1776554603128466400,1.380466552734375,8.414988136330246,4.69412695376873,10.783495967781542
1776554603138506500,1.390506591796875,7.4157421206921335,3.720741355574131,12.15437749375105
1776554603148547300,1.40054736328125,6.154331023266911,1.9702771596610544,12.576533231008051
1776554603158587400,1.41058740234375,4.685718021863699,0.6653909315161407,12.810544231456518
1776554603168628500,1.42062841796875,3.395245665127039,0.021478987488895655,12.059179920709132
1776554603178668300,1.430668212890625,2.0082044469952582,-0.7237601183764636,11.194482660770415
1776554603188709400,1.44070947265625,1.0013391885250806,-1.4256269693747161,10.890493868732452
1776554603198749200,1.450749267578125,0.7611930463224649,-2.1656807815566657,10.521924760234356
1776554603208790300,1.460790283203125,0.6495838521838188,-2.26453687710613,9.562155599460006
1776554603218830300,1.470830322265625,0.5320177954673767,-1.8339523341998456,8.77429491096437
1776554603228871400,1.480871337890625,-0.1613414855569601,-2.6358842181459066,8.366753974515198
1776554603238912300,1.490912353515625,-1.0078522236809133,-3.928213600926101,8.396264731159805
1776554603248952300,1.500952392578125,-2.028800660300255,-4.468826790781319,8.030588421493768
1776554603258993400,1.510993408203125,-3.0763655934274197,-4.674678449194133,7.390114927482604
1776554603269033500,1.521033447265625,-3.326015477034449,-4.694517122130096,6.515926201099157
1776554603279074300,1.53107421875,-3.4547993855968118,-4.432834270901978,5.861787169829011
1776554603289114000,1.541114013671875,-3.5673803473770618,-4.1891126083001495,5.100621011513471
1776554603299155200,1.5511552734375,-3.417280386802554,-3.8290839491322632,3.956166314473748
1776554603309195300,1.5611953125,-3.649861062186956,-3.565927225959301,2.9547429547965525
1776554603319236400,1.571236328125,-3.7798230746179815,-3.3655352942571044,2.1485189266145226
1776554603329276400,1.5812763671875,-4.042022058674693,-3.106933750170469,1.7001590730428695
1776554603339317200,1.591317138671875,-4.550726490832865,-3.2885411941647527,1.9384049345821142
1776554603349358300,1.6013583984375,-4.629954925848543,-3.619927988477051,2.1418279045432804
1776554603359398400,1.6113984375,-4.7171606233537196,-3.130231623649597,1.9922744719356298
1776554603369439500,1.621439453125,-4.353712511131167,-2.9192984241887925,1.5183230809897184
1776554603379479300,1.631479248046875,-3.7099306232243774,-2.6386604048609734,1.0686632507354021
1776554603389520400,1.641520263671875,-3.045512190002203,-2.163323112514615,0.6001952596366406
1776554603399560400,1.651560546875,-2.235866662938893,-1.7230612252026796,0.3580032908201217
1776554603409601500,1.6616015625,-1.6851162560813129,-1.4091680020049213,0.39823125631213185
1776554603419641300,1.671641357421875,-1.4095692762821912,-1.0694397880658506,0.03674479955136776
1776554603429682200,1.68168212890625,-1.8738930071830748,-1.2088757312849163,-0.3364829484075308
1776554603439723300,1.69172314453125,-1.342812638696283,-0.9244745600312948,0.763815211519599
1776554603449763300,1.701763427734375,-0.9425263495504855,-0.916124664837122,0.782953627231717
1776554603459804400,1.711804443359375,-0.5892758062154054,-0.6787324975177645,0.6830652660250663
1776554603469844200,1.72184423828125,-0.4226772769130766,-0.20590163503438233,0.2146978126913309
1776554603479885300,1.73188525390625,-0.6204127027571201,0.14497574942857025,0.33140929840505123
1776554603489925400,1.74192529296875,-1.0058131190687418,-0.1417100256308913,0.4261462681978941
1776554603499966500,1.751966552734375,-1.6665169156819581,-0.8038844793185591,0.5411901129603386
1776554603510006500,1.762006591796875,-1.7784674706041812,-1.0037900888085365,0.5035369663923979
1776554603520047400,1.77204736328125,-1.4540822256170212,-0.8751756915941834,0.06372399189174174
1776554603530087400,1.78208740234375,-1.1585422591030596,-0.8310958729796111,-0.523173394754529
1776554603540128500,1.79212841796875,-0.9701297382038087,-1.036591849822551,-0.5631301420897246
1776554603550169300,1.80216943359375,-1.2075123339772225,-1.8018185355752705,0.1148474454075098
1776554603560209200,1.812209228515625,-1.6468221812613308,-2.670490836624801,0.5967617780566216
1776554603570250200,1.822250244140625,-1.7426900547802446,-3.141260967186093,0.7998772895038128
1776554603580290300,1.832290283203125,-1.894940325256437,-3.517375084236264,0.8692582842439412
1776554603590331400,1.842331298828125,-1.356010120052099,-3.683426062658429,0.7724293106079101
1776554603600371500,1.852371337890625,-0.7699522529698908,-3.651123629468679,1.0486638342797756
1776554603610412300,1.862412353515625,-0.5770110756650567,-3.659744158297777,1.5472376253068447
1776554603620452400,1.872452392578125,-0.22933950150609014,-3.7125562955528495,1.7219149777770042
1776554603630493400,1.882493408203125,-0.4336830934435129,-3.8886391309067605,2.284080074226856
1776554603640534500,1.892534423828125,-0.7716092263966798,-3.9301249875053763,2.436095513033867
1776554603650574300,1.90257421875,-1.1006675777614117,-3.6427211273044344,2.5975515648812055
1776554603660615400,1.912615478515625,-0.9382356666192412,-3.1606729391425845,3.3689608847916124
1776554603670655200,1.9226552734375,-0.6360635686144233,-2.7691818047404286,4.4123090770065785
1776554603680696300,1.9326962890625,-0.7917825381144881,-2.616503810371458,4.1605987537384035
1776554603690736400,1.942736328125,-0.8043401141315698,-2.1914345237553117,3.3589924484848974
1776554603700777200,1.952777099609375,-0.3944435544669628,-2.151676659993082,2.4584932228028773
1776554603710817300,1.9628173828125,0.09442278927713632,-1.42643580153957,1.7814543774604796
1776554603720858400,1.9728583984375,0.3540428627565503,0.18218524388223886,1.8522727115273474
1776554603730899500,1.9828994140625,-0.3529804942220449,0.6120456006998196,0.8056254777669906
1776554603740939300,1.992939208984375,-0.7224339843392372,-0.7686016420785338,0.7642477577179669
1776554603750980400,2.00298046875,-0.6923959889501333,-0.6819337777771055,0.6625725130945443
1776554603761020400,2.0130205078125,0.03812485573291778,-1.0992070767547935,1.0390706610262392
1776554603771061500,2.0230615234375,0.8864645628497004,-0.28375775878354903,1.4174316802203655
1776554603781101600,2.0331015625,1.7150199575662612,1.2212772399574519,1.417837338411808
1776554603791142400,2.043142333984375,2.2756880934566257,2.1487952593378723,0.5802525418043136
1776554603801182200,2.05318212890625,3.5539977187126874,2.204231023094803,-0.9486024545937776
1776554603811223300,2.063223388671875,3.979488153350353,2.2672888061627745,-1.4225287110984324
1776554603821263400,2.073263427734375,3.670895082387328,2.8898928814843297,-1.3766326368421316
1776554603831304200,2.08330419921875,3.5105811863124368,3.1263951142266393,-1.982548027691245
1776554603841345300,2.09334521484375,3.082903470763564,2.3656737770691514,-2.007472041067481
1776554603851385300,2.10338525390625,3.209915401217341,1.9965344674676655,-1.4446791681081055
1776554603861426400,2.113426513671875,3.7868086957216263,2.3860893731102344,-0.5633645353674889
1776554603871466500,2.123466552734375,3.7547020773649216,2.962196485672891,-0.019590835654735565
1776554603881507300,2.13350732421875,3.964702087628841,3.3774653860256074,-0.2622738028585911
1776554603891547400,2.14354736328125,2.6735183677524326,4.123962090736628,-0.6319225232869387
1776554603901588500,2.15358837890625,1.3362661396622657,4.707957618461549,-1.7599083160847424
1776554603911628300,2.163628173828125,-0.0004541735082864761,4.826959260939061,-3.1542443673998117
1776554603921669000,2.173669189453125,-0.8167658804625272,4.106027497856319,-2.4242665435522794
1776554603931710200,2.183710205078125,-1.032562594306469,3.8851910362794992,-0.47923313074111934
1776554603941750300,2.193750244140625,-1.1846581126123665,4.6129234192878,-0.795139739587903
1776554603951791400,2.203791259765625,-1.3358102125883102,4.022401412403584,-2.8135212972044945
1776554603961832000,2.21383203125,-0.7105307805776596,3.25224384611994,-3.178445327198505
1776554603971872800,2.223872802734375,-0.7345277422368526,2.703204480963945,-2.7821868322640655
1776554603981912800,2.233912841796875,-3.2453982180088756,0.9166393363609909,-6.869179667043685
1776554603991954000,2.243953857421875,-0.28059154983758927,0.8665709448561072,-7.1623635719507925
1776554604001994000,2.253993896484375,0.40493806047439573,1.379244865167141,-2.9595401259452103
1776554604012034800,2.264034912109375,0.16383680950403212,3.043290422299504,-1.2600485769003629
1776554604022076000,2.274075927734375,2.010321585279703,4.154124881549179,-0.5533014065146445
1776554604032115700,2.28411572265625,2.2928204300433395,4.456949598243832,0.05931961945295334
1776554604042156800,2.29415673828125,1.5831003813266753,3.7379531871378417,0.48160102891623974
1776554604052196900,2.30419677734375,0.8000865483403206,2.365493452066183,-0.007409399473667144
1776554604062237700,2.31423779296875,-0.9052654171705246,0.931581761687994,0.47553486074507234
1776554604072277800,2.32427783203125,-1.0766168400883673,-1.299920276300609,0.8404103754222393
1776554604082318800,2.33431884765625,-0.6700532242387532,-2.3805764549076556,2.3905355388641354
1776554604092359000,2.34435888671875,-0.30778818432092664,-1.7637996244348584,5.149179582977295
1776554604102399700,2.354399658203125,1.0624316628694535,-0.22274404876381157,5.847865611982345
1776554604112440800,2.36444091796875,2.3559587310016155,1.9012043540872632,5.275906266748905
1776554604122481000,2.37448095703125,1.8082085288733243,3.0817607304692265,3.7568390893936154
1776554604132522000,2.38452197265625,0.9227917215108871,1.3392168061614036,2.577314832538366
1776554604142561800,2.394561767578125,-1.187042961922288,-3.063012483118474,3.3895465767025947
1776554604152603000,2.404602783203125,-1.832558541753888,-5.156867214870452,4.471486657640337
1776554604162642700,2.414642578125,-2.5551392410874367,-3.3971164274349808,4.840979895246028
1776554604172683800,2.424683837890625,-1.4767553913265465,-0.8186338662914932,3.19484876498878
1776554604182724600,2.434724609375,-0.9106564625591039,-1.2408273052103818,1.7320201922059058
1776554604192764700,2.4447646484375,-0.8501298054039478,-2.3999127312794326,1.739496811696887
1776554604202805800,2.4548056640625,-2.019506177732348,-3.878369665826857,4.050156265291571
1776554604212845800,2.464845703125,-2.7884347867429256,-5.341742720749974,7.532667541417479
1776554604222887000,2.474886962890625,-2.03378897010684,-4.5405455808192485,9.269204334264993
1776554604232926700,2.4849267578125,-0.8488754214286803,-3.1456156552642582,8.445432958954573
1776554604242967800,2.4949677734375,-0.0897463218986988,-2.107124255430698,6.93674046061933
1776554604253008000,2.5050078125,-1.5303209772974251,-2.0162828317716714,5.813139166516065
1776554604263049000,2.515049072265625,-1.997872438073158,-3.209650905062258,6.187414377701282
1776554604273089800,2.52508984375,-1.5005530310213564,-4.9502229447752235,9.07314400202632
1776554604283129600,2.535129638671875,0.33824060572981834,-0.9605614801958203,7.869792294859885
1776554604293171000,2.5451708984375,3.9734833599776027,1.4593462836250661,5.665321179398894
1776554604303210800,2.555210693359375,5.446503071907163,1.819301877556741,4.038706065994501
1776554604313251800,2.565251953125,4.503353622022271,3.5363469112098214,0.8347294071763753
1776554604323292000,2.5752919921875,2.9062703080505132,4.731383794495463,-4.102916380098462
1776554604333332700,2.585332763671875,4.089134522983431,3.5990076577842234,-1.9312422033458947
1776554604343372800,2.595372802734375,4.0907933961063625,6.879737885937094,-6.550847292354702
1776554604353414000,2.605413818359375,4.3102211599290365,7.745497806671262,-8.325580252605675
1776554604363454700,2.615454833984375,2.6946517566740513,5.910410038700699,-7.144491230651735
1776554604373494800,2.625494873046875,0.4705050498843193,5.4967374676287175,-9.057511548608542
1776554604383535900,2.635535888671875,-4.691542782494426,3.8903561639577147,-6.190542738854885
1776554604393576000,2.645575927734375,-8.421589142030477,1.5869617329299448,-4.67417137645483
1776554604403617000,2.655616943359375,-1.3768448182880877,1.3016823175370693,-7.1591966323524705
1776554604413656800,2.66565673828125,-1.7461299661010503,2.4030296942561864,-5.183628380545973
1776554604423697700,2.67569775390625,0.6598761136174202,3.8162235907763242,-6.744249219039082
1776554604433738800,2.68573876953125,1.5693641169190407,6.058118720224499,-7.472658186134695
1776554604443778800,2.69577880859375,0.6511795969426631,6.682571638283133,-6.447465828335285
1776554604453819600,2.705819580078125,-0.23368775984346865,5.491736882862448,-5.402765636989474
1776554604463859700,2.715859619140625,-2.6121786406487226,5.0854187662065025,-4.526992856284976
1776554604473900800,2.72590087890625,-5.002267020267248,3.2616023338347673,-4.087397323927283
1776554604483940900,2.73594091796875,-6.582246054702996,0.29083880308568477,-2.184879110762477
1776554604493982000,2.74598193359375,-9.21106077285409,-0.19169862989783287,-0.6054869363039732
1776554604504021800,2.756021728515625,-7.101357022324204,1.5485867018282413,-0.8889899896740913
1776554604514062800,2.766062744140625,-2.647122528257966,2.2584014430910346,-0.41716275127530095
1776554604524104000,2.77610400390625,-0.5145809229761362,2.265835392484069,-0.47455286397039886
1776554604534144000,2.78614404296875,0.8082073109537362,3.3994928011775016,-2.2176292877197263
1776554604544184800,2.796184814453125,3.913828809481859,2.794536610749364,-0.947165699788928
1776554604554224600,2.806224609375,4.782874912279844,2.4447987517103553,-0.3222872497946024
1776554604564265700,2.816265625,4.590889866656065,2.0176316160321233,0.09850888954699039
1776554604574305800,2.826305908203125,2.530200614663958,1.1233692389130592,0.4172176963329315
1776554604584347000,2.836346923828125,1.559987801286578,2.595224875499308,-1.0026379961639642
1776554604594387700,2.8463876953125,3.0610131259948012,4.006003235310316,-2.6729578112602232
1776554604604427800,2.856427734375,4.427171715095639,4.981958391731977,-3.7843297383874654
1776554604614468900,2.86646875,4.843043257516622,4.066619908836484,-5.824375430801511
1776554604624509000,2.876509033203125,3.001197247457504,5.558806093528866,-6.217066004121303
1776554604634549800,2.8865498046875,1.0369307263880967,7.350426475694775,-5.7881315665096045
1776554604644589800,2.89658984375,2.7798294554829597,9.918740255653857,-3.5309172873765227
1776554604654631000,2.906630859375,4.330726187819242,11.843912199175357,-3.9858161873281
1776554604664672000,2.916672119140625,4.537490284901857,10.098598810154199,-2.575493462330103
1776554604674711800,2.9267119140625,0.31900399034023286,9.899570275759697,3.6424955018550156
1776554604684752600,2.936752685546875,-4.3068706804573536,10.148158083093167,9.788862414374947
1776554604694792700,2.946792724609375,-6.3377966623485085,0.04153291061073541,14.9934903283298
1776554604704833800,2.956833740234375,-8.350790681707858,-7.626024455028772,16.89842729307413
1776554604714873900,2.966873779296875,-7.327836458224057,-4.2548131609618665,11.892450896894932
1776554604724914700,2.976914794921875,-4.220667145732045,0.1872258683979511,6.585883534422517
1776554604734954800,2.986954833984375,-4.587943876332044,-1.9318354930639265,10.100753357839583
1776554604744995800,2.996995849609375,-7.117791439774632,-6.2656736754238604,16.470795754754544
1776554604755037000,3.007036865234375,-8.209097899472713,-6.440158135670423,15.43158130134344
1776554604765077000,3.017076904296875,-8.567634858778119,-5.391777794507146,10.396397515380382
1776554604775117800,3.027117919921875,-7.557217460784315,-5.445319999602437,5.770226491984725
1776554604785158000,3.037157958984375,-5.770948376518487,-5.952839898151159,4.683991344201565
1776554604795199000,3.047198974609375,-3.287701820731163,-7.0148080351620905,4.92824024554789
1776554604805238800,3.05723876953125,0.017031798821687698,-7.419127086955308,5.246826302736998
1776554604815279600,3.067279541015625,2.740260830682516,-6.817171247386932,5.33121197438538
1776554604825319700,3.077319580078125,2.823504931080341,-5.341622309240699,4.386172765231132
1776554604835360800,3.08736083984375,2.307190900701284,-2.700955532993376,3.4710698446571824
1776554604845401900,3.09740185546875,-0.5592196906477213,-1.7482593793451786,5.067897138041258
1776554604855442000,3.10744189453125,-3.7014275832951067,-2.098155936077237,6.387785558876395
1776554604865482800,3.117482666015625,-4.978792621177434,-1.5965075599104166,7.4259472883641715
1776554604875522800,3.127522705078125,-3.5103427013814446,-1.8069862936019896,8.497391694250702
1776554604885564000,3.13756396484375,-2.335402849707007,-2.328246986602992,8.944543341076374
1776554604895604000,3.14760400390625,-1.883303809607029,-1.7089754167050122,8.572977973371744
1776554604905644800,3.157644775390625,2.371674186527729,1.4846877917610108,7.087007009932399
1776554604915686000,3.167685791015625,2.7719524384975434,6.239338041684031,4.1350194913238285
1776554604925725700,3.1777255859375,2.79180163282752,8.345500758606194,0.5458323858082295
1776554604935766800,3.187766845703125,1.6562825219154358,9.124912183186412,-3.661113108563423
1776554604945806800,3.197806884765625,0.5820055229514837,8.693216464167833,-5.4450645635366435
1776554604955847700,3.20784765625,-1.2122680040717124,7.60795629889667,-7.109127071803808
1776554604965887000,3.217886962890625,-2.2996564135432243,5.9800903086483475,-6.709867056965828
1776554604975928000,3.227927978515625,-3.4984839212834835,2.330427983903885,-4.332200936546921
1776554604985969200,3.23796923828125,-0.7609276733845471,-1.6204805561721325,-2.380912554994225
1776554604996009000,3.248009033203125,0.7611720035344361,-2.5825024643093344,-0.6828513310134411
1776554605006049800,3.2580498046875,0.3061766574710607,-0.35367607527077194,0.07959317667484284
1776554605016089900,3.26808984375,1.3432155204087495,4.499601576012373,-2.086924932488799
1776554605026131000,3.278130859375,2.3826538457036017,7.759984012663364,-4.391775407543778
1776554605036171000,3.2881708984375,3.7120553602933883,9.344847312009334,-6.322248380082845
1776554605046211800,3.2982119140625,2.7868688526004552,9.597449615681171,-6.9716019306421275
1776554605056253000,3.3082529296875,2.6496277890771625,7.1058578408747906,-6.301472718557715
1776554605066293000,3.31829296875,2.1019950758486985,5.311660886219143,-7.689000258901715
1776554605076334000,3.328333984375,0.013828618866205214,4.146618159180879,-6.873565919303894
1776554605086374100,3.3383740234375,-2.248528283852339,5.807890744468569,-6.922765126758813
1776554605096415000,3.3484150390625,-3.505562481367588,5.042559867689013,-5.983821896392107
1776554605106455000,3.358455078125,-4.80757563829422,4.080190169027447,-4.912438280782103
1776554605116496100,3.36849609375,-6.486169360738993,6.189212367033958,-4.057050116458535
1776554605126537000,3.378536865234375,-5.6521922332346435,6.1400692736804485,-3.724340256848931
1776554605136576800,3.38857666015625,-3.2237825985282655,6.680519381928444,-5.589207077011466
1776554605146617900,3.398617919921875,-0.43234278475046156,7.4117936753273,-6.017210955774784
1776554605156658000,3.408657958984375,2.0046061302423475,8.334608193191885,-4.886587215688825
1776554605166699000,3.418698974609375,0.837165694412589,7.020934409087896,-2.7698797238767146
1776554605176739000,3.428739013671875,1.5749603294909,7.415797650271654,-2.076492385801673
1776554605186780000,3.43877978515625,3.896764277434349,7.501509602087736,-2.5405548354178666
1776554605196820000,3.448820068359375,4.360281952649355,8.773176136067509,-3.797327751648426
1776554605206861000,3.458861083984375,3.61695598692894,9.774221310082078,-3.7218063544571396
1776554605216902100,3.468902099609375,2.1454291439056394,7.600395508253574,-1.0124883590489626
1776554605226942000,3.47894189453125,3.159291713917255,4.156310116633772,3.452003325137496
1776554605236983000,3.488983154296875,4.189218114501237,2.2074644520580766,6.792880271217227
1776554605247022800,3.49902294921875,4.515155703496933,1.1676792130216955,8.059635067757963
1776554605257064000,3.50906396484375,4.544353156408667,0.17946283318102357,9.475382155892252
1776554605267104000,3.51910400390625,2.1866648251354692,0.7975206433750689,9.162380620837212
1776554605277144800,3.529144775390625,-1.4574422035694121,-0.6556191868253052,11.04340947124958
1776554605287186000,3.53918603515625,-3.3496699088662862,-3.6457667786106467,12.768010911631583
1776554605297226000,3.54922607421875,-5.0140129876405,-4.94760077957809,10.394344674503802
1776554605307267000,3.55926708984375,-6.027970250198245,-2.1912857629343865,4.208792583543062
1776554605317307000,3.569306884765625,-7.258998484319448,-0.24511545504778623,3.324371801480651
1776554605327348000,3.579347900390625,-7.6448185873478645,-4.191328823044896,10.533362684571742
1776554605337388000,3.589387939453125,-6.112174135538935,-4.988264798399806,11.59836039853692
1776554605347429000,3.59942919921875,-4.416731569623947,-3.33140418433547,9.531562892797588
1776554605357470000,3.609469970703125,-2.9199732547104356,-1.7822601408854126,7.499372590059042
1776554605367510000,3.619510009765625,-2.198006303361058,-0.4033060753583908,4.845269116872549
1776554605377551000,3.629551025390625,-1.001213224057853,-0.4426066968724131,2.9744582936137913
1776554605387591000,3.6395908203125,0.5747393313407898,-0.9958917367741466,2.700221081238985
1776554605397632000,3.649632080078125,2.3711042776852844,-0.9956827701985835,2.3375807782679794
1776554605407671800,3.659671875,3.783939862287044,-0.41625265069305895,1.248373336675763
1776554605417713000,3.669712890625,3.9795752471119163,0.08963000204265117,-0.18253800284266472
1776554605427754000,3.67975390625,3.3935254172056912,0.5909481233417987,-1.2425836473584175
1776554605437794000,3.6897939453125,2.473494100318849,0.8717100613102317,-2.4612644410818816
1776554605447835000,3.6998349609375,2.025834796231985,0.33678514622449873,-2.3077169704020024
1776554605457875000,3.709875,1.4618611890554427,-0.23132775271385908,-1.2610580462038516
1776554605467916000,3.719916015625,0.6546890663683415,0.14780805024504662,0.7005436395704746
1776554605477956000,3.7299560546875,-0.2627142401024699,0.7755790068104863,0.7768582329660654
1776554605487997000,3.739996826171875,-0.9942135744288563,1.7519494660347699,0.4782020341277122
1776554605498038000,3.7500380859375,-1.1067305310621858,2.257436105190217,0.7280214290827512
1776554605508077800,3.760077880859375,-0.2491705756574869,1.9278300568148492,-0.047856560674309725
1776554605518119200,3.770119140625,-0.37057752571105956,2.6607734524697064,1.0453741450846195
1776554605528159000,3.780158935546875,-1.4351543839156626,4.120241608908772,1.7152110962241887
1776554605538199800,3.79019970703125,-0.32475919286608695,5.759851812964677,2.149863911482692
1776554605548240000,3.800239990234375,-1.2131482940375804,4.527127296319604,-0.610951631450653
1776554605558281000,3.810281005859375,-0.4257791884511709,2.5252000298976895,-2.1985440634995697
1776554605568322000,3.820322021484375,0.16781331191956997,1.373090141929686,-2.54862416010499
1776554605578362000,3.830362060546875,-0.2829986109793186,1.409107211728394,-3.217814045512676
1776554605588403000,3.84040283203125,-0.12162614576220512,0.5925409454911947,-4.527599590006471
1776554605598443000,3.850443115234375,0.4483326733037829,1.4240204109609127,-4.522672070476412
1776554605608484000,3.860484130859375,-0.548843258062005,2.1825503755539652,-3.2532050923675295
1776554605618524200,3.870524169921875,-2.435990006832778,2.7406162199914452,-2.541717449456453
1776554605628565000,3.88056494140625,-2.8369866362050176,3.0116458684965965,-2.4786715029567477
1776554605638606000,3.890606201171875,-2.3266385284930466,2.925804445081949,-2.3849890106528995
1776554605648646000,3.90064599609375,0.40603140866905446,0.07635083375275134,-3.5458325324356554
1776554605658687000,3.91068701171875,1.6054799709171055,-1.4331331072211264,-3.685523911720514
1776554605668727000,3.92072705078125,1.8967957438647747,-0.9151970285981893,-2.1371651734292505
1776554605678767900,3.930767822265625,2.3491736009061337,-1.6319579357370733,-0.5721481458038091
1776554605688808000,3.940807861328125,2.335000406385958,-2.2134254062891006,1.0242436787724494
1776554605698849000,3.95084912109375,1.1799886594966054,-3.544717556931078,2.027500099095702
1776554605708889900,3.960889892578125,-0.5638198779195547,-4.375300950343907,3.3421231467485426
1776554605718930000,3.970929931640625,-2.064313579969108,-5.445652008035779,6.0999348316907875
1776554605728971000,3.980970947265625,-2.3325229103565213,-6.660432287189364,6.645569064578414
1776554605739011000,3.991010986328125,-2.4942975266337393,-6.661451108843088,5.595934339439869
1776554605749052200,4.00105224609375,-1.2396236285090445,-4.807635844048858,4.640033544531464
1776554605759092000,4.011092041015625,-0.29124826066941023,-3.572277179507911,3.0249604003608224
1776554605769133000,4.021133056640625,0.7763128740429878,-1.9826590868502854,1.3760533756494522
1776554605779174100,4.031174072265625,0.9398281965076923,-0.9937938877120613,0.8100316037714481
1776554605789214000,4.0412138671875,0.33525486791729925,-1.3984554693326354,0.15130933636426924
1776554605799254800,4.0512548828125,-0.28333237297832964,-1.098426813097298,-0.4325847768127918
1776554605809294800,4.061294921875,-0.5041641583800316,-0.676933631402254,-0.642977585786581
1776554605819336000,4.0713359375,0.12996902669370175,-0.39899756450951096,-0.7599234647780656
1776554605829376000,4.0813759765625,-0.18856617709100246,1.0640630634635686,-0.48962943707108497
1776554605839417000,4.0914169921875,0.23425299251079557,1.0565879052773117,-1.1020663386434315
1776554605849458000,4.1014580078125,-0.29807226147055627,0.9473214748725295,-0.8262339660316705
1776554605859498000,4.111498046875,-0.5051455706328153,0.862740572912991,-0.37850247349143024
1776554605869539000,4.1215390625,-0.17226152350008486,0.8403490006238221,-0.05451718760728836
1776554605879579100,4.1315791015625,-0.2004723034620285,0.6641054217502474,0.07212298692464827
1776554605889620000,4.141619873046875,-0.9870967281609773,0.5457683806613087,0.22548925581872462
1776554605899661000,4.1516611328125,-1.6128309182018041,0.6919628582298756,0.8168021208196878
1776554605909700900,4.161700927734375,-1.8385873005241156,0.5092191036820412,1.151840715637803
1776554605919742000,4.171741943359375,-2.371440962293744,0.31731618338376283,1.6585680025041103
1776554605929782000,4.181781982421875,-1.1656278334498404,-0.6391057127892971,1.5939058529794214
1776554605939822800,4.19182275390625,0.14770926604568957,-0.1724205134540796,1.8331091613739727
1776554605949863000,4.20186279296875,1.6117314325273036,-0.22229016751646993,1.4260048627763986
1776554605959904300,4.211904296875,2.125200010347366,-0.2476172087356448,1.1351198824614286
1776554605969945000,4.221945068359375,4.895352121424675,-0.5745423474639654,0.05245148724913597
1776554605979985000,4.23198486328125,5.123535438632965,-1.960026399281621,0.0361287134796381
1776554605990026000,4.24202587890625,3.7278625857561822,-1.909600280380249,0.5483306323647499
1776554606000066000,4.252066162109375,1.046016534641385,0.4262409607440233,0.3744312785297632
1776554606010107100,4.262107177734375,0.8660521816790103,0.47105917663574215,-0.011537293058633803
1776554606020148000,4.27214794921875,2.075446091619134,-2.4787118349671364,-2.175777520418167
1776554606030188000,4.28218798828125,1.1208037723392248,-2.0142039796710014,-2.507827454814315
1776554606040229000,4.29222900390625,0.0938549262613058,-1.4937953734546898,-2.279005839702487
1776554606050269200,4.302269287109375,-0.31829321172237396,-0.4021341089695692,-2.476308280956745
1776554606060310000,4.31231005859375,-2.9803602111339567,0.7168506312489509,-1.9961223795354366
1776554606070350000,4.32235009765625,0.0648328299164772,-0.7243184829115867,-1.5522522385984658
1776554606080391200,4.33239111328125,-0.7578554263323545,-0.7420353413879871,-0.9349170435905456
1776554606090432300,4.342432373046875,-1.0873802261650563,-0.2735971609055996,-0.28447160614132877
1776554606100472300,4.352472412109375,0.7894295452475547,-0.5623322697103024,-0.020433131697773933
1776554606110513200,4.36251318359375,0.9167983263149857,-0.23528759625554083,0.1267243456840515
1776554606120553000,4.372552978515625,1.403368668076396,0.20693536199629306,-0.06039981590509414
1776554606130594000,4.382593994140625,1.3325567637503146,0.28165070350170135,-0.31605507740676403
1776554606140635100,4.39263525390625,0.4922802438408136,0.00339022696018219,-0.9914005628347397
1776554606150675000,4.402675048828125,-0.4060127039685845,0.2608598444074392,-0.9350415467530488
1776554606160716000,4.412716064453125,-1.981268217013776,0.9856664030969142,-0.15893033276200294
1776554606170756000,4.422756103515625,-2.833339804135263,1.3601257386773824,0.670533116710186
1776554606180797200,4.432797119140625,-2.2841353115454317,1.3418798878908156,1.363552790516615
1776554606190837200,4.442837158203125,-0.957467898094654,0.8563111243873834,1.749336653187871
1776554606200878000,4.452878173828125,-0.520767502656579,0.21225100406110287,2.0151842228800056
1776554606210919200,4.462919189453125,-0.47646366602778434,-0.32103871103823184,1.8585130672216414
1776554606220959200,4.472959228515625,-0.5048109318509698,-0.15168635298311708,0.8468950612664222
1776554606231000000,4.483,-0.3207069948658347,0.5707955621510744,-0.3857774329304695
1776554606241040000,4.493039794921875,0.10399433522075414,0.7016086384534835,-0.8060726370126009
1776554606251081000,4.5030810546875,0.1143985325962305,0.5005249250948429,-0.6394090796500445
1776554606261122000,4.5131220703125,-0.08325900570601225,0.2126239290267229,-0.10275368750989436
1776554606271162000,4.523162109375,-0.03534837675690651,0.11721300549507141,0.315937588506937
1776554606281203000,4.533202880859375,0.273574072290957,-0.05909808565676212,0.37445582844913006
1776554606291243000,4.543242919921875,0.622606121148169,-0.523427077254653,-0.06860767228007317
1776554606301284000,4.5532841796875,1.1094140710577367,-0.8214660209774971,-0.88985040589571
1776554606311324200,4.56332421875,1.4907187424883246,-0.6108125152409076,-1.4825877507418392
1776554606321365000,4.573364990234375,1.149375202307105,0.23104688994586467,-1.247582478559017
1776554606331406000,4.583406005859375,0.676952336102724,0.6136240655303001,-0.51117959010005
1776554606341446100,4.593446044921875,-0.01324935767352581,1.0174123714476824,-0.3161567842155695
1776554606351487200,4.6034873046875,-0.945104967866838,0.6996043128937482,0.11007423965632915
1776554606361527300,4.61352734375,-0.7148281855106353,-0.6133639532893895,0.7469096694260835
1776554606371568000,4.623568115234375,-0.2272936748921871,-1.3834119217187166,1.0252391195505857
1776554606381609200,4.633609130859375,-1.0023168013855814,-1.8920868355214595,1.3271446755737066
1776554606391649000,4.64364892578125,-0.6697513186827302,-2.621943078815937,0.37916532131433484
1776554606401690000,4.653690185546875,-0.9919140653148293,-2.2916344351291653,-0.5620359171122312
1776554606411730200,4.663730224609375,-1.0767597556903958,-1.8564502894729376,-0.860164877206087
1776554606421771000,4.67377099609375,-0.29872371111661195,-2.082821588823199,-0.8799871835291385
1776554606431811000,4.68381103515625,0.12394932801276444,-2.2052532057493925,-0.7218126375705003
1776554606441852200,4.69385205078125,0.48003173377290365,-1.9096406123906373,-0.7093044536530971
1776554606451893000,4.70389306640625,0.8048556624382733,-1.5156360338628292,-0.9120932173639535
1776554606461933000,4.71393310546875,1.1916682836353778,-1.459676830753684,-1.085830658635497
1776554606471974100,4.72397412109375,1.4663586466051637,-1.9062778579592703,-1.253839785388112
1776554606482014200,4.73401416015625,0.7777063742280006,-1.9935896461874245,-1.2152309455305337
1776554606492055300,4.74405517578125,-0.14426438628882168,-1.4315256720244884,-0.6452402700215578
1776554606502096100,4.75409619140625,-0.9729203187704085,-0.8701058409839868,0.4098889608800411
1776554606512136200,4.76413623046875,-1.053219013366103,-0.7788084902510046,1.5705746617525815
1776554606522177300,4.77417724609375,-0.6722085025765001,-0.5999316402643918,2.4593694211155173
1776554606532217000,4.784217041015625,-0.07841010437011718,-0.3449880341634154,3.2048966962724923
1776554606542258000,4.7942578125,0.5703887349158525,-0.5989496434897184,3.794285899734497
1776554606552299000,4.804299072265625,1.196026478844881,-0.5712634719237685,3.708371703344583
1776554606562339000,4.814339111328125,1.3302514094173907,-0.03775280755013227,3.0630449240833517
1776554606572380200,4.824380126953125,-0.013896350340172647,1.1242419300943611,2.9958751756519075
1776554606582420200,4.834420166015625,-0.6108762281268835,1.8358610904306172,2.8453923532396552
1776554606592461000,4.8444609375,-0.4729454287737608,1.0995768599152564,2.6920424509584904
1776554606602501000,4.854501220703125,-0.5756856722801923,0.6153717859804629,2.7354946391940116
1776554606612542200,4.864542236328125,-1.0419481892239302,0.3959492828547954,2.4340835886895653
1776554606622583000,4.8745830078125,-1.0234247636049985,0.16923428463339804,2.24184895221889
1776554606632623000,4.884623046875,-0.5775846377693117,0.14127660264968872,1.9043723165988922
1776554606642664200,4.894664306640625,0.45742834536395965,-0.36571430358886714,1.0009726933002472
1776554606652704000,4.9047041015625,0.04142930410578847,-0.9614718730390072,0.5572311471790075
1776554606662745000,4.9147451171875,0.15555632628425956,1.4262866023272276,-1.0287141021847723
1776554606672786000,4.924785888671875,0.6931026759147644,0.7401777308225631,-2.2875047879785297
1776554606682826000,4.934825927734375,1.4890708291508257,-0.2221083812087774,-1.9418921921759842
1776554606692867000,4.9448671875,1.8799441239155827,-0.125486912843585,-1.5974907257288693
1776554606702907100,4.9549072265625,1.5118516930185257,0.3700970487177372,-1.4183639926344156
1776554606712948000,4.964947998046875,1.5318138462036848,1.2864941007554531,-1.8119290107011794
1776554606722989000,4.974989013671875,0.931143370270729,1.864604954355955,-2.6370781041055915
1776554606733029000,4.985029052734375,-0.4295557843804359,1.7264163808494806,-2.7522593115121126
1776554606743070200,4.9950703125,-0.8553438867904245,0.9228308844774961,-2.038335965886712
1776554606753110300,5.0051103515625,-0.777725225058943,0.25252631582617757,-1.3050310434430836
1776554606763151000,5.015151123046875,-0.19897994601242244,-0.9872440276771783,-0.6800982329130172
1776554606773192200,5.025192138671875,-0.02214176224656403,-2.6188591413259505,0.39671617557406424
1776554606783232300,5.035232177734375,0.38669396325349803,-4.327358464951813,1.0984709444999694
1776554606793273000,5.045273193359375,-0.6104098527241498,-4.038814202544093,1.984071876257658
1776554606803313000,5.05531298828125,-1.159639991211891,-0.5079968684107065,2.0324913315117357
1776554606813354000,5.06535400390625,-0.8862696247994899,0.0024497312396764754,2.5821727939635513
1776554606823394000,5.07539404296875,-0.8588678231328726,0.5895709897696971,4.4706905388265845
1776554606833435100,5.08543505859375,-1.2706143945783377,2.039624544392526,5.674398804345727
1776554606843476000,5.09547607421875,0.007906827601790428,1.7126193261653184,5.843949899843335
1776554606853516000,5.10551611328125,-0.9895108766306191,-1.1276651825413107,6.744932525128125
1776554606863557000,5.11555712890625,-0.04254493719749152,0.3525882800340652,6.256117327049374
1776554606873597200,5.12559716796875,0.33733284323513507,1.1200096993520856,4.9698400839149945
1776554606883638000,5.135637939453125,0.6321924262695015,6.63431058846116,2.724332024666667
1776554606893679000,5.14567919921875,0.03982362247481942,5.429003071051835,-0.09877718509435653
1776554606903719200,5.15571923828125,1.1527929017961025,-1.4762693613752722,-2.020750624835491
1776554606913760300,5.16576025390625,2.201139340689778,-4.173465249574184,-1.8078227444261312
1776554606923800000,5.175800048828125,3.037788610012829,2.375492868033051,-2.902669068688154
1776554606933841000,5.1858408203125,2.023526227028668,5.533645348787307,-4.712127889883518
1776554606943881000,5.195880859375,1.989631263950467,5.292487983715534,-7.7880533383280035
1776554606953922000,5.205922119140625,1.4585434428095816,5.855099070367217,-10.052719687032699
1776554606963963400,5.21596337890625,0.6803817260295152,6.700561468482017,-11.104553968042135
1776554606974003500,5.22600341796875,1.0305921710163355,5.416266923597455,-9.650243048235774
1776554606984044500,5.23604443359375,-0.5103431392759085,4.033114529597759,-5.886206156292557
1776554606994084400,5.24608447265625,-1.3596891008257865,3.9273809494942427,-2.6922955489367246
1776554607004125400,5.25612548828125,-0.36013387310802936,3.538993041804433,-1.6155746639519928
1776554607014166300,5.266166259765625,-0.25808278090953823,3.279364200496673,-1.240372401049733
1776554607024206300,5.276206298828125,-0.3449140921443701,2.5011042840391395,-1.0762731412172317
1776554607034247400,5.286247314453125,-0.15800328104496,1.860116849156469,-0.8373217617571354
1776554607044287500,5.29628759765625,0.6910775998279451,1.57572488412261,-1.2643307842642069
1776554607054328300,5.306328369140625,0.6831932763189077,1.3335051505163311,-0.9400584981322287
1776554607064369400,5.316369384765625,0.5152002239182591,0.6699969640068709,-0.18681962568461893
1776554607074409500,5.326409423828125,0.5828251687712968,0.590746171028912,0.28232874889373777
1776554607084450600,5.336450439453125,0.1333697750478983,0.5614084328636527,0.8177630748063326
1776554607094490600,5.34649072265625,-0.09738733817115426,0.8089666048884391,1.2686995008677244
1776554607104531500,5.356531494140625,-0.6670265698939561,0.6054068568050861,1.286830200842023
1776554607114571300,5.3665712890625,-0.8856208055019378,-0.08899462674856186,1.2677344552278518
1776554607124612400,5.3766123046875,-0.5637332225494086,0.0520513820156455,1.4812936192780732
1776554607134653400,5.3866533203125,-0.9431715155862271,0.5184796839803457,1.0755091711074114
1776554607144693200,5.396693359375,-0.42535833269059653,-0.14901479568630457,0.39307986489832397
1776554607154734300,5.406734375,-0.006498714369535446,0.1182499473273754,-0.27332477370500563
1776554607164774400,5.4167744140625,-0.03192483204901218,0.9349231810703873,-0.7770283288359642
1776554607174815500,5.4268154296875,-0.18985490172728894,2.47020002720952,-1.381044608065486
1776554607184856300,5.436856201171875,-0.14272475563138723,2.184328198881447,-1.8214046950548886
1776554607194896400,5.446896484375,0.1945693630285561,1.266328095561266,-1.9280296710401772
1776554607204937500,5.4569375,0.49261809749305246,0.7184145195648074,-1.572687123861909
1776554607214977500,5.4669775390625,0.7365900815941393,0.4045201273232698,-1.0394722275644541
1776554607225018600,5.4770185546875,0.8610470668680965,0.4004910179376602,-0.23654022666513919
1776554607235059500,5.4870595703125,0.7464339416731148,0.5081126037448644,0.4702729946941137
1776554607245099500,5.497099609375,0.7134984712768345,0.9506324991166591,0.5456470923691987
1776554607255140600,5.507140625,0.375690996267274,0.7599073904260992,0.913672010987997
1776554607265180400,5.517180419921875,0.3512866228509694,0.19971943926811217,1.563492594537139
1776554607275221200,5.52722119140625,0.5511803227074444,0.33545652796924114,1.942526982948184
1776554607285261300,5.53726123046875,0.2828700892288238,0.8233183708459139,2.183016239500046
1776554607295302400,5.547302490234375,-0.42215164560377594,1.8946055403441189,2.0359142916977406
1776554607305343500,5.557343505859375,-0.9207640150755644,2.073594910794496,2.1665613637834786
1776554607315383600,5.567383544921875,-1.403424197655916,1.500725464978814,2.4358108508735894
1776554607325424400,5.57742431640625,-1.6013064846247433,0.15820961727201938,2.8275141667217016
1776554607335464400,5.58746435546875,-1.896464904475212,-1.8131611828446388,3.3925843369632958
1776554607345505500,5.597505615234375,-2.2842922556728125,-1.1135381652504206,4.061365641570091
1776554607355546400,5.60754638671875,-2.6065175461471077,-0.07899871791303158,5.215829106926917
1776554607365586400,5.61758642578125,-2.856361491021514,-1.0217793344855308,6.160936120620369
1776554607375627500,5.62762744140625,-1.900056060834974,-1.900799134287238,5.857911789700388
1776554607385667300,5.637667236328125,0.5025188753910362,-2.9078093541860577,4.16739323618412
1776554607395708400,5.64770849609375,2.052178759408742,-3.3905449400901793,2.2825310912191865
1776554607405748500,5.65774853515625,2.848060111144185,-3.562058860093355,0.3914280060380697
1776554607415789300,5.667789306640625,2.4506476238690316,-2.890126982501149,-0.6857511441081762
1776554607425830400,5.677830322265625,-0.44274186755940315,-0.5534668262094259,-0.05277998855113983
1776554607435870500,5.687870361328125,-0.7346538528345525,0.6922486894339323,1.6154484072238207
1776554607445911300,5.697911376953125,2.034504278769344,-3.2600439984768625,1.360842947036028
1776554607455951400,5.707951416015625,2.209815983620286,-4.667881336399913,0.9601672201812267
1776554607465992400,5.717992431640625,1.2773102389551698,-4.463624838224053,-0.09369885891675948
1776554607476033500,5.728033447265625,1.56119659255445,-3.7931396523088217,-2.09628488150835
1776554607486073600,5.738073486328125,1.5484491930536926,-3.464811953306198,-2.725260245427489
1776554607496114400,5.748114501953125,0.9652176354385912,-3.3784476750612256,-3.026730917164683
1776554607506154500,5.758154541015625,0.6645904287882148,-3.034674569645524,-3.1736130847364663
1776554607516195600,5.768195556640625,1.2618670244991779,-2.3221119909793138,-2.755647200384736
1776554607526236400,5.778236328125,0.9822527952611446,-2.781402988409996,-1.5143378107458352
1776554607536276200,5.788276123046875,0.722082832814008,-2.804984355005622,-0.30858196504712104
1776554607546317300,5.7983173828125,1.0311189713694155,-2.7116508222699163,0.2953764465153217
1776554607556357400,5.808357421875,1.9737293459415435,-2.2078800471216438,0.4560299498081207
1776554607566398500,5.8183984375,1.4520840375371276,-0.8192237950086593,0.14478782564103604
1776554607576439300,5.828439208984375,0.6495716502893716,0.6798615015476942,-0.1452460908025503
1776554607586479400,5.838479248046875,0.30154256792962547,2.3973370355725288,-0.3591594751179218
1776554607596520400,5.8485205078125,-0.2596534642923623,4.173546498116851,0.24210604409873485
1776554607606560500,5.858560546875,-0.7310645231056958,5.0971226480036975,0.45288639108538625
1776554607616601300,5.868601318359375,-0.6035989306002855,5.566960758411884,0.6213052676826715
1776554607626641400,5.878641357421875,-0.44174072769284245,5.184925434619188,0.5244838928312063
1776554607636682500,5.8886826171875,-0.9161655813694,4.093772119656205,0.7482295198529958
1776554607646723600,5.8987236328125,-1.8415502419829368,4.098649370303749,1.2162965289354324
1776554607656763600,5.908763671875,-2.4843676687717435,4.180210632181168,2.0731822383403777
1776554607666804500,5.918804443359375,-2.685789235782623,3.573683246913552,2.6029174758285283
1776554607676844300,5.92884423828125,-3.0025486620664594,3.323744609493017,2.575994982111454
1776554607686885400,5.938885498046875,-2.8411434636235233,2.979928833979368,2.12819568503201
1776554607696925400,5.948925537109375,-2.2316391083717346,2.7005443218439815,1.4765543157964944
1776554607706966500,5.958966552734375,-2.165717898696661,2.936818591049313,1.372623985722661
1776554607717007400,5.96900732421875,-1.957017865115404,3.120912006640434,1.3546195424765348
1776554607727047400,5.97904736328125,-1.8163357212275266,3.239587485903501,1.4137439316183327
1776554607737088500,5.989088623046875,-1.666913367653638,2.7052386171400546,1.9114257422417402
1776554607747128600,5.999128662109375,-1.1036937937147915,0.38676001422703266,1.6612293306678532
1776554607757169400,6.00916943359375,1.0133600273169576,-2.985506926372647,0.03545475974082946
1776554607767210500,6.01921044921875,1.5525405540205537,-1.723089866775274,1.3688316077023743
1776554607777250600,6.02925048828125,0.23961393502205608,-1.8063509183079003,1.061384199643135
1776554607787291600,6.039291748046875,2.3090476344838735,-2.206943058532476,0.6053887366265058
1776554607797331500,6.04933154296875,4.508943404853344,-2.4245634806722403,-0.28625264433920383
1776554607807372300,6.059372314453125,4.6996860492005945,-2.1719734519600866,-0.813717014285922
1776554607817413400,6.069413330078125,5.51023349353969,-2.5341800396889447,-0.762535693103075
1776554607827453400,6.079453369140625,5.316005637425184,-3.0178853474080563,-0.8314046466678381
1776554607837494300,6.089494384765625,4.261964494021236,-2.7491204289644955,-1.2253805836230516
1776554607847534300,6.099534423828125,2.439175943392515,-2.2763971185088154,-1.640876862990856
1776554607857575400,6.109575439453125,1.2602709874793887,-2.042892314016819,-2.234030971944332
1776554607867615500,6.119615478515625,0.8105179259836673,-1.9717817190051077,-2.5532740317374465
1776554607877656600,6.129656494140625,0.152725340642035,-2.3182857106894255,-2.564526662635803
1776554607887697400,6.139697509765625,0.6055524027556181,-2.6439246089994906,-2.9093916549414396
1776554607897737500,6.149737548828125,3.1641628270849584,-2.663848037609458,-2.8598405653089283
1776554607907778600,6.159778564453125,0.7451978970721364,-2.0513655433297155,-2.846808649778366
1776554607917818600,6.169818603515625,0.9218702227517962,-1.29638421112895,-2.4269670346826313
1776554607927859500,6.179859375,-0.19710896450877188,-0.432160998442769,-1.7212293336004019
1776554607937900500,6.189900634765625,-0.33765754514485596,-0.8104173882186413,-1.6470616891056298
1776554607947940400,6.1999404296875,0.47581835386157034,-0.058897010126709934,-0.8887713784873486
1776554607957981400,6.2099814453125,0.5279021768420934,0.5400549714505672,-0.298876563590765
1776554607968021200,6.220021240234375,0.22866993168145416,0.6605448066592217,0.3211240512341261
1776554607978062000,6.23006201171875,-0.05311404281109571,0.7486608970075845,0.5036491945952176
1776554607988102000,6.240101806640625,-1.6064029309809207,0.27834757030308244,0.1853232496470213
1776554607998143000,6.25014306640625,-2.8846956051021815,-0.07760726355463266,0.7586603129744529
1776554608008184000,6.26018408203125,-3.3686960963755843,-1.965985015425086,4.19191860563159
1776554608018224000,6.27022412109375,-4.093551754903793,-0.2304679210141301,5.221477341946959
1776554608028265000,6.280264892578125,-3.6023049457639456,-0.1751820871219039,4.514748291739821
1776554608038305000,6.290304931640625,-2.7131109579503536,0.6784267925694585,3.9053614253878592
1776554608048346000,6.30034619140625,-1.425444306284189,1.2533201454281806,2.8603888468414542
1776554608058387000,6.310386962890625,-0.07525836234092712,1.506329860857129,2.382705868151784
1776554608068427000,6.320427001953125,0.43082858079522846,1.3434724177792667,1.8536989449381827
1776554608078468000,6.330468017578125,0.42540275635421276,1.0018769486635923,1.4133487948209047
1776554608088508200,6.340508056640625,0.2524745856389403,0.5108583953216672,0.8029927911758422
1776554608098549200,6.35054931640625,0.20271745204031466,0.08259089718610048,0.32339082712233064
1776554608108589000,6.360589111328125,0.24649010440185665,-0.02231763027012348,-0.09410393258631229
1776554608118630100,6.370630126953125,0.6052370531961322,-0.033981764578819275,-0.6201496679067612
1776554608128671200,6.380671142578125,1.1779849184587596,0.2735021760985255,-1.0294845020353793
1776554608138711000,6.3907109375,1.6546990521162748,0.6562704903408885,-1.2503694789290427
1776554608148752000,6.400751953125,1.885496935737133,0.7785214900031685,-1.1175427247166634
1776554608158792000,6.4107919921875,1.6821370941400526,0.5421136575460433,-0.643913989853859
1776554608168833000,6.4208330078125,0.8250563005544245,-0.062170040448009965,-0.016246201401948927
1776554608178873000,6.430873046875,-0.03731324708908796,-0.9752312260612845,0.503553333005309
1776554608188914200,6.4409140625,-1.0182850626289843,-1.8321975994870066,0.8661375218749046
1776554608198955000,6.450955078125,-1.424419054889679,-2.4441265515372157,1.0129618217796086
1776554608208995000,6.4609951171875,-1.5033163582548499,-2.830473016527295,1.0397691646844147
1776554608219036200,6.4710361328125,-1.281630001850426,-2.993034983789921,1.099342466637492
1776554608229076200,6.481076171875,-0.9236766876518726,-2.872239735893905,1.2849942175865172
1776554608239117000,6.491116943359375,-0.3848052268974483,-2.5088760870844125,1.4871902761012314
1776554608249158100,6.501158203125,0.156164375180006,-2.0630612418204546,1.5219050311297178
1776554608259198000,6.511197998046875,0.39379064351618287,-1.6439155000343917,1.3713310233026743
1776554608269239000,6.521239013671875,0.2707536080427468,-1.3598922221824525,1.029041434442997
1776554608279279000,6.531279052734375,-0.25845336778759953,-1.0313570179089904,0.48357612838149067
1776554608289320000,6.54131982421875,-1.1007780523985624,-0.58425973161906,-0.03704991997778415
1776554608299360000,6.551360107421875,-1.7101590735316277,0.1843491439178586,-0.41202889551818367
1776554608309401000,6.561401123046875,-1.0775758943788707,0.9301216260075569,-0.5987503215253352
1776554608319442000,6.57144189453125,0.17968626667335627,1.1584174636796116,-1.0378875887215138
1776554608329482000,6.58148193359375,1.0680666000165044,0.9772808520674705,-1.6236305446356534
1776554608339523000,6.591523193359375,1.7242898902148007,0.41077655736953017,-2.2993892870396375
1776554608349563100,6.601563232421875,1.7535460875764488,-0.15849018777906893,-2.950431521338224
1776554608359604200,6.611604248046875,1.1709651028245687,-0.4233306262552738,-3.289390504470467
1776554608369644300,6.621644287109375,-0.03568418458253145,-0.5194213487446308,-3.2878111263245344
1776554608379685000,6.63168505859375,-0.9092509796753525,-0.3844505682408809,-2.554502112227678
1776554608389726200,6.641726318359375,0.09147416860461234,0.1660962788686156,-1.157780627080798
1776554608399766000,6.65176611328125,1.10086602294296,0.3518292783603072,0.3015560119330883
1776554608409806800,6.661806884765625,0.8881500317186116,-0.041842707212269306,1.6414929490625858
1776554608419847000,6.671846923828125,-0.34663609363138675,-1.040158748523891,2.3312755406439303
1776554608429888000,6.681887939453125,-1.7320966184429822,-1.899681820695102,2.2966870423436165
1776554608439928000,6.691927978515625,-2.11446877297461,-2.0878259729817508,1.7536065855920313
1776554608449969200,6.70196923828125,-1.1656389393657445,-1.6529720821931957,0.775290545257926
1776554608460010000,6.712010009765625,0.3819990834355354,-0.8063309956878423,-0.12246084302067756
1776554608470050000,6.722050048828125,1.571766648016125,0.032247488132119174,-0.44340076985955235
1776554608480091100,6.732091064453125,1.8108371238112448,0.739361153742671,-0.2285176637291908
1776554608490131200,6.742131103515625,0.9632190089672803,1.2940496307015419,0.26710662984251976
1776554608500172000,6.752172119140625,-0.30632322633489967,1.5709969788178801,0.6371405501961708
1776554608510213000,6.762213134765625,-1.1528669899456203,1.4994465310841798,0.7267559391915798
1776554608520253000,6.7722529296875,-1.2348917776815593,1.0578250458568335,0.3743091134548187
1776554608530294300,6.782294189453125,-0.4369809659451246,0.2171133494004607,-0.3434101173222065
1776554608540334000,6.792333984375,0.528865176655352,-0.6209603997677564,-0.8682055603206157
1776554608550375000,6.802375,1.0830004036456347,-0.9738196056976914,-0.9917553676217794
1776554608560415000,6.8124150390625,1.143634612828493,-0.5833063764169811,-0.6444733773022889
1776554608570456000,6.8224560546875,0.7434066297411919,0.29447920541465283,0.036684009274840355
1776554608580497200,6.8324970703125,0.17725626304745673,1.0522647813811898,1.0065244822084902
1776554608590537000,6.842536865234375,-0.2243907930575311,1.1678829189002513,1.8899901555031537
1776554608600578000,6.852578125,-0.10686287639439106,0.4715577738076448,2.2535434816658495
1776554608610618000,6.8626181640625,0.20592048586532471,-0.6531833379805088,2.0825088696122167
1776554608620659200,6.8726591796875,0.587853664457798,-1.480042742434144,1.5614017597377299
1776554608630699300,6.88269921875,0.8778133466213941,-1.6595146357044577,0.9586533084869384
1776554608640740000,6.892739990234375,1.0304504244580863,-1.2444500257521867,0.43507834719419475
1776554608650781200,6.90278125,0.9780782860554754,-0.6601470395132899,0.07843231620192527
1776554608660821000,6.912821044921875,0.691672935372591,-0.2706485402330756,-0.31513971612751485
1776554608670862000,6.922862060546875,0.3578163899458945,-0.012807751385867596,-0.8363876957774162
1776554608680902000,6.93290185546875,0.09022636050060391,0.16652064176052808,-1.4206506422668694
1776554608690943000,6.94294287109375,-0.17804902086034416,0.3023039076909423,-2.0187410385787485
1776554608700983000,6.952983154296875,-0.43394495925009247,0.4662605441823601,-2.498214992338419
1776554608711024000,6.963024169921875,-0.5625608177691698,0.7224979894861578,-2.7404946394383907
1776554608721065000,6.97306494140625,-0.5147321680150926,0.9991264809116721,-2.614003517988324
1776554608731105000,6.98310498046875,-0.2563425131134689,1.154145485448837,-2.101803352668881
1776554608741146000,6.99314599609375,0.26407939097583294,1.142452417306602,-1.3689935202658177
1776554608751186200,7.003186279296875,0.8936332854352891,0.9522191837862134,-0.6247931097984314
1776554608761227000,7.01322705078125,1.2969878761105238,0.6023726036757231,-0.031601006922125814
1776554608771267000,7.02326708984375,1.3306208272516726,0.2249497421145439,0.3454658808082342
1776554608781308200,7.03330810546875,1.0159019668847322,-0.07119242807626724,0.4277145404279232
1776554608791349200,7.043349365234375,0.5828016417652369,-0.1825555384993553,0.2575637254714966
1776554608801389000,7.05338916015625,0.09315715325549244,-0.07495704130679369,-0.0034311434924602507
1776554608811430000,7.063429931640625,-0.4261977061241865,0.2264025712713599,-0.22031974422633646
1776554608821470000,7.073469970703125,-0.9299505072243511,0.618852029311657,-0.2544470547556877
1776554608831511000,7.083510986328125,-1.2914946855217218,0.9772285373583436,-0.07011047805845737
1776554608841551000,7.093551025390625,-1.321662444770336,1.2034879007667303,0.26541619253754617
1776554608851592000,7.103592041015625,-1.129803655874729,1.2466133412659168,0.6443775157123803
1776554608861633000,7.113633056640625,-0.7569516093604266,1.0698726265251637,0.8820119673550129
1776554608871673000,7.123673095703125,-0.3466432540245354,0.7676987749546765,0.8860089280366897
1776554608881714200,7.133714111328125,0.0009204758457839489,0.4487584975004196,0.6926204453557729
1776554608891754200,7.143754150390625,0.28435594387240704,0.2808411406844854,0.33485856207609177
1776554608901795000,7.153795166015625,0.43395153512135143,0.2412786533638835,-0.06555062279701232
1776554608911835000,7.1638349609375,0.418675566991046,0.23025603182911872,-0.3050847705811262
1776554608921876000,7.1738759765625,0.20507490188665686,0.18773294113725422,-0.2994622545242309
1776554608931917000,7.1839169921875,-0.0759252287518233,0.10523527519255876,-0.14420213470757007
1776554608941957000,7.19395703125,-0.3647200318545103,-0.06728665280938148,0.10056757564246654
1776554608951998000,7.203998046875,-0.5714782837182283,-0.2899363012880087,0.32361645257174965
1776554608962038000,7.2140380859375,-0.7014250985801219,-0.5105740254223347,0.5230611665517091
1776554608972079000,7.2240791015625,-0.769945019511506,-0.7087760458648205,0.712725075751543
1776554608982119200,7.234119140625,-0.8427127340804785,-0.8271943354964256,0.8757055606871843
1776554608992160000,7.244159912109375,-0.8829302512437105,-0.8531494454860686,1.0274918669134379
1776554609002201000,7.254201171875,-0.9520522297214716,-0.84321578823179,1.130751165857911
1776554609012241000,7.264240966796875,-0.9934924936126917,-0.8404805180490016,1.2562684738397598
1776554609022282000,7.274281982421875,-0.9603980332624167,-0.8637138018593191,1.3680828351616858
1776554609032322000,7.284322021484375,-0.6786578979115933,-1.0308747873499988,1.4548603703826666
1776554609042363000,7.29436279296875,-0.3348736865799874,-1.3633537608131765,1.4858926375061272
1776554609052403000,7.30440283203125,0.09451609358377754,-1.7873276534080504,1.423253518241644
1776554609062444000,7.314444091796875,0.3908711028076708,-2.1451476966157554,1.3228063541084527
1776554609072484900,7.32448486328125,0.5317528609208763,-2.3331384119063614,1.1437006638020277
1776554609082525000,7.33452490234375,0.42710006179139015,-2.2883356858447192,0.8448580024808645
1776554609092566000,7.34456591796875,0.3625549627751112,-2.0270701832458378,0.31697686842679973
1776554609102606000,7.354606201171875,0.27836393691599365,-1.6690183771088718,-0.2913970214903355
1776554609112647200,7.364647216796875,0.18842121566236017,-1.2551017681479453,-0.7886404406964779
1776554609122687000,7.37468701171875,0.2415587854795158,-0.8303513382226229,-1.1454670889526606
1776554609132727800,7.384727783203125,0.54856568322964,-0.435969450815022,-1.4142273312211036
1776554609142769000,7.394768798828125,0.8583123812071979,-0.14503040222525596,-1.53143098436594
1776554609152809000,7.40480908203125,1.16211551447995,0.04374415691941976,-1.5676415309101341
1776554609162849800,7.414849853515625,1.3487287308722733,0.22728870645612476,-1.4759434904217719
1776554609172889900,7.424889892578125,1.4214490991681814,0.45754093889296055,-1.2880939371675253
1776554609182931000,7.434930908203125,1.3732792347609997,0.6851552240416408,-1.0386860456228255
1776554609192971000,7.444970947265625,1.1838203466139734,0.8693895094081759,-0.7174673018425702
1776554609203012000,7.45501220703125,0.894303878173232,0.9941367098003625,-0.3778080614864826
1776554609213052200,7.46505224609375,0.5416881256103515,1.0500754546433686,-0.03474924181997776
1776554609223093000,7.475093017578125,0.11175123295783997,1.0169701806381344,0.3096843733310699
1776554609233134000,7.485134033203125,-0.33009353963136673,0.8967948182061314,0.6261299113601446
1776554609243174100,7.495174072265625,-0.7002794356763362,0.763634009733796,0.8824123648494482
1776554609253215000,7.505215087890625,-0.9192379745520651,0.6633999038293957,1.045339658293128
1776554609263254800,7.5152548828125,-0.9461462936133146,0.5754416343912482,1.0993009655833244
1776554609273293000,7.52529296875,-0.776543760189414,0.48663054751604795,1.0369260502129793
1776554609283333000,7.5353330078125,-0.5184048651784658,0.41895723347663877,0.8755442326456307
1776554609293374000,7.5453740234375,-0.22816402798593044,0.3430260864406824,0.6715683049768209
1776554609303413800,7.555413818359375,-0.028157588469982144,0.2521571902528405,0.4557786053955555
1776554609313454800,7.565454833984375,0.10023951273187995,0.14614303964227437,0.2375280686587095
1776554609323495000,7.575494873046875,0.17090660175979136,0.056686640600860115,0.03424012325406074
1776554609333536000,7.585535888671875,0.19320143567621706,0.010922083769738673,-0.15373510220646858
1776554609343576800,7.595576904296875,0.20077859293222428,-0.007088496956229209,-0.2721937238484621
1776554609353617000,7.605616943359375,0.20435659754946828,0.011279811166226863,-0.3397188615888357
1776554609363658000,7.615657958984375,0.1788560994595289,0.08110825741291046,-0.37160628423690795
1776554609373698000,7.625697998046875,0.12291399361565708,0.18095365626066923,-0.3699304599791765
1776554609383739000,7.63573876953125,0.06723521488308906,0.25579846936464307,-0.3428688500523567
1776554609393779000,7.645779052734375,0.01634498560130596,0.30237609614431854,-0.2961825022011995
1776554609403820000,7.655820068359375,-0.05151055313721299,0.30890462113022804,-0.23882103107869623
1776554609413861000,7.665861083984375,-0.04498480463027954,0.2854600326567888,-0.2055617355555296
1776554609423901200,7.675901123046875,-0.015170827255398034,0.23548984082937238,-0.1802852554798126
1776554609433942000,7.68594189453125,0.03862155320867896,0.18096680800318718,-0.16347908210754394
1776554609443981800,7.69598193359375,0.08912833613082766,0.08687748846411704,-0.14173603685498237
1776554609454023000,7.70602294921875,0.09659867201149464,-0.025266543203592298,-0.1259919397562742
1776554609464063000,7.71606298828125,0.10026654686927795,-0.1290703242883086,-0.1270955170840025
1776554609474103800,7.726103759765625,0.07499415844678878,-0.20345921031832695,-0.1297568452477455
1776554609484145000,7.736144775390625,0.062360886844992636,-0.20742051516473292,-0.1545142698854208
1776554609494185000,7.74618505859375,0.05639189543798565,-0.15171908620893954,-0.16955168001949786
1776554609504226000,7.75622607421875,0.061611091390997165,-0.049498774923384184,-0.1711626223474741
1776554609514266000,7.76626611328125,0.11078867153599857,0.04535772959589958,-0.15986907491683958
1776554609524307000,7.776306884765625,0.1627099974311888,0.09357143314480781,-0.14181202470064164
1776554609534347000,7.786346923828125,0.21719547472596168,0.13511808001995085,-0.11454875472187995
1776554609544388000,7.79638818359375,0.2787070512652397,0.18833003024756909,-0.02792027258276939
1776554609554428000,7.806427978515625,0.2772678122423589,0.27616788817644117,0.0802653768479824
1776554609564468700,7.81646875,0.1406499951839447,0.36171763516813515,0.2125450185716152
1776554609574509800,7.826509765625,-0.10804010348021983,0.41236967177987094,0.31605624645054337
1776554609584550000,7.8365498046875,-0.4474010915420949,0.3903463482812047,0.3495177865475416
1776554609594591000,7.846591064453125,-0.766392368531227,0.29330197832882404,0.3099111678242683
1776554609604631000,7.856631103515625,-0.9732451668106019,0.11487024176120757,0.2021750157266855
1776554609614672000,7.866671875,-0.9546621930241584,-0.0758563282340765,0.008582534906268119
1776554609624712000,7.8767119140625,-0.6841760037459432,-0.23411592212766408,-0.2350105328798294
1776554609634753000,7.8867529296875,-0.3038865007072687,-0.3344263081386685,-0.45566579267084595
1776554609644793000,7.89679296875,0.06290405381098389,-0.37961686447411774,-0.605464724472165
1776554609654834000,7.906833984375,0.37243060623183843,-0.3823182323873043,-0.6851011557668447
1776554609664875000,7.916875,0.5798920379288495,-0.35527240455150605,-0.6872638867586851
1776554609674915000,7.9269150390625,0.6342074193537235,-0.3237938549652695,-0.6301695421397686
1776554609684956200,7.9369560546875,0.5639804753087461,-0.2791986341744661,-0.5098544789761305
1776554609694996000,7.946995849609375,0.4124536968015134,-0.21620909403711555,-0.3647884209156036
1776554609705036800,7.957036865234375,0.2103536460071802,-0.18888240343332288,-0.20479951901137827
1776554609715076900,7.967076904296875,0.006895750863105058,-0.1630637793049216,-0.04601414767801761
1776554609725118000,7.977117919921875,-0.15078604314252733,-0.12481792754083872,0.09093348585665226
1776554609735159000,7.987158935546875,-0.22356150262653826,-0.03485474802106619,0.20586744050383565
1776554609745198800,7.99719873046875,-0.23094416022375225,0.06640051762461661,0.2616314133018255
1776554609755240000,8.007239990234375,-0.149524060382694,0.12315057885050773,0.2663198633790016
1776554609765280000,8.017280029296876,-0.030682869163900613,0.15384148519039154,0.23400749331712722
1776554609775321000,8.027321044921875,0.06137947459220886,0.1154962647050619,0.2229629522114992
1776554609785361200,8.037361083984376,0.13519976695403457,0.045261575745046134,0.2465472414165735
1776554609795402000,8.047402099609375,0.18464578877687454,-0.05116787717938423,0.2706973478108644
1776554609805442000,8.057442138671876,0.22280118577852845,-0.13133388530611992,0.2584638891816139
1776554609815483100,8.067483154296875,0.22438743205666542,-0.17391133653372526,0.24641923112273215
1776554609825524000,8.07752392578125,0.1951210055619478,-0.1616784624263644,0.21608254504799843
1776554609835563800,8.087563720703125,0.11835033896192908,-0.08860416612625122,0.18431378034353255
1776554609845604900,8.09760498046875,0.018769582399725912,0.013595979154109953,0.14018120862841604
1776554609855645000,8.10764501953125,-0.05955269755646586,0.09347674059867858,0.08246084106564522
1776554609865686000,8.11768603515625,-0.11362462561428546,0.13633242424577474,0.004038461735844612
1776554609875726000,8.12772607421875,-0.13495675197839735,0.15629501582235097,-0.08102408626079559
1776554609885767000,8.137766845703124,-0.1295300507545471,0.1524228505641222,-0.14233283370435237
1776554609895807000,8.147806884765625,-0.08070026113390923,0.10780483341962098,-0.186411044883728
1776554609905848000,8.15784814453125,-0.007950082221627235,0.06931932768076658,-0.2336988657593727
1776554609915889200,8.16788916015625,0.05063464708551764,0.014147475557029247,-0.25206278996765613
1776554609925929000,8.177928955078125,0.09934767845869064,-0.050994858700037,-0.2524561731994152
1776554609935970000,8.187969970703126,0.11809373385235666,-0.07868073800504208,-0.22680676815807818
1776554609946009900,8.198009765625,0.12111045132502912,-0.07065583698153495,-0.20416122110784052
1776554609956051000,8.208051025390626,0.09622209378406404,-0.043265725752711294,-0.1783335368901491
1776554609966091500,8.218091552734375,0.045900019779056306,-0.024965222169458866,-0.14623451731801032
1776554609976132400,8.22813232421875,0.002509352472424507,0.001034019222855568,-0.10888707569837569
1776554609986173400,8.23817333984375,-0.03683905370607972,0.039996494823694224,-0.08483809159100056
1776554609996213500,8.248213623046874,-0.05331204960122704,0.11405746407359837,-0.07428454887270927
1776554610006254300,8.25825439453125,-0.05962167113944888,0.17524872261732816,-0.05976736322045326
1776554610016294400,8.26829443359375,-0.06085223584771156,0.1932367992505431,-0.054716509571671484
1776554610026335500,8.27833544921875,-0.07291866734698414,0.16632921084165572,-0.036132220610976214
1776554610036375600,8.28837548828125,-0.07361950909271836,0.09281330825388431,0.0062158057749271385
1776554610046416600,8.298416748046876,-0.060272974655032154,0.01721153930276632,0.04992810625135898
1776554610056456400,8.30845654296875,-0.03231821528077125,-0.047046997857093806,0.06174187816381454
1776554610066497300,8.318497314453126,-0.002819879726320505,-0.0839127934396267,0.058197921946644776
1776554610076538400,8.328538330078125,0.04405819130465388,-0.10037702150642872,0.05396598346531391
1776554610086578400,8.338578369140626,0.06692644119486213,-0.10243278499245644,0.02636485983431339
1776554610096619300,8.348619384765625,0.06001330080553889,-0.09368424586951732,0.020151976668834684
1776554610106659300,8.358659423828126,0.06314940687417983,-0.07986381030976772,-0.00932020153105259
1776554610116700400,8.368700439453125,0.040201515876501795,-0.061761459647119044,-0.05818330889940262
1776554610126740500,8.378740478515626,0.01692614649012685,-0.03254325620830059,-0.103946112164855
1776554610136781600,8.388781494140625,0.009196429020911454,0.008888239854574202,-0.119988899949193
1776554610146822400,8.398822509765624,0.0019295067578554152,0.0318283859372139,-0.11769406701028347
1776554610156862500,8.408862548828125,0.002361468434333801,0.05345189646333456,-0.09976151995658875
1776554610166903600,8.418903564453124,0.020769231784343718,0.0428209045946598,-0.0756646050542593
1776554610176943600,8.428943603515625,0.04048471673205495,0.02802577878385782,-0.07599602896571159
1776554610186984400,8.438984375,0.05570975839272141,0.028043022179603576,-0.0752285517245531
1776554610197024300,8.449024169921875,0.06712780898585916,0.03322685455828905,-0.07077975562214851
1776554610207065300,8.4590654296875,0.07830795916989446,0.03882189808636904,-0.07144377248883246
1776554610217105400,8.46910546875,0.07940890614911914,0.036000703185796734,-0.05424655397236347
1776554610227146500,8.479146484375,0.06530103195011615,0.03995733185708523,-0.039923429587483406
1776554610237187300,8.489187255859376,0.03665346800610423,0.032960020315647126,-0.015816577813029288
1776554610247227400,8.499227294921875,-0.007859481328725814,0.02141103681921959,0.023944354689121244
1776554610257268500,8.5092685546875,-0.03539455398619175,-0.005169511592388153,0.05735211877226829
1776554610267308500,8.51930859375,-0.0797030667901039,-0.026657997561991213,0.06045066930949688
1776554610277349400,8.529349365234374,-0.0725720458664,-0.03579232113212347,0.03974807302057743
1776554610287389400,8.539389404296875,-0.039946225941181183,-0.027719197052717207,0.010251344901323317
1776554610297430500,8.549430419921874,-0.011003186181932688,-0.02922872483283281,-0.01247545069158077
1776554610307471600,8.5594716796875,0.023497779965400693,-0.030356559818983078,-0.02253507241308689
1776554610317511400,8.569511474609374,0.061035775721073146,-0.04392243609577417,-0.02494973233938217
1776554610327552300,8.57955224609375,0.0798703861810267,-0.047938978260755535,-0.024212065714597702
1776554610337592300,8.58959228515625,0.06440963606834411,-0.036250001771748065,-0.0254974293500185
1776554610347633400,8.59963330078125,0.0693505996018648,-0.009597849428653717,-0.036948797690868375
1776554610357673500,8.609673583984375,0.06145151691511273,0.011150047306716442,-0.0715904874831438
1776554610367714300,8.61971435546875,0.05182502591386437,0.03711509416848421,-0.11002806242704391
1776554610377754400,8.62975439453125,0.0426683443814516,0.07596943321973085,-0.11943769580721854
1776554610387795500,8.63979541015625,0.04258475775122642,0.1048521210938692,-0.11278700574636459
1776554610397836500,8.64983642578125,0.019762246698886154,0.09879092135876416,-0.08064706964194775
1776554610407876600,8.659876708984376,-0.0025783260554075238,0.06805734492093324,-0.05060615164339542
1776554610417917400,8.66991748046875,0.002660159119963646,0.03471124789714813,-0.029489129334688186
1776554610427957500,8.67995751953125,0.009372223979234694,0.009919336467981339,-0.01743862605690956
1776554610437998600,8.68999853515625,0.017512860336899756,-0.01564823550879955,-0.01072656119763851
1776554610448038400,8.700038330078126,0.0021264906346797944,-0.03815320504456758,-0.006783376529812812
1776554610458079200,8.710079345703125,0.001340308693051338,-0.056301440675556653,0.003977671459317207
1776554610468120300,8.720120361328124,0.009534282673150301,-0.07734072157293558,0.004255903878808021
1776554610478160400,8.730160400390625,0.003949176017194986,-0.09153028270602226,-0.005533084207773208
1776554610488201500,8.740201416015625,0.006240355694293975,-0.0844131441771984,-0.011184826359152793
1776554610498241500,8.750241455078125,-0.003144727766513824,-0.056956105192005634,-0.007904489514231682
1776554610508282400,8.760282470703125,0.005957447099685669,-0.022611644780635834,0.0006961655706167221
1776554610518322400,8.770322509765625,0.02716214769184589,0.007574819168448448,-0.019125556230545043
1776554610528363500,8.780363525390625,0.02907937949001789,0.02501724461764097,-0.033549802902340886
1776554610538404400,8.790404296875,0.041896775487065316,0.059122343315184116,-0.039864977398514745
1776554610548444400,8.8004443359375,0.053030310050398106,0.08213175524175166,-0.019044892209768294
1776554610558485500,8.810485595703126,0.05343757567703723,0.08817308123260736,0.0005541267514228821
1776554610568525600,8.820525634765625,0.05761471523120999,0.052498541261255735,0.020446575701236723
1776554610578566700,8.830566650390624,0.027853783217817542,-0.0041422143712639805,0.01565875690281391
1776554610588606500,8.8406064453125,0.0002947451628744602,-0.061841539146006104,0.0007423427999019623
1776554610598647300,8.850647216796874,-0.010126841738820076,-0.07304039403051138,-0.03504676346182823
1776554610608688400,8.8606884765625,-0.009140607180446386,-0.0648261079147458,-0.06420856053829192
1776554610618728400,8.870728515625,-0.001344838737696409,-0.03144873896986246,-0.07760463320612906
1776554610628769300,8.880769287109375,0.00746843618452549,0.007117430789768695,-0.059414896520972246
1776554610638809300,8.890809326171874,0.02993161240518093,0.03437427102774381,-0.025580431458353994
1776554610648850400,8.900850341796875,0.018918635481595992,0.09042465955168008,0.0062432783037424085
1776554610658890500,8.910890380859374,0.019608955833315848,0.168807291392982,0.02454290510416031
1776554610668931600,8.920931640625,0.036046149762719866,0.2285100649446249,0.005309212324023246
1776554610678971600,8.9309716796875,0.021181904238462446,0.2556418174982071,-0.02062894653081894
1776554610689012500,8.941012451171876,-0.010849310794472693,0.22273586545735596,-0.04527648105323315
1776554610699053600,8.951053466796875,-0.037449586819857356,0.1140785068616271,-0.07372399238049984
1776554610709093400,8.96109326171875,-0.03573825285732746,-0.015392799443006514,-0.09355915818512439
1776554610719134200,8.97113427734375,-0.020073650735616684,-0.1189256546318531,-0.09140928667485713
1776554610729174300,8.98117431640625,0.024248890593647956,-0.17008914789706467,-0.05036240601539611
1776554610739215400,8.99121533203125,0.07699614591896534,-0.18059446755945682,0.0029816461592912674
1776554610749255400,9.00125537109375,0.12253098564743994,-0.20624679521024225,0.052794017076492304
1776554610759296500,9.011296630859375,0.10444690129384397,-0.19463234526216983,0.06960428210198878
1776554610769337300,9.02133740234375,0.08551789054870605,-0.1267450962111354,0.032472529059648515
1776554610779377400,9.03137744140625,0.09248904473558067,-0.04452215555459261,-0.03966331734657287
1776554610789418500,9.04141845703125,0.08860299708247184,0.04139934735894203,-0.11291969221532344
1776554610799458600,9.05145849609375,0.0800303990483284,0.06790215435922145,-0.13522037135064602
1776554610809499400,9.06149951171875,0.03631459144055843,0.03337473859637975,-0.09055471567213534
1776554610819539500,9.07153955078125,-0.007466682618856429,-0.04960223529785871,-0.0114677349537611
1776554610829580500,9.08158056640625,-0.06456336532533169,-0.14106968190073965,0.04592705391645431
1776554610839621600,9.09162158203125,-0.09720175247117877,-0.21384090360105037,0.05573416218161582
1776554610849661400,9.101661376953125,-0.07428864052593707,-0.27576807520389557,0.025582185024023055
1776554610859702300,9.111702392578126,0.004818067806214094,-0.2713680866792798,-0.017910335221886634
1776554610869742300,9.121742431640625,0.09294482567906379,-0.1808759148493409,-0.04776303717195987
1776554610879783400,9.131783447265626,0.1536703664071858,-0.04575725030750036,-0.003125438544154167
1776554610889823500,9.141823486328125,0.15265081410109996,0.11977993337363003,0.06702361795902252
1776554610899864300,9.1518642578125,0.1282978786110878,0.2707835647895932,0.1154050792902708
1776554610909905400,9.161905517578125,0.10318871792629361,0.3999921285048127,0.15500059209764003
1776554610919945500,9.171945556640624,0.07226166474297642,0.5165571914851665,0.16722469837665557
1776554610929986600,9.181986572265625,0.06046002165973186,0.5945490704432129,0.16273790835142135
1776554610940026600,9.192026611328124,0.07028364266827702,0.6141872523710131,0.17804419855475426
1776554610950067500,9.2020673828125,0.06911050723567605,0.612266513441503,0.2125800898849964
1776554610960107300,9.212107177734374,0.03738265906348824,0.5870119529366493,0.24126491709947584
1776554610970148000,9.222148193359375,0.019291560447216034,0.5662684401154517,0.23714462229907513
1776554610980189200,9.232189208984375,0.01936228759586811,0.5992828209668397,0.16329028153717517
1776554610990229200,9.242229248046876,0.017736147698760033,0.6752060769572854,0.07827332624793053
1776554611000270000,9.25227001953125,0.018428221616148946,0.7860717592522501,0.022765374037623406
1776554611010310100,9.26231005859375,0.02593406720161438,0.8566077692463994,0.004925765964388847
1776554611020351200,9.272351318359375,0.09500234273076057,0.7996297444835305,-0.0012988076388835907
1776554611030392000,9.28239208984375,0.17083572848066686,0.550870672236383,-0.036790392258763314
1776554611040432000,9.29243212890625,0.24421222259774802,0.16775982816666363,-0.07776128507256508
1776554611050473200,9.30247314453125,0.3148153064787388,-0.2928369911655784,-0.10169161123633384
1776554611060513300,9.31251318359375,0.32109774774909017,-0.7403866973981261,-0.07867372374236584
1776554611070554400,9.322554443359374,0.27074191760495303,-1.0766627250567078,-0.010483984613418578
1776554611080594200,9.33259423828125,0.19545418303906917,-1.2464303859144448,0.09384498938918114
1776554611090635300,9.34263525390625,0.06610314211323857,-1.233488486754894,0.24731238057017324
1776554611100676400,9.35267626953125,-0.04854162032902241,-0.9495739299744367,0.38517362181842324
1776554611110716200,9.362716064453124,-0.09710326053276658,-0.43436464596688745,0.45585751585066314
1776554611120757000,9.372757080078125,-0.13724632422029973,0.18355653223544358,0.4760235210448503
1776554611130797000,9.382797119140625,-0.2050811124317348,0.7116498477354646,0.48789457610249515
1776554611140838100,9.392838134765626,-0.26968320233225823,1.0574258174061775,0.46248073338270185
1776554611150878200,9.402878173828125,-0.34929333014190195,1.2176727857246994,0.3451420556813478
1776554611160919300,9.412919189453126,-0.37733269905969496,1.1558292007520794,0.0505985528588295
1776554611170960100,9.422960205078125,-0.3046080929800868,0.8249442184820771,-0.3718611357808113
1776554611181000200,9.433000244140626,-0.1116103631824255,0.35151042166948315,-0.7613947063744068
1776554611191041300,9.443041259765625,0.10749123742580413,-0.16975567815899847,-0.9624696519047021
1776554611201081300,9.453081298828126,0.3266127117782831,-0.591251782463491,-0.9466139111250639
1776554611211122200,9.4631220703125,0.47920945760458705,-0.840121621608734,-0.8162731285095214
1776554611221163300,9.473163330078124,0.5536547499969602,-0.9683306528925895,-0.6883347308605909
1776554611231203000,9.483203125,0.48313364531099795,-1.0048270306408404,-0.584207416909933
1776554611241244200,9.493244140625,0.2907565316297114,-0.925128640025854,-0.46311727772057054
1776554611251284200,9.5032841796875,-0.017553484608232976,-0.7920145933046937,-0.2655851193636656
1776554611261325000,9.513324951171874,-0.31396921104341746,-0.6638640142098069,-0.022273791128396985
1776554611271365000,9.523365234375,-0.4800514613866806,-0.5221837991952896,0.23375731794834134
1776554611281406200,9.53340625,-0.5070889597855508,-0.32813597582280635,0.45498657823503014
1776554611291447000,9.543447021484376,-0.4571729823634028,-0.09089344610720872,0.6070043551295995
1776554611301487000,9.553487060546875,-0.3388818262428045,0.13138883036375046,0.6218459504306316
1776554611311528200,9.563528076171876,-0.2723492066711187,0.2648451146513223,0.5058563492506742
1776554611321568300,9.573568359375,-0.2656684137329459,0.19549919122457504,0.2858054850935936
1776554611331609300,9.583609375,-0.29330767741724845,0.058360126771032805,0.039887189230322834
1776554611341649400,9.5936494140625,-0.24405688590556382,-0.07164280219227075,-0.17156185079813002
1776554611351690200,9.603690185546874,-0.09192775759100913,-0.14626491245627402,-0.3299982625633478
1776554611361731300,9.6137314453125,0.1601844244763255,-0.0848471516802907,-0.4220926088929176
1776554611371771100,9.623771240234374,0.4449498989976942,0.0841910258591175,-0.4690378999412059
1776554611381812000,9.63381201171875,0.6914268516570329,0.29472791947871446,-0.49079614276289935
1776554611391852000,9.64385205078125,0.8270090420573949,0.4422244195565581,-0.47747722698450085
1776554611401893000,9.65389306640625,0.8454590371139347,0.5032394447505474,-0.4499228651046753
1776554611411934200,9.663934326171875,0.7621388027399778,0.4919906132444739,-0.4039946421444416
1776554611421974300,9.673974365234375,0.6108943483054637,0.4452487358137965,-0.35013796427249905
1776554611432015000,9.68401513671875,0.39303500284329057,0.3567161736190319,-0.3001642653137445
1776554611442055200,9.69405517578125,0.1085920382745564,0.24867080944180486,-0.3005839520305395
1776554611452096300,9.70409619140625,-0.16948650582879782,0.12827946617156266,-0.34478608185052867
1776554611462136300,9.71413623046875,-0.3842348796635866,0.058742404086887835,-0.35662381916046143
1776554611472177200,9.72417724609375,-0.4798153145432472,0.007708382420241832,-0.3162070530980825
1776554611482218200,9.73421826171875,-0.4427341226443648,-0.04150865295231342,-0.22585808913111685
1776554611492258000,9.744258056640625,-0.26765345007032154,-0.1571869962260127,-0.04055412870645523
1776554611502299100,9.754299072265624,-0.04801949615105986,-0.3414259577676654,0.25928514243662354
1776554611512339200,9.764339111328125,0.13576748383939266,-0.5274661235123872,0.555868626654148
1776554611522380000,9.774380126953124,0.2793625925645232,-0.647470513291657,0.7443646611183882
1776554611532421000,9.784421142578125,0.43260479668751356,-0.6317635333329439,0.8274655536532401
1776554611542461200,9.794461181640624,0.5508154349178076,-0.5332397384777665,0.8609469674944877
1776554611552502300,9.804502197265625,0.6198249659970403,-0.3945198345735669,0.753557436877489
1776554611562542000,9.8145419921875,0.5835942534476518,-0.28849487030804155,0.5265519312769175
1776554611572583200,9.824583251953126,0.5727820597931742,-0.32793431577086446,0.19260171621739863
1776554611582623200,9.834623291015625,0.4987494398549199,-0.41132863829433913,-0.12943652725219726
1776554611592664300,9.844664306640626,0.3415159741386771,-0.4807490882620215,-0.37831659553050995
1776554611602705200,9.854705078125,0.1608534097790718,-0.5812213868364692,-0.5415601153165102
1776554611612745200,9.8647451171875,-0.1736585308164358,-0.6438032229557633,-0.5987924071013927
1776554611622787300,9.874787353515625,-0.45550373397693034,-0.6193307527393103,-0.6049971069604158
1776554611632827400,9.884827392578124,-0.569462852242589,-0.47272155689001083,-0.5372200402855872
1776554611642868200,9.8948681640625,-0.618291326688975,-0.2200108244076371,-0.40010055731534955
1776554611652909300,9.904909423828125,-0.6451911701828241,0.04013181164115667,-0.18218202901184558
1776554611662949000,9.91494921875,-0.6515414159923791,0.18432985469549892,0.10053308885097503
1776554611672990200,9.924990234375,-0.601642389705032,0.17932780862450598,0.3913327289700508
1776554611683030000,9.935030029296875,-0.5836746252074837,0.05491729284077882,0.5778045641303062
1776554611693071000,9.945071044921875,-0.5782948318652809,-0.18129267895668744,0.6330670171469449
1776554611703112200,9.9551123046875,-0.5269692799061536,-0.40688919454216954,0.5197019192516803
1776554611713152300,9.96515234375,-0.40371494842022654,-0.5917755140766501,0.24042262105643747
1776554611723193000,9.975193115234376,-0.21874036608040331,-0.7203563012823462,-0.16598200483918188
1776554611733233200,9.985233154296875,-0.00328369784578681,-0.7692112253442406,-0.6224445008456707
1776554611743274200,9.995274169921874,0.2490308749258518,-0.7646011012002826,-1.0106143818706272
1776554611753314300,10.005314208984375,0.490433154669404,-0.7190569091215729,-1.2631044573396444
1776554611763355100,10.015355224609374,0.6377472839176654,-0.6529454375714063,-1.3535399305462836
1776554611773396200,10.025396240234375,0.6309874343939125,-0.5808256655171513,-1.2981991515964268
1776554611783436300,10.035436279296874,0.49654170067757364,-0.5284174328878521,-1.1270949814379214
1776554611793477400,10.045477294921875,0.2511113344617188,-0.518542520083487,-0.8923322858393192
1776554611803517200,10.05551708984375,0.04970891054272651,-0.5280138205230236,-0.6435170994907617
1776554611813558000,10.06555810546875,-0.14982669659107922,-0.5593661133810878,-0.3899561799198389
1776554611823599000,10.07559912109375,-0.310780936396122,-0.614290128223598,-0.12561609218120573
1776554611833639200,10.08563916015625,-0.4082502537623048,-0.6519149254798888,0.13351064482331276
1776554611843680300,10.09568017578125,-0.4572904712632298,-0.6151473295748233,0.3504068443417549
1776554611853720000,10.105719970703126,-0.5127396790236234,-0.5272942740768194,0.5080892228692769
1776554611863761200,10.11576123046875,-0.5317465773105621,-0.34655659865438937,0.5988152034550905
1776554611873801200,10.12580126953125,-0.5446820467293262,-0.04243365884274244,0.6484095477074384
1776554611883842300,10.13584228515625,-0.553817247082293,0.3558756311416626,0.6300263342767953
1776554611893883100,10.145883056640624,-0.6294159472934902,0.7936062464103102,0.5342214429914951
1776554611903923200,10.155923095703125,-0.7578726697281003,1.1856339719071984,0.358812269115448
1776554611913964300,10.16596435546875,-0.8194856608152389,1.5116031250849364,0.07090601235032082
1776554611924004000,10.176004150390625,-0.8171054876804351,1.7426628745123742,-0.2843874349892139
1776554611934045200,10.186045166015624,-0.7464356221735478,1.8609037617504596,-0.5614519797444343
1776554611944086000,10.1960859375,-0.6470766916684806,1.8135948980867862,-0.6670569650322199
1776554611954126000,10.2061259765625,-0.5125641763262451,1.5976947238683699,-0.6795604727745056
1776554611964167200,10.216167236328126,-0.25555457760617134,1.354771810428798,-0.7461433612287044
1776554611974211300,10.22621142578125,0.06416925144121051,1.0498746713742613,-0.7392126851826906
1776554611984252400,10.23625244140625,0.28005539713427424,0.6603712036579847,-0.401580566740036
1776554611994292200,10.246292236328125,0.7138942656613886,0.2715674086436629,0.09065583795905113
1776554612004333300,10.256333251953125,1.0124505112566053,-0.08227671667039393,0.4312479752510786
1776554612014374100,10.2663740234375,1.340980308702588,-0.24604922876656055,0.7743272531837224
1776554612024414200,10.276414306640625,1.2472965012244879,-0.2743830505862832,0.9292512729138135
1776554612034455300,10.286455322265626,0.9240570652715862,-0.2893871429726481,0.6990227136135101
1776554612044495400,10.296495361328125,0.29922669220268727,-0.25667057602405546,0.28347499631941314
1776554612054536400,10.306536376953124,-0.18565116642713544,-0.24174627087563275,-0.15166647923886775
1776554612064576500,10.316576416015625,-0.22689152383208275,-0.2269122743591666,-0.5766922189742326
1776554612074617300,10.326617431640624,0.0006032265901565551,-0.16472586729824543,-0.8492612058758735
1776554612084658400,10.336658447265625,0.26681159241870045,-0.00393266327381134,-0.8746919997304677
1776554612094698500,10.346698486328124,0.44854880027249455,0.21533464929014443,-0.7090408342808484
1776554612104739300,10.3567392578125,0.5045785843998194,0.3516299563959241,-0.3638426644980907
1776554612114779100,10.366779052734374,0.4298492143690586,0.36419045502245423,0.09136544753313064
1776554612124820500,10.376820556640626,0.35429216134250163,0.1874775050714612,0.5300163925170898
1776554612134861600,10.386861572265625,0.3777677294760942,-0.06446954956203699,0.7530459802240133
1776554612144901400,10.3969013671875,0.4103542403042316,-0.1842594198077917,0.8998188422024249
1776554612154942200,10.406942138671875,0.3133949913520366,-0.12242226457595824,0.9971727164953946
1776554612164982300,10.416982177734376,0.6020750820338726,0.13323475049138067,0.7252922963798045
1776554612175023400,10.4270234375,0.9919190337508916,0.3918909473747015,0.3116062813043594
1776554612185063400,10.4370634765625,0.8009657423276454,0.4884504564195871,0.15881985812485216
1776554612195104300,10.447104248046875,0.4952691234584897,0.6276958455026149,-0.02324702007472515
1776554612205144300,10.457144287109376,0.14050634892955421,0.6998124026864767,-0.2474059040725231
1776554612215185400,10.467185302734375,-0.18371281877569853,0.6612175913542508,-0.3988526030808687
1776554612225226500,10.4772265625,-0.28517946214973927,0.5557070063516497,-0.36551439710259437
1776554612235266600,10.4872666015625,-0.22315248343423008,0.354097515553236,-0.18361761477291583
1776554612245307400,10.497307373046874,-0.19851700467579064,0.10674947914779186,0.028005028256773947
1776554612255347200,10.50734716796875,-0.22452362565696238,-0.10000146619230509,0.19630758499801157
1776554612265388300,10.51738818359375,-0.3413808034516871,-0.17459814975410698,0.3540869941592216
1776554612275429400,10.527429443359376,-0.45728024213016033,-0.04549509223997593,0.5023258370369672
1776554612285469200,10.53746923828125,-0.48438992898240685,0.18237755158394575,0.5836503675490617
1776554612295510300,10.54751025390625,-0.4349187727183103,0.34384529386907814,0.49304596751630303
1776554612305550300,10.55755029296875,-0.3810201554007828,0.3260612153753638,0.20375322482883929
1776554612315591400,10.56759130859375,-0.34803543903529643,0.1894298081830144,-0.21610651044547557
1776554612325631500,10.577631591796875,-0.33274025474786756,0.01799625993967056,-0.545672811332345
1776554612335672300,10.58767236328125,-0.3268874370664358,-0.14161650212854146,-0.7032534830510616
1776554612345713400,10.59771337890625,-0.3129248896222561,-0.2641486568197608,-0.72821022965312
1776554612355753500,10.60775341796875,-0.24327917953133582,-0.34307693984508514,-0.6844488293379545
1776554612365794300,10.617794189453125,-0.138453873379156,-0.42384559004008765,-0.6297258900254964
1776554612375834400,10.62783447265625,-0.04049275390803814,-0.5030728560119867,-0.5747866776138544
1776554612385875500,10.63787548828125,0.02009820065498352,-0.5800894601970911,-0.4856710548341274
1776554612395915300,10.647915283203124,0.023906433831527827,-0.6400333490282297,-0.3602367489606142
1776554612405956400,10.657956298828125,-0.005568301651626825,-0.6621513650730252,-0.18477204550504683
1776554612415997200,10.6679970703125,0.03289148512408137,-0.6175581901088356,-0.004337152421474456
1776554612426037200,10.678037353515625,0.064574909632653,-0.46594607140570876,0.19210896426439283
1776554612436078300,10.688078369140625,-0.018639380148798228,-0.19989333453029393,0.4872510175019502
1776554612446118400,10.698118408203126,0.16471242329478264,0.03150836020261049,0.6270096168041229
1776554612456159200,10.7081591796875,0.4121652352489531,0.10665478660166262,0.6130214234620333
1776554612466199300,10.71819921875,0.024160627788305283,0.15728665720820426,0.9244406577616929
1776554612476240400,10.728240478515625,0.004248305094242096,0.13717793515920637,0.9969254637360572
1776554612486280400,10.738280517578126,0.30308629024028777,-0.0036801498174667355,0.7046715331554413
1776554612496321500,10.748321533203125,0.11938048572726546,-0.026783377507328985,0.6466793629139661
1776554612506362400,10.7583623046875,0.15599778644144535,0.10204583150148391,0.6000187340259552
1776554612516402200,10.768402099609375,0.6187421391963959,0.06263941152542829,0.2877174561947584
1776554612526443300,10.778443359375,0.5093202259689569,-0.09060410777181387,0.2432365094333887
1776554612536483300,10.7884833984375,0.3733678870819509,-0.22320143714249133,0.2183534125894308
1776554612546524200,10.798524169921874,0.440429498963803,-0.3294356602445245,0.01229600247144699
1776554612556564200,10.808564208984375,0.5420131197810173,-0.3047647448465228,-0.1849123307585716
1776554612566605300,10.818605224609374,0.589534895543009,-0.11088614056110381,-0.27309797921180723
1776554612576646400,10.828646484375,0.6415110203653573,0.13346417533308266,-0.27139760503470894
1776554612586686500,10.8386865234375,0.6468214017331599,0.29512217949330805,-0.2095347308397293
1776554612596727300,10.848727294921876,0.611517887031287,0.353368324495852,-0.10041033925414085
1776554612606767400,10.858767333984375,0.5309225475765764,0.28973113410472867,0.057578328743577
1776554612616808400,10.868808349609376,0.44569691797271366,0.1591413451641798,0.19614917956590652
1776554612626848500,10.8788486328125,0.31964068080857394,0.018975918626785278,0.33104221865832806
1776554612636889300,10.888889404296876,0.13251052787005901,-0.10513941360265015,0.4820066871076822
1776554612646929200,10.89892919921875,-0.11217033515274524,-0.1672849041312933,0.5949918457746506
1776554612656970200,10.90897021484375,-0.4359637517265975,-0.15094634827077388,0.6240168647289276
1776554612667011300,10.91901123046875,-0.7432650293134152,-0.006515373243391513,0.511856466448307
1776554612677051400,10.929051513671874,-0.9295504019908607,0.32101386885792016,0.2709732421427965
1776554612687092200,10.93909228515625,-0.9532003037780523,0.6852388106718659,-0.05591945562064647
1776554612697132300,10.94913232421875,-0.7786413169905543,0.9792506908357143,-0.39532852060794826
1776554612707173400,10.95917333984375,-0.5090859788216651,1.1504223732724785,-0.6909340997040271
1776554612717213400,10.96921337890625,-0.2254519925482571,1.0589318380549548,-0.950228009968996
1776554612727254300,10.979254150390625,0.02019756937623024,0.7200871289521455,-1.2306313437581062
1776554612737294300,10.98929443359375,0.2517857265919447,0.23519231918752193,-1.5138345373988151
1776554612747335400,10.99933544921875,0.520562335473299,-0.3159294052004814,-1.7049036372214554
1776554612757375200,11.009375244140625,0.7376642866969109,-0.8316571601241827,-1.6868348965674638
1776554612767416300,11.019416259765626,0.8596078278452157,-1.2861255597040055,-1.4280115264236926
1776554612777457200,11.02945703125,0.8221450892828405,-1.6659686341494322,-0.9294628698378801
1776554612787497200,11.039497314453126,0.5868377654135227,-1.923311702607572,-0.32161212701201436
1776554612797538300,11.049538330078125,0.2488714465804398,-1.9072069555029272,0.2290028168976307
1776554612807578400,11.059578369140626,-0.1288352003581822,-1.6192194501951336,0.7198042203575372
1776554612817619200,11.069619140625,-0.4787048690833151,-1.0642632622107864,1.1193027201265096
1776554612827659300,11.0796591796875,-0.8128431540608405,-0.4575818554252386,1.3540981489509343
1776554612837700400,11.089700439453125,-1.1007558405667544,0.1400505679860711,1.2161486448973418
1776554612847740400,11.099740478515624,-1.2574316724002361,0.5741112625703215,0.6906400851935148
1776554612857781500,11.109781494140625,-1.2560961860127746,0.8368509293749928,0.031253216397762296
1776554612867822300,11.119822265625,-1.0068718343414365,1.0106231496989726,-0.5562812991082668
1776554612877862400,11.1298623046875,-0.537206450151652,1.139048746342957,-0.9443301841020584
1776554612887903500,11.139903564453125,0.05661211405992508,1.2189236625686286,-1.0821031625449657
1776554612897943300,11.149943359375,0.5705291662998497,1.1507520436182617,-0.9208259743958711
1776554612907984400,11.159984375,0.864815479490906,0.8078259104207157,-0.4994780463904142
1776554612918024200,11.170024169921875,0.9018564855098724,0.23084026145786046,-0.12681085492372512
1776554612928065300,11.180065185546875,0.6952361808121204,-0.3863470495119691,0.097802787104249
1776554612938105300,11.190105224609376,0.33745793091952797,-0.8424366205528377,0.19740180997550485
1776554612948146400,11.200146484375,-0.11643106133714318,-1.0256070760801435,0.21076690298318862
1776554612958186500,11.2101865234375,-0.5931926873981952,-0.9669225396603345,0.14915537320077418
1776554612968223200,11.22022314453125,-0.9039110799521207,-0.7476257087409496,-0.038648002824187275
1776554612978264300,11.230264404296875,-0.8701192849874496,-0.460867160706222,-0.29607202756404877
1776554612988304400,11.240304443359374,-0.5718548619456589,-0.15952712961137294,-0.56798751899302
1776554612998345500,11.250345458984375,-0.15784896726608275,0.11238573146909475,-0.716669429463148
1776554613008385500,11.260385498046874,0.2637980898164213,0.34145752194970846,-0.6276549289703369
1776554613018426400,11.27042626953125,0.5708797333031892,0.5332940990135073,-0.35088381420373915
1776554613028466400,11.280466552734374,0.6937221229873597,0.6792632433936,-0.03585574175715446
1776554613038507500,11.290507568359375,0.6190490131884813,0.6852829420745372,0.19983400555849073
1776554613048547600,11.300547607421874,0.3754384097456932,0.5653726603195071,0.2819499787092209
1776554613058588400,11.31058837890625,0.16440277282372115,0.46606151447892186,0.13338321905136108
1776554613068628500,11.32062841796875,0.05624050426855683,0.40447716496437786,-0.04763268879055976
1776554613078669600,11.330669677734376,-0.04735197215303778,0.3379655881807208,-0.006433247917890549
1776554613088709400,11.34070947265625,-0.1176660099595785,0.27325872273147106,0.23276830691099165
1776554613098750500,11.35075048828125,-0.1277495970785618,0.16361995188295841,0.524984243568778
1776554613108790300,11.360790283203125,-0.12828026988916097,-0.009096914169192314,0.6711813514858483
1776554613118831400,11.370831298828126,-0.12796798906959592,-0.14950842442214488,0.5701438202440738
1776554613128872400,11.38087255859375,-0.09738704591020941,-0.16963526664972303,0.29604221694767474
1776554613138912500,11.39091259765625,-0.061083706516027444,-0.054604281368851655,-0.010553542718291281
1776554613148953300,11.400953369140625,0.04814414544403553,0.17593991975188256,-0.18260054668486117
1776554613158993400,11.410993408203124,0.20190438209176062,0.4086939058765769,-0.19341069451272486
1776554613169034500,11.421034423828125,0.33810689634755253,0.49299569863379,-0.1081464864641428
1776554613179074600,11.431074462890624,0.39169586319401856,0.3693973760157823,-0.02675882758796215
1776554613189115600,11.44111572265625,0.394547599363327,0.11698708778470754,0.008874795851111412
1776554613199155500,11.451155517578124,0.42098026373684405,-0.15252075798064468,0.00348258141875267
1776554613209196300,11.4611962890625,0.4290602559484541,-0.33976913047134877,0.0420715475320816
1776554613219236400,11.471236328125,0.38355281568355853,-0.4451771318823099,0.12198796481192112
1776554613229277400,11.48127734375,0.24184015970416364,-0.44836716009527444,0.17720891677439213
1776554613239317500,11.4913173828125,0.059617871747165915,-0.3981324721127748,0.18459610441625118
1776554613249358300,11.5013583984375,-0.1379704737763852,-0.3665077920541167,0.16601590710878372
1776554613259398400,11.5113984375,-0.297348550305888,-0.35715251920968294,0.13910159669816494
1776554613269439500,11.521439453125,-0.380028002558276,-0.34113778847604986,0.1362409465700388
1776554613279478500,11.531478515625,-0.4000595677178353,-0.332112770499289,0.1447545078933239
1776554613289519600,11.54151953125,-0.36418629030399025,-0.3236901023298502,0.17277064206600187
1776554613299559400,11.551559326171875,-0.26340368367135525,-0.306321618899703,0.1918149497538805
1776554613309600300,11.561600341796876,-0.0918539617024362,-0.23576778098791837,0.1873445263415575
1776554613319641300,11.571641357421875,0.08168518051803111,-0.09652063833922148,0.12370645916759967
1776554613329681400,11.581681396484376,0.20298560145720837,0.0818161134213209,-0.02482464465498924
1776554613339722500,11.591722412109375,0.2686339855402708,0.21050854430794716,-0.20370997020900247
1776554613349762600,11.601762451171876,0.26471827340126036,0.3030737230196595,-0.3241173878312111
1776554613359803400,11.611803466796875,0.21851824776232243,0.35911768180280923,-0.2978817073345184
1776554613369843500,11.621843505859376,0.13026947094500063,0.35595103446543214,-0.1845996115475893
1776554613379884500,11.631884521484375,0.07186404372751712,0.33163024767935273,-0.1048304937839508
1776554613389924600,11.641924560546874,0.04948971483409405,0.32686756332218647,-0.09089607645571231
1776554613399965400,11.65196533203125,0.05797288101911544,0.3570668867528438,-0.13255612057745456
1776554613410005200,11.662005126953124,0.09376666345596313,0.43295302560329435,-0.12692659025788305
1776554613420046300,11.67204638671875,0.10430040549524128,0.5018310392573475,-0.04103986639678478
1776554613430086400,11.68208642578125,0.10990165956839919,0.5014098912358284,0.09967033454179763
1776554613440127500,11.69212744140625,0.09047354019470512,0.4123649956047535,0.1763555148154497
1776554613450167300,11.702167236328124,0.0856985078126192,0.3008747516706586,0.11591770498752593
1776554613460208400,11.71220849609375,0.10031447766423225,0.21979396678656338,0.01052139401435852
1776554613470248400,11.72224853515625,0.1622475675512105,0.22848902215659617,-0.06795125419795513
1776554613480289500,11.73228955078125,0.256511001548171,0.3173074155554175,-0.08736439519822597
1776554613490329600,11.74232958984375,0.3043704848319292,0.3409147933751345,0.006111176356673241
1776554613500370400,11.752370361328126,0.33491540682986376,0.2669733588516712,0.17896540505290032
1776554613510410500,11.762410400390625,0.32899887626245616,0.12178162858486175,0.3221849584639072
1776554613520451600,11.77245166015625,0.277715263748914,-0.020186755721271037,0.33761049113273617
1776554613530491400,11.782491455078125,0.23268954258635638,-0.14150895010083914,0.20753332788944243
1776554613540532200,11.7925322265625,0.19802973261550066,-0.22513240520507097,0.053552726489305494
1776554613550572300,11.802572265625,0.160897833442688,-0.20662878026515244,-0.020848142239451407
1776554613560613400,11.81261328125,0.06147182905077934,-0.18081600135564804,0.049261751297116275
1776554613570653400,11.8226533203125,-0.06463043921217322,-0.21976737104058264,0.2309621342718601
1776554613580694500,11.832694580078124,-0.165994864320755,-0.25145342589765785,0.37666298310458657
1776554613590734600,11.842734619140625,-0.23425635351166127,-0.31341420750916005,0.40817572722136974
1776554613600775400,11.852775390625,-0.3026186727285385,-0.40695875264704223,0.3205085496842861
1776554613610815500,11.8628154296875,-0.2858374876670539,-0.5205056368499994,0.16171908669769763
1776554613620856600,11.872856689453124,-0.19829905107617377,-0.6149713884860277,0.004321954852342606
1776554613630897400,11.8828974609375,-0.1326362000763416,-0.7296411392390728,-0.08488952951729298
1776554613640937200,11.892937255859374,-0.1013848833747208,-0.8097717837914824,-0.1282417645096779
1776554613650977300,11.902977294921875,-0.02200140392780304,-0.7697238510414958,-0.15555822598040103
1776554613661018400,11.913018310546875,0.03911912746727467,-0.6325529301449656,-0.1739198121011257
1776554613671059500,11.9230595703125,0.05009381820708513,-0.4556412427514791,-0.141930682644248
1776554613681099500,11.933099609375,0.010243161594867706,-0.28710487725436684,-0.07418868728280067
1776554613691140400,11.943140380859376,-0.029247137272357938,-0.1458969559267163,0.025156068566441533
1776554613701180400,11.953180419921875,-0.02551438048481941,-0.006703589291870594,0.09093407037854194
1776554613711221500,11.963221435546876,0.002473842767626047,0.152466105183959,0.10287760615050792
1776554613721261600,11.973261474609375,0.0030791151843965053,0.3191165108039975,0.0281464825540781
1776554613731302400,11.983302490234376,-0.0036095687992870806,0.43850452225059267,-0.06710778911113739
1776554613741342500,11.993342529296875,0.047400049078464505,0.46440585622638464,-0.12411328640282153
1776554613751383600,12.003383544921874,0.0758138042666018,0.39980215889066456,-0.14569208100438116
1776554613761423400,12.01342333984375,0.1252567573495209,0.23295447713285683,-0.12682312988340855
1776554613771464400,12.02346435546875,0.17477146049439907,0.03180763541013002,-0.13896540309786795
1776554613781504500,12.03350439453125,0.1786076776564121,-0.07267302202284336,-0.2037391963034868
1776554613791545300,12.04354541015625,0.19212679218202827,-0.08219868299812078,-0.32967502195835113
1776554613801585400,12.05358544921875,0.16216566142141817,-0.07805968349725008,-0.4481593625634908
1776554613811626500,12.06362646484375,0.11166121658682822,-0.08728606926500797,-0.5361345831364392
1776554613821666600,12.07366650390625,-0.0014268179327249525,-0.08778232834935187,-0.6362263579607009
1776554613831707400,12.083707275390625,-0.13906944799423218,-0.04614215797185898,-0.6883382379919291
1776554613841747500,12.09374755859375,-0.295609086227417,0.08653905028998851,-0.6622843438029289
1776554613851788500,12.10378857421875,-0.43973157982751726,0.37690468290597195,-0.5451829819887877
1776554613861828400,12.113828369140625,-0.5328466475069522,0.7827028673410416,-0.39094752904474733
1776554613871869400,12.123869384765625,-0.6143260763198137,1.1466323333397508,-0.2402344050079584
1776554613881909200,12.1339091796875,-0.6553579055406152,1.3591370199009776,-0.13631225824058055
1776554613891950300,12.143950439453125,-0.6197048467487096,1.358272804287076,-0.09150573278665541
1776554613901990400,12.153990478515626,-0.4401524355880916,1.1437898033902048,-0.06824409966468811
1776554613912031500,12.164031494140625,-0.1325017600417137,0.8157464742869138,-0.017763035705685614
1776554613922071600,12.174071533203126,0.2238223455198109,0.4334983845263719,0.05150806891918182
1776554613932112400,12.1841123046875,0.5267794564224779,0.009348258581757545,0.12305471726059913
1776554613942152400,12.19415234375,0.7120411851406097,-0.4787830488860607,0.20573475403487682
1776554613952193500,12.204193603515625,0.7152076863475143,-0.936100700417161,0.30468086595535276
1776554613962233600,12.214233642578124,0.5712767697967589,-1.2721478877559302,0.39440205341279505
1776554613972274200,12.224274169921875,0.29114158542454244,-1.3691674155279994,0.4383575149953365
1776554613982314000,12.23431396484375,-0.050506782922148705,-1.2777967072978615,0.39260114147067066
1776554613992355000,12.24435498046875,-0.32476255386695263,-0.9620993572875857,0.21885493237078188
1776554614002395100,12.25439501953125,-0.4166694148004055,-0.6204392985031009,-0.02514846978187561
1776554614012436200,12.264436279296875,-0.3877027019046247,-0.4050280768454075,-0.2381079143732786
1776554614022476300,12.274476318359374,-0.2731536549217999,-0.3509031034260988,-0.37267888190448284
1776554614032517000,12.28451708984375,-0.15488587967678905,-0.41722938677072524,-0.3780950617343187
1776554614042557200,12.29455712890625,-0.0700526103913784,-0.5392246581062674,-0.2946387798905373
1776554614052598300,12.304598388671875,-0.030378040998429057,-0.6424567767828703,-0.22133681231439112
1776554614062638300,12.314638427734375,-0.0013997837953269481,-0.6703516226634383,-0.21035423052906987
1776554614072679200,12.32467919921875,-0.016364859345555306,-0.6107675070554017,-0.2459375850856304
1776554614082719000,12.334718994140625,-0.05723419148102402,-0.5017302092313766,-0.2622849087744951
1776554614092760000,12.344760009765626,-0.10722878709733485,-0.32269904546588657,-0.22843816875219344
1776554614102800100,12.354800048828125,-0.12497019549310207,-0.09465922838151454,-0.1335609137058258
1776554614112841200,12.36484130859375,-0.061900868117809295,0.1485135681658983,-0.03206862443387508
1776554614122881300,12.37488134765625,0.0787416744120419,0.4212149492755532,0.036840661141276355
1776554614132922000,12.384922119140626,0.2723592896737158,0.6304053967222571,0.11689034941196441
1776554614142962200,12.394962158203125,0.43877720171213147,0.7503133403897285,0.17744623266160486
1776554614153003300,12.405003173828124,0.5466349343627691,0.7762301641955971,0.20990824032723904
1776554614163043300,12.415043212890625,0.5717473099179565,0.7329179689526557,0.2238257065206766
1776554614173084200,12.425084228515624,0.43422202262580395,0.7507496859803795,0.23960487493276594
1776554614183124200,12.435124267578125,0.2678377205960452,0.8183116485998034,0.2053133137524128
1776554614193165300,12.445165283203124,0.18053616150096058,0.9273597600787877,0.07263444357812404
1776554614203205000,12.455205078125,0.08571955060064793,0.9573194295346736,-0.10662088433206081
1776554614213246200,12.46524609375,0.035656419792771336,0.8147922423020004,-0.28138357699811456
1776554614223286300,12.475286376953125,-0.03997033746913075,0.4497223740965128,-0.37683950871527194
1776554614233327000,12.4853271484375,-0.18176511877402662,0.03428483917862177,-0.4125204784274101
1776554614243367200,12.4953671875,-0.3505709488622844,-0.30628742436915635,-0.4622171140104532
1776554614253408300,12.505408203125,-0.5108937588959932,-0.47296617930084467,-0.5297685552358627
1776554614263448300,12.5154482421875,-0.6274396787844598,-0.4331166917324066,-0.6132920570969581
1776554614273489200,12.5254892578125,-0.6170930568151176,-0.22267302935421465,-0.6451350560814142
1776554614283529200,12.535529296875,-0.5119475057326257,0.1101265543654561,-0.5340285507678986
1776554614293570300,12.5455703125,-0.3612362813919782,0.39501989305019375,-0.33046237294375896
1776554614303610000,12.555610107421876,-0.14747618794217704,0.5538476422205567,-0.07162731236219405
1776554614313651200,12.565651123046875,0.057500587332248686,0.6101686643794179,0.13502163390815258
1776554614323691000,12.57569091796875,0.23175343078002333,0.555357754522562,0.23997370824515818
1776554614333732000,12.585732177734375,0.38695816714763637,0.4125359682574868,0.26038521263301373
