time,seconds_elapsed,z,y,x
1776554601818174700,0.0701748046875,-0.925140380859375,-0.2686767578125,-0.10638427734375
1776554601828215600,0.080215576171875,-0.919219970703125,-0.2678070068359375,-0.1094970703125
1776554601838255600,0.090255615234375,-0.931304931640625,-0.2819366455078125,-0.09271240234375
1776554601848296700,0.100296630859375,-0.94989013671875,-0.2921142578125,-0.07763671875
1776554601858337500,0.110337646484375,-0.9620361328125,-0.292633056640625,-0.0832977294921875
1776554601868377600,0.120377685546875,-0.96063232421875,-0.28680419921875,-0.093170166015625
1776554601878418700,0.130418701171875,-0.973602294921875,-0.287567138671875,-0.0941925048828125
1776554601888458500,0.14045849609375,-0.9854583740234375,-0.28509521484375,-0.086212158203125
1776554601898499600,0.15049951171875,-0.99383544921875,-0.291656494140625,-0.070037841796875
1776554601908539600,0.16053955078125,-0.997100830078125,-0.2954864501953125,-0.072723388671875
1776554601918580500,0.17058056640625,-0.975677490234375,-0.277587890625,-0.08294677734375
1776554601928620500,0.18062060546875,-0.95855712890625,-0.2714996337890625,-0.092071533203125
1776554601938661600,0.19066162109375,-0.960784912109375,-0.2794189453125,-0.079742431640625
1776554601948701700,0.20070166015625,-0.964752197265625,-0.2884521484375,-0.0477294921875
1776554601958742500,0.210742431640625,-0.9610595703125,-0.2849273681640625,-0.055694580078125
1776554601968783600,0.22078369140625,-0.9742889404296875,-0.2750396728515625,-0.10247802734375
1776554601978823700,0.23082373046875,-0.987030029296875,-0.285369873046875,-0.110382080078125
1776554601988864800,0.24086474609375,-0.9904937744140625,-0.2817230224609375,-0.08905029296875
1776554601998904600,0.250904541015625,-0.975799560546875,-0.2693328857421875,-0.0769805908203125
1776554602008945400,0.2609453125,-0.95989990234375,-0.263458251953125,-0.0871734619140625
1776554602018985500,0.2709853515625,-0.945220947265625,-0.2640380859375,-0.1013336181640625
1776554602029026600,0.281026611328125,-0.928131103515625,-0.26422119140625,-0.1098175048828125
1776554602039066600,0.291066650390625,-0.9168853759765625,-0.2639312744140625,-0.11419677734375
1776554602049107500,0.301107421875,-0.9072265625,-0.267913818359375,-0.115142822265625
1776554602059147500,0.3111474609375,-0.926361083984375,-0.2742156982421875,-0.0956573486328125
1776554602069188600,0.321188720703125,-0.9576263427734375,-0.2729339599609375,-0.0867767333984375
1776554602079229700,0.331229736328125,-0.9765167236328125,-0.25909423828125,-0.0643157958984375
1776554602089269800,0.341269775390625,-0.9734649658203125,-0.263458251953125,-0.0496063232421875
1776554602099310600,0.351310546875,-0.9390106201171875,-0.2589263916015625,-0.0762481689453125
1776554602109350400,0.361350341796875,-0.9311981201171875,-0.2591094970703125,-0.1187744140625
1776554602119391700,0.371391845703125,-0.917755126953125,-0.2557525634765625,-0.131011962890625
1776554602129431600,0.381431640625,-0.8993072509765625,-0.2542877197265625,-0.120819091796875
1776554602139472400,0.391472412109375,-0.9012908935546875,-0.2779693603515625,-0.1111907958984375
1776554602149512400,0.401512451171875,-0.9397735595703125,-0.27947998046875,-0.0933990478515625
1776554602159553500,0.411553466796875,-0.9983062744140625,-0.2780914306640625,-0.0533447265625
1776554602169593600,0.421593505859375,-1.0008087158203125,-0.264190673828125,-0.0540313720703125
1776554602179634700,0.431634765625,-0.9852752685546875,-0.2298431396484375,-0.05657958984375
1776554602189675500,0.441675537109375,-0.9730224609375,-0.22357177734375,-0.0437774658203125
1776554602199715600,0.451715576171875,-0.942138671875,-0.243896484375,-0.056915283203125
1776554602209756700,0.461756591796875,-0.9659576416015625,-0.2724761962890625,-0.082763671875
1776554602219796700,0.471796630859375,-0.921844482421875,-0.262969970703125,-0.078460693359375
1776554602229837600,0.481837646484375,-0.85443115234375,-0.2485198974609375,-0.0927581787109375
1776554602239877400,0.49187744140625,-0.6925506591796875,-0.2938232421875,-0.14984130859375
1776554602249918500,0.50191845703125,-0.69268798828125,-0.2214508056640625,-0.109130859375
1776554602259958500,0.51195849609375,-0.7546234130859375,-0.1015625,-0.0250701904296875
1776554602269999600,0.52199951171875,-0.7642059326171875,-0.0005035400390625,-0.00164794921875
1776554602280039400,0.532039306640625,-0.85003662109375,-0.00341796875,0.0219573974609375
1776554602290080500,0.54208056640625,-0.9509735107421875,-0.083160400390625,0.087890625
1776554602300120600,0.55212060546875,-1.2659912109375,-0.25872802734375,0.0342559814453125
1776554602310161700,0.56216162109375,-1.186065673828125,-0.254058837890625,0.00445556640625
1776554602320202500,0.572202392578125,-1.0990142822265625,-0.2064666748046875,0.0912628173828125
1776554602330242600,0.58224267578125,-1.055328369140625,-0.257232666015625,0.0313568115234375
1776554602340283600,0.59228369140625,-1.039886474609375,-0.276275634765625,-0.0543975830078125
1776554602350323700,0.60232373046875,-1.0281219482421875,-0.2194976806640625,0.00921630859375
1776554602360364800,0.61236474609375,-1.0384521484375,-0.19610595703125,0.029266357421875
1776554602370404600,0.622404541015625,-1.0225830078125,-0.167022705078125,0.0422210693359375
1776554602380445400,0.632445556640625,-1.0492706298828125,-0.137451171875,0.04345703125
1776554602390485500,0.642485595703125,-1.111236572265625,-0.1479949951171875,0.1013336181640625
1776554602400526600,0.652526611328125,-1.1517791748046875,-0.1772308349609375,0.1821441650390625
1776554602410566700,0.662566650390625,-1.0605621337890625,-0.2595672607421875,0.2095184326171875
1776554602420607500,0.672607421875,-1.0202484130859375,-0.2948760986328125,0.1874847412109375
1776554602430648600,0.682648681640625,-1.0122833251953125,-0.2523193359375,0.1326141357421875
1776554602440688600,0.692688720703125,-0.99151611328125,-0.208831787109375,0.072052001953125
1776554602450729700,0.702729736328125,-1.0503997802734375,-0.160400390625,0.0923614501953125
1776554602460769500,0.71276953125,-1.0974273681640625,-0.13616943359375,0.12689208984375
1776554602470810600,0.722810546875,-1.0576629638671875,-0.15655517578125,0.1570892333984375
1776554602480850400,0.732850341796875,-1.0728302001953125,-0.172821044921875,0.220062255859375
1776554602490891500,0.7428916015625,-1.193756103515625,-0.2245025634765625,0.294281005859375
1776554602500931600,0.752931640625,-1.210906982421875,-0.2570037841796875,0.33319091796875
1776554602510972400,0.762972412109375,-1.21575927734375,-0.288116455078125,0.4493865966796875
1776554602521012500,0.773012451171875,-1.1629791259765625,-0.319122314453125,0.50177001953125
1776554602531053600,0.783053466796875,-1.1065673828125,-0.300537109375,0.484405517578125
1776554602541094700,0.7930947265625,-1.035919189453125,-0.26275634765625,0.4141387939453125
1776554602551134500,0.803134521484375,-1.015045166015625,-0.21734619140625,0.3691558837890625
1776554602561175600,0.813175537109375,-1.06378173828125,-0.1798858642578125,0.3596649169921875
1776554602571215600,0.823215576171875,-1.158721923828125,-0.1352081298828125,0.3306427001953125
1776554602581256700,0.833256591796875,-1.183624267578125,-0.1441802978515625,0.330352783203125
1776554602591296800,0.843296875,-1.163116455078125,-0.1894683837890625,0.335296630859375
1776554602601337600,0.853337646484375,-1.114990234375,-0.2069549560546875,0.289154052734375
1776554602611377400,0.86337744140625,-0.9924774169921875,-0.2201995849609375,0.2477264404296875
1776554602621418500,0.87341845703125,-0.8737335205078125,-0.258209228515625,0.228118896484375
1776554602631458600,0.88345849609375,-0.900146484375,-0.30987548828125,0.19085693359375
1776554602641499400,0.89349951171875,-0.8534698486328125,-0.4111328125,0.136474609375
1776554602651540500,0.90354052734375,-0.815826416015625,-0.4899749755859375,0.084197998046875
1776554602661580500,0.91358056640625,-0.8770751953125,-0.5153045654296875,0.030517578125
1776554602671621600,0.92362158203125,-1.0334625244140625,-0.4421844482421875,0.0025634765625
1776554602681661700,0.93366162109375,-1.0601348876953125,-0.2625885009765625,0.009735107421875
1776554602691702500,0.94370263671875,-1.01800537109375,-0.245391845703125,0.2512054443359375
1776554602701742600,0.95374267578125,-1.1529693603515625,-0.18206787109375,0.2027435302734375
1776554602711783700,0.96378369140625,-1.247161865234375,-0.04571533203125,0.1697998046875
1776554602721823500,0.973823486328125,-1.2278289794921875,-0.09814453125,0.000640869140625
1776554602731864600,0.983864501953125,-1.076324462890625,-0.302398681640625,-0.0912628173828125
1776554602741904400,0.993904296875,-1.1003570556640625,-0.4219512939453125,0.0105438232421875
1776554602751945500,1.003945556640625,-1.1649627685546875,-0.3426055908203125,0.0497894287109375
1776554602761986600,1.013986572265625,-1.1232452392578125,-0.20782470703125,-0.0474853515625
1776554602772026600,1.024026611328125,-1.1734771728515625,-0.137725830078125,-0.0830841064453125
1776554602782067500,1.0340673828125,-1.13128662109375,-0.0745849609375,-0.0709228515625
1776554602792107500,1.044107421875,-1.0131988525390625,-0.0074005126953125,0.0838470458984375
1776554602802148600,1.054148681640625,-1.1643829345703125,-0.0760955810546875,0.151519775390625
1776554602812188700,1.064188720703125,-1.2387542724609375,-0.046417236328125,0.0966033935546875
1776554602822229500,1.0742294921875,-1.2595672607421875,0.012237548828125,-0.018524169921875
1776554602832269600,1.08426953125,-1.3043975830078125,0.0324859619140625,-0.041046142578125
1776554602842310700,1.094310546875,-1.2370147705078125,0.017913818359375,-0.04180908203125
1776554602852350500,1.1043505859375,-1.1560821533203125,-0.0511932373046875,-0.061859130859375
1776554602862391600,1.1143916015625,-1.082611083984375,-0.0865936279296875,-0.0337066650390625
1776554602872432400,1.124432373046875,-0.9586944580078125,-0.0312957763671875,0.0953826904296875
1776554602882472400,1.134472412109375,-0.880523681640625,0.084625244140625,0.043426513671875
1776554602892513500,1.144513427734375,-0.76019287109375,0.0754547119140625,-0.0890045166015625
1776554602902553600,1.1545537109375,-0.7327423095703125,-0.0127105712890625,-0.0912322998046875
1776554602912594400,1.164594482421875,-0.57635498046875,-0.1160888671875,0.0069732666015625
1776554602922634500,1.174634521484375,-0.38177490234375,-0.15753173828125,0.083587646484375
1776554602932675600,1.184675537109375,-0.26904296875,-0.1183319091796875,0.0707855224609375
1776554602942715600,1.194715576171875,-0.2523956298828125,-0.00164794921875,-0.0128173828125
1776554602952756700,1.2047568359375,-0.1711578369140625,0.1474609375,-0.1138153076171875
1776554602962797300,1.21479736328125,-0.2747344970703125,0.2269744873046875,-0.2704925537109375
1776554602972837400,1.22483740234375,-0.3261566162109375,0.0964813232421875,-0.2371368408203125
1776554602982878500,1.23487841796875,-0.400482177734375,0.0297698974609375,-0.195648193359375
1776554602992918300,1.244918212890625,-0.408782958984375,0.089996337890625,-0.240386962890625
1776554603002959400,1.25495947265625,-0.3499298095703125,0.262664794921875,-0.34521484375
1776554603012999400,1.26499951171875,-0.2993011474609375,0.384124755859375,-0.417877197265625
1776554603023040300,1.275040283203125,-0.2669525146484375,0.3906707763671875,-0.380096435546875
1776554603033080300,1.285080322265625,-0.2344207763671875,0.3316650390625,-0.2216033935546875
1776554603043121400,1.295121337890625,-0.212554931640625,0.2428741455078125,0.0111846923828125
1776554603053161500,1.305161376953125,-0.23651123046875,0.1875152587890625,0.2562255859375
1776554603063202300,1.315202392578125,-0.287109375,0.21063232421875,0.5048980712890625
1776554603073243400,1.325243408203125,-0.3681640625,0.2367095947265625,0.7391815185546875
1776554603083283500,1.335283447265625,-0.368682861328125,0.3897705078125,0.9631805419921875
1776554603093324500,1.345324462890625,-0.1999969482421875,0.5604248046875,1.1357421875
1776554603103364400,1.3553642578125,-0.0909576416015625,0.5952911376953125,1.362060546875
1776554603113405400,1.365405517578125,0.0507965087890625,0.537750244140625,1.568328857421875
1776554603123445200,1.3754453125,0.1440277099609375,0.4669952392578125,1.7191314697265625
1776554603133486300,1.385486328125,0.1047515869140625,0.4335174560546875,1.919342041015625
1776554603143526400,1.3955263671875,-0.038665771484375,0.320587158203125,1.9666900634765625
1776554603153567200,1.405567138671875,-0.1632843017578125,0.194122314453125,2.014312744140625
1776554603163607300,1.415607177734375,-0.2975006103515625,0.1487884521484375,1.9809417724609375
1776554603173648400,1.4256484375,-0.4027252197265625,0.1149749755859375,1.90313720703125
1776554603183689500,1.435689453125,-0.5137481689453125,0.066680908203125,1.8515167236328125
1776554603193729300,1.445729248046875,-0.5274200439453125,0.01898193359375,1.8660430908203125
1776554603203770400,1.455770263671875,-0.51806640625,-0.00213623046875,1.7815093994140625
1776554603213810400,1.465810546875,-0.4930572509765625,0.0640411376953125,1.7136077880859375
1776554603223851500,1.4758515625,-0.51568603515625,0.0642242431640625,1.657501220703125
1776554603233891300,1.485891357421875,-0.5722503662109375,-0.0518341064453125,1.665985107421875
1776554603243932200,1.49593212890625,-0.6384429931640625,-0.1172943115234375,1.6543731689453125
1776554603253972200,1.50597216796875,-0.7319183349609375,-0.1298065185546875,1.6075897216796875
1776554603264013300,1.516013427734375,-0.76678466796875,-0.133087158203125,1.5301971435546875
1776554603274053400,1.526053466796875,-0.7537384033203125,-0.106109619140625,1.4603271484375
1776554603284094200,1.53609423828125,-0.7542266845703125,-0.0791778564453125,1.40234375
1776554603294135300,1.54613525390625,-0.7253875732421875,-0.0450592041015625,1.3036651611328125
1776554603304175400,1.55617529296875,-0.71368408203125,-0.0111846923828125,1.19952392578125
1776554603314216400,1.566216552734375,-0.720458984375,0.009490966796875,1.1175689697265625
1776554603324256500,1.576256591796875,-0.711761474609375,0.03680419921875,1.059661865234375
1776554603334297300,1.58629736328125,-0.745208740234375,0.0438232421875,1.06536865234375
1776554603344337400,1.59633740234375,-0.7522735595703125,-0.0032196044921875,1.1044921875
1776554603354378500,1.60637841796875,-0.7414398193359375,0.020416259765625,1.10797119140625
1776554603364418300,1.616418212890625,-0.7165374755859375,0.0542755126953125,1.0744476318359375
1776554603374459400,1.62645947265625,-0.6388092041015625,0.0662689208984375,1.03173828125
1776554603384499200,1.636499267578125,-0.562591552734375,0.1064910888671875,0.991119384765625
1776554603394540300,1.646540283203125,-0.46942138671875,0.1492767333984375,0.9546966552734375
1776554603404581400,1.656581298828125,-0.38336181640625,0.1805877685546875,0.964569091796875
1776554603414621400,1.666621337890625,-0.3247833251953125,0.2187652587890625,0.94940185546875
1776554603424662300,1.676662353515625,-0.352569580078125,0.201141357421875,0.8748626708984375
1776554603434702300,1.686702392578125,-0.306915283203125,0.228973388671875,0.9855499267578125
1776554603444743400,1.696743408203125,-0.2415771484375,0.2278289794921875,1.016998291015625
1776554603454783500,1.706783447265625,-0.1968841552734375,0.237640380859375,1.019134521484375
1776554603464824300,1.71682421875,-0.1526641845703125,0.2694091796875,0.9800872802734375
1776554603474864000,1.726864013671875,-0.15484619140625,0.3115386962890625,0.973480224609375
1776554603484905200,1.7369052734375,-0.1756439208984375,0.300537109375,0.990234375
1776554603494946300,1.7469462890625,-0.23760986328125,0.2294921875,1.0066986083984375
1776554603504986400,1.756986328125,-0.27398681640625,0.173309326171875,1.01171875
1776554603515027200,1.767027099609375,-0.25726318359375,0.170074462890625,0.988922119140625
1776554603525067300,1.7770673828125,-0.2259674072265625,0.16668701171875,0.92877197265625
1776554603535108400,1.7871083984375,-0.2083892822265625,0.149383544921875,0.8983154296875
1776554603545148400,1.7971484375,-0.217498779296875,0.0815277099609375,0.9496917724609375
1776554603555189200,1.807189208984375,-0.273956298828125,-0.0234222412109375,1.01666259765625
1776554603565229300,1.817229248046875,-0.30291748046875,-0.0990447998046875,1.043792724609375
1776554603575270400,1.8272705078125,-0.334014892578125,-0.1526336669921875,1.06097412109375
1776554603585311500,1.8373115234375,-0.32672119140625,-0.1965789794921875,1.0525360107421875
1776554603595351600,1.8473515625,-0.2679290771484375,-0.211700439453125,1.05987548828125
1776554603605392400,1.857392333984375,-0.2616424560546875,-0.2237396240234375,1.11297607421875
1776554603615432200,1.86743212890625,-0.24639892578125,-0.2404632568359375,1.135284423828125
1776554603625473300,1.877473388671875,-0.2606048583984375,-0.2642974853515625,1.1738739013671875
1776554603635513300,1.887513427734375,-0.32171630859375,-0.29327392578125,1.2111053466796875
1776554603645554400,1.897554443359375,-0.375823974609375,-0.287261962890625,1.207855224609375
1776554603655594200,1.90759423828125,-0.411346435546875,-0.2615509033203125,1.257232666015625
1776554603665635300,1.91763525390625,-0.39642333984375,-0.2275848388671875,1.3597564697265625
1776554603675675400,1.92767529296875,-0.418121337890625,-0.231658935546875,1.38677978515625
1776554603685716500,1.937716552734375,-0.457366943359375,-0.2157745361328125,1.3026275634765625
1776554603695757300,1.94775732421875,-0.4405517578125,-0.2106475830078125,1.210723876953125
1776554603705797400,1.95779736328125,-0.4102935791015625,-0.2062530517578125,1.1102142333984375
1776554603715838500,1.96783837890625,-0.3704071044921875,-0.0744476318359375,1.113128662109375
1776554603725878300,1.977878173828125,-0.4272918701171875,0.0298309326171875,1.0168304443359375
1776554603735919400,1.98791943359375,-0.5056915283203125,-0.110015869140625,0.978179931640625
1776554603745959200,1.997959228515625,-0.5399627685546875,-0.1609649658203125,0.95196533203125
1776554603756000300,2.008000244140625,-0.5016021728515625,-0.208526611328125,0.9543304443359375
1776554603766040300,2.018040283203125,-0.439849853515625,-0.2059783935546875,1.000762939453125
1776554603776081400,2.028081298828125,-0.3646392822265625,-0.08551025390625,0.9948883056640625
1776554603786122200,2.038122314453125,-0.3125762939453125,0.0205230712890625,0.9283294677734375
1776554603796162300,2.048162353515625,-0.2407379150390625,0.0289764404296875,0.7847442626953125
1776554603806203400,2.058203369140625,-0.1406707763671875,0.008941650390625,0.6464080810546875
1776554603816243500,2.068243408203125,-0.207244873046875,0.024322509765625,0.6557464599609375
1776554603826284300,2.0782841796875,-0.208740234375,0.0749969482421875,0.58099365234375
1776554603836324400,2.088324462890625,-0.2907257080078125,-0.0046234130859375,0.5303955078125
1776554603846365400,2.098365478515625,-0.30023193359375,-0.0793914794921875,0.5577239990234375
1776554603856405200,2.1084052734375,-0.2689971923828125,-0.09185791015625,0.615997314453125
1776554603866446300,2.1184462890625,-0.2567138671875,-0.039703369140625,0.67816162109375
1776554603876487200,2.128487060546875,-0.2492828369140625,-0.0195465087890625,0.664337158203125
1776554603886527200,2.13852734375,-0.32659912109375,0.0364227294921875,0.6080322265625
1776554603896568300,2.148568359375,-0.4818572998046875,0.09716796875,0.5311431884765625
1776554603906608400,2.1586083984375,-0.6405181884765625,0.1258697509765625,0.3441314697265625
1776554603916649200,2.168649169921875,-0.738800048828125,0.0729827880859375,0.315582275390625
1776554603926689300,2.178689208984375,-0.8019561767578125,0.002166748046875,0.50189208984375
1776554603936730400,2.18873046875,-0.8082733154296875,0.0433349609375,0.55010986328125
1776554603946770400,2.1987705078125,-0.8155059814453125,0.052978515625,0.385833740234375
1776554603956811500,2.2088115234375,-0.806854248046875,-0.0674285888671875,0.2631988525390625
1776554603966852900,2.218852783203125,-0.7240753173828125,-0.1066436767578125,0.33154296875
1776554603976892700,2.228892578125,-0.883453369140625,-0.2356109619140625,0.099456787109375
1776554603986933800,2.238933837890625,-0.9046173095703125,-0.33660888671875,-0.1410064697265625
1776554603996973800,2.248973876953125,-0.5104522705078125,-0.27099609375,0.1903839111328125
1776554604007014700,2.2590146484375,-0.6773834228515625,-0.123870849609375,0.525970458984375
1776554604017054700,2.2690546875,-0.4876251220703125,0.0453033447265625,0.5965118408203125
1776554604027095800,2.279095703125,-0.3871917724609375,0.1135711669921875,0.6898193359375
1776554604037136000,2.289135986328125,-0.4447479248046875,0.1120452880859375,0.743316650390625
1776554604047177000,2.299177001953125,-0.5099945068359375,-0.0194244384765625,0.732391357421875
1776554604057217800,2.3092177734375,-0.668975830078125,-0.1219482421875,0.73614501953125
1776554604067257900,2.3192578125,-0.76483154296875,-0.3174591064453125,0.790985107421875
1776554604077299000,2.329298828125,-0.724853515625,-0.4834136962890625,0.8637847900390625
1776554604087339000,2.339339111328125,-0.724395751953125,-0.45574951171875,1.163909912109375
1776554604097379800,2.3493798828125,-0.5795135498046875,-0.3338775634765625,1.306793212890625
1776554604107419600,2.359419677734375,-0.448516845703125,-0.11541748046875,1.3126678466796875
1776554604117460700,2.369460693359375,-0.3946990966796875,0.059478759765625,1.1949462890625
1776554604127500800,2.379500732421875,-0.47015380859375,0.0402679443359375,1.046966552734375
1776554604137542000,2.3895419921875,-0.644073486328125,-0.360382080078125,1.0745391845703125
1776554604147582700,2.399582763671875,-0.76495361328125,-0.6882781982421875,1.1991119384765625
1776554604157622800,2.409622802734375,-0.8375396728515625,-0.6606903076171875,1.28497314453125
1776554604167663900,2.419663818359375,-0.7848052978515625,-0.3532257080078125,1.181884765625
1776554604177704000,2.429703857421875,-0.7006072998046875,-0.2871856689453125,1.0084228515625
1776554604187744800,2.439744873046875,-0.654754638671875,-0.415008544921875,0.9382476806640625
1776554604197784800,2.449784912109375,-0.72222900390625,-0.5245208740234375,1.0848236083984375
1776554604207826000,2.459825927734375,-0.85687255859375,-0.7297210693359375,1.4385986328125
1776554604217865700,2.46986572265625,-0.8017578125,-0.73486328125,1.70098876953125
1776554604227906800,2.47990673828125,-0.704620361328125,-0.6234130859375,1.7078094482421875
1776554604237947600,2.48994775390625,-0.5536041259765625,-0.522552490234375,1.5467071533203125
1776554604247987700,2.49998779296875,-0.646148681640625,-0.501129150390625,1.4167938232421875
1776554604258028800,2.51002880859375,-0.732696533203125,-0.5841522216796875,1.351806640625
1776554604268068900,2.52006884765625,-0.709991455078125,-0.8707122802734375,1.5967864990234375
1776554604278109700,2.530109619140625,-0.54083251953125,-0.71044921875,1.664398193359375
1776554604288149800,2.540149658203125,-0.2181396484375,-0.32568359375,1.3965606689453125
1776554604298190800,2.55019091796875,0.059478759765625,-0.3293914794921875,1.214630126953125
1776554604308231000,2.56023095703125,0.0830535888671875,-0.255889892578125,1.0032806396484375
1776554604318272000,2.57027197265625,-0.142486572265625,-0.00732421875,0.3666839599609375
1776554604328312800,2.580312744140625,-0.1068267822265625,-0.2008209228515625,0.40838623046875
1776554604338353000,2.590352783203125,-0.038848876953125,0.00244140625,0.260284423828125
1776554604348394000,2.60039404296875,0.0062255859375,0.21649169921875,-0.1746063232421875
1776554604358433800,2.610433837890625,-0.1261138916015625,0.09033203125,-0.099822998046875
1776554604368474600,2.620474609375,-0.2664642333984375,-0.0308990478515625,-0.159637451171875
1776554604378514700,2.6305146484375,-0.7350616455078125,-0.1053619384765625,-0.1732025146484375
1776554604388555800,2.6405556640625,-1.3149261474609375,-0.3551025390625,0.2147216796875
1776554604398596900,2.650596923828125,-0.9141082763671875,-0.4869232177734375,-0.051300048828125
1776554604408637000,2.660636962890625,-0.62384033203125,-0.3909912109375,0.0172882080078125
1776554604418677800,2.670677734375,-0.5985565185546875,-0.272796630859375,0.0001220703125
1776554604428717800,2.6807177734375,-0.403045654296875,-0.0507049560546875,-0.181732177734375
1776554604438759000,2.690759033203125,-0.4676666259765625,0.12750244140625,-0.1337890625
1776554604448799000,2.700799072265625,-0.6099395751953125,0.038360595703125,-0.0244903564453125
1776554604458839800,2.71083984375,-0.7654876708984375,-0.0086669921875,0.07415771484375
1776554604468879600,2.720879638671875,-1.098297119140625,-0.1005401611328125,0.1341705322265625
1776554604478920700,2.730920654296875,-1.196197509765625,-0.37249755859375,0.2528076171875
1776554604488961800,2.7409619140625,-1.53594970703125,-0.556915283203125,0.4875640869140625
1776554604499001900,2.751001953125,-1.4827728271484375,-0.4087371826171875,0.5028533935546875
1776554604509042700,2.761042724609375,-1.08087158203125,-0.2993621826171875,0.4939727783203125
1776554604519082800,2.771082763671875,-0.7042999267578125,-0.27679443359375,0.591766357421875
1776554604529123800,2.781123779296875,-0.6479339599609375,-0.199432373046875,0.390380859375
1776554604539164000,2.791163818359375,-0.323822021484375,-0.175140380859375,0.4391326904296875
1776554604549204700,2.801204833984375,-0.1624755859375,-0.2404937744140625,0.5646514892578125
1776554604559245800,2.811245849609375,-0.13177490234375,-0.218048095703125,0.6012725830078125
1776554604569286000,2.821285888671875,-0.2914886474609375,-0.325836181640625,0.6755218505859375
1776554604579327000,2.831326904296875,-0.4959869384765625,-0.2362060546875,0.596099853515625
1776554604589367000,2.841366943359375,-0.4062957763671875,-0.027801513671875,0.4217681884765625
1776554604599407900,2.851407958984375,-0.2793121337890625,0.1023712158203125,0.3025054931640625
1776554604609447700,2.86144775390625,-0.17340087890625,0.0984954833984375,0.082366943359375
1776554604619488800,2.87148876953125,-0.3378448486328125,0.212249755859375,0.0699462890625
1776554604629529600,2.881529541015625,-0.6188201904296875,0.4107513427734375,-0.1329345703125
1776554604639569700,2.891569580078125,-0.5601043701171875,0.7420501708984375,0.2337188720703125
1776554604649610800,2.90161083984375,-0.412139892578125,1.039581298828125,0.2410430908203125
1776554604659650800,2.91165087890625,-0.263916015625,1.063232421875,0.246795654296875
1776554604669692000,2.92169189453125,-0.4942169189453125,0.9859466552734375,0.7711944580078125
1776554604679732000,2.93173193359375,-1.02606201171875,1.216796875,1.46661376953125
1776554604689772800,2.941772705078125,-1.300262451171875,0.64019775390625,1.993499755859375
1776554604699812900,2.951812744140625,-1.4818572998046875,-0.432464599609375,2.47149658203125
1776554604709854000,2.96185400390625,-1.542816162109375,-0.3920135498046875,2.0707550048828125
1776554604719894800,2.971894775390625,-1.2247772216796875,0.165130615234375,1.5343170166015625
1776554604729934600,2.9819345703125,-1.0631256103515625,0.304595947265625,1.3743896484375
1776554604739976000,2.991975830078125,-1.3453369140625,-0.188140869140625,2.1991729736328125
1776554604750015700,3.002015625,-1.474884033203125,-0.328948974609375,2.3147125244140625
1776554604760056800,3.012056884765625,-1.56134033203125,-0.2269744873046875,1.91455078125
1776554604770097000,3.022096923828125,-1.5189208984375,-0.185577392578125,1.355133056640625
1776554604780137700,3.0321376953125,-1.3646392822265625,-0.2316131591796875,1.094268798828125
1776554604790178800,3.0421787109375,-1.164825439453125,-0.3269805908203125,1.10406494140625
1776554604800219000,3.052218994140625,-0.85205078125,-0.4340362548828125,1.118408203125
1776554604810259700,3.062259765625,-0.5477447509765625,-0.435302734375,1.1710662841796875
1776554604820299800,3.0722998046875,-0.3989715576171875,-0.352264404296875,1.115142822265625
1776554604830340900,3.0823408203125,-0.4820404052734375,-0.15087890625,1.03338623046875
1776554604840381000,3.092380859375,-0.6060028076171875,-0.0014801025390625,1.120147705078125
1776554604850422000,3.102422119140625,-0.956512451171875,-0.07598876953125,1.3346710205078125
1776554604860461800,3.1124619140625,-1.1639251708984375,-0.0940399169921875,1.4521331787109375
1776554604870502700,3.122502685546875,-1.0888519287109375,-0.1298370361328125,1.581573486328125
1776554604880543700,3.132543701171875,-0.9049835205078125,-0.267852783203125,1.6634521484375
1776554604890583800,3.142583740234375,-0.90521240234375,-0.31903076171875,1.64495849609375
1776554604900624600,3.152624755859375,-0.557861328125,-0.1995391845703125,1.552734375
1776554604910664700,3.162664794921875,-0.3059844970703125,0.2195587158203125,1.2803802490234375
1776554604920705800,3.172705810546875,-0.325164794921875,0.4766998291015625,0.94158935546875
1776554604930745900,3.182745849609375,-0.335418701171875,0.5351104736328125,0.491363525390625
1776554604940787000,3.192786865234375,-0.46929931640625,0.4908905029296875,0.2150726318359375
1776554604950827800,3.202827880859375,-0.6030120849609375,0.368194580078125,0.0300445556640625
1776554604960866800,3.21286669921875,-0.7312774658203125,0.201080322265625,-0.051971435546875
1776554604970908000,3.222907958984375,-0.87335205078125,-0.1104736328125,0.1256866455078125
1776554604980948000,3.232947998046875,-0.779815673828125,-0.560882568359375,0.3327789306640625
1776554604990989000,3.242989013671875,-0.4822998046875,-0.818878173828125,0.4938201904296875
1776554605001029000,3.253029052734375,-0.5223388671875,-0.7256011962890625,0.6288909912109375
1776554605011070000,3.263070068359375,-0.4388275146484375,-0.318267822265625,0.497650146484375
1776554605021111000,3.273111083984375,-0.320343017578125,0.104766845703125,0.2441558837890625
1776554605031151000,3.283151123046875,-0.1736297607421875,0.297149658203125,0.0531768798828125
1776554605041192000,3.29319189453125,-0.1632537841796875,0.4210662841796875,-0.1289520263671875
1776554605051231700,3.303231689453125,-0.2717132568359375,0.21490478515625,-0.0067291259765625
1776554605061272800,3.31327294921875,-0.2974853515625,0.03533935546875,-0.159576416015625
1776554605071313000,3.32331298828125,-0.45880126953125,-0.1587066650390625,-0.13922119140625
1776554605081354000,3.33335400390625,-0.75982666015625,-0.036590576171875,-0.13812255859375
1776554605091394800,3.343394775390625,-0.934967041015625,0.0558624267578125,-0.0903778076171875
1776554605101435000,3.353434814453125,-1.0647430419921875,-0.1513519287109375,0.0280914306640625
1776554605111476000,3.36347607421875,-1.2488250732421875,0.06890869140625,0.1283416748046875
1776554605121516000,3.37351611328125,-1.2778472900390625,0.1425933837890625,0.220245361328125
1776554605131556900,3.383556884765625,-1.0508575439453125,0.180999755859375,0.134033203125
1776554605141597000,3.393596923828125,-0.7962799072265625,0.2828521728515625,0.009979248046875
1776554605151638000,3.403637939453125,-0.4956817626953125,0.4341583251953125,0.0933685302734375
1776554605161678000,3.413677978515625,-0.5060272216796875,0.4168853759765625,0.31427001953125
1776554605171719200,3.42371923828125,-0.5991363525390625,0.41107177734375,0.445556640625
1776554605181760000,3.433760009765625,-0.358123779296875,0.5165252685546875,0.4413604736328125
1776554605191799800,3.4437998046875,-0.28033447265625,0.608428955078125,0.3431854248046875
1776554605201841000,3.4538408203125,-0.2705841064453125,0.8484039306640625,0.267486572265625
1776554605211881000,3.463880859375,-0.45428466796875,0.79302978515625,0.4856414794921875
1776554605221922000,3.473922119140625,-0.4052886962890625,0.524017333984375,0.8997802734375
1776554605231961900,3.4839619140625,-0.2544708251953125,0.29669189453125,1.3657073974609375
1776554605242003000,3.4940029296875,-0.1607513427734375,0.249755859375,1.5601806640625
1776554605252044000,3.5040439453125,-0.115447998046875,0.166717529296875,1.7178497314453125
1776554605262084000,3.514083984375,-0.1912078857421875,0.2408905029296875,1.77960205078125
1776554605272125000,3.524125,-0.5333404541015625,0.2551422119140625,1.8372344970703125
1776554605282165000,3.5341650390625,-0.762786865234375,-0.011260986328125,2.1284027099609375
1776554605292206000,3.5442060546875,-0.8890228271484375,-0.1944732666015625,2.045806884765625
1776554605302246100,3.55424609375,-0.9915008544921875,-0.0780029296875,1.533843994140625
1776554605312287000,3.564286865234375,-1.085418701171875,0.3447113037109375,1.0776824951171875
1776554605322328000,3.574328125,-1.184722900390625,0.104400634765625,1.6555938720703125
1776554605332368000,3.584367919921875,-1.090545654296875,-0.15765380859375,2.05889892578125
1776554605342409000,3.594408935546875,-0.9250335693359375,-0.02520751953125,1.881805419921875
1776554605352449000,3.604448974609375,-0.7663421630859375,0.1461029052734375,1.6634521484375
1776554605362489900,3.61448974609375,-0.6870880126953125,0.29083251953125,1.4223480224609375
1776554605372530000,3.624530029296875,-0.6051025390625,0.35650634765625,1.15869140625
1776554605382571000,3.634571044921875,-0.459869384765625,0.3009490966796875,1.079132080078125
1776554605392612000,3.644612060546875,-0.2988128662109375,0.271209716796875,1.0547027587890625
1776554605402652000,3.65465185546875,-0.138336181640625,0.311065673828125,0.973114013671875
1776554605412693000,3.66469287109375,-0.068328857421875,0.37591552734375,0.8175201416015625
1776554605422733000,3.674733154296875,-0.11297607421875,0.405029296875,0.7065277099609375
1776554605432774100,3.684774169921875,-0.18804931640625,0.4646453857421875,0.58642578125
1776554605442814000,3.69481396484375,-0.2643280029296875,0.4303741455078125,0.5409088134765625
1776554605452854800,3.704854736328125,-0.283843994140625,0.36334228515625,0.6168060302734375
1776554605462895900,3.714895751953125,-0.3531036376953125,0.3676300048828125,0.81658935546875
1776554605472936000,3.72493603515625,-0.4358978271484375,0.4207000732421875,0.912689208984375
1776554605482977000,3.73497705078125,-0.51611328125,0.521453857421875,0.8633270263671875
1776554605493016800,3.745016845703125,-0.54608154296875,0.5792694091796875,0.9107818603515625
1776554605503058000,3.755057861328125,-0.49713134765625,0.573394775390625,0.83343505859375
1776554605513098000,3.765097900390625,-0.417938232421875,0.5775909423828125,0.889495849609375
1776554605523139000,3.77513916015625,-0.547454833984375,0.7139434814453125,1.0025787353515625
1776554605533180000,3.785179931640625,-0.505584716796875,0.8788604736328125,1.0439453125
1776554605543220000,3.795219970703125,-0.49859619140625,0.8734283447265625,0.9284820556640625
1776554605553261000,3.805260986328125,-0.5096435546875,0.69366455078125,0.6365203857421875
1776554605563301000,3.815301025390625,-0.39013671875,0.4791107177734375,0.6140899658203125
1776554605573342200,3.82534228515625,-0.41143798828125,0.5059661865234375,0.54876708984375
1776554605583382000,3.835382080078125,-0.424896240234375,0.4276580810546875,0.4398193359375
1776554605593422800,3.8454228515625,-0.3645477294921875,0.4559326171875,0.3640289306640625
1776554605603464000,3.8554638671875,-0.3762054443359375,0.5640411376953125,0.4593963623046875
1776554605613504000,3.86550390625,-0.578094482421875,0.64044189453125,0.5759124755859375
1776554605623544800,3.875544921875,-0.6806182861328125,0.681915283203125,0.5687713623046875
1776554605633585000,3.8855849609375,-0.6846160888671875,0.709747314453125,0.5900421142578125
1776554605643626000,3.8956259765625,-0.4964141845703125,0.553375244140625,0.5099029541015625
1776554605653666000,3.905666015625,-0.2822113037109375,0.25042724609375,0.4041900634765625
1776554605663707100,3.91570703125,-0.2400054931640625,0.31451416015625,0.5291748046875
1776554605673748000,3.925748046875,-0.2208404541015625,0.270965576171875,0.6767578125
1776554605683788000,3.9357880859375,-0.1911468505859375,0.2188568115234375,0.844482421875
1776554605693829000,3.9458291015625,-0.245758056640625,0.131927490234375,0.9696044921875
1776554605703869000,3.955868896484375,-0.4125823974609375,0.0250091552734375,1.051727294921875
1776554605713909800,3.96590966796875,-0.5826263427734375,-0.038543701171875,1.30438232421875
1776554605723949800,3.97594970703125,-0.659149169921875,-0.1679534912109375,1.4649810791015625
1776554605733991000,3.985990966796875,-0.6678466796875,-0.2159423828125,1.385162353515625
1776554605744032000,3.996031982421875,-0.60089111328125,-0.0890655517578125,1.2715301513671875
1776554605754072000,4.006072021484375,-0.4999542236328125,0.0844879150390625,1.145599365234375
1776554605764113000,4.01611279296875,-0.3914794921875,0.2040557861328125,0.95703125
1776554605774153000,4.026153076171875,-0.3325347900390625,0.36175537109375,0.856475830078125
1776554605784194000,4.036194091796875,-0.3747711181640625,0.3444366455078125,0.8122711181640625
1776554605794234000,4.046234130859375,-0.45263671875,0.3419342041015625,0.7344818115234375
1776554605804275000,4.05627490234375,-0.491912841796875,0.3913726806640625,0.7047576904296875
1776554605814316000,4.06631591796875,-0.4637451171875,0.40728759765625,0.675048828125
1776554605824356000,4.076356201171875,-0.4566650390625,0.5308380126953125,0.7021942138671875
1776554605834397200,4.086397216796875,-0.4602508544921875,0.605499267578125,0.66400146484375
1776554605844437000,4.09643701171875,-0.45684814453125,0.5732421875,0.6347808837890625
1776554605854477800,4.106477783203125,-0.5340118408203125,0.5731201171875,0.6909637451171875
1776554605864519000,4.116518798828125,-0.5010833740234375,0.5692901611328125,0.71087646484375
1776554605874559000,4.12655908203125,-0.5060272216796875,0.56744384765625,0.7403411865234375
1776554605884599800,4.136599853515625,-0.544525146484375,0.5349273681640625,0.7301177978515625
1776554605894639900,4.146639892578125,-0.6617431640625,0.55596923828125,0.7790069580078125
1776554605904681000,4.156680908203125,-0.6849517822265625,0.5467529296875,0.8058624267578125
1776554605914721000,4.166720947265625,-0.765716552734375,0.5368499755859375,0.8416290283203125
1776554605924762000,4.17676220703125,-0.7324676513671875,0.45703125,0.850372314453125
1776554605934803000,4.186802978515625,-0.5942535400390625,0.448150634765625,0.8387298583984375
1776554605944843000,4.196843017578125,-0.4777984619140625,0.48529052734375,0.8108367919921875
1776554605954884000,4.206884033203125,-0.3521270751953125,0.45697021484375,0.7698516845703125
1776554605964924200,4.216924072265625,-0.2775726318359375,0.49072265625,0.675628662109375
1776554605974965000,4.226965087890625,0.006622314453125,0.33184814453125,0.6183624267578125
1776554605985005000,4.237005126953125,-0.18023681640625,0.2945556640625,0.6715087890625
1776554605995046100,4.247046142578125,-0.3345184326171875,0.4126434326171875,0.67926025390625
1776554606005087200,4.257087158203125,-0.5377960205078125,0.63861083984375,0.6783294677734375
1776554606015127300,4.267127197265625,-0.385986328125,0.325469970703125,0.497222900390625
1776554606025168100,4.277168212890625,-0.392791748046875,0.258758544921875,0.400726318359375
1776554606035208000,4.2872080078125,-0.5139923095703125,0.3389892578125,0.4352874755859375
1776554606045249000,4.2972490234375,-0.51678466796875,0.3918609619140625,0.4434051513671875
1776554606055289900,4.307289794921875,-0.7674407958984375,0.58026123046875,0.4636993408203125
1776554606065330000,4.317329833984375,-0.6188201904296875,0.4881439208984375,0.532012939453125
1776554606075371000,4.32737109375,-0.4752960205078125,0.4173126220703125,0.58148193359375
1776554606085411000,4.3374111328125,-0.643798828125,0.4821624755859375,0.6621551513671875
1776554606095452200,4.3474521484375,-0.434967041015625,0.4744415283203125,0.70281982421875
1776554606105493000,4.357492919921875,-0.3671112060546875,0.473388671875,0.7293853759765625
1776554606115533000,4.367532958984375,-0.3246002197265625,0.5408782958984375,0.7275848388671875
1776554606125574100,4.37757421875,-0.27880859375,0.5494232177734375,0.7125701904296875
1776554606135614200,4.3876142578125,-0.32940673828125,0.540435791015625,0.6728363037109375
1776554606145655000,4.397655029296875,-0.3965606689453125,0.5287628173828125,0.638671875
1776554606155695000,4.407695068359375,-0.523590087890625,0.6023101806640625,0.7138214111328125
1776554606165736200,4.417736083984375,-0.6309356689453125,0.6592559814453125,0.8028717041015625
1776554606175777300,4.42777734375,-0.6335906982421875,0.676025390625,0.882110595703125
1776554606185817000,4.437817138671875,-0.4938812255859375,0.6519775390625,0.9302825927734375
1776554606195858000,4.44785791015625,-0.40911865234375,0.5898590087890625,0.957916259765625
1776554606205898000,4.45789794921875,-0.3937225341796875,0.5358428955078125,0.9670257568359375
1776554606215939000,4.46793896484375,-0.395355224609375,0.5156402587890625,0.8924713134765625
1776554606225979100,4.477979248046875,-0.38507080078125,0.58538818359375,0.7642669677734375
1776554606236020000,4.48802001953125,-0.34686279296875,0.6253662109375,0.6862640380859375
1776554606246061000,4.49806103515625,-0.3134765625,0.6087799072265625,0.68902587890625
1776554606256101000,4.50810107421875,-0.33905029296875,0.578826904296875,0.7355499267578125
1776554606266142200,4.51814208984375,-0.33837890625,0.561004638671875,0.7883453369140625
1776554606276182300,4.528182373046875,-0.3169403076171875,0.5505523681640625,0.8114166259765625
1776554606286223000,4.53822314453125,-0.2783355712890625,0.5108489990234375,0.78704833984375
1776554606296264200,4.54826416015625,-0.235687255859375,0.46722412109375,0.7154693603515625
1776554606306304300,4.55830419921875,-0.1756744384765625,0.4573211669921875,0.6439361572265625
1776554606316345000,4.568344970703125,-0.1808013916015625,0.52349853515625,0.6363983154296875
1776554606326385000,4.578385009765625,-0.2226104736328125,0.5802001953125,0.7146759033203125
1776554606336426000,4.588426025390625,-0.2731781005859375,0.6078643798828125,0.763763427734375
1776554606346467000,4.598467041015625,-0.3607025146484375,0.6197509765625,0.786407470703125
1776554606356507100,4.608507080078125,-0.392333984375,0.5030059814453125,0.8674163818359375
1776554606366548000,4.6185478515625,-0.31683349609375,0.384124755859375,0.8984375
1776554606376588000,4.628588134765625,-0.3636474609375,0.351348876953125,0.948974609375
1776554606386629000,4.638629150390625,-0.36163330078125,0.2596588134765625,0.896240234375
1776554606396669200,4.648669189453125,-0.352508544921875,0.2558746337890625,0.7856597900390625
1776554606406710300,4.658710205078125,-0.383209228515625,0.3158111572265625,0.73504638671875
1776554606416751000,4.668751220703125,-0.3182830810546875,0.31365966796875,0.7277984619140625
1776554606426791200,4.678791259765625,-0.2478179931640625,0.2901153564453125,0.7386322021484375
1776554606436832300,4.688832275390625,-0.213653564453125,0.3036956787109375,0.7529144287109375
1776554606446872000,4.6988720703125,-0.16650390625,0.351470947265625,0.7365264892578125
1776554606456913000,4.708912841796875,-0.132110595703125,0.36785888671875,0.721160888671875
1776554606466954000,4.7189541015625,-0.0713043212890625,0.3409423828125,0.705535888671875
1776554606476994000,4.728994140625,-0.092864990234375,0.2984466552734375,0.7035064697265625
1776554606487035100,4.73903515625,-0.1760406494140625,0.33612060546875,0.745147705078125
1776554606497075200,4.7490751953125,-0.253631591796875,0.3911590576171875,0.848419189453125
1776554606507116000,4.759115966796875,-0.2860565185546875,0.418243408203125,0.9681549072265625
1776554606517156000,4.769156005859375,-0.2510986328125,0.418731689453125,1.0735015869140625
1776554606527197200,4.779197265625,-0.19500732421875,0.4514617919921875,1.156982421875
1776554606537238000,4.789238037109375,-0.1227569580078125,0.4431915283203125,1.2252655029296875
1776554606547278000,4.799278076171875,-0.044586181640625,0.4275360107421875,1.2458648681640625
1776554606557319200,4.809319091796875,0.0023651123046875,0.4669647216796875,1.19488525390625
1776554606567359200,4.819359130859375,-0.0580902099609375,0.5601348876953125,1.164031982421875
1776554606577400300,4.829400390625,-0.1707305908203125,0.6922607421875,1.152252197265625
1776554606587441200,4.839441162109375,-0.14501953125,0.6481170654296875,1.133941650390625
1776554606597481000,4.84948095703125,-0.1497955322265625,0.59320068359375,1.129150390625
1776554606607522000,4.85952197265625,-0.1841583251953125,0.563568115234375,1.1116790771484375
1776554606617562000,4.86956201171875,-0.2147369384765625,0.5489349365234375,1.083465576171875
1776554606627603000,4.87960302734375,-0.190399169921875,0.5329742431640625,1.0546722412109375
1776554606637644000,4.88964404296875,-0.13037109375,0.5266876220703125,0.9794769287109375
1776554606647684000,4.89968408203125,-0.0763092041015625,0.4233551025390625,0.912353515625
1776554606657725200,4.90972509765625,-0.147491455078125,0.576751708984375,0.8095550537109375
1776554606667765200,4.91976513671875,-0.0787200927734375,0.6874847412109375,0.624481201171875
1776554606677806000,4.92980615234375,-0.0244140625,0.510589599609375,0.6190185546875
1776554606687846100,4.93984619140625,0.0590362548828125,0.502685546875,0.671478271484375
1776554606697887200,4.94988720703125,0.0399932861328125,0.5214385986328125,0.7017822265625
1776554606707928000,4.959927978515625,0.0287017822265625,0.59735107421875,0.695587158203125
1776554606717968000,4.9699677734375,0.023406982421875,0.666046142578125,0.6269683837890625
1776554606728009000,4.980009033203125,-0.1136627197265625,0.68829345703125,0.573486328125
1776554606738049000,4.990049072265625,-0.1791229248046875,0.59759521484375,0.632720947265625
1776554606748090000,5.000090087890625,-0.198883056640625,0.523681640625,0.723114013671875
1776554606758131000,5.010130859375,-0.13726806640625,0.4140472412109375,0.78033447265625
1776554606768171000,5.0201708984375,-0.1049652099609375,0.2535858154296875,0.8885345458984375
1776554606778212000,5.030212158203125,-0.0590667724609375,0.0695953369140625,0.9754486083984375
1776554606788252200,5.040252197265625,-0.0743408203125,-0.0684356689453125,1.06805419921875
1776554606798293000,5.05029296875,-0.190887451171875,0.2767791748046875,1.12579345703125
1776554606808334000,5.060333984375,-0.1691741943359375,0.4037322998046875,1.1178131103515625
1776554606818374100,5.0703740234375,-0.1385345458984375,0.4481658935546875,1.3013153076171875
1776554606828415200,5.080415283203125,-0.1983795166015625,0.4930877685546875,1.46417236328125
1776554606838455300,5.090455322265625,-0.08819580078125,0.7086181640625,1.505950927734375
1776554606848496000,5.10049609375,-0.147857666015625,0.2570343017578125,1.5881805419921875
1776554606858536000,5.110535888671875,-0.1331787109375,0.3514556884765625,1.608489990234375
1776554606868577000,5.120576904296875,-0.075347900390625,0.364990234375,1.5037994384765625
1776554606878618000,5.1306181640625,-0.071502685546875,0.7427825927734375,1.3223876953125
1776554606888658000,5.140657958984375,-0.1266632080078125,1.028778076171875,1.0412139892578125
1776554606898699000,5.150698974609375,-0.10015869140625,0.3814239501953125,0.789581298828125
1776554606908739000,5.160739013671875,-0.0160980224609375,-0.1763458251953125,0.753265380859375
1776554606918780200,5.1707802734375,0.1070556640625,0.1625823974609375,0.7088623046875
1776554606928821000,5.180821044921875,0.0128936767578125,0.76092529296875,0.55621337890625
1776554606938861000,5.190861083984375,-0.02691650390625,0.73187255859375,0.277923583984375
1776554606948902100,5.200902099609375,-0.05096435546875,0.7517852783203125,0.001739501953125
1776554606958942200,5.210942138671875,-0.1681365966796875,0.84124755859375,-0.15936279296875
1776554606968983300,5.2209833984375,-0.1585693359375,0.8104400634765625,-0.127044677734375
1776554606979024400,5.2310244140625,-0.2225189208984375,0.6129150390625,0.1919403076171875
1776554606989064400,5.241064453125,-0.3968353271484375,0.5901641845703125,0.583984375
1776554606999105500,5.25110546875,-0.334014892578125,0.5650177001953125,0.7490081787109375
1776554607009145600,5.2611455078125,-0.276947021484375,0.535064697265625,0.81451416015625
1776554607019186400,5.2711865234375,-0.2915191650390625,0.4943389892578125,0.827178955078125
1776554607029226500,5.2812265625,-0.28997802734375,0.4078521728515625,0.8585968017578125
1776554607039267600,5.291267578125,-0.194061279296875,0.3929443359375,0.8319244384765625
1776554607049308400,5.301308349609375,-0.154571533203125,0.37823486328125,0.8246307373046875
1776554607059348200,5.31134814453125,-0.1647796630859375,0.3289947509765625,0.90289306640625
1776554607069389300,5.321389404296875,-0.138519287109375,0.3106842041015625,0.957489013671875
1776554607079429400,5.331429443359375,-0.157012939453125,0.314849853515625,1.0077972412109375
1776554607089470500,5.341470458984375,-0.194366455078125,0.3406219482421875,1.0605316162109375
1776554607099511300,5.35151123046875,-0.207794189453125,0.358673095703125,1.0831756591796875
1776554607109551400,5.36155126953125,-0.28094482421875,0.2919158935546875,1.067535400390625
1776554607119592400,5.371592529296875,-0.22332763671875,0.270660400390625,1.0910186767578125
1776554607129632500,5.381632568359375,-0.251922607421875,0.335784912109375,1.075653076171875
1776554607139673300,5.39167333984375,-0.2320404052734375,0.283203125,1.0131683349609375
1776554607149714400,5.40171435546875,-0.1660003662109375,0.285064697265625,0.94183349609375
1776554607159754500,5.41175439453125,-0.1515960693359375,0.3357086181640625,0.8831329345703125
1776554607169795600,5.421795654296875,-0.1593780517578125,0.5010986328125,0.8272857666015625
1776554607179835400,5.43183544921875,-0.1625213623046875,0.5623931884765625,0.769073486328125
1776554607189876200,5.441876220703125,-0.1302337646484375,0.48602294921875,0.7381591796875
1776554607199916300,5.451916259765625,-0.0953521728515625,0.43505859375,0.7496185302734375
1776554607209957400,5.461957275390625,-0.062469482421875,0.4086456298828125,0.79718017578125
1776554607219998500,5.47199853515625,-0.0418853759765625,0.4235992431640625,0.8553466796875
1776554607230038500,5.48203857421875,-0.0418243408203125,0.4478607177734375,0.9351654052734375
1776554607240079400,5.492079345703125,-0.0457000732421875,0.5040130615234375,0.95281982421875
1776554607250119400,5.502119384765625,-0.0606689453125,0.5535736083984375,0.9569244384765625
1776554607260160500,5.512160400390625,-0.08380126953125,0.4998931884765625,1.008575439453125
1776554607270201300,5.522201416015625,-0.048980712890625,0.534271240234375,1.0450592041015625
1776554607280241400,5.532241455078125,-0.0459442138671875,0.5804901123046875,1.0634765625
1776554607290282500,5.542282470703125,-0.1053924560546875,0.710693359375,1.0395660400390625
1776554607300322600,5.552322509765625,-0.15802001953125,0.7991180419921875,1.020660400390625
1776554607310363600,5.56236376953125,-0.2070159912109375,0.79541015625,1.0254669189453125
1776554607320404500,5.572404541015625,-0.2404632568359375,0.71722412109375,1.03546142578125
1776554607330444300,5.5824443359375,-0.260833740234375,0.54248046875,1.06658935546875
1776554607340485400,5.5924853515625,-0.307373046875,0.5089111328125,1.109039306640625
1776554607350525400,5.602525390625,-0.3494720458984375,0.6872100830078125,1.1829681396484375
1776554607360566300,5.612566162109375,-0.3977813720703125,0.667236328125,1.279144287109375
1776554607370606300,5.6226064453125,-0.375885009765625,0.5859527587890625,1.2811126708984375
1776554607380647400,5.6326474609375,-0.1786041259765625,0.498260498046875,1.13763427734375
1776554607390688500,5.6426884765625,0.0165863037109375,0.43505859375,0.926025390625
1776554607400728600,5.652728515625,0.1035919189453125,0.4163360595703125,0.7247772216796875
1776554607410769400,5.662769287109375,0.12677001953125,0.4345855712890625,0.5605316162109375
1776554607420809500,5.6728095703125,-0.066619873046875,0.6077728271484375,0.56195068359375
1776554607430850600,5.6828505859375,-0.310699462890625,0.8760223388671875,0.7005157470703125
1776554607440891400,5.692891357421875,-0.0462646484375,0.6005706787109375,0.775115966796875
1776554607450931500,5.702931396484375,0.0931396484375,0.3472442626953125,0.6870269775390625
1776554607460972500,5.71297265625,-0.0120697021484375,0.3059844970703125,0.64996337890625
1776554607471012400,5.723012451171875,-0.0312957763671875,0.3884124755859375,0.4349365234375
1776554607481053400,5.733053466796875,-0.001190185546875,0.4207916259765625,0.3284454345703125
1776554607491094300,5.74309423828125,-0.0489654541015625,0.4397125244140625,0.300323486328125
1776554607501134300,5.75313427734375,-0.103424072265625,0.4485931396484375,0.27923583984375
1776554607511175400,5.763175537109375,-0.062774658203125,0.516143798828125,0.3052520751953125
1776554607521215500,5.773215576171875,-0.047760009765625,0.506378173828125,0.411346435546875
1776554607531256300,5.78325634765625,-0.0873565673828125,0.4652099609375,0.561737060546875
1776554607541296400,5.79329638671875,-0.08074951171875,0.4691009521484375,0.6571197509765625
1776554607551337500,5.80333740234375,0.0168609619140625,0.474609375,0.709991455078125
1776554607561378600,5.813378662109375,0.04296875,0.57269287109375,0.713775634765625
1776554607571418600,5.823418701171875,-0.043975830078125,0.7069091796875,0.70440673828125
1776554607581459500,5.83345947265625,-0.0636138916015625,0.8486785888671875,0.6970062255859375
1776554607591499300,5.843499267578125,-0.09686279296875,1.0117034912109375,0.7515106201171875
1776554607601540400,5.853540283203125,-0.1240997314453125,1.1259307861328125,0.8173675537109375
1776554607611581400,5.86358154296875,-0.120697021484375,1.1668853759765625,0.8458709716796875
1776554607621621200,5.873621337890625,-0.065338134765625,1.1664581298828125,0.8543243408203125
1776554607631662300,5.883662353515625,-0.064208984375,1.034881591796875,0.871124267578125
1776554607641702400,5.893702392578125,-0.155975341796875,1.001983642578125,0.9139556884765625
1776554607651743500,5.903743408203125,-0.20733642578125,1.00689697265625,0.9877777099609375
1776554607661783600,5.913783447265625,-0.263031005859375,0.9644012451171875,1.072998046875
1776554607671824400,5.923824462890625,-0.2850799560546875,0.9285888671875,1.0810546875
1776554607681865500,5.933865478515625,-0.31170654296875,0.9062957763671875,1.048980712890625
1776554607691905500,5.943905517578125,-0.266326904296875,0.87811279296875,0.9745330810546875
1776554607701946600,5.953946533203125,-0.259002685546875,0.898223876953125,0.927947998046875
1776554607711986400,5.963986328125,-0.2681121826171875,0.936767578125,0.9203033447265625
1776554607722027500,5.974027587890625,-0.2698974609375,0.977386474609375,0.89434814453125
1776554607732068600,5.984068603515625,-0.2853240966796875,0.9718780517578125,0.9122467041015625
1776554607742108400,5.9941083984375,-0.2769775390625,0.8750152587890625,0.921478271484375
1776554607752149200,6.004149169921875,-0.1613311767578125,0.458251953125,0.7200164794921875
1776554607762189300,6.014189208984375,0.0020904541015625,0.4969482421875,0.7574920654296875
1776554607772230400,6.02423046875,-0.177490234375,0.550811767578125,0.78411865234375
1776554607782270500,6.0342705078125,-0.133758544921875,0.522796630859375,0.7154693603515625
1776554607792311600,6.0443115234375,0.1328887939453125,0.4820098876953125,0.627410888671875
1776554607802352400,6.054352294921875,0.1684722900390625,0.5059967041015625,0.54632568359375
1776554607812392400,6.064392333984375,0.231658935546875,0.4860076904296875,0.5274505615234375
1776554607822433500,6.07443359375,0.25543212890625,0.436187744140625,0.5427398681640625
1776554607832473600,6.0844736328125,0.1865997314453125,0.4111175537109375,0.5163726806640625
1776554607842514400,6.094514404296875,0.025634765625,0.48016357421875,0.4825897216796875
1776554607852555500,6.104555419921875,-0.14056396484375,0.488128662109375,0.4329681396484375
1776554607862595300,6.11459521484375,-0.186004638671875,0.5104827880859375,0.39007568359375
1776554607872636400,6.124636474609375,-0.2631683349609375,0.4808502197265625,0.390594482421875
1776554607882676500,6.134676513671875,-0.274261474609375,0.426971435546875,0.3734588623046875
1776554607892717300,6.14471728515625,-0.0738677978515625,0.4085540771484375,0.3732757568359375
1776554607902758400,6.15475830078125,-0.0988311767578125,0.416961669921875,0.3917236328125
1776554607912798500,6.164798583984375,-0.28070068359375,0.4822845458984375,0.4295196533203125
1776554607922839300,6.17483935546875,-0.224334716796875,0.5491943359375,0.5306549072265625
1776554607932879400,6.18487939453125,-0.384246826171875,0.5091705322265625,0.57421875
1776554607942920400,6.19492041015625,-0.26495361328125,0.521148681640625,0.65362548828125
1776554607952960500,6.20496044921875,-0.23272705078125,0.5550079345703125,0.75250244140625
1776554607963001000,6.2150009765625,-0.225738525390625,0.55010986328125,0.8448486328125
1776554607973042000,6.2250419921875,-0.2311248779296875,0.5297698974609375,0.921783447265625
1776554607983082000,6.23508203125,-0.3137664794921875,0.463714599609375,0.8976593017578125
1776554607993123000,6.245123046875,-0.4081268310546875,0.432403564453125,0.9472503662109375
1776554608003163100,6.2551630859375,-0.5202789306640625,0.2294921875,1.176300048828125
1776554608013204200,6.265204345703125,-0.55743408203125,0.304840087890625,1.4524078369140625
1776554608023245000,6.2752451171875,-0.550933837890625,0.3702392578125,1.3836517333984375
1776554608033285000,6.28528515625,-0.4929046630859375,0.4256744384765625,1.33624267578125
1776554608043326200,6.295326171875,-0.3658294677734375,0.51129150390625,1.222412109375
1776554608053366000,6.305365966796875,-0.24298095703125,0.5557098388671875,1.15484619140625
1776554608063406800,6.31540673828125,-0.1498565673828125,0.5630645751953125,1.10113525390625
1776554608073447000,6.325447021484375,-0.141448974609375,0.5340728759765625,1.0482940673828125
1776554608083488000,6.335488037109375,-0.159454345703125,0.49346923828125,0.9942626953125
1776554608093529000,6.345529052734375,-0.1688690185546875,0.43695068359375,0.9366455078125
1776554608103569200,6.355569091796875,-0.175201416015625,0.4111175537109375,0.897674560546875
1776554608113610000,6.36560986328125,-0.163543701171875,0.3961639404296875,0.8498077392578125
1776554608123650000,6.375650146484375,-0.11859130859375,0.4012603759765625,0.8023834228515625
1776554608133691100,6.385691162109375,-0.0751495361328125,0.433929443359375,0.77581787109375
1776554608143731200,6.395731201171875,-0.0448760986328125,0.44696044921875,0.7765960693359375
1776554608153772000,6.40577197265625,-0.044952392578125,0.428924560546875,0.8154144287109375
1776554608163813000,6.415813232421875,-0.1151580810546875,0.3768768310546875,0.8801422119140625
1776554608173853200,6.425853271484375,-0.19500732421875,0.289459228515625,0.9404296875
1776554608183894300,6.435894287109375,-0.3027191162109375,0.1959381103515625,0.984100341796875
1776554608193934000,6.44593408203125,-0.3647003173828125,0.1238250732421875,1.0074005126953125
1776554608203975000,6.455974853515625,-0.38763427734375,0.0774688720703125,1.010955810546875
1776554608214016000,6.46601611328125,-0.3771514892578125,0.0524749755859375,1.013336181640625
1776554608224056000,6.47605615234375,-0.3465118408203125,0.05328369140625,1.0274200439453125
1776554608234097000,6.486096923828125,-0.297027587890625,0.081573486328125,1.04998779296875
1776554608244137000,6.496136962890625,-0.2368011474609375,0.1240234375,1.063446044921875
1776554608254178000,6.506177978515625,-0.193511962890625,0.1668701171875,1.0556640625
1776554608264218000,6.516218017578125,-0.189697265625,0.1973724365234375,1.031341552734375
1776554608274259200,6.52625927734375,-0.22576904296875,0.222991943359375,0.98345947265625
1776554608284300000,6.536300048828125,-0.3029327392578125,0.2585601806640625,0.92950439453125
1776554608294340000,6.546340087890625,-0.3866119384765625,0.318023681640625,0.8850555419921875
1776554608304381200,6.556381103515625,-0.37646484375,0.39898681640625,0.8639678955078125
1776554608314421200,6.566421142578125,-0.25469970703125,0.438018798828125,0.83319091796875
1776554608324462000,6.576462158203125,-0.15252685546875,0.430328369140625,0.7769927978515625
1776554608334502000,6.586501953125,-0.0740814208984375,0.3813323974609375,0.713134765625
1776554608344543000,6.59654296875,-0.0467071533203125,0.3146820068359375,0.643280029296875
1776554608354584000,6.606583984375,-0.0827484130859375,0.2724456787109375,0.5955657958984375
1776554608364624100,6.6166240234375,-0.1834869384765625,0.2593231201171875,0.5811767578125
1776554608374665000,6.6266650390625,-0.3114776611328125,0.257110595703125,0.62274169921875
1776554608384705000,6.636705078125,-0.27490234375,0.305694580078125,0.747833251953125
1776554608394746000,6.64674609375,-0.1336822509765625,0.346588134765625,0.8997955322265625
1776554608404786200,6.6567861328125,-0.096923828125,0.330810546875,1.0467681884765625
1776554608414827000,6.666826904296875,-0.1779022216796875,0.249176025390625,1.15167236328125
1776554608424868000,6.6768681640625,-0.3188934326171875,0.14349365234375,1.1719207763671875
1776554608434908200,6.686908203125,-0.412200927734375,0.09619140625,1.137298583984375
1776554608444949200,6.69694921875,-0.3655242919921875,0.11492919921875,1.0501861572265625
1776554608454989000,6.706989013671875,-0.2246551513671875,0.1885833740234375,0.946868896484375
1776554608465030000,6.71702978515625,-0.0814971923828125,0.2764434814453125,0.88983154296875
1776554608475071000,6.727071044921875,-0.0096893310546875,0.3525238037109375,0.895172119140625
1776554608485111000,6.737111083984375,-0.0496978759765625,0.4149322509765625,0.9419097900390625
1776554608495151900,6.74715185546875,-0.1654510498046875,0.454742431640625,0.9899749755859375
1776554608505192000,6.75719189453125,-0.2700347900390625,0.459442138671875,1.0121307373046875
1776554608515233000,6.76723291015625,-0.312957763671875,0.43060302734375,0.9948577880859375
1776554608525273000,6.777273193359375,-0.2642059326171875,0.3580474853515625,0.9293212890625
1776554608535314200,6.787314208984375,-0.1668243408203125,0.2685089111328125,0.8614349365234375
1776554608545355000,6.79735498046875,-0.0938720703125,0.209991455078125,0.83184814453125
1776554608555395000,6.80739501953125,-0.0682830810546875,0.222900390625,0.8495330810546875
1776554608565436200,6.817436279296875,-0.0885162353515625,0.3018035888671875,0.907012939453125
1776554608575476200,6.827476318359375,-0.142852783203125,0.392608642578125,0.997467041015625
1776554608585517000,6.83751708984375,-0.18560791015625,0.4354095458984375,1.097381591796875
1776554608595556900,6.847556884765625,-0.1999664306640625,0.397247314453125,1.15570068359375
1776554608605598000,6.857597900390625,-0.169769287109375,0.2913055419921875,1.1569061279296875
1776554608615639000,6.86763916015625,-0.1368560791015625,0.190032958984375,1.1119842529296875
1776554608625679000,6.87767919921875,-0.107177734375,0.1461029052734375,1.0511322021484375
1776554608635720000,6.887719970703125,-0.0865478515625,0.1677093505859375,0.9913787841796875
1776554608645760000,6.897760009765625,-0.0837860107421875,0.2267913818359375,0.951690673828125
1776554608655801000,6.907801025390625,-0.10107421875,0.2738494873046875,0.9155120849609375
1776554608665841200,6.917841064453125,-0.1339111328125,0.3015289306640625,0.8684234619140625
1776554608675882000,6.927882080078125,-0.15936279296875,0.32049560546875,0.81201171875
1776554608685923000,6.937923095703125,-0.18463134765625,0.332305908203125,0.7518463134765625
1776554608695963100,6.947963134765625,-0.209747314453125,0.3440704345703125,0.6982421875
1776554608706004200,6.958004150390625,-0.22900390625,0.3637847900390625,0.66351318359375
1776554608716044000,6.9680439453125,-0.2297210693359375,0.3918304443359375,0.6617584228515625
1776554608726084900,6.9780849609375,-0.2113037109375,0.413726806640625,0.7008514404296875
1776554608736125000,6.988125,-0.1652984619140625,0.4204559326171875,0.76898193359375
1776554608746166000,6.998166015625,-0.097320556640625,0.41064453125,0.84735107421875
1776554608756207000,7.00820703125,-0.0380401611328125,0.3828582763671875,0.9144134521484375
1776554608766247000,7.018246826171875,-0.013946533203125,0.3466339111328125,0.962615966796875
1776554608776288000,7.0282880859375,-0.0274200439453125,0.3140869140625,0.98284912109375
1776554608786328000,7.038328125,-0.063232421875,0.29620361328125,0.974090576171875
1776554608796369200,7.048369140625,-0.1042938232421875,0.29925537109375,0.950164794921875
1776554608806409200,7.0584091796875,-0.1500396728515625,0.3228302001953125,0.9256439208984375
1776554608816450000,7.068449951171875,-0.1955718994140625,0.3594970703125,0.915496826171875
1776554608826491100,7.0784912109375,-0.23388671875,0.3973236083984375,0.9272918701171875
1776554608836531200,7.08853125,-0.2450103759765625,0.4241943359375,0.958282470703125
1776554608846572300,7.098572265625,-0.2275543212890625,0.4351806640625,0.9980621337890625
1776554608856611800,7.10861181640625,-0.193817138671875,0.424224853515625,1.03009033203125
1776554608866653000,7.11865283203125,-0.14996337890625,0.396484375,1.03955078125
1776554608876693000,7.12869287109375,-0.1131439208984375,0.362945556640625,1.026885986328125
1776554608886734000,7.138734130859375,-0.081268310546875,0.338958740234375,0.9961700439453125
1776554608896775000,7.14877490234375,-0.0605316162109375,0.3310699462890625,0.954437255859375
1776554608906815000,7.15881494140625,-0.053955078125,0.3299560546875,0.922027587890625
1776554608916856000,7.16885595703125,-0.0670623779296875,0.3267059326171875,0.914276123046875
1776554608926896000,7.178896240234375,-0.091552734375,0.31927490234375,0.9252166748046875
1776554608936937200,7.188937255859375,-0.1200714111328125,0.3056488037109375,0.9485321044921875
1776554608946977000,7.19897705078125,-0.142059326171875,0.283111572265625,0.9732666015625
1776554608957018000,7.20901806640625,-0.157470703125,0.2602081298828125,0.99395751953125
1776554608967059000,7.219058837890625,-0.1651763916015625,0.2386932373046875,1.014129638671875
1776554608977099000,7.22909912109375,-0.1716156005859375,0.2227935791015625,1.0319366455078125
1776554608987139800,7.239139892578125,-0.1771392822265625,0.2169952392578125,1.0481414794921875
1776554608997180000,7.249179931640625,-0.182586669921875,0.2177734375,1.0601043701171875
1776554609007221000,7.259220947265625,-0.1901702880859375,0.2188262939453125,1.0714874267578125
1776554609017261000,7.269260986328125,-0.1927642822265625,0.2183380126953125,1.08380126953125
1776554609027302100,7.27930224609375,-0.1722564697265625,0.2095794677734375,1.0927734375
1776554609037343000,7.289343017578125,-0.14459228515625,0.1825714111328125,1.0986480712890625
1776554609047383000,7.299383056640625,-0.10137939453125,0.1427001953125,1.0942535400390625
1776554609057424100,7.309424072265625,-0.068084716796875,0.1026458740234375,1.0853271484375
1776554609067464000,7.3194638671875,-0.0487213134765625,0.076629638671875,1.0702972412109375
1776554609077504800,7.3295048828125,-0.0499267578125,0.0716094970703125,1.0449981689453125
1776554609087544800,7.339544921875,-0.063262939453125,0.09100341796875,1.0003814697265625
1776554609097586000,7.3495859375,-0.0709686279296875,0.123687744140625,0.9391021728515625
1776554609107627000,7.359626953125,-0.0823822021484375,0.1625823974609375,0.882354736328125
1776554609117667000,7.3696669921875,-0.086761474609375,0.2045440673828125,0.8417816162109375
1776554609127708000,7.3797080078125,-0.0664825439453125,0.2460784912109375,0.81072998046875
1776554609137748000,7.389748046875,-0.0362548828125,0.2788543701171875,0.793426513671875
1776554609147789000,7.3997890625,-0.00390625,0.300323486328125,0.78656005859375
1776554609157829000,7.4098291015625,0.017608642578125,0.3176422119140625,0.7909393310546875
1776554609167870000,7.419869873046875,0.0295562744140625,0.33905029296875,0.807342529296875
1776554609177911000,7.4299111328125,0.0303192138671875,0.36346435546875,0.829986572265625
1776554609187951000,7.439951171875,0.0166473388671875,0.3852386474609375,0.860626220703125
1776554609197992200,7.4499921875,-0.0086822509765625,0.40087890625,0.894561767578125
1776554609208032000,7.460031982421875,-0.0404815673828125,0.4102325439453125,0.929473876953125
1776554609218072800,7.47007275390625,-0.080596923828125,0.411346435546875,0.96441650390625
1776554609228113000,7.48011279296875,-0.1243133544921875,0.40289306640625,0.998199462890625
1776554609238154000,7.490154052734375,-0.166046142578125,0.3891448974609375,1.02703857421875
1776554609248194000,7.500194091796875,-0.1940460205078125,0.378326416015625,1.047332763671875
1776554609258235000,7.51023486328125,-0.2054901123046875,0.3690948486328125,1.056854248046875
1776554609268271900,7.52027197265625,-0.1965789794921875,0.3610382080078125,1.0548553466796875
1776554609278313000,7.53031298828125,-0.1752777099609375,0.353363037109375,1.0408172607421875
1776554609288353800,7.540353759765625,-0.14837646484375,0.346893310546875,1.0205535888671875
1776554609298393900,7.550393798828125,-0.1266937255859375,0.3380889892578125,0.9989776611328125
1776554609308435000,7.56043505859375,-0.1140594482421875,0.328277587890625,0.9756011962890625
1776554609318475000,7.57047509765625,-0.107666015625,0.3183746337890625,0.9541473388671875
1776554609328516000,7.58051611328125,-0.1063079833984375,0.3120880126953125,0.933349609375
1776554609338556200,7.59055615234375,-0.1075897216796875,0.3101348876953125,0.91802978515625
1776554609348597000,7.600596923828125,-0.1089324951171875,0.3107147216796875,0.9088287353515625
1776554609358637000,7.610636962890625,-0.1115570068359375,0.3163299560546875,0.9043731689453125
1776554609368678100,7.62067822265625,-0.1180419921875,0.32586669921875,0.902618408203125
1776554609378719000,7.630718994140625,-0.12567138671875,0.335235595703125,0.9044647216796875
1776554609388758800,7.6407587890625,-0.132080078125,0.3411865234375,0.908203125
1776554609398800000,7.6507998046875,-0.141143798828125,0.343719482421875,0.91351318359375
1776554609408840000,7.66083984375,-0.1448516845703125,0.3426513671875,0.91790771484375
1776554609418881000,7.670881103515625,-0.143951416015625,0.33843994140625,0.9200439453125
1776554609428921000,7.680921142578125,-0.1413726806640625,0.333251953125,0.921783447265625
1776554609438962000,7.6909619140625,-0.136932373046875,0.3256988525390625,0.92333984375
1776554609449003000,7.7010029296875,-0.1358795166015625,0.314544677734375,0.92535400390625
1776554609459043000,7.71104296875,-0.1368560791015625,0.3038787841796875,0.92523193359375
1776554609469084000,7.721083984375,-0.139007568359375,0.2947845458984375,0.9253692626953125
1776554609479124000,7.7311240234375,-0.141845703125,0.29150390625,0.923248291015625
1776554609489165000,7.7411650390625,-0.1433563232421875,0.2951202392578125,0.9206390380859375
1776554609499204900,7.751204833984375,-0.144195556640625,0.3046417236328125,0.920196533203125
1776554609509246000,7.761245849609375,-0.14105224609375,0.3151397705078125,0.9206085205078125
1776554609519286000,7.7712861328125,-0.1357421875,0.3220062255859375,0.9224090576171875
1776554609529326800,7.781326904296875,-0.1302642822265625,0.3263397216796875,0.9239044189453125
1776554609539368000,7.791367919921875,-0.124237060546875,0.3312225341796875,0.9306640625
1776554609549408000,7.801407958984375,-0.119140625,0.33935546875,0.9412384033203125
1776554609559448800,7.81144873046875,-0.1267547607421875,0.3485870361328125,0.95391845703125
1776554609569489000,7.821489013671875,-0.146514892578125,0.355926513671875,0.9662933349609375
1776554609579530000,7.831530029296875,-0.1771392822265625,0.357147216796875,0.973541259765625
1776554609589570000,7.841570068359375,-0.2113037109375,0.3499298095703125,0.9716339111328125
1776554609599611100,7.851611083984375,-0.2381591796875,0.335205078125,0.9636688232421875
1776554609609652000,7.86165185546875,-0.2475128173828125,0.314849853515625,0.9463958740234375
1776554609619692000,7.871692138671875,-0.230010986328125,0.297576904296875,0.9229736328125
1776554609629733000,7.881733154296875,-0.195953369140625,0.2843780517578125,0.8978271484375
1776554609639773000,7.89177294921875,-0.1587677001953125,0.2782135009765625,0.880096435546875
1776554609649814000,7.90181396484375,-0.1259002685546875,0.2754669189453125,0.868804931640625
1776554609659853800,7.911853759765625,-0.1012115478515625,0.277435302734375,0.865814208984375
1776554609669895000,7.92189501953125,-0.0893707275390625,0.2803955078125,0.8691558837890625
1776554609679935000,7.93193505859375,-0.09185791015625,0.2842254638671875,0.87982177734375
1776554609689976000,7.94197607421875,-0.1042938232421875,0.2903900146484375,0.89410400390625
1776554609700017000,7.952016845703125,-0.121795654296875,0.2943115234375,0.9101715087890625
1776554609710057000,7.962056884765625,-0.1425018310546875,0.2963104248046875,0.92669677734375
1776554609720098000,7.97209814453125,-0.159393310546875,0.299102783203125,0.942352294921875
1776554609730138000,7.98213818359375,-0.1692962646484375,0.3057708740234375,0.955078125
1776554609740179000,7.992178955078125,-0.17095947265625,0.3162994384765625,0.9636077880859375
1776554609750218800,8.00221875,-0.166412353515625,0.3235321044921875,0.9661407470703125
1776554609760259800,8.012259765625,-0.154083251953125,0.327789306640625,0.9638519287109375
1776554609770300000,8.0222998046875,-0.1436004638671875,0.3266754150390625,0.9610748291015625
1776554609780341000,8.032341064453124,-0.135955810546875,0.320648193359375,0.9622802734375
1776554609790381800,8.0423818359375,-0.1303863525390625,0.3121795654296875,0.9649505615234375
1776554609800422000,8.052421875,-0.126068115234375,0.3031005859375,0.965179443359375
1776554609810463000,8.062462890625,-0.1259613037109375,0.2972259521484375,0.9634552001953125
1776554609820503000,8.0725029296875,-0.12750244140625,0.2963409423828125,0.96099853515625
1776554609830544000,8.0825439453125,-0.134124755859375,0.301483154296875,0.95782470703125
1776554609840584000,8.092583984375,-0.14447021484375,0.3111724853515625,0.9535675048828125
1776554609850625000,8.102625,-0.153656005859375,0.32080078125,0.9483184814453125
1776554609860666000,8.112666015625,-0.1608734130859375,0.3257904052734375,0.941192626953125
1776554609870706200,8.1227060546875,-0.164886474609375,0.3289642333984375,0.9324188232421875
1776554609880747000,8.1327470703125,-0.166046142578125,0.329315185546875,0.9247589111328125
1776554609890786800,8.142786865234376,-0.1636199951171875,0.32659912109375,0.920013427734375
1776554609900828000,8.152827880859375,-0.1576690673828125,0.32208251953125,0.914764404296875
1776554609910868000,8.162867919921876,-0.15155029296875,0.317840576171875,0.9114532470703125
1776554609920908800,8.17290869140625,-0.1468048095703125,0.3115386962890625,0.9106903076171875
1776554609930948900,8.182948974609374,-0.1438751220703125,0.3067626953125,0.9123077392578125
1776554609940990000,8.192989990234375,-0.1432952880859375,0.306884765625,0.914581298828125
1776554609951031000,8.203031005859375,-0.1446990966796875,0.30914306640625,0.9173736572265625
1776554609961071000,8.213071044921875,-0.149139404296875,0.3113861083984375,0.919921875
1776554609971112400,8.223112548828125,-0.1534271240234375,0.3136749267578125,0.9239501953125
1776554609981152500,8.233152587890626,-0.1576995849609375,0.3167724609375,0.927276611328125
1776554609991193600,8.243193603515625,-0.15985107421875,0.322509765625,0.9288177490234375
1776554610001233400,8.2532333984375,-0.160247802734375,0.330535888671875,0.9299468994140625
1776554610011274200,8.263274169921875,-0.1600189208984375,0.3337249755859375,0.9308624267578125
1776554610021314300,8.273314208984376,-0.1611328125,0.33270263671875,0.9319915771484375
1776554610031355400,8.28335546875,-0.1613922119140625,0.326995849609375,0.935546875
1776554610041396500,8.293396484375,-0.1609344482421875,0.318634033203125,0.9405059814453125
1776554610051436500,8.3034365234375,-0.1581878662109375,0.3118438720703125,0.942657470703125
1776554610061477400,8.313477294921874,-0.155731201171875,0.3066864013671875,0.94268798828125
1776554610071517400,8.323517333984375,-0.1510772705078125,0.3048553466796875,0.9427947998046875
1776554610081558500,8.33355859375,-0.1474761962890625,0.30389404296875,0.9400482177734375
1776554610091598600,8.3435986328125,-0.1474151611328125,0.3043212890625,0.9388580322265625
1776554610101639400,8.353639404296874,-0.147613525390625,0.305755615234375,0.9372711181640625
1776554610111680500,8.363680419921875,-0.1483612060546875,0.3069610595703125,0.932891845703125
1776554610121720600,8.373720458984375,-0.151458740234375,0.3094635009765625,0.9277496337890625
1776554610131761700,8.38376171875,-0.1517181396484375,0.3134613037109375,0.925201416015625
1776554610141801500,8.393801513671875,-0.152923583984375,0.3160400390625,0.9246978759765625
1776554610151842300,8.40384228515625,-0.1528778076171875,0.318878173828125,0.926239013671875
1776554610161882400,8.41388232421875,-0.1518707275390625,0.3187103271484375,0.9288482666015625
1776554610171923500,8.42392333984375,-0.1491241455078125,0.3171539306640625,0.9293670654296875
1776554610181963500,8.433963623046875,-0.1476898193359375,0.3162078857421875,0.929534912109375
1776554610192004400,8.44400439453125,-0.1458282470703125,0.3168182373046875,0.9298858642578125
1776554610202045400,8.45404541015625,-0.14434814453125,0.3175811767578125,0.9298858642578125
1776554610212085500,8.46408544921875,-0.1436614990234375,0.3175048828125,0.9308624267578125
1776554610222126600,8.474126708984375,-0.1441497802734375,0.317901611328125,0.9324493408203125
1776554610232166700,8.484166748046874,-0.1461029052734375,0.3174591064453125,0.93487548828125
1776554610242207500,8.49420751953125,-0.1504669189453125,0.31689453125,0.9381866455078125
1776554610252247300,8.504247314453124,-0.1536102294921875,0.3145904541015625,0.94219970703125
1776554610262288400,8.514288330078125,-0.1573486328125,0.3115997314453125,0.944061279296875
1776554610272329200,8.5243291015625,-0.159332275390625,0.31085205078125,0.94207763671875
1776554610282369300,8.534369384765625,-0.1559906005859375,0.31036376953125,0.939849853515625
1776554610292410400,8.544410400390625,-0.153045654296875,0.3111724853515625,0.9369354248046875
1776554610302450400,8.554450439453126,-0.1497039794921875,0.3108367919921875,0.935333251953125
1776554610312491500,8.564491455078125,-0.1461944580078125,0.30975341796875,0.935150146484375
1776554610322531600,8.574531494140626,-0.142578125,0.3087615966796875,0.9349212646484375
1776554610332572400,8.584572509765625,-0.143768310546875,0.3095703125,0.93487548828125
1776554610342612500,8.594612548828126,-0.1436920166015625,0.311492919921875,0.9343719482421875
1776554610352653600,8.604653564453125,-0.144012451171875,0.3147125244140625,0.9318389892578125
1776554610362694400,8.6146943359375,-0.144927978515625,0.3159332275390625,0.9273223876953125
1776554610372734500,8.624734375,-0.146087646484375,0.320220947265625,0.9255523681640625
1776554610382775600,8.634775634765624,-0.1458740234375,0.3234405517578125,0.925689697265625
1776554610392815400,8.6448154296875,-0.1473846435546875,0.324493408203125,0.9278411865234375
1776554610402856400,8.6548564453125,-0.149810791015625,0.3218231201171875,0.9314422607421875
1776554610412896500,8.664896484375,-0.150238037109375,0.31842041015625,0.9338531494140625
1776554610422937300,8.674937255859374,-0.1494293212890625,0.3154296875,0.9356231689453125
1776554610432978400,8.684978515625,-0.1488037109375,0.3129119873046875,0.9361724853515625
1776554610443018500,8.6950185546875,-0.1490020751953125,0.3104400634765625,0.936737060546875
1776554610453059300,8.705059326171876,-0.1505584716796875,0.30865478515625,0.9375762939453125
1776554610463099400,8.715099365234375,-0.1488037109375,0.3063507080078125,0.938140869140625
1776554610473140500,8.725140380859376,-0.1495819091796875,0.3043975830078125,0.9374237060546875
1776554610483180500,8.7351806640625,-0.149261474609375,0.304290771484375,0.936798095703125
1776554610493221600,8.7452216796875,-0.1497955322265625,0.30615234375,0.9370574951171875
1776554610503262500,8.755262451171875,-0.14984130859375,0.3097686767578125,0.9376678466796875
1776554610513302300,8.76530224609375,-0.14764404296875,0.3131866455078125,0.937042236328125
1776554610523343400,8.77534326171875,-0.1470184326171875,0.3148193359375,0.9347076416015625
1776554610533383400,8.785383544921874,-0.146148681640625,0.3177947998046875,0.9336700439453125
1776554610543424300,8.79542431640625,-0.1449127197265625,0.3206634521484375,0.93499755859375
1776554610553464300,8.80546435546875,-0.144500732421875,0.3221588134765625,0.937286376953125
1776554610563505400,8.81550537109375,-0.1436920166015625,0.3203277587890625,0.939208984375
1776554610573546500,8.82554638671875,-0.1458740234375,0.3149566650390625,0.9400482177734375
1776554610583586600,8.835586669921875,-0.148834228515625,0.308563232421875,0.9389190673828125
1776554610593627400,8.84562744140625,-0.1507110595703125,0.3056640625,0.9355316162109375
1776554610603667500,8.85566748046875,-0.1511383056640625,0.3055419921875,0.9324798583984375
1776554610613708500,8.86570849609375,-0.1506500244140625,0.3087615966796875,0.930084228515625
1776554610623748600,8.87574853515625,-0.1497955322265625,0.3121337890625,0.930633544921875
1776554610633789400,8.88578955078125,-0.1477203369140625,0.3155670166015625,0.933868408203125
1776554610643830500,8.89583056640625,-0.1475372314453125,0.3193206787109375,0.937347412109375
1776554610653870300,8.905870361328125,-0.14898681640625,0.3275299072265625,0.93994140625
1776554610663911400,8.915911376953124,-0.1464691162109375,0.3343353271484375,0.939483642578125
1776554610673951500,8.925951416015625,-0.147918701171875,0.338104248046875,0.936553955078125
1776554610683992300,8.935992431640624,-0.149993896484375,0.3381500244140625,0.934051513671875
1776554610694032400,8.946032470703125,-0.1537017822265625,0.329254150390625,0.9313507080078125
1776554610704073500,8.956073486328124,-0.15435791015625,0.3166046142578125,0.92877197265625
1776554610714113500,8.966113525390625,-0.153564453125,0.30499267578125,0.927703857421875
1776554610724154400,8.976154296875,-0.150146484375,0.2979736328125,0.93011474609375
1776554610734195500,8.986195556640626,-0.1454315185546875,0.29632568359375,0.9351806640625
1776554610744235500,8.996235595703125,-0.1397705078125,0.2949371337890625,0.9404144287109375
1776554610754276600,9.006276611328126,-0.1396331787109375,0.2943115234375,0.94427490234375
1776554610764316400,9.01631640625,-0.142303466796875,0.2996063232421875,0.94195556640625
1776554610774357200,9.026357177734376,-0.142608642578125,0.307373046875,0.93603515625
1776554610784397300,9.036397216796875,-0.1416168212890625,0.3165435791015625,0.9277496337890625
1776554610794438400,9.0464384765625,-0.1427764892578125,0.3217620849609375,0.923309326171875
1776554610804479500,9.0564794921875,-0.144989013671875,0.3203277587890625,0.9255828857421875
1776554610814519300,9.066519287109376,-0.1492919921875,0.3131103515625,0.9328765869140625
1776554610824560400,9.076560302734375,-0.1547088623046875,0.30401611328125,0.9401702880859375
1776554610834600400,9.086600341796874,-0.159576416015625,0.2955780029296875,0.9430084228515625
1776554610844641500,9.0966416015625,-0.1597137451171875,0.2885589599609375,0.941253662109375
1776554610854681600,9.106681640625,-0.153900146484375,0.285858154296875,0.9372711181640625
1776554610864722400,9.116722412109375,-0.1450347900390625,0.2924041748046875,0.932403564453125
1776554610874763500,9.126763427734375,-0.1369476318359375,0.3041839599609375,0.9345855712890625
1776554610884803600,9.136803466796875,-0.1352386474609375,0.3205108642578125,0.9412384033203125
1776554610894844400,9.146844482421875,-0.1369781494140625,0.33636474609375,0.947845458984375
1776554610904884200,9.15688427734375,-0.1393280029296875,0.35015869140625,0.951446533203125
1776554610914925300,9.16692529296875,-0.1430511474609375,0.3621368408203125,0.9548187255859375
1776554610924966400,9.17696630859375,-0.14593505859375,0.371917724609375,0.9537811279296875
1776554610935006500,9.18700634765625,-0.146392822265625,0.3754730224609375,0.9545745849609375
1776554610945047300,9.19704736328125,-0.1472320556640625,0.3762359619140625,0.9572601318359375
1776554610955087400,9.20708740234375,-0.1505584716796875,0.3736724853515625,0.96087646484375
1776554610965128400,9.21712841796875,-0.1547698974609375,0.3711700439453125,0.961639404296875
1776554610975168300,9.227168212890625,-0.15692138671875,0.371490478515625,0.957000732421875
1776554610985209300,9.237209228515624,-0.1579437255859375,0.3773651123046875,0.94732666015625
1776554610995250200,9.247250244140625,-0.1605224609375,0.387237548828125,0.9403533935546875
1776554611005290200,9.257290283203124,-0.161773681640625,0.3960113525390625,0.937103271484375
1776554611015331300,9.267331298828125,-0.160064697265625,0.3960418701171875,0.9365692138671875
1776554611025371100,9.27737109375,-0.15435791015625,0.3772125244140625,0.9332733154296875
1776554611035412000,9.287411865234375,-0.150634765625,0.3431549072265625,0.92877197265625
1776554611045452000,9.2974521484375,-0.1450958251953125,0.2985076904296875,0.9243621826171875
1776554611055493000,9.3074931640625,-0.1457061767578125,0.252288818359375,0.924102783203125
1776554611065534200,9.3175341796875,-0.1500091552734375,0.213470458984375,0.9284210205078125
1776554611075574300,9.32757421875,-0.15911865234375,0.1902008056640625,0.937103271484375
1776554611085615000,9.337614990234375,-0.1707611083984375,0.184600830078125,0.9505157470703125
1776554611095655200,9.3476552734375,-0.1853790283203125,0.202423095703125,0.9661712646484375
1776554611105696300,9.3576962890625,-0.1928863525390625,0.2470550537109375,0.9762725830078125
1776554611115736300,9.367736328125,-0.1974029541015625,0.3076171875,0.979766845703125
1776554611125777200,9.377777099609375,-0.2034454345703125,0.3657684326171875,0.98175048828125
1776554611135818200,9.387818359375,-0.2108306884765625,0.406951904296875,0.981231689453125
1776554611145858300,9.3978583984375,-0.2199859619140625,0.428863525390625,0.9739837646484375
1776554611155899400,9.4078994140625,-0.227630615234375,0.4315185546875,0.95098876953125
1776554611165939200,9.417939208984375,-0.228240966796875,0.406829833984375,0.910552978515625
1776554611175980000,9.42797998046875,-0.216522216796875,0.36297607421875,0.8665618896484375
1776554611186020000,9.43802001953125,-0.199615478515625,0.311004638671875,0.8362579345703125
1776554611196061200,9.448061279296875,-0.1800537109375,0.2637176513671875,0.8287811279296875
1776554611206102000,9.45810205078125,-0.1658477783203125,0.232879638671875,0.8382568359375
1776554611216142000,9.46814208984375,-0.156280517578125,0.21636962890625,0.8517608642578125
1776554611226183200,9.47818310546875,-0.1585235595703125,0.2096099853515625,0.8626861572265625
1776554611236223200,9.48822314453125,-0.17333984375,0.2128753662109375,0.873748779296875
1776554611246264300,9.498264404296876,-0.199249267578125,0.2249755859375,0.8918914794921875
1776554611256305200,9.50830517578125,-0.2295989990234375,0.23675537109375,0.915740966796875
1776554611266345200,9.51834521484375,-0.251434326171875,0.249359130859375,0.9429779052734375
1776554611276386300,9.52838623046875,-0.257171630859375,0.2659149169921875,0.967498779296875
1776554611286426000,9.538426025390624,-0.255615234375,0.2876434326171875,0.9867095947265625
1776554611296467200,9.54846728515625,-0.245025634765625,0.3116302490234375,0.9941864013671875
1776554611306507000,9.558507080078124,-0.23651123046875,0.32958984375,0.986724853515625
1776554611316548000,9.568548095703125,-0.2337493896484375,0.3294677734375,0.967987060546875
1776554611326589200,9.578589111328125,-0.2378387451171875,0.31610107421875,0.9426116943359375
1776554611336629200,9.588629150390625,-0.2374267578125,0.3017730712890625,0.9191436767578125
1776554611346670000,9.598670166015625,-0.228485107421875,0.29144287109375,0.9001312255859375
1776554611356710100,9.608710205078125,-0.207763671875,0.2921142578125,0.887939453125
1776554611366751200,9.618751220703125,-0.18157958984375,0.30645751953125,0.8811492919921875
1776554611376792300,9.628792236328126,-0.1559600830078125,0.3282470703125,0.8771514892578125
1776554611386832100,9.63883203125,-0.1389312744140625,0.348052978515625,0.8762359619140625
1776554611396873200,9.648873291015626,-0.1335601806640625,0.35919189453125,0.8782196044921875
1776554611406913300,9.658913330078125,-0.13909912109375,0.3623504638671875,0.8809814453125
1776554611416954400,9.668954345703124,-0.153106689453125,0.3604278564453125,0.8859100341796875
1776554611426994200,9.678994140625,-0.1720428466796875,0.3547210693359375,0.890533447265625
1776554611437035000,9.689034912109374,-0.1990814208984375,0.345306396484375,0.8929595947265625
1776554611447076000,9.699076171875,-0.2278289794921875,0.33416748046875,0.8889312744140625
1776554611457116200,9.7091162109375,-0.253265380859375,0.3246612548828125,0.885986328125
1776554611467157200,9.7191572265625,-0.2671356201171875,0.31982421875,0.8876953125
1776554611477197000,9.729197021484374,-0.2698211669921875,0.315673828125,0.89532470703125
1776554611487238100,9.739238037109375,-0.2567291259765625,0.308074951171875,0.908477783203125
1776554611497278200,9.7492783203125,-0.2358551025390625,0.2925262451171875,0.935638427734375
1776554611507319300,9.7593193359375,-0.216461181640625,0.2747039794921875,0.9657135009765625
1776554611517360000,9.769360107421875,-0.2025604248046875,0.2599334716796875,0.989654541015625
1776554611527400200,9.779400146484376,-0.1894073486328125,0.257568359375,0.9998931884765625
1776554611537441300,9.789441162109375,-0.1777496337890625,0.26495361328125,1.0054168701171875
1776554611547481300,9.7994814453125,-0.1693572998046875,0.2773895263671875,1.0004730224609375
1776554611557522200,9.809522216796875,-0.1716766357421875,0.2899627685546875,0.9815826416015625
1776554611567563300,9.819563232421874,-0.174560546875,0.290771484375,0.9507598876953125
1776554611577603000,9.82960302734375,-0.1781005859375,0.2809295654296875,0.9164581298828125
1776554611587644200,9.83964404296875,-0.1926727294921875,0.273834228515625,0.8883514404296875
1776554611597684200,9.849684326171875,-0.2086181640625,0.2641143798828125,0.8683319091796875
1776554611607725000,9.85972509765625,-0.236541748046875,0.256439208984375,0.8582305908203125
1776554611617765000,9.86976513671875,-0.27178955078125,0.255889892578125,0.85601806640625
1776554611627807200,9.87980712890625,-0.2892303466796875,0.26715087890625,0.858673095703125
1776554611637848000,9.88984814453125,-0.2965545654296875,0.290771484375,0.8694915771484375
1776554611647888100,9.89988818359375,-0.3012847900390625,0.31951904296875,0.8883514404296875
1776554611657929200,9.90992919921875,-0.3037872314453125,0.34039306640625,0.914215087890625
1776554611667970300,9.91997021484375,-0.3016815185546875,0.3456878662109375,0.944610595703125
1776554611678010000,9.930010009765626,-0.298187255859375,0.3374786376953125,0.9683380126953125
1776554611688051200,9.94005126953125,-0.2994232177734375,0.31634521484375,0.97906494140625
1776554611698091300,9.95009130859375,-0.29815673828125,0.29095458984375,0.9741668701171875
1776554611708132400,9.96013232421875,-0.289947509765625,0.2704010009765625,0.95098876953125
1776554611718172200,9.970172119140624,-0.2744903564453125,0.2549591064453125,0.91375732421875
1776554611728213000,9.980212890625,-0.2563934326171875,0.2467498779296875,0.866943359375
1776554611738254000,9.990254150390625,-0.2332916259765625,0.246063232421875,0.822845458984375
1776554611748294100,10.000294189453125,-0.2086944580078125,0.2492828369140625,0.79132080078125
1776554611758335200,10.010335205078125,-0.1886444091796875,0.2560272216796875,0.7754974365234375
1776554611768375000,10.020375,-0.18280029296875,0.2630157470703125,0.7764129638671875
1776554611778416000,10.030416015625,-0.1887054443359375,0.26947021484375,0.79046630859375
1776554611788457200,10.040457275390626,-0.2091522216796875,0.271453857421875,0.81317138671875
1776554611798497300,10.050497314453125,-0.2290191650390625,0.270965576171875,0.8396148681640625
1776554611808538000,10.0605380859375,-0.24676513671875,0.268524169921875,0.86566162109375
1776554611818578200,10.070578125,-0.261932373046875,0.262725830078125,0.8934173583984375
1776554611828619300,10.080619384765624,-0.2717742919921875,0.2576904296875,0.92120361328125
1776554611838659300,10.090659423828125,-0.27532958984375,0.2582244873046875,0.9460296630859375
1776554611848700200,10.1007001953125,-0.2763519287109375,0.2647247314453125,0.9653167724609375
1776554611858741200,10.1107412109375,-0.277252197265625,0.2788543701171875,0.9784088134765625
1776554611868781000,10.120781005859374,-0.2721710205078125,0.3042144775390625,0.9863433837890625
1776554611878822100,10.130822265625,-0.268341064453125,0.33984375,0.989105224609375
1776554611888862200,10.1408623046875,-0.26544189453125,0.3822174072265625,0.98486328125
1776554611898903000,10.150903076171875,-0.2713470458984375,0.4217529296875,0.972320556640625
1776554611908943000,10.160943115234375,-0.2752838134765625,0.455535888671875,0.9496612548828125
1776554611918984200,10.170984130859376,-0.2712249755859375,0.4808807373046875,0.9160919189453125
1776554611929025300,10.181025390625,-0.2626800537109375,0.49591064453125,0.885009765625
1776554611939065300,10.1910654296875,-0.248565673828125,0.4972381591796875,0.8681793212890625
1776554611949106200,10.201106201171875,-0.23553466796875,0.4791107177734375,0.8665924072265625
1776554611959146200,10.211146240234376,-0.2113800048828125,0.45391845703125,0.8624267578125
1776554611969191400,10.22119140625,-0.1784210205078125,0.42462158203125,0.858612060546875
1776554611979232300,10.231232177734375,-0.147430419921875,0.3856964111328125,0.8792724609375
1776554611989272300,10.241272216796874,-0.1176300048828125,0.3410186767578125,0.93170166015625
1776554611999313400,10.2513134765625,-0.0627593994140625,0.3003692626953125,0.9730682373046875
1776554612009353500,10.261353515625,-0.03515625,0.2707061767578125,1.00927734375
1776554612019394300,10.271394287109375,-0.018585205078125,0.261322021484375,1.0380401611328125
1776554612029434400,10.281434326171874,-0.0351715087890625,0.2555999755859375,1.0312652587890625
1776554612039475500,10.291475341796875,-0.083587646484375,0.2550048828125,0.9943389892578125
1776554612049516500,10.3015166015625,-0.1387176513671875,0.2556610107421875,0.9518585205078125
1776554612059556400,10.311556396484375,-0.1542205810546875,0.254364013671875,0.9084320068359375
1776554612069597200,10.32159716796875,-0.1337738037109375,0.2576446533203125,0.87371826171875
1776554612079637200,10.33163720703125,-0.1023406982421875,0.269256591796875,0.8624267578125
1776554612089678300,10.34167822265625,-0.0776214599609375,0.291046142578125,0.8728790283203125
1776554612099719200,10.35171923828125,-0.0646514892578125,0.3091888427734375,0.90185546875
1776554612109759200,10.36175927734375,-0.0659027099609375,0.31512451171875,0.945220947265625
1776554612119800300,10.37180029296875,-0.074127197265625,0.3043670654296875,0.9939422607421875
1776554612129840400,10.38184033203125,-0.073394775390625,0.2774505615234375,1.0251617431640625
1776554612139881500,10.391881591796874,-0.068389892578125,0.257598876953125,1.0420379638671875
1776554612149921500,10.401921630859375,-0.0713958740234375,0.2563018798828125,1.055084228515625
1776554612159962400,10.41196240234375,-0.0686798095703125,0.2743377685546875,1.0465240478515625
1776554612170003500,10.42200341796875,-0.0162811279296875,0.3057861328125,0.9997711181640625
1776554612180043500,10.43204345703125,-0.018096923828125,0.320831298828125,0.976226806640625
1776554612190084400,10.44208447265625,-0.0487518310546875,0.33416748046875,0.960662841796875
1776554612200124200,10.452124267578125,-0.0838470458984375,0.3474884033203125,0.9373779296875
1776554612210165200,10.462165283203126,-0.12066650390625,0.3489990234375,0.9171142578125
1776554612220205300,10.472205322265625,-0.14202880859375,0.3419342041015625,0.912384033203125
1776554612230246400,10.482246337890626,-0.1397247314453125,0.326873779296875,0.9259796142578125
1776554612240287200,10.492287353515625,-0.1352691650390625,0.3025665283203125,0.947479248046875
1776554612250327300,10.502327392578126,-0.1363067626953125,0.2794189453125,0.966339111328125
1776554612260368400,10.512368408203125,-0.1454010009765625,0.2654571533203125,0.98236083984375
1776554612270408400,10.522408447265626,-0.1594085693359375,0.2702178955078125,0.9981231689453125
1776554612280449300,10.53244921875,-0.16619873046875,0.291900634765625,1.0100860595703125
1776554612290489300,10.5424892578125,-0.1643218994140625,0.3122100830078125,1.0088653564453125
1776554612300530400,10.552530517578125,-0.1593017578125,0.3176422119140625,0.9861907958984375
1776554612310571500,10.562571533203124,-0.155548095703125,0.30584716796875,0.946441650390625
1776554612320611300,10.572611328125,-0.154296875,0.2890777587890625,0.9072265625
1776554612330652200,10.582652099609374,-0.154052734375,0.2714691162109375,0.8846588134765625
1776554612340692200,10.592692138671875,-0.153900146484375,0.2577056884765625,0.8777008056640625
1776554612350733300,10.6027333984375,-0.1490325927734375,0.2488555908203125,0.880157470703125
1776554612360773400,10.6127734375,-0.139678955078125,0.2414093017578125,0.8854827880859375
1776554612370814200,10.622814208984375,-0.128692626953125,0.2337188720703125,0.890777587890625
1776554612380855300,10.632855224609376,-0.1194305419921875,0.2264404296875,0.89825439453125
1776554612390895400,10.642895263671875,-0.1158599853515625,0.2201995849609375,0.9095916748046875
1776554612400936400,10.6529365234375,-0.115936279296875,0.21600341796875,0.925750732421875
1776554612410976500,10.6629765625,-0.115020751953125,0.217803955078125,0.945343017578125
1776554612421017300,10.673017333984374,-0.105621337890625,0.227294921875,0.963043212890625
1776554612431057400,10.683057373046875,-0.112335205078125,0.25079345703125,0.9907379150390625
1776554612441098500,10.693098388671874,-0.109649658203125,0.27777099609375,1.0155487060546875
1776554612451138300,10.70313818359375,-0.0742645263671875,0.2913665771484375,1.013427734375
1776554612461179100,10.71317919921875,-0.091583251953125,0.2963409423828125,1.0321197509765625
1776554612471220200,10.72322021484375,-0.1255340576171875,0.3004150390625,1.0594024658203125
1776554612481260300,10.73326025390625,-0.089324951171875,0.2885589599609375,1.0335845947265625
1776554612491301400,10.74330126953125,-0.093170166015625,0.279632568359375,1.0172119140625
1776554612501341400,10.753341552734375,-0.112640380859375,0.2893829345703125,1.019317626953125
1776554612511382300,10.76338232421875,-0.0663604736328125,0.2948150634765625,0.9915008544921875
1776554612521422300,10.77342236328125,-0.0566864013671875,0.28045654296875,0.9751434326171875
1776554612531463400,10.78346337890625,-0.0787200927734375,0.2663726806640625,0.976837158203125
1776554612541504300,10.793504150390625,-0.079559326171875,0.253936767578125,0.961273193359375
1776554612551544300,10.80354443359375,-0.070953369140625,0.25079345703125,0.9383544921875
1776554612561585400,10.81358544921875,-0.0659637451171875,0.2650299072265625,0.92431640625
1776554612571625500,10.82362548828125,-0.0636138916015625,0.29052734375,0.9214935302734375
1776554612581666600,10.83366650390625,-0.0621337890625,0.3105010986328125,0.9254302978515625
1776554612591706400,10.843706298828126,-0.0660552978515625,0.3201141357421875,0.9344635009765625
1776554612601747200,10.853747314453125,-0.0748748779296875,0.3182220458984375,0.949127197265625
1776554612611787300,10.863787353515624,-0.0847015380859375,0.3057708740234375,0.9647216796875
1776554612621828400,10.873828369140625,-0.098388671875,0.2913818359375,0.9773712158203125
1776554612631869400,10.883869384765624,-0.1161651611328125,0.277069091796875,0.99237060546875
1776554612641909200,10.8939091796875,-0.1410980224609375,0.26806640625,1.00604248046875
1776554612651950300,10.903950439453125,-0.172149658203125,0.2659912109375,1.0125885009765625
1776554612661990400,10.913990478515625,-0.2067718505859375,0.2737884521484375,1.00689697265625
1776554612672031500,10.924031494140625,-0.2319793701171875,0.2998046875,0.9876861572265625
1776554612682071600,10.934071533203126,-0.2431793212890625,0.3363037109375,0.956298828125
1776554612692112400,10.9441123046875,-0.2346954345703125,0.36865234375,0.9214935302734375
1776554612702152200,10.954152099609376,-0.2129364013671875,0.3913421630859375,0.888946533203125
1776554612712193300,10.964193359375,-0.1879730224609375,0.3937530517578125,0.8609161376953125
1776554612722234400,10.974234375,-0.1668548583984375,0.3685455322265625,0.8322296142578125
1776554612732274200,10.984274169921875,-0.148834228515625,0.3248748779296875,0.8012237548828125
1776554612742315300,10.994315185546874,-0.1278533935546875,0.272369384765625,0.7752685546875
1776554612752355300,11.004355224609375,-0.1072540283203125,0.220550537109375,0.766387939453125
1776554612762396400,11.014396484375,-0.0936431884765625,0.1740570068359375,0.782012939453125
1776554612772436500,11.0244365234375,-0.0917816162109375,0.13531494140625,0.823577880859375
1776554612782477300,11.034477294921874,-0.1085968017578125,0.1049041748046875,0.8827362060546875
1776554612792517400,11.044517333984375,-0.1389007568359375,0.097198486328125,0.9420928955078125
1776554612802558500,11.054558349609374,-0.1746063232421875,0.1168975830078125,0.993896484375
1776554612812599300,11.064599365234375,-0.2090301513671875,0.16595458984375,1.0390625
1776554612822639400,11.074639404296875,-0.239990234375,0.226593017578125,1.072113037109375
1776554612832680400,11.084680419921876,-0.2686309814453125,0.287689208984375,1.07562255859375
1776554612842720300,11.09472021484375,-0.2870941162109375,0.33782958984375,1.0355987548828125
1776554612852761300,11.10476123046875,-0.290985107421875,0.367584228515625,0.971893310546875
1776554612862801400,11.114801513671875,-0.2745361328125,0.38653564453125,0.9075164794921875
1776554612872842200,11.12484228515625,-0.2341461181640625,0.399627685546875,0.8603668212890625
1776554612882882300,11.13488232421875,-0.1773529052734375,0.4098968505859375,0.8355255126953125
1776554612892923400,11.14492333984375,-0.1207427978515625,0.4117584228515625,0.8400115966796875
1776554612902963500,11.15496337890625,-0.0827178955078125,0.3892669677734375,0.8742523193359375
1776554612913004300,11.16500439453125,-0.0698394775390625,0.3396148681640625,0.917205810546875
1776554612923045400,11.17504541015625,-0.0823516845703125,0.2769775390625,0.94488525390625
1776554612933085400,11.18508544921875,-0.1120452880859375,0.22296142578125,0.959259033203125
1776554612943126500,11.19512646484375,-0.1525726318359375,0.1937103271484375,0.9644317626953125
1776554612953166300,11.205166259765624,-0.198028564453125,0.190460205078125,0.961822509765625
1776554612963207200,11.215207275390625,-0.2351837158203125,0.2063446044921875,0.948883056640625
1776554612973243400,11.225243408203125,-0.242523193359375,0.232452392578125,0.9251556396484375
1776554612983284500,11.235284423828125,-0.2183380126953125,0.2613983154296875,0.89813232421875
1776554612993324500,11.245324462890625,-0.177825927734375,0.28955078125,0.876922607421875
1776554613003365600,11.25536572265625,-0.132171630859375,0.3138580322265625,0.87664794921875
1776554613013405400,11.265405517578126,-0.093505859375,0.333892822265625,0.89971923828125
1776554613023446300,11.2754462890625,-0.0714263916015625,0.3515777587890625,0.93255615234375
1776554613033486300,11.285486328125,-0.06732177734375,0.3580474853515625,0.96136474609375
1776554613043527400,11.29552734375,-0.0838775634765625,0.348175048828125,0.9774017333984375
1776554613053568300,11.305568359375,-0.1061859130859375,0.3359527587890625,0.9711761474609375
1776554613063608300,11.3156083984375,-0.1170501708984375,0.328094482421875,0.95050048828125
1776554613073649400,11.3256494140625,-0.1251373291015625,0.3214874267578125,0.9458160400390625
1776554613083689500,11.335689453125,-0.132171630859375,0.3153076171875,0.963531494140625
1776554613093730600,11.34573046875,-0.133758544921875,0.3067626953125,0.99383544921875
1776554613103770400,11.355770263671875,-0.1325836181640625,0.2910919189453125,1.0166015625
1776554613113811500,11.3658115234375,-0.1317901611328125,0.2739105224609375,1.01580810546875
1776554613123851500,11.3758515625,-0.1287841796875,0.2664947509765625,0.993560791015625
1776554613133892600,11.385892578125,-0.123748779296875,0.27166748046875,0.9616851806640625
1776554613143932400,11.395932373046875,-0.114959716796875,0.2913055419921875,0.9380645751953125
1776554613153973200,11.40597314453125,-0.09918212890625,0.3160552978515625,0.931884765625
1776554613164013300,11.416013427734375,-0.0823974609375,0.3316192626953125,0.9378814697265625
1776554613174054400,11.426054443359375,-0.073883056640625,0.32666015625,0.9471588134765625
1776554613184094500,11.436094482421876,-0.0727691650390625,0.304718017578125,0.9529571533203125
1776554613194135600,11.446135498046875,-0.072265625,0.276885986328125,0.95281982421875
1776554613204176400,11.45617626953125,-0.07061767578125,0.25445556640625,0.95416259765625
1776554613214216400,11.466216552734375,-0.0730743408203125,0.240966796875,0.96136474609375
1776554613224257500,11.476257568359374,-0.08404541015625,0.2370758056640625,0.9683380126953125
1776554613234297600,11.486297607421875,-0.1011962890625,0.2412567138671875,0.9711151123046875
1776554613244338400,11.49633837890625,-0.1204681396484375,0.245635986328125,0.9700164794921875
1776554613254378200,11.506378173828125,-0.1383209228515625,0.2466278076171875,0.9673004150390625
1776554613264419300,11.51641943359375,-0.149169921875,0.247406005859375,0.9662628173828125
1776554613274458400,11.526458251953125,-0.15350341796875,0.249237060546875,0.9666748046875
1776554613284499500,11.53649951171875,-0.15228271484375,0.2498626708984375,0.9685516357421875
1776554613294539500,11.54653955078125,-0.1456146240234375,0.25189208984375,0.9711761474609375
1776554613304580400,11.556580322265624,-0.1310577392578125,0.256103515625,0.97174072265625
1776554613314620400,11.566620361328125,-0.112579345703125,0.268310546875,0.9676666259765625
1776554613324661500,11.57666162109375,-0.0989837646484375,0.2856292724609375,0.9560546875
1776554613334701600,11.58670166015625,-0.0894775390625,0.301177978515625,0.9376678466796875
1776554613344742700,11.59674267578125,-0.0877685546875,0.3112640380859375,0.9218902587890625
1776554613354782500,11.606782470703125,-0.091033935546875,0.3189544677734375,0.9185028076171875
1776554613364823300,11.6168232421875,-0.099273681640625,0.3210906982421875,0.9287109375
1776554613374863400,11.62686328125,-0.1068878173828125,0.318328857421875,0.938720703125
1776554613384904400,11.636904541015625,-0.1110382080078125,0.317626953125,0.9427337646484375
1776554613394944500,11.646944580078125,-0.11199951171875,0.318817138671875,0.9399871826171875
1776554613404985300,11.6569853515625,-0.1090087890625,0.3249969482421875,0.9371795654296875
1776554613415025400,11.667025390625,-0.10748291015625,0.333587646484375,0.942962646484375
1776554613425066500,11.67706640625,-0.107177734375,0.3366546630859375,0.956146240234375
1776554613435107600,11.687107666015624,-0.1084747314453125,0.3310546875,0.9680023193359375
1776554613445147400,11.6971474609375,-0.1112823486328125,0.319610595703125,0.966400146484375
1776554613455187200,11.707187255859376,-0.11175537109375,0.3099822998046875,0.955474853515625
1776554613465228300,11.717228271484375,-0.1091766357421875,0.30633544921875,0.9462890625
1776554613475269400,11.727269287109374,-0.101654052734375,0.3144683837890625,0.94110107421875
1776554613485309400,11.737309326171875,-0.096588134765625,0.3203125,0.94561767578125
1776554613495350300,11.747350341796874,-0.09539794921875,0.3171844482421875,0.9608612060546875
1776554613505390300,11.757390380859375,-0.09613037109375,0.3048248291015625,0.9773406982421875
1776554613515431400,11.767431396484374,-0.1031036376953125,0.2900238037109375,0.9842529296875
1776554613525471500,11.777471435546875,-0.11083984375,0.2773895263671875,0.9753570556640625
1776554613535512300,11.78751220703125,-0.117431640625,0.266693115234375,0.958526611328125
1776554613545552400,11.797552490234375,-0.1221923828125,0.2649993896484375,0.9466094970703125
1776554613555593500,11.807593505859375,-0.1320953369140625,0.26947021484375,0.947540283203125
1776554613565633500,11.817633544921875,-0.1461334228515625,0.26788330078125,0.96270751953125
1776554613575674600,11.827674560546875,-0.159454345703125,0.263824462890625,0.9803924560546875
1776554613585714400,11.83771435546875,-0.1699371337890625,0.2602691650390625,0.987640380859375
1776554613595755300,11.84775537109375,-0.1797027587890625,0.2519073486328125,0.9824066162109375
1776554613605795300,11.85779541015625,-0.1852569580078125,0.2411956787109375,0.9677276611328125
1776554613615836400,11.86783642578125,-0.1810302734375,0.23162841796875,0.949615478515625
1776554613625876500,11.87787646484375,-0.1763763427734375,0.2215728759765625,0.936614990234375
1776554613635917300,11.887917236328125,-0.1757354736328125,0.2111968994140625,0.93072509765625
1776554613645957400,11.897957275390626,-0.1726531982421875,0.211151123046875,0.92681884765625
1776554613655998500,11.90799853515625,-0.1666107177734375,0.221710205078125,0.9238433837890625
1776554613666038500,11.91803857421875,-0.16522216796875,0.2391204833984375,0.924713134765625
1776554613676079600,11.92807958984375,-0.1693572998046875,0.2564697265625,0.930267333984375
1776554613686119400,11.938119384765624,-0.1750640869140625,0.271514892578125,0.93951416015625
1776554613696160500,11.948160400390625,-0.17779541015625,0.2854156494140625,0.947540283203125
1776554613706200300,11.958200439453124,-0.175994873046875,0.3001251220703125,0.9515838623046875
1776554613716241400,11.968241455078125,-0.17523193359375,0.317657470703125,0.946807861328125
1776554613726281500,11.978281494140624,-0.1774444580078125,0.332275390625,0.9367523193359375
1776554613736322300,11.988322265625,-0.17547607421875,0.3392486572265625,0.9286651611328125
1776554613746362400,11.9983623046875,-0.1735687255859375,0.3363800048828125,0.9250335693359375
1776554613756403500,12.008403564453126,-0.1716766357421875,0.324066162109375,0.9248046875
1776554613766443500,12.018443603515625,-0.167510986328125,0.3037261962890625,0.925140380859375
1776554613776484600,12.028484619140626,-0.1681976318359375,0.288909912109375,0.92022705078125
1776554613786524400,12.0385244140625,-0.166961669921875,0.284698486328125,0.9087371826171875
1776554613796565500,12.0485654296875,-0.1705780029296875,0.285736083984375,0.8957366943359375
1776554613806605300,12.058605224609375,-0.1744384765625,0.2844085693359375,0.8861846923828125
1776554613816646400,12.068646484375,-0.183502197265625,0.2832489013671875,0.876068115234375
1776554613826686500,12.0786865234375,-0.1971588134765625,0.2853240966796875,0.8688201904296875
1776554613836727300,12.088727294921876,-0.2100067138671875,0.293212890625,0.86859130859375
1776554613846767400,12.098767333984375,-0.2248992919921875,0.3159942626953125,0.8780670166015625
1776554613856808400,12.108808349609374,-0.23345947265625,0.353271484375,0.893707275390625
1776554613866848500,12.1188486328125,-0.2397918701171875,0.3925933837890625,0.910400390625
1776554613876889300,12.128889404296874,-0.2441558837890625,0.4200897216796875,0.9239044189453125
1776554613886929400,12.138929443359375,-0.2434844970703125,0.42901611328125,0.930755615234375
1776554613896970500,12.148970458984374,-0.2319488525390625,0.4145355224609375,0.9331512451171875
1776554613907010600,12.159010498046875,-0.2059173583984375,0.3851318359375,0.936126708984375
1776554613917051600,12.1690517578125,-0.1727447509765625,0.3491973876953125,0.94244384765625
1776554613927091500,12.179091552734375,-0.14129638671875,0.3094024658203125,0.948028564453125
1776554613937132300,12.18913232421875,-0.1191558837890625,0.263092041015625,0.95550537109375
1776554613947172400,12.19917236328125,-0.1136932373046875,0.2158966064453125,0.9639434814453125
1776554613957213400,12.20921337890625,-0.1231536865234375,0.1762542724609375,0.9737701416015625
1776554613967253500,12.21925341796875,-0.1461944580078125,0.15753173828125,0.9803619384765625
1776554613977294000,12.229294189453125,-0.1789093017578125,0.1592559814453125,0.979705810546875
1776554613987334100,12.239334228515625,-0.2102508544921875,0.1829833984375,0.967742919921875
1776554613997375200,12.249375244140625,-0.225372314453125,0.217864990234375,0.94488525390625
1776554614007415300,12.259415283203126,-0.225921630859375,0.2441864013671875,0.9214019775390625
1776554614017456400,12.269456298828125,-0.21636962890625,0.255035400390625,0.905059814453125
1776554614027496200,12.27949609375,-0.20391845703125,0.25103759765625,0.89935302734375
1776554614037537000,12.289537109375,-0.19244384765625,0.2404632568359375,0.9055023193359375
1776554614047577000,12.2995771484375,-0.1865692138671875,0.2288360595703125,0.9148101806640625
1776554614057618200,12.3096181640625,-0.182586669921875,0.222320556640625,0.917877197265625
1776554614067658200,12.319658203125,-0.1805877685546875,0.22607421875,0.916168212890625
1776554614077699000,12.329698974609375,-0.183013916015625,0.235626220703125,0.9129791259765625
1776554614087739100,12.3397392578125,-0.1865234375,0.25091552734375,0.914703369140625
1776554614097780200,12.3497802734375,-0.188446044921875,0.2734527587890625,0.922607421875
1776554614107820300,12.3598203125,-0.1842041015625,0.296539306640625,0.9336395263671875
1776554614117861400,12.369861328125,-0.1707763671875,0.324005126953125,0.9422454833984375
1776554614127901200,12.379901123046874,-0.1520538330078125,0.347747802734375,0.9500732421875
1776554614137942000,12.38994189453125,-0.1322784423828125,0.363250732421875,0.9576873779296875
1776554614147982000,12.399982177734374,-0.118377685546875,0.3696746826171875,0.9620819091796875
1776554614158023200,12.410023193359375,-0.111358642578125,0.36712646484375,0.9637908935546875
1776554614168063200,12.420063232421874,-0.118560791015625,0.3665008544921875,0.96533203125
1776554614178104000,12.43010400390625,-0.1361083984375,0.372039794921875,0.9650421142578125
1776554614188144000,12.44014404296875,-0.1477203369140625,0.3822021484375,0.9547576904296875
1776554614198185200,12.450185302734376,-0.1568603515625,0.3897705078125,0.9378814697265625
1776554614208225300,12.460225341796875,-0.164306640625,0.382781982421875,0.91864013671875
1776554614218266400,12.470266357421876,-0.1707305908203125,0.3535003662109375,0.9052276611328125
1776554614228306200,12.48030615234375,-0.18304443359375,0.3110809326171875,0.90032958984375
1776554614238347300,12.49034716796875,-0.1999053955078125,0.2728424072265625,0.89593505859375
1776554614248387000,12.500386962890625,-0.2156829833984375,0.2476959228515625,0.89019775390625
1776554614258428200,12.51042822265625,-0.2291107177734375,0.243408203125,0.882171630859375
1776554614268468200,12.52046826171875,-0.2311553955078125,0.2574462890625,0.8765716552734375
1776554614278509000,12.530509033203124,-0.2213592529296875,0.287353515625,0.882568359375
1776554614288549000,12.540549072265625,-0.204864501953125,0.31939697265625,0.9015655517578125
1776554614298590200,12.550590087890624,-0.1829376220703125,0.3397979736328125,0.9266815185546875
1776554614308630300,12.56063037109375,-0.1595611572265625,0.3498992919921875,0.95172119140625
1776554614318671000,12.570671142578124,-0.139007568359375,0.3484039306640625,0.9661865234375
1776554614328711200,12.580711181640625,-0.1222381591796875,0.3374786376953125,0.9708709716796875
1776554614338752300,12.590752197265624,-0.106201171875,0.32220458984375,0.969512939453125
1776554614348792000,12.6007919921875,-0.093597412109375,0.309356689453125,0.96795654296875
1776554614358833200,12.610833251953125,-0.0863189697265625,0.2996368408203125,0.9744110107421875
1776554614368873200,12.620873291015625,-0.0899200439453125,0.28912353515625,0.988037109375
1776554614378914000,12.6309140625,-0.099578857421875,0.280914306640625,1.00396728515625
1776554614388954000,12.6409541015625,-0.10711669921875,0.2782135009765625,1.0109710693359375
1776554614398995200,12.6509951171875,-0.1077728271484375,0.2710723876953125,1.0128631591796875
1776554614409035300,12.66103515625,-0.1147613525390625,0.2560882568359375,1.0111541748046875
1776554614419076000,12.671076171875,-0.133209228515625,0.2420806884765625,1.0048065185546875
1776554614429116200,12.6811162109375,-0.1508026123046875,0.2361297607421875,0.9926605224609375
1776554614439157200,12.6911572265625,-0.1626129150390625,0.2402801513671875,0.9772796630859375
1776554614449197300,12.701197265625,-0.167449951171875,0.25469970703125,0.9599609375
1776554614459238400,12.71123828125,-0.1619873046875,0.27545166015625,0.9452362060546875
1776554614469278200,12.7212783203125,-0.1515655517578125,0.2978057861328125,0.93572998046875
1776554614479319000,12.731319091796875,-0.1439208984375,0.3189849853515625,0.9338836669921875
1776554614489359000,12.741359130859376,-0.14215087890625,0.3336029052734375,0.9412994384765625
1776554614499400200,12.751400146484375,-0.144287109375,0.3448638916015625,0.95428466796875
1776554614509440300,12.761440185546874,-0.151397705078125,0.3513336181640625,0.96124267578125
1776554614519481000,12.771481201171875,-0.1646575927734375,0.346893310546875,0.9501190185546875
1776554614529521200,12.781521240234374,-0.1804351806640625,0.3328399658203125,0.9197540283203125
1776554614539562200,12.791562255859375,-0.1938629150390625,0.309600830078125,0.8852996826171875
1776554614549602300,12.801602294921874,-0.203399658203125,0.282196044921875,0.85894775390625
1776554614559643400,12.811643310546875,-0.20660400390625,0.2550506591796875,0.8459014892578125
1776554614569683200,12.82168310546875,-0.2056427001953125,0.2268829345703125,0.850372314453125
1776554614579724000,12.83172412109375,-0.2026824951171875,0.200836181640625,0.866851806640625
1776554614589764000,12.84176416015625,-0.200286865234375,0.1754302978515625,0.8901214599609375
1776554614599805200,12.85180517578125,-0.201507568359375,0.1567840576171875,0.9111785888671875
1776554614609845200,12.86184521484375,-0.2063446044921875,0.1475982666015625,0.9262847900390625
1776554614619886000,12.871885986328126,-0.2130126953125,0.1517791748046875,0.9385223388671875
1776554614629926100,12.881926025390625,-0.2203369140625,0.17315673828125,0.949188232421875
1776554614639967200,12.89196728515625,-0.2261505126953125,0.207977294921875,0.9561614990234375
1776554614650007300,12.90200732421875,-0.22406005859375,0.254791259765625,0.9566497802734375
1776554614660048100,12.912048095703126,-0.2159423828125,0.3077850341796875,0.9514617919921875
1776554614670088200,12.922088134765625,-0.20513916015625,0.358551025390625,0.9463348388671875
1776554614680129300,12.93212939453125,-0.1894683837890625,0.395416259765625,0.940826416015625
1776554614690169000,12.942169189453125,-0.172607421875,0.4131317138671875,0.9306640625
1776554614700210200,12.952210205078124,-0.1521148681640625,0.40753173828125,0.9181671142578125
1776554614710250200,12.962250244140625,-0.1297607421875,0.37640380859375,0.9107818603515625
1776554614720291000,12.972291015625,-0.11065673828125,0.3303070068359375,0.9087982177734375
1776554614730331100,12.9823310546875,-0.090850830078125,0.2844085693359375,0.912017822265625
1776554614740372200,12.992372314453124,-0.084747314453125,0.24676513671875,0.924285888671875
1776554614750412300,13.002412353515625,-0.095306396484375,0.2244720458984375,0.94354248046875
1776554614760453000,13.012453125,-0.122344970703125,0.223114013671875,0.96630859375
1776554614770493200,13.0224931640625,-0.1602325439453125,0.241912841796875,0.98614501953125
1776554614780534300,13.0325341796875,-0.18792724609375,0.2791900634765625,0.996307373046875
1776554614790574000,13.042573974609375,-0.2025909423828125,0.3245697021484375,0.998992919921875
1776554614800615200,13.052615234375,-0.2059173583984375,0.36785888671875,0.995025634765625
1776554614810655200,13.0626552734375,-0.1941375732421875,0.4062957763671875,0.9834442138671875
1776554614820696000,13.072696044921875,-0.16998291015625,0.4301605224609375,0.9628143310546875
1776554614830736100,13.082736083984376,-0.1427001953125,0.4273529052734375,0.94158935546875
1776554614840777200,13.092777099609375,-0.1236114501953125,0.396392822265625,0.92462158203125
