time,seconds_elapsed,z,y,x
1776554601833235500,0.0852353515625,-9.34526466063857,-2.8486051778063177,-0.8496223673384636
1776554601843276500,0.095276611328125,-9.348895710617303,-2.838116517017782,-0.844766670935601
1776554601853316600,0.105316650390625,-9.352493442848324,-2.8273522541582583,-0.841030626212433
1776554601863357400,0.115357421875,-9.356275883996487,-2.8157074090719223,-0.8380201192848384
1776554601873397500,0.1253974609375,-9.36020211752951,-2.803105701652169,-0.8364226940255611
1776554601883438600,0.1354384765625,-9.364040672779083,-2.7898823552027343,-0.8376648030411452
1776554601893478700,0.145478759765625,-9.367938264739513,-2.775069693735242,-0.843267737614736
1776554601903519700,0.155519775390625,-9.371783249729871,-2.7593033848047255,-0.8522338650111109
1776554601913560600,0.165560546875,-9.374840299212932,-2.746638256759941,-0.8594965494904666
1776554601923600600,0.1756005859375,-9.377217549738287,-2.7377213753327725,-0.8620094821594655
1776554601933641700,0.185641845703125,-9.37948783275783,-2.7301535704270004,-0.8613077636308968
1776554601943681800,0.195681884765625,-9.381737657511234,-2.722600670829415,-0.8607156429566443
1776554601953722600,0.20572265625,-9.383975791826844,-2.7148969645842906,-0.8606480576131492
1776554601963762400,0.215762451171875,-9.386154889431594,-2.7071453275442123,-0.8613058639347553
1776554601973803500,0.225803466796875,-9.387928328844904,-2.6995620328083634,-0.8657672272577881
1776554601983843600,0.235843505859375,-9.38901729312539,-2.6927172814801335,-0.8752198960620909
1776554601993884700,0.245884765625,-9.389490755856036,-2.687000072877109,-0.8876239620178937
1776554602003924700,0.2559248046875,-9.389807566720247,-2.6820027029812334,-0.8993092121798545
1776554602013965600,0.265965576171875,-9.390196273776889,-2.677891176009178,-0.9074665074113756
1776554602024006700,0.276006591796875,-9.390696039992571,-2.6755475354924796,-0.9092078711859881
1776554602034046700,0.286046630859375,-9.39175928530991,-2.673946237775683,-0.9029154199782758
1776554602044087600,0.296087646484375,-9.39368294684887,-2.6722148839384317,-0.8879035096116363
1776554602054127400,0.30612744140625,-9.396483391222358,-2.66960733178854,-0.8658431420382112
1776554602064168400,0.31616845703125,-9.399791200596093,-2.6651249256774783,-0.843456976576522
1776554602074208500,0.32620849609375,-9.403038219693302,-2.6593390357524154,-0.8253284685593097
1776554602084249600,0.33624951171875,-9.405400272649526,-2.654951614448428,-0.8124434872187674
1776554602094289700,0.34628955078125,-9.406988418623804,-2.6530618551790712,-0.8001368172228336
1776554602104330500,0.35633056640625,-9.40856312059462,-2.6519904265552756,-0.7850312372233719
1776554602114370600,0.36637060546875,-9.411239646327495,-2.6483225516974924,-0.7650755868442356
1776554602124411600,0.37641162109375,-9.415770860016345,-2.6404595632374286,-0.735944331036508
1776554602134452500,0.386452392578125,-9.422082527381182,-2.6287068738624453,-0.6961642554424703
1776554602144492500,0.396492431640625,-9.430324870547652,-2.611366447483003,-0.648165071427077
1776554602154533600,0.40653369140625,-9.43954161170423,-2.588596397270262,-0.6038241541909054
1776554602164573700,0.41657373046875,-9.448837263315916,-2.5640298190295696,-0.5617917696254328
1776554602174614800,0.42661474609375,-9.456082412138581,-2.5461948871314526,-0.519404799468629
1776554602184654600,0.436654541015625,-9.461964455914497,-2.5327047064393757,-0.4764627527123317
1776554602194695400,0.4466953125,-9.46852512960434,-2.515700672407448,-0.4343527728660032
1776554602204735500,0.456735595703125,-9.476460598778724,-2.4910516765803097,-0.4021733084687963
1776554602214776600,0.466776611328125,-9.4862782284379,-2.457164312286675,-0.3784960802832618
1776554602224816600,0.476816650390625,-9.498649634233116,-2.4129710964255033,-0.35158542313445357
1776554602234857500,0.486857421875,-9.512595157477259,-2.3644711232811213,-0.3003188165546395
1776554602244898600,0.496898681640625,-9.526721882507205,-2.3166304908283055,-0.21256065453216433
1776554602254938600,0.506938720703125,-9.540275191563367,-2.268216442401707,-0.09345104903499596
1776554602264979700,0.516979736328125,-9.550815290278196,-2.2244987350977956,0.06261614024769514
1776554602275019500,0.52701953125,-9.554643324133753,-2.1943445659831164,0.2530374436860904
1776554602285060600,0.537060546875,-9.54910848636031,-2.1850229031473396,0.4588937417414039
1776554602295100400,0.547100341796875,-9.537122280490397,-2.1904493121102453,0.644677521572262
1776554602305141500,0.5571416015625,-9.527030510064959,-2.192698844602704,0.7734015897061676
1776554602315181600,0.567181640625,-9.51990285014212,-2.191275387670845,0.8603197024416178
1776554602325222400,0.577222412109375,-9.51867126252055,-2.1748048759937286,0.9140579415656626
1776554602335262500,0.587262451171875,-9.520006310516596,-2.1421629817165435,0.9751917708337307
1776554602345303600,0.597303466796875,-9.526550033071636,-2.0849141771882773,1.0336150259688497
1776554602355343600,0.607343505859375,-9.538377248987555,-2.0046486542098223,1.0821843380223959
1776554602365384700,0.617384765625,-9.552090132519602,-1.9099324349440634,1.1314215394001454
1776554602375425500,0.627425537109375,-9.563803951188921,-1.8135412682034073,1.1895844630986452
1776554602385465600,0.637465576171875,-9.570831073346733,-1.7312161823466419,1.2539786093369125
1776554602395506700,0.647506591796875,-9.572505144038796,-1.6786417993701994,1.3113701833367346
1776554602405546800,0.657546630859375,-9.567738952550291,-1.6611865144394338,1.3671942157588899
1776554602415587600,0.667587646484375,-9.555442950078845,-1.6763861293978988,1.433046013459563
1776554602425627400,0.67762744140625,-9.536029809078574,-1.7171768433392047,1.511892025028914
1776554602435668500,0.68766845703125,-9.506734741011261,-1.7753391094505786,1.6249765524171291
1776554602445708500,0.69770849609375,-9.468211241349577,-1.8452556723721325,1.7658964505836368
1776554602455749600,0.70774951171875,-9.423404131373763,-1.9289600837580858,1.9102217732794582
1776554602465789400,0.71778955078125,-9.372880397316813,-2.029765705940127,2.049279969227314
1776554602475830500,0.72783056640625,-9.316480464702844,-2.1331498003080487,2.19618887867555
1776554602485871600,0.73787158203125,-9.262277165350318,-2.2125440934099254,2.3420623075962066
1776554602495911700,0.74791162109375,-9.216005828040839,-2.2567561601020394,2.478442078115046
1776554602505952500,0.757952392578125,-9.179753780442475,-2.275808797226846,2.592912799164653
1776554602515992600,0.76799267578125,-9.153359694513679,-2.289176958974451,2.673212370543182
1776554602526033700,0.77803369140625,-9.13427739290297,-2.310695693951845,2.719567879004776
1776554602536073500,0.788073486328125,-9.12362681955099,-2.339354363811761,2.730794206418097
1776554602546114600,0.798114501953125,-9.118203625458479,-2.378049712909013,2.7154423235073684
1776554602556154400,0.808154296875,-9.114211340951918,-2.433609687567502,2.6793808300450443
1776554602566195500,0.818195556640625,-9.111156045034527,-2.5093352290287614,2.6192469715997575
1776554602576235500,0.828235595703125,-9.10863324855864,-2.60597277174592,2.532210493181646
1776554602586276600,0.838276611328125,-9.103454384616017,-2.724868908022344,2.423343145097047
1776554602596317400,0.8483173828125,-9.09479644638598,-2.8609458962023258,2.2956587222091853
1776554602606357500,0.858357421875,-9.082441991725563,-3.0044308225512504,2.15708874816969
1776554602616398600,0.868398681640625,-9.065131375962496,-3.142186265337467,2.0298864097103477
1776554602626438700,0.878438720703125,-9.04796279901862,-3.2591824132114646,1.9189796647526323
1776554602636479700,0.888479736328125,-9.039191463541984,-3.338971112458408,1.8206234815493225
1776554602646519600,0.89851953125,-9.043666563129424,-3.372544296236336,1.7344794219262898
1776554602656560600,0.908560546875,-9.064818656751513,-3.360589946809411,1.6449562412589787
1776554602666600400,0.918600341796875,-9.102912532824277,-3.319552418500185,1.5125940358184278
1776554602676641500,0.9286416015625,-9.146268274948,-3.2782799123913047,1.3300536948882042
1776554602686681600,0.938681640625,-9.174406574195622,-3.269040959402919,1.1463096772566437
1776554602696722400,0.948722412109375,-9.178692873212695,-3.3039781250104308,1.00284864323996
1776554602706763500,0.958763427734375,-9.16808672352433,-3.361894015145302,0.9023525984637438
1776554602716803600,0.968803466796875,-9.156531310287118,-3.4182419253110883,0.8024600725386292
1776554602726844700,0.9788447265625,-9.142851159980893,-3.477460422477126,0.6970852427449077
1776554602736884500,0.988884521484375,-9.1217446590662,-3.5536613263651726,0.5793551545731723
1776554602746925600,0.998925537109375,-9.090831634408236,-3.6508708237513896,0.44531511558089404
1776554602756965600,1.008965576171875,-9.048763594007491,-3.7650478225514292,0.338636619310081
1776554602767006700,1.0190068359375,-9.003768267983197,-3.8769375871971246,0.2681382561788894
1776554602777046500,1.029046630859375,-8.962022883665561,-3.974836528152227,0.23066863121800124
1776554602787087600,1.039087646484375,-8.93283595214784,-4.039139196714759,0.2453029404439032
1776554602797127400,1.04912744140625,-8.92211289808154,-4.058846059964597,0.30341141227511687
1776554602807168500,1.05916845703125,-8.923667141786217,-4.048695545089244,0.38290545769073064
1776554602817209600,1.069209716796875,-8.92569601726532,-4.032928651636839,0.4876673432178795
1776554602827249400,1.07924951171875,-8.919697653633355,-4.028556135641038,0.6165377610199153
1776554602837290500,1.08929052734375,-8.902947594362496,-4.040850092285871,0.761207659369707
1776554602847330600,1.09933056640625,-8.874846119993924,-4.067159714801609,0.9304288653258234
1776554602857371600,1.10937158203125,-8.830901179805398,-4.1106817534029485,1.1348406271286309
1776554602867411700,1.11941162109375,-8.764695307970047,-4.172935965003073,1.391800833749026
1776554602877452500,1.12945263671875,-8.676368789741396,-4.2435210748359555,1.6980979027293621
1776554602887492600,1.13949267578125,-8.565050687503815,-4.310881961925327,2.0558675309240817
1776554602897533700,1.14953369140625,-8.432249067732691,-4.370665984019637,2.442302112589031
1776554602907573500,1.159573486328125,-8.2808502995193,-4.421278273142874,2.8372888340219853
1776554602917614300,1.1696142578125,-8.10858176175654,-4.466489287744462,3.23600962741673
1776554602927655400,1.179655517578125,-7.912870389086008,-4.508740868018568,3.6370495114088057
1776554602937695500,1.189695556640625,-7.6978323846548795,-4.539836555767059,4.037778137494623
1776554602947736600,1.199736572265625,-7.469782922959327,-4.540649041193723,4.444686328998208
1776554602957776400,1.2097763671875,-7.230211950296163,-4.49894369662553,4.863530457489192
1776554602967817200,1.219817138671875,-6.9667463073045015,-4.43287664873898,5.2900312382131816
1776554602977857300,1.229857177734375,-6.679059830769896,-4.363074798238277,5.702991861623525
1776554602987898400,1.2398984375,-6.377914737725257,-4.294260205209255,6.087029757410288
1776554602997938400,1.2499384765625,-6.0732502383828155,-4.211075433783233,6.4461500695616
1776554603007979500,1.2599794921875,-5.778314521372318,-4.084481436480582,6.789586490368842
1776554603018020400,1.270020263671875,-5.512181120476126,-3.8880493483200667,7.118238599020242
1776554603028060400,1.280060302734375,-5.29807133680582,-3.609627251476049,7.421011585527658
1776554603038101500,1.2901015625,-5.156207874178886,-3.263169729281962,7.676954431799054
1776554603048141300,1.300141357421875,-5.097352949628234,-2.8824527946114538,7.866311467006802
1776554603058182100,1.31018212890625,-5.1239346670836206,-2.501471071524918,7.978617411237955
1776554603068222200,1.32022216796875,-5.241657960188388,-2.1471907467506823,8.005309018808603
1776554603078263300,1.33026318359375,-5.455698770275712,-1.8330733594082296,7.940124306714535
1776554603088303400,1.340303466796875,-5.744164999011159,-1.5439330308035015,7.796872020077705
1776554603098344400,1.350344482421875,-6.072201606112718,-1.2540911298006772,7.597763406184315
1776554603108384300,1.36038427734375,-6.39831279810965,-0.9370033483453094,7.372516142427921
1776554603118425300,1.37042529296875,-6.673879797783494,-0.5803987453419714,7.16190238417983
1776554603128466400,1.380466552734375,-6.86758567585051,-0.18838903042580932,6.997939317947626
1776554603138506500,1.390506591796875,-6.961292718073725,0.22550160384364426,6.90361794321835
1776554603148547300,1.40054736328125,-6.948008289086818,0.6284789587043226,6.892066621634363
1776554603158587400,1.41058740234375,-6.844090233972668,1.0017214658409357,6.951645184284448
1776554603168628500,1.42062841796875,-6.664677669674158,1.3435152340076864,7.067348954260349
1776554603178668300,1.430668212890625,-6.4340358533978455,1.6557031145922838,7.2133362188190215
1776554603188709400,1.44070947265625,-6.176406661474704,1.9337964178733527,7.36768799161911
1776554603198749200,1.450749267578125,-5.909025306344032,2.1825898307815192,7.515989378339052
1776554603208790300,1.460790283203125,-5.640296628257632,2.4182145500369367,7.649161000466346
1776554603218830300,1.470830322265625,-5.368454786586761,2.651721838746965,7.766496171036362
1776554603228871400,1.480871337890625,-5.093482245674729,2.8772496730104087,7.870721100142598
1776554603238912300,1.490912353515625,-4.8220285265386105,3.0797680953472852,7.964511728996038
1776554603248952300,1.500952392578125,-4.568870050288736,3.2480829270482063,8.04647455741167
1776554603258993400,1.510993408203125,-4.341768390837312,3.3738787597104904,8.120122561946511
1776554603269033500,1.521033447265625,-4.135214429374039,3.455816745945811,8.193149804234505
1776554603279074300,1.53107421875,-3.94672511691153,3.5014895328402518,8.26639624223113
1776554603289114000,1.541114013671875,-3.7672567307725546,3.521429620324075,8.341324934226273
1776554603299155200,1.5511552734375,-3.587555704921484,3.529210191197693,8.416918227609992
1776554603309195300,1.5611953125,-3.4064491961866614,3.5361493428111075,8.488942430335284
1776554603319236400,1.571236328125,-3.2209722172826525,3.5473446905642745,8.55640560875535
1776554603329276400,1.5812763671875,-3.0346397905930873,3.5615327903926373,8.618401753941178
1776554603339317200,1.591317138671875,-2.8531919210746883,3.567315757708251,8.677783917236328
1776554603349358300,1.6013583984375,-2.684929404082894,3.5537878753542897,8.73682588879168
1776554603359398400,1.6113984375,-2.537120477055013,3.520336856651306,8.794352195087075
1776554603369439500,1.621439453125,-2.4046701549395917,3.471460889801383,8.85081467154324
1776554603379479300,1.631479248046875,-2.2793147595211862,3.417074927358329,8.904981730538607
1776554603389520400,1.641520263671875,-2.150055342401564,3.36685835955441,8.956111029273272
1776554603399560400,1.651560546875,-2.0062096199162305,3.323435397413373,9.005570933490992
1776554603409601500,1.6616015625,-1.8491741609901189,3.285772898495197,9.052879797154665
1776554603419641300,1.671641357421875,-1.6847864396050571,3.260134307108819,9.09414178186953
1776554603429682200,1.68168212890625,-1.5269205212041734,3.239458014304936,9.129338182935118
1776554603439723300,1.69172314453125,-1.38612819494009,3.2062983797639606,9.163442112588882
1776554603449763300,1.701763427734375,-1.2604385991312563,3.155750680309534,9.199071644374728
1776554603459804400,1.711804443359375,-1.14457488935329,3.092387046162784,9.235663299190998
1776554603469844200,1.72184423828125,-1.0406288502536714,3.024026626642048,9.27053119895458
1776554603479885300,1.73188525390625,-0.9545225653577596,2.953719749228656,9.302409269252419
1776554603489925400,1.74192529296875,-0.8960808247178792,2.8742423078879713,9.33306802688837
1776554603499966500,1.751966552734375,-0.8770235114179551,2.7771555600985884,9.364220705521106
1776554603510006500,1.762006591796875,-0.8961552051283419,2.663271114504337,9.395437681561708
1776554603520047400,1.77204736328125,-0.9378747974175959,2.542437580424547,9.424795877993107
1776554603530087400,1.78208740234375,-0.9887575009800493,2.428327655511349,9.449655009439587
1776554603540128500,1.79212841796875,-1.0441421190716325,2.3254202387444676,9.469559733349085
1776554603550169300,1.80216943359375,-1.111720886695385,2.2221507106669245,9.486648815315961
1776554603560209200,1.812209228515625,-1.199734466517344,2.1059083037696777,9.502431490859388
1776554603570250200,1.822250244140625,-1.3141067686937749,1.9728907031603156,9.51583983848691
1776554603580290300,1.832290283203125,-1.4567922152280806,1.8273678412429988,9.52412017557621
1776554603590331400,1.842331298828125,-1.615942766612023,1.6788804304316638,9.52578021774292
1776554603600371500,1.852371337890625,-1.7852594688318668,1.5370438558116555,9.519493100297451
1776554603610412300,1.862412353515625,-1.9633871078863738,1.4068005422212182,9.504548044621943
1776554603620452400,1.872452392578125,-2.1492998478591443,1.2867811010032892,9.481302778112887
1776554603630493400,1.882493408203125,-2.348978224464506,1.1676289441391825,9.449303711783886
1776554603640534500,1.892534423828125,-2.564860716895759,1.0397251063469797,9.408020099759101
1776554603650574300,1.90257421875,-2.7994866343721747,0.8988163140963763,9.355500223448873
1776554603660615400,1.912615478515625,-3.0416753883183,0.7390876705635339,9.293671251523493
1776554603670655200,1.9226552734375,-3.27261998693347,0.5557423699259758,9.227756471589208
1776554603680696300,1.9326962890625,-3.4862072080343958,0.35742486987765876,9.159094438773392
1776554603690736400,1.942736328125,-3.6728169903606176,0.16204926850013435,9.091455319264531
1776554603700777200,1.952777099609375,-3.8235412203133103,-0.020163619157567154,9.030532356268166
1776554603710817300,1.9628173828125,-3.9460944177925583,-0.19578540602112188,8.975543459495901
1776554603720858400,1.9728583984375,-4.065803624017536,-0.377911120002158,8.916097583314777
1776554603730899500,1.9828994140625,-4.211115473532677,-0.5658074350075796,8.838367277902364
1776554603740939300,1.992939208984375,-4.385296274657547,-0.7518661958549171,8.739237626108526
1776554603750980400,2.00298046875,-4.564522960995137,-0.9425321217041462,8.628276666745544
1776554603761020400,2.0130205078125,-4.73854097277373,-1.1393712562955916,8.509902216255664
1776554603771061500,2.0230615234375,-4.901989367482066,-1.3489379897087812,8.38577607037127
1776554603781101600,2.0331015625,-5.062113878464698,-1.574422130960971,8.250248240506648
1776554603791142400,2.043142333984375,-5.226541639599204,-1.806723697143048,8.098728476262092
1776554603801182200,2.05318212890625,-5.389153875744342,-2.022720901995152,7.939522249168157
1776554603811223300,2.063223388671875,-5.549485891997814,-2.21267108079046,7.77673991715312
1776554603821263400,2.073263427734375,-5.710455621632933,-2.3889061840966344,7.606195134443044
1776554603831304200,2.08330419921875,-5.863782143038511,-2.562111710448563,7.4311530403137205
1776554603841345300,2.09334521484375,-6.006074060210585,-2.7409648872986434,7.251521864828467
1776554603851385300,2.10338525390625,-6.132337802645564,-2.924437248381972,7.071950895097851
1776554603861426400,2.113426513671875,-6.2496934314817185,-3.1013571190819142,6.891538798367977
1776554603871466500,2.123466552734375,-6.354505805087089,-3.2655119084939357,6.717669255149364
1776554603881507300,2.13350732421875,-6.441353482934832,-3.40784181958884,6.5624658339560025
1776554603891547400,2.14354736328125,-6.5205509382903575,-3.521520805738866,6.422747566664219
1776554603901588500,2.15358837890625,-6.605455080854893,-3.6024350018844005,6.289737857100367
1776554603911628300,2.163628173828125,-6.691638741835951,-3.6684649326309557,6.159116503977775
1776554603921669000,2.173669189453125,-6.768663529327512,-3.7422584831163284,6.029186055728792
1776554603931710200,2.183710205078125,-6.816976601597666,-3.8326679450988768,5.916914013767242
1776554603941750300,2.193750244140625,-6.828435568723082,-3.9278821770146486,5.840770100763439
1776554603951791400,2.203791259765625,-6.793402249264717,-3.999656496632099,5.832908281347155
1776554603961832000,2.21383203125,-6.716731682038307,-4.0375419906511905,5.89526566106081
1776554603971872800,2.223872802734375,-6.590830927696824,-4.036325892859697,6.0365054388314485
1776554603981912800,2.233912841796875,-6.468475883138179,-3.9711914496481415,6.209576525148749
1776554603991954000,2.243953857421875,-6.350000310361385,-3.8510929518446324,6.40444910890758
1776554604001994000,2.253993896484375,-6.277016907215118,-3.7014708379149437,6.562663986876607
1776554604012034800,2.264034912109375,-6.241667361414432,-3.5333535746127365,6.687853962600231
1776554604022076000,2.274075927734375,-6.217532452589273,-3.3688267370179292,6.794386584126949
1776554604032115700,2.28411572265625,-6.19970862660706,-3.2169027758866546,6.883715557396411
1776554604042156800,2.29415673828125,-6.194482416391373,-3.067726067636907,6.956136065962911
1776554604052196900,2.30419677734375,-6.213675777161121,-2.9104736049592494,7.006409040129184
1776554604062237700,2.31423779296875,-6.268809635362029,-2.74399212616533,7.02445089277625
1776554604072277800,2.32427783203125,-6.353488736999035,-2.580482064397633,7.010326505833864
1776554604082318800,2.33431884765625,-6.388351960587501,-2.4449368450067936,7.027205744442344
1776554604092359000,2.34435888671875,-6.3825090797781945,-2.360661647995561,7.061248883819579
1776554604102399700,2.354399658203125,-6.3196490112394095,-2.313912464041263,7.132897238969803
1776554604112440800,2.36444091796875,-6.200448046797513,-2.26886409265548,7.251005731999873
1776554604122481000,2.37448095703125,-6.058664079147577,-2.1920152462527156,7.39310709503591
1776554604132522000,2.38452197265625,-5.930563768935203,-2.091145765054226,7.52501907249093
1776554604142561800,2.394561767578125,-5.842482749900221,-2.0108993851676584,7.615251716601848
1776554604152603000,2.404602783203125,-5.796564463812112,-1.9806965546056627,7.658136918604374
1776554604162642700,2.414642578125,-5.776234207966923,-1.9898373079165814,7.671117980730533
1776554604172683800,2.424683837890625,-5.757175287231803,-2.008169960203767,7.680662638667226
1776554604182724600,2.434724609375,-5.72666908980906,-2.0146882560566066,7.701732314702868
1776554604192764700,2.4447646484375,-5.6827486995399,-2.009458684840053,7.735556258371472
1776554604202805800,2.4548056640625,-5.633709651082754,-2.0306699613034724,7.765828062516451
1776554604212845800,2.464845703125,-5.58408841882348,-2.1199362446002663,7.77780257794857
1776554604222887000,2.474886962890625,-5.530092624741792,-2.292805232474208,7.7673361289918414
1776554604232926700,2.4849267578125,-5.461043053913116,-2.5295401049286124,7.742662290984391
1776554604242967800,2.4949677734375,-5.378461216816306,-2.800989147889614,7.706945080915093
1776554604253008000,2.5050078125,-5.27878795966506,-3.0962352460235354,7.662774515277147
1776554604263049000,2.515049072265625,-5.142683791217207,-3.4405431889683005,7.608274863326549
1776554604273089800,2.52508984375,-4.9733688425630325,-3.8358985975831743,7.531392699176073
1776554604283129600,2.535129638671875,-4.7971419225633145,-4.215403233854472,7.44232383814752
1776554604293171000,2.5451708984375,-4.639220766843855,-4.550709539698064,7.344321729078889
1776554604303210800,2.555210693359375,-4.543141150270402,-4.850212126232683,7.211498481997847
1776554604313251800,2.565251953125,-4.5202629635080696,-5.105596461838483,7.047730646076798
1776554604323292000,2.5752919921875,-4.514724618603289,-5.32095536878705,6.890215440809726
1776554604333332700,2.585332763671875,-4.4596372298926115,-5.513022247475385,6.774113611426949
1776554604343372800,2.595372802734375,-4.416105546680092,-5.658994314464926,6.681630558040737
1776554604353414000,2.605413818359375,-4.405839588731527,-5.744543769195675,6.6150722195059055
1776554604363454700,2.615454833984375,-4.437630273006856,-5.790550318089127,6.553422695800662
1776554604373494800,2.625494873046875,-4.5051837600588795,-5.8057391193926335,6.493620845788717
1776554604383535900,2.635535888671875,-4.631178914685547,-5.81529488324523,6.395695893609523
1776554604393576000,2.645575927734375,-4.771958381468058,-5.845797573536634,6.263022868654131
1776554604403617000,2.655616943359375,-4.909730190867185,-5.862337204927206,6.139865860062837
1776554604413656800,2.66565673828125,-5.1204403952270745,-5.843946392711997,5.983291735038161
1776554604423697700,2.67569775390625,-5.36508092623949,-5.792038510820269,5.817094626143574
1776554604433738800,2.68573876953125,-5.612272895300388,-5.695995719125866,5.677006941017508
1776554604443778800,2.69577880859375,-5.842556984180212,-5.565078013405204,5.573582222378254
1776554604453819600,2.705819580078125,-6.024007191786169,-5.418564094623923,5.524570646449924
1776554604463859700,2.715859619140625,-6.148654146674275,-5.264235702699422,5.536448131248354
1776554604473900800,2.72590087890625,-6.225940215450525,-5.110524565890431,5.593799665498733
1776554604483940900,2.73594091796875,-6.272222074154019,-4.993200501236319,5.6477925369709725
1776554604493982000,2.74598193359375,-6.280471431583166,-4.955685301834345,5.671617649194598
1776554604504021800,2.756021728515625,-6.257091140517592,-4.973641814285516,5.681732215973734
1776554604514062800,2.766062744140625,-6.2209992519170045,-4.999013571429252,5.6990708887875074
1776554604524104000,2.77610400390625,-6.1930731341153376,-5.000761876401305,5.7278796346426
1776554604534144000,2.78614404296875,-6.180047648325562,-4.9491392411917445,5.786485552868247
1776554604544184800,2.796184814453125,-6.180389593631029,-4.845619245484471,5.873085977956652
1776554604554224600,2.806224609375,-6.194705119231343,-4.690859184144437,5.982628887215256
1776554604564265700,2.816265625,-6.224932499712705,-4.506254604160786,6.092148415598273
1776554604574305800,2.826305908203125,-6.283709682852029,-4.319628162960708,6.166537593889236
1776554604584347000,2.836346923828125,-6.375325305753946,-4.1165901006639,6.211222538790106
1776554604594387700,2.8463876953125,-6.508513879016041,-3.8622012058362363,6.236427122673392
1776554604604427800,2.856427734375,-6.692236123207211,-3.5348122489884495,6.236141291469335
1776554604614468900,2.86646875,-6.942607891348004,-3.145151837144792,6.170786483505368
1776554604624509000,2.876509033203125,-7.229506432375311,-2.6778330160811543,6.060843761274218
1776554604634549800,2.8865498046875,-7.4869099988490335,-2.1479757596485314,5.958419159588217
1776554604644589800,2.89658984375,-7.620157024300098,-1.5800350024066865,5.967167114189267
1776554604654631000,2.906630859375,-7.60060710517764,-0.9543347877006977,6.1229404442250726
1776554604664672000,2.916672119140625,-7.4515329805195325,-0.2645648181389086,6.369854180866479
1776554604674711800,2.9267119140625,-7.270867785811424,0.47211146216765043,6.5636869001835585
1776554604684752600,2.936752685546875,-7.100302544835209,1.1973647417113185,6.657507339653372
1776554604694792700,2.946792724609375,-6.970671956315636,1.7717754256196319,6.666403178292512
1776554604704833800,2.956833740234375,-6.911496713769435,2.1748763337947428,6.608442572233081
1776554604714873900,2.966873779296875,-6.858706203824282,2.510637251538038,6.544098987138271
1776554604724914700,2.976914794921875,-6.761835144612193,2.8806442838847635,6.492292812055349
1776554604734954800,2.986954833984375,-6.677372900596261,3.20659823949337,6.426569755300879
1776554604744995800,2.996995849609375,-6.6497653472244735,3.3989161703333255,6.355971201464533
1776554604755037000,3.007036865234375,-6.68388388992548,3.4765859777301547,6.277692614519596
1776554604765077000,3.017076904296875,-6.752711926957964,3.4985625394776463,6.191229552075266
1776554604775117800,3.027117919921875,-6.84839465316832,3.4891076056510206,6.090648532429337
1776554604785158000,3.037157958984375,-6.965007354682683,3.4326436678901313,5.989658931982517
1776554604795199000,3.047198974609375,-7.083979771065712,3.2999048842221494,5.92437718925476
1776554604805238800,3.05723876953125,-7.173001285821199,3.0772426685228944,5.937088202267885
1776554604815279600,3.067279541015625,-7.195271569818257,2.774711089555919,6.0580053229779
1776554604825319700,3.077319580078125,-7.141147765442729,2.41336433352679,6.272962663388252
1776554604835360800,3.08736083984375,-7.000424705022573,2.030878343357146,6.560484889271855
1776554604845401900,3.09740185546875,-6.811479757747054,1.6255565442621707,6.865252264466881
1776554604855442000,3.10744189453125,-6.633891486266255,1.1738445307184011,7.126285711875558
1776554604865482800,3.117482666015625,-6.506940930610895,0.652593555393815,7.30781950611174
1776554604875522800,3.127522705078125,-6.427987805405259,0.0580219580249628,7.405942611211538
1776554604885564000,3.13756396484375,-6.391311979436874,-0.6062959876645356,7.4130907294005155
1776554604895604000,3.14760400390625,-6.34003070501089,-1.3286679396182297,7.362678054502606
1776554604905644800,3.157644775390625,-6.206437058079242,-2.070668648084253,7.304988082078099
1776554604915686000,3.167685791015625,-6.002029753255844,-2.770289473721385,7.243723173776268
1776554604925725700,3.1777255859375,-5.771834511703252,-3.380375720514357,7.171427752894163
1776554604935766800,3.187766845703125,-5.577685566043853,-3.87771996974647,7.072700836682319
1776554604945806800,3.197806884765625,-5.438942865785956,-4.271125997859239,6.953112334227561
1776554604955847700,3.20784765625,-5.356523525774478,-4.589466555854678,6.8128440318375825
1776554604965887000,3.217886962890625,-5.3329088414311405,-4.859753861559927,6.641781947255134
1776554604975928000,3.227927978515625,-5.383106412273645,-5.078223301744461,6.434609269371628
1776554604985969200,3.23796923828125,-5.427933980515599,-5.2652428339153525,6.243807296052575
1776554604996009000,3.248009033203125,-5.4255251658082,-5.440616351956129,6.093746498444676
1776554605006049800,3.2580498046875,-5.348664628967643,-5.6144695285618305,6.0033244692415
1776554605016089900,3.26808984375,-5.204464247825741,-5.763291724285483,5.989024725732207
1776554605026131000,3.278130859375,-5.057874925720691,-5.857341880857944,6.023274785858392
1776554605036171000,3.2881708984375,-4.986369193911552,-5.884028812253475,6.056791271013021
1776554605046211800,3.2982119140625,-5.038914204663038,-5.861746253296732,6.034869946584105
1776554605056253000,3.3082529296875,-5.2009489331811665,-5.804907929265498,5.951769054049253
1776554605066293000,3.31829296875,-5.435172115075588,-5.721966611206531,5.821372741854191
1776554605076334000,3.328333984375,-5.695269158416986,-5.609924286347628,5.680056976237893
1776554605086374100,3.3383740234375,-5.9430836432904,-5.4598336781233545,5.57138792720437
1776554605096415000,3.3484150390625,-6.143369484269619,-5.283775684949755,5.523686264830827
1776554605106455000,3.358455078125,-6.248997850432992,-5.096828048971295,5.580570181569457
1776554605116496100,3.36849609375,-6.257417888253927,-4.926420628905296,5.722367008700966
1776554605126537000,3.378536865234375,-6.213171919292211,-4.75008586461693,5.916381514325738
1776554605136576800,3.38857666015625,-6.184232825055718,-4.514215792298317,6.127603175339102
1776554605146617900,3.398617919921875,-6.21904870237112,-4.18186599817276,6.325015506708621
1776554605156658000,3.408657958984375,-6.334968745446205,-3.7585406326144932,6.473942916372418
1776554605166699000,3.418698974609375,-6.5215989860385655,-3.295706263488531,6.540448063415289
1776554605176739000,3.428739013671875,-6.719651368877291,-2.8294053872957825,6.558288256010413
1776554605186780000,3.43877978515625,-6.87081223668158,-2.350683859338611,6.590646218779683
1776554605196820000,3.448820068359375,-6.934796925336122,-1.8328344360858202,6.687278793060779
1776554605206861000,3.458861083984375,-6.904343919405341,-1.2635824501149355,6.848633722621202
1776554605216902100,3.468902099609375,-6.77416855648458,-0.6699302554462104,7.059194289377332
1776554605226942000,3.47894189453125,-6.5457409091264,-0.093798848692514,7.30170306905806
1776554605236983000,3.488983154296875,-6.247783213946223,0.457581307435967,7.544946008232236
1776554605247022800,3.49902294921875,-5.920552078008652,0.9900951062593608,7.754815085592866
1776554605257064000,3.50906396484375,-5.582388629168272,1.4969272417396307,7.922532535922527
1776554605267104000,3.51910400390625,-5.235231726533174,1.9583551050685346,8.057765182232856
1776554605277144800,3.529144775390625,-4.8841997360304,2.3408378803677854,8.175295583114028
1776554605287186000,3.53918603515625,-4.534286520424485,2.638705705307424,8.28540080243051
1776554605297226000,3.54922607421875,-4.218927316327393,2.907890894989669,8.36153185595274
1776554605307267000,3.55926708984375,-3.9733588568150995,3.2323148645520208,8.362712590169906
1776554605317307000,3.569306884765625,-3.8406694652467963,3.5304087533324955,8.303965217646956
1776554605327348000,3.579347900390625,-3.8501927881345153,3.6833097428023813,8.232838840544224
1776554605337388000,3.589387939453125,-3.9515529754593968,3.7302614635914564,8.163380688914657
1776554605347429000,3.59942919921875,-4.0729578796863555,3.741860131448507,8.098141031762957
1776554605357470000,3.609469970703125,-4.189907850331068,3.740268186081946,8.03899618435502
1776554605367510000,3.619510009765625,-4.306292296047508,3.7442654390245673,7.975382667100429
1776554605377551000,3.629551025390625,-4.426142664308846,3.752290924569964,7.905691291236877
1776554605387591000,3.6395908203125,-4.545074164159596,3.7546105996891854,7.83681064723432
1776554605397632000,3.649632080078125,-4.646344042852521,3.7434780880391596,7.782560586130619
1776554605407671800,3.659671875,-4.714536412329972,3.7165102938756345,7.754424040448665
1776554605417713000,3.669712890625,-4.744971590343117,3.6761499341756103,7.755098578709363
1776554605427754000,3.67975390625,-4.733829726342857,3.6473873655498026,7.775462152302265
1776554605437794000,3.6897939453125,-4.692918454761803,3.6433050646722314,7.802129209953546
1776554605447835000,3.6998349609375,-4.618007006162404,3.6558453972935676,7.840866644626855
1776554605457875000,3.709875,-4.514767873223126,3.6677553230568765,7.895241208893061
1776554605467916000,3.719916015625,-4.407599876402318,3.66585591917634,7.956440650743246
1776554605477956000,3.7299560546875,-4.316045920559763,3.645314066407084,8.015847363957763
1776554605487997000,3.739996826171875,-4.251781538181007,3.611810148473084,8.065206730410456
1776554605498038000,3.7500380859375,-4.210192805729807,3.566608778482675,8.1070310251832
1776554605508077800,3.760077880859375,-4.168580400142074,3.5123946654751896,8.152079542699456
1776554605518119200,3.770119140625,-4.133364709854126,3.455663601210713,8.194149336665868
1776554605528159000,3.780158935546875,-4.109667315663397,3.401142906472087,8.228806224027275
1776554605538199800,3.79019970703125,-4.070844833055139,3.359662895092368,8.265062947800756
1776554605548240000,3.800239990234375,-4.0388320304617285,3.339620808538794,8.288857080364227
1776554605558281000,3.810281005859375,-4.006336997309327,3.3298198377534747,8.308546700218319
1776554605568322000,3.820322021484375,-3.9623239603206515,3.3378008996352553,8.32643073195517
1776554605578362000,3.830362060546875,-3.9149344326362012,3.3755551684901115,8.333624442851542
1776554605588403000,3.84040283203125,-3.8656174440205096,3.437349361363053,8.331387477579712
1776554605598443000,3.850443115234375,-3.8174233219549056,3.523447389887273,8.317630754905938
1776554605608484000,3.860484130859375,-3.794387898804247,3.6253336469128725,8.28432002145648
1776554605618524200,3.870524169921875,-3.829485515670478,3.7262718094334004,8.223157404485345
1776554605628565000,3.88056494140625,-3.9191511735484004,3.8131756013825533,8.14065915401876
1776554605638606000,3.890606201171875,-4.039693615727126,3.8815094251573083,8.048921366041899
1776554605648646000,3.90064599609375,-4.145025629292428,3.9201702874630686,7.976302120032906
1776554605658687000,3.91068701171875,-4.2230902812257405,3.9467455751776694,7.922063749366998
1776554605668727000,3.92072705078125,-4.270796912035346,3.9875568935155865,7.875917499741911
1776554605678767900,3.930767822265625,-4.278900138992071,4.062671171210706,7.833013593038916
1776554605688808000,3.940807861328125,-4.244376230360567,4.178765401808917,7.790607698985934
1776554605698849000,3.95084912109375,-4.182167611467838,4.322084616202115,7.7459297683477395
1776554605708889900,3.960889892578125,-4.121034220591187,4.472116479976475,7.693351439848541
1776554605718930000,3.970929931640625,-4.089532874651253,4.603940194626152,7.632157843217254
1776554605728971000,3.980970947265625,-4.093664275367558,4.695092583930492,7.5741943145483726
1776554605739011000,3.991010986328125,-4.132554270254075,4.737710074907541,7.526386853712797
1776554605749052200,4.00105224609375,-4.186534866766632,4.736557982262969,7.4972221340268845
1776554605759092000,4.011092041015625,-4.23843135048151,4.705632098123431,7.4875301765739914
1776554605769133000,4.021133056640625,-4.273643533638119,4.671197913601994,7.489076821494102
1776554605779174100,4.031174072265625,-4.293056966899335,4.648393084336817,7.492161928027868
1776554605789214000,4.0412138671875,-4.308731798154115,4.639157346218824,7.488887436401844
1776554605799254800,4.0512548828125,-4.335232267066836,4.638104330034554,7.474231134539842
1776554605809294800,4.061294921875,-4.376266580505669,4.636643902093172,7.451189281648397
1776554605819336000,4.0713359375,-4.422174637460708,4.640476027601957,7.42164111560285
1776554605829376000,4.0813759765625,-4.474141848324239,4.659425935004651,7.378496385881304
1776554605839417000,4.0914169921875,-4.522716786400974,4.684558038173615,7.332826521596312
1776554605849458000,4.1014580078125,-4.5759237681925296,4.710625960887969,7.282946930661797
1776554605859498000,4.111498046875,-4.634307568100095,4.7319101564571255,7.232053778770566
1776554605869539000,4.1215390625,-4.698891099430621,4.744126371690631,7.182205167496204
1776554605879579100,4.1315791015625,-4.771985269474983,4.749783082278072,7.130084519636631
1776554605889620000,4.141619873046875,-4.864780749811231,4.759782498244941,7.060365671244263
1776554605899661000,4.1516611328125,-4.97975299064219,4.7763934413060545,6.9683929054677485
1776554605909700900,4.161700927734375,-5.120458515405654,4.795583294944465,6.85227412495017
1776554605919742000,4.171741943359375,-5.2847670340746635,4.81106406493187,6.715301941496134
1776554605929782000,4.181781982421875,-5.448054393002391,4.819082243953645,6.577653466215729
1776554605939822800,4.19182275390625,-5.589879277184605,4.832284547615051,6.4476856085658065
1776554605949863000,4.20186279296875,-5.706714097017049,4.852825815862417,6.328813729947805
1776554605959904300,4.211904296875,-5.799999698957801,4.886233287684619,6.217323778274655
1776554605969945000,4.221945068359375,-5.842856843909621,4.910291331881284,6.157957397070526
1776554605979985000,4.23198486328125,-5.843142675113677,4.913124509480595,6.155426417288184
1776554605990026000,4.24202587890625,-5.809172016450763,4.90354887188375,6.195087396547198
1776554606000066000,4.252066162109375,-5.765137059891224,4.909985042411089,6.231020879715681
1776554606010107100,4.262107177734375,-5.681988236561417,4.930858319091796,6.290629837504029
1776554606020148000,4.27214794921875,-5.569484139409661,4.929476509344577,6.391517731142044
1776554606030188000,4.28218798828125,-5.422585605224967,4.917772627547383,6.525447478160261
1776554606040229000,4.29222900390625,-5.253509141501784,4.906579617881775,6.670569650322198
1776554606050269200,4.302269287109375,-5.092003405293822,4.917897130709886,6.786469819653034
1776554606060310000,4.31231005859375,-4.956716982969642,4.960250417792797,6.855453924030065
1776554606070350000,4.32235009765625,-4.837374856491387,5.003205762422085,6.909278453198075
1776554606080391200,4.33239111328125,-4.740578323820233,5.046061738330126,6.945111983123422
1776554606090432300,4.342432373046875,-4.653316804474592,5.085194309800863,6.975517058259248
1776554606100472300,4.352472412109375,-4.564935925710201,5.111614699214696,7.0144947314292185
1776554606110513200,4.36251318359375,-4.4605157662928105,5.1306812187343835,7.06755178335607
1776554606120553000,4.372552978515625,-4.327736066092551,5.145452086886763,7.139007246282696
1776554606130594000,4.382593994140625,-4.1678897875294085,5.15677836754322,7.225421208888292
1776554606140635100,4.39263525390625,-3.9917052453666924,5.157012176299095,7.324063369426131
1776554606150675000,4.402675048828125,-3.812869311912358,5.155572498884797,7.419736158764362
1776554606160716000,4.412716064453125,-3.6600694447293876,5.169077292624116,7.486982479563355
1776554606170756000,4.422756103515625,-3.55214595336616,5.206271004986763,7.5131462638676165
1776554606180797200,4.432797119140625,-3.483495903249085,5.261926256713271,7.506514863029122
1776554606190837200,4.442837158203125,-3.4381367123484607,5.321926259645819,7.485099734556674
1776554606200878000,4.452878173828125,-3.405723219999671,5.373122193875909,7.463310512074828
1776554606210919200,4.462919189453125,-3.3832889776125548,5.402582097116112,7.452237913918495
1776554606220959200,4.472959228515625,-3.3658646723419428,5.4096518893718715,7.4549980262815945
1776554606231000000,4.483,-3.3446658169686794,5.403037439668179,7.469322904232144
1776554606241040000,4.493039794921875,-3.31461905375123,5.388642419090867,7.493079042872786
1776554606251081000,4.5030810546875,-3.282825154605508,5.3746963113248345,7.517052623656392
1776554606261122000,4.5131220703125,-3.2579990486457944,5.365567248451709,7.534356809678673
1776554606271162000,4.523162109375,-3.242762608808279,5.361767856168747,7.543627911370992
1776554606281203000,4.533202880859375,-3.2325083412975073,5.357018031293153,7.551399714416265
1776554606291243000,4.543242919921875,-3.2188182541191575,5.341608280715346,7.568143928468227
1776554606301284000,4.5532841796875,-3.189376471057534,5.3079000723809004,7.604238155156374
1776554606311324200,4.56332421875,-3.1382284676223993,5.2572091650635,7.660525275045633
1776554606321365000,4.573364990234375,-3.072517685827613,5.200798126533627,7.725394345319271
1776554606331406000,4.583406005859375,-3.0063609138309952,5.144580564749241,7.788804448956251
1776554606341446100,4.593446044921875,-2.949874471977353,5.095732654950022,7.842329702916741
1776554606351487200,4.6034873046875,-2.9095594127237794,5.058151404574513,7.881620679819584
1776554606361527300,4.61352734375,-2.8739301731988784,5.028870365032553,7.913366648170352
1776554606371568000,4.623568115234375,-2.8336928553566336,5.011823953163623,7.938650727030635
1776554606381609200,4.633609130859375,-2.781719214752316,5.009038121837377,7.958767632386088
1776554606391649000,4.64364892578125,-2.709364464898407,5.012702489563822,7.9813862914294
1776554606401690000,4.653690185546875,-2.6290160859420895,5.024016495260596,8.00111975042522
1776554606411730200,4.663730224609375,-2.5550942329019306,5.039391174525022,8.01538559166491
1776554606421771000,4.67377099609375,-2.4914190485879777,5.0492368612349035,8.029222393837571
1776554606431811000,4.68381103515625,-2.438843204306811,5.053005858379602,8.042980870077013
1776554606441852200,4.69385205078125,-2.3900059620320797,5.056219559729099,8.05561238811314
1776554606451893000,4.70389306640625,-2.33130871226117,5.059952316516638,8.070457490545511
1776554606461933000,4.71393310546875,-2.2457155645191667,5.056815187534689,8.096651669988036
1776554606471974100,4.72397412109375,-2.1253623613022268,5.032655728790163,8.14405230358839
1776554606482014200,4.73401416015625,-1.9854310357816516,4.985294258156419,8.20824508203566
1776554606492055300,4.74405517578125,-1.8480108162991702,4.92900596922338,8.274065753945708
1776554606502096100,4.75409619140625,-1.7370163930580018,4.878448040635884,8.327899635463952
1776554606512136200,4.76413623046875,-1.6613570487007498,4.839524143479764,8.365960778310894
1776554606522177300,4.77417724609375,-1.6138056084528565,4.817916999566555,8.387712006869911
1776554606532217000,4.784217041015625,-1.5711946933470666,4.816159634505212,8.396805998429656
1776554606542258000,4.7942578125,-1.5092154992960392,4.827558688136935,8.40162771949768
1776554606552299000,4.804299072265625,-1.4077639804258941,4.846409811340272,8.408383623498677
1776554606562339000,4.814339111328125,-1.2680021662533283,4.873591248254478,8.41490747230947
1776554606572380200,4.824380126953125,-1.1309809560257942,4.9154304483354085,8.410101533332467
1776554606582420200,4.834420166015625,-1.0203236557845026,4.96531763805449,8.394935528382659
1776554606592461000,4.8444609375,-0.9507068795271217,5.0135681664824485,8.374405950573086
1776554606602501000,4.854501220703125,-0.9304168095618486,5.054247382873297,8.352202886593341
1776554606612542200,4.864542236328125,-0.9666373660434037,5.087520122399926,8.327852873712777
1776554606622583000,4.8745830078125,-1.046213372387737,5.117013927909731,8.300119648134707
1776554606632623000,4.884623046875,-1.1445945439018308,5.148112830528617,8.267841180342435
1776554606642664200,4.894664306640625,-1.2216278069607913,5.182996512383222,8.234957732394337
1776554606652704000,4.9047041015625,-1.2774356189005076,5.210431047275662,8.209137062439321
1776554606662745000,4.9147451171875,-1.3164448562525213,5.224357281297445,8.19411192726493
1776554606672786000,4.924785888671875,-1.3395371241569518,5.200285500836372,8.20567201667726
1776554606682826000,4.934825927734375,-1.3313523563966154,5.139947644251585,8.244926168701053
1776554606692867000,4.9448671875,-1.2947116017416118,5.057990661054849,8.30125478964448
1776554606702907100,4.9549072265625,-1.2417564027540384,4.9719654055058955,8.36110106332004
1776554606712948000,4.964947998046875,-1.1782202615845947,4.889498426960408,8.418727907380461
1776554606722989000,4.974989013671875,-1.1081649477794766,4.8147687646687025,8.471148999491334
1776554606733029000,4.985029052734375,-1.054549823578447,4.736731000742316,8.521836399677396
1776554606743070200,4.9950703125,-1.0270971685074268,4.650721527284383,8.572412740704417
1776554606753110300,5.0051103515625,-1.0079007389977575,4.5655055422917,8.620365747490524
1776554606763151000,5.015151123046875,-0.9708866940509527,4.486818374545872,8.66580764823854
1776554606773192200,5.025192138671875,-0.8997758067782968,4.4109196684747936,8.712324484741687
1776554606783232300,5.035232177734375,-0.8014894008755683,4.319427671952545,8.767585768714547
1776554606793273000,5.045273193359375,-0.7210652532692998,4.217930998766422,8.823804499542712
1776554606803313000,5.05531298828125,-0.6665371789418161,4.127880140963197,8.870553391236067
1776554606813354000,5.06535400390625,-0.6265663300160318,4.04150651036799,8.913137564465403
1776554606823394000,5.07539404296875,-0.60982558656279,3.94519659217,8.957339109763502
1776554606833435100,5.08543505859375,-0.6236480314165354,3.83035879137367,9.006097003191709
1776554606843476000,5.09547607421875,-0.6589796762343496,3.685856504675746,9.063696374723314
1776554606853516000,5.10551611328125,-0.7395514886830001,3.5152827881321307,9.125034348261355
1776554606863557000,5.11555712890625,-0.8811678446810692,3.306200477235019,9.190373374134301
1776554606873597200,5.12559716796875,-1.0781886925149708,3.085704499658942,9.245881910866498
1776554606883638000,5.135637939453125,-1.3169339549437165,2.9116707057893274,9.271367065256834
1776554606893679000,5.14567919921875,-1.5631341364882885,2.7786192029103636,9.273955328184366
1776554606903719200,5.15571923828125,-1.7778293188311158,2.6278803599104283,9.279221870410442
1776554606913760300,5.16576025390625,-1.9521423680335281,2.4237526026807723,9.299729236388206
1776554606923800000,5.175800048828125,-2.0811557014375923,2.2125458469755945,9.324368003082276
1776554606933841000,5.1858408203125,-2.182142379274964,2.0223054530620574,9.344460358518361
1776554606943881000,5.195880859375,-2.273044885471463,1.865726505731791,9.355357600107789
1776554606953922000,5.205922119140625,-2.3678913069881498,1.765046117364615,9.351368822732567
1776554606963963400,5.21596337890625,-2.454635086070001,1.7324156212642787,9.335089303582906
1776554606974003500,5.22600341796875,-2.494048228047788,1.7356624942310153,9.324033656561374
1776554606984044500,5.23604443359375,-2.5145807284668087,1.7623500101484357,9.313505832806229
1776554606994084400,5.24608447265625,-2.5346298292830585,1.8044874625235794,9.299992855760454
1776554607004125400,5.25612548828125,-2.540141870702803,1.8497563447922467,9.289589535167813
1776554607014166300,5.266166259765625,-2.5325085993453857,1.9025861638344823,9.28099940147698
1776554607024206300,5.276206298828125,-2.506280809894204,1.971563838470727,9.273720350384712
1776554607034247400,5.286247314453125,-2.4501800063572823,2.0644285846509036,9.26850290799737
1776554607044287500,5.29628759765625,-2.345769783812016,2.1749413618549704,9.270240691575408
1776554607054328300,5.306328369140625,-2.2075516919501124,2.289221090377122,9.276668678796291
1776554607064369400,5.316369384765625,-2.0658948578111826,2.395180003669113,9.282542539265751
1776554607074409500,5.326409423828125,-1.9440781579129396,2.4907407109349964,9.283703399738668
1776554607084450600,5.336450439453125,-1.8519573619678615,2.577389943601191,9.278884601280092
1776554607094490600,5.34649072265625,-1.7786193001650272,2.658735224640369,9.270277516454458
1776554607104531500,5.356531494140625,-1.7214891535803674,2.725825478094816,9.261573400995134
1776554607114571300,5.3665712890625,-1.672883381973952,2.767657371652126,9.258073868441581
1776554607124612400,5.3766123046875,-1.6317496998138725,2.788219682687521,9.259243496742844
1776554607134653400,5.3866533203125,-1.598273108278215,2.7932997624307867,9.263550838547944
1776554607144693200,5.396693359375,-1.5619783905819058,2.7922134284988043,9.27006767309606
1776554607154734300,5.406734375,-1.5174103500589728,2.803124698613584,9.274176277458666
1776554607164774400,5.4167744140625,-1.4671446824163197,2.8497110932216048,9.268064516580104
1776554607174815500,5.4268154296875,-1.4157562943540514,2.9495243433654306,9.244798791804909
1776554607184856300,5.436856201171875,-1.369812289302796,3.0900971816599365,9.205719411826133
1776554607194896400,5.446896484375,-1.3321148652017116,3.2531761585339902,9.154927382221818
1776554607204937500,5.4569375,-1.3009607252642512,3.4311855780363083,9.094221276846527
1776554607214977500,5.4669775390625,-1.2703475603356957,3.6216289471760392,9.024433454871177
1776554607225018600,5.4770185546875,-1.237385932584852,3.8240778114080425,8.945148905754088
1776554607235059500,5.4870595703125,-1.200434139219299,4.0386256942346686,8.85544116230011
1776554607245099500,5.497099609375,-1.1568743989560752,4.266332626102865,8.753881068488955
1776554607255140600,5.507140625,-1.1093646058928222,4.506288506430387,8.63904239090979
1776554607265180400,5.517180419921875,-1.0515904623162,4.756277997255325,8.51130682235658
1776554607275221200,5.52722119140625,-0.9803405318990349,5.012890121090412,8.371393324753642
1776554607285261300,5.53726123046875,-0.9052127371352165,5.275909773880243,8.216796637281774
1776554607295302400,5.547302490234375,-0.8427352381732315,5.546124306610226,8.043674697560071
1776554607305343500,5.557343505859375,-0.8029111042417585,5.820386653426289,7.8516762079328295
1776554607315383600,5.567383544921875,-0.7904130763921886,6.094729664263129,7.641983656182885
1776554607325424400,5.57742431640625,-0.7990306095466018,6.358059698176383,7.423411047884821
1776554607335464400,5.58746435546875,-0.824096515611559,6.592735300013422,7.212980244988203
1776554607345505500,5.597505615234375,-0.8844336415439844,6.80904405503273,7.00179131720066
1776554607355546400,5.60754638671875,-0.9880768252395092,7.017095269316434,6.7789709883302445
1776554607365586400,5.61758642578125,-1.1198086238220333,7.208096564599871,6.554369036740065
1776554607375627500,5.62762744140625,-1.257297524626553,7.368706228750944,6.347578636172414
1776554607385667300,5.637667236328125,-1.3844827658206225,7.486869666838645,6.180645029696822
1776554607395708400,5.64770849609375,-1.490888399966806,7.5600465467303986,6.065750822538137
1776554607405748500,5.65774853515625,-1.5652170802421868,7.592398079758882,6.00632774271071
1776554607415789300,5.667789306640625,-1.6045966122113167,7.605359268140792,5.979481236839294
1776554607425830400,5.677830322265625,-1.618814814916998,7.634766564410924,5.938025775378942
1776554607435870500,5.687870361328125,-1.6065760955907404,7.687457121112942,5.873015250808
1776554607445911300,5.697911376953125,-1.5992086355626582,7.731814733755588,5.816525301823019
1776554607455951400,5.707951416015625,-1.6142578822650013,7.756850975334644,5.778911902743578
1776554607465992400,5.717992431640625,-1.639283310189098,7.762534281668066,5.764215268871188
1776554607476033500,5.728033447265625,-1.6630999468453227,7.7456673180192706,5.78006341086626
1776554607486073600,5.738073486328125,-1.6819259356074034,7.710330631700158,5.821711764550209
1776554607496114400,5.748114501953125,-1.6894636376358567,7.664068062219023,5.880319436341524
1776554607506154500,5.758154541015625,-1.6819762044899165,7.613285384964943,5.9480433115243905
1776554607516195600,5.768195556640625,-1.6636436983332037,7.556883698785304,6.024630292120576
1776554607526236400,5.778236328125,-1.642005282498896,7.487056713843345,6.1170408647924654
1776554607536276200,5.788276123046875,-1.6139225128307937,7.395565594103932,6.234679402223229
1776554607546317300,5.7983173828125,-1.5647265202462672,7.27440063611269,6.3878872656852
1776554607556357400,5.808357421875,-1.481870980774611,7.11988402813971,6.5788827157497405
1776554607566398500,5.8183984375,-1.3642467641301452,6.93506171375215,6.798097129082679
1776554607576439300,5.828439208984375,-1.2111614310692995,6.725403648793697,7.033662957757711
1776554607586479400,5.838479248046875,-1.0242925594154744,6.506399663341045,7.265532854524254
1776554607596520400,5.8485205078125,-0.8092083777550607,6.300637436777353,7.471115048345923
1776554607606560500,5.858560546875,-0.5794614279592409,6.122406191217899,7.638768201267719
1776554607616601300,5.868601318359375,-0.35093934378325936,5.980872398936748,7.763787496599554
1776554607626641400,5.878641357421875,-0.1439408260234166,5.870001455944776,7.85447372969687
1776554607636682500,5.8886826171875,0.01669372597374022,5.780215386557579,7.922072517195343
1776554607646723600,5.8987236328125,0.11353567782235331,5.712489757809043,7.970255241084098
1776554607656763600,5.908763671875,0.1405933330932632,5.674622676229476,7.99682994427681
1776554607666804500,5.918804443359375,0.10932850845609791,5.674070303043723,7.997709649720788
1776554607676844300,5.92884423828125,0.0261070993806934,5.715563758426905,7.96881673271358
1776554607686885400,5.938885498046875,-0.09983423813292756,5.7939218403488395,7.911440064021945
1776554607696925400,5.948925537109375,-0.2584800731314346,5.901074639600515,7.828211745715141
1776554607706966500,5.958966552734375,-0.44545832344386727,6.0379953851282595,7.714568415400385
1776554607717007400,5.96900732421875,-0.6584974456753582,6.206747439202666,7.563930694687366
1776554607727047400,5.97904736328125,-0.8918055585514754,6.40665041834414,7.3708806501805775
1776554607737088500,5.989088623046875,-1.1390907588537782,6.630352790746093,7.1352154527842995
1776554607747128600,5.999128662109375,-1.3977986128591,6.832806038892269,6.894151611214876
1776554607757169400,6.00916943359375,-1.695707208200544,6.975443408501148,6.6811781380981206
1776554607767210500,6.01921044921875,-2.018811181205511,7.070389052608609,6.488788018804788
1776554607777250600,6.02925048828125,-2.3264598109252748,7.132401564407348,6.315599443587661
1776554607787291600,6.039291748046875,-2.6002421191394327,7.165034836986661,6.170201377093791
1776554607797331500,6.04933154296875,-2.8178888447642323,7.171966097554564,6.0657052298307415
1776554607807372300,6.059372314453125,-2.950721444195509,7.160890576788782,6.015419396182894
1776554607817413400,6.069413330078125,-2.9973695058628915,7.133292375767231,6.025140579730272
1776554607827453400,6.079453369140625,-2.9846517708480356,7.092517882308363,6.079345632648468
1776554607837494300,6.089494384765625,-2.9451535809352993,7.0456643611967555,6.152646431180834
1776554607847534300,6.099534423828125,-2.9008079509913918,7.003000108468532,6.2220321020960805
1776554607857575400,6.109575439453125,-2.872166962918639,6.961929262411594,6.281129018709064
1776554607867615500,6.119615478515625,-2.8774624389782546,6.91191756953001,6.3337178686022755
1776554607877656600,6.129656494140625,-2.9162323146164417,6.84197952542901,6.3916574318736785
1776554607887697400,6.139697509765625,-2.963990383352339,6.740254011923074,6.477201041385531
1776554607897737500,6.149737548828125,-2.992678133176267,6.595874767082929,6.611254122522473
1776554607907778600,6.159778564453125,-3.037645694410801,6.416293860480189,6.765667854642867
1776554607917818600,6.169818603515625,-3.0630344026893375,6.196566236928105,6.956346493843197
1776554607927859500,6.179859375,-3.0567610215082763,5.94136865606606,7.178213467511534
1776554607937900500,6.189900634765625,-3.0018051502227783,5.6501469911426305,7.4320520349800585
1776554607947940400,6.1999404296875,-2.88932326490283,5.320604071131348,7.714490673989057
1776554607957981400,6.2099814453125,-2.7188959710925817,4.96526152395308,8.0077575810045
1776554607968021200,6.220021240234375,-2.4979241926983,4.613282607989013,8.285431782090663
1776554607978062000,6.23006201171875,-2.242776003935933,4.299364250349998,8.523838387149572
1776554607988102000,6.240101806640625,-1.9768188363894819,4.06772699329555,8.7015044000417
1776554607998143000,6.25014306640625,-1.7500303345404564,3.929429406456649,8.812910180562733
1776554608008184000,6.26018408203125,-1.6058564030140638,3.850371359571814,8.875035505086183
1776554608018224000,6.27022412109375,-1.5649939390107988,3.8247628710627555,8.893388907900452
1776554608028265000,6.280264892578125,-1.6089740966431796,3.837112941808998,8.880209692853688
1776554608038305000,6.290304931640625,-1.688927923323959,3.8825273700281975,8.84555806618929
1776554608048346000,6.30034619140625,-1.7657276698879896,3.9516742637515065,8.799822150930762
1776554608058387000,6.310386962890625,-1.8155623987674712,4.024724886915087,8.756467577850819
1776554608068427000,6.320427001953125,-1.8389190166965126,4.082836591883003,8.724633346694707
1776554608078468000,6.330468017578125,-1.8472589750185608,4.115430116973817,8.707540173074603
1776554608088508200,6.340508056640625,-1.8598809945739805,4.1129429763332,8.706027430424093
1776554608098549200,6.35054931640625,-1.8967649103350936,4.072097171203792,8.71726427923143
1776554608108589000,6.360589111328125,-1.9679208057932553,3.9962431810572743,8.736572790813446
1776554608118630100,6.370630126953125,-2.0659994872294365,3.8941836132913825,8.75998756867051
1776554608128671200,6.380671142578125,-2.168136942537129,3.7812285575017333,8.784753761136532
1776554608138711000,6.3907109375,-2.2486109936997294,3.672745386429131,8.810510133683682
1776554608148752000,6.400751953125,-2.2898174488350747,3.5805715451225635,8.837795615494251
1776554608158792000,6.4107919921875,-2.2896654731437565,3.5127661291360854,8.865003940415383
1776554608168833000,6.4208330078125,-2.2671138879872856,3.4725603754758834,8.886613130155204
1776554608178873000,6.430873046875,-2.248999408495426,3.4562229886591433,8.897579929849504
1776554608188914200,6.4409140625,-2.2512967256523666,3.455915237884223,8.897117573034762
1776554608198955000,6.450955078125,-2.2717793955802916,3.4637571835562584,8.888857694211602
1776554608208995000,6.4609951171875,-2.2979275439240037,3.4722684067919847,8.87880859388411
1776554608219036200,6.4710361328125,-2.3165561104178427,3.4756165481761094,8.872658254560827
1776554608229076200,6.481076171875,-2.319718081580102,3.4710897184014318,8.873603426456452
1776554608239117000,6.491116943359375,-2.3046312793463466,3.4586256658867,8.882395804721117
1776554608249158100,6.501158203125,-2.2742846563994883,3.4394279212027787,8.897660593870281
1776554608259198000,6.511197998046875,-2.239121719212085,3.4130808892861006,8.916703732514382
1776554608269239000,6.521239013671875,-2.2124511544294654,3.379251392659545,8.936223841020464
1776554608279279000,6.531279052734375,-2.201140363603085,3.338768867884576,8.954216593828797
1776554608289320000,6.54131982421875,-2.2044171933166683,3.292401084463298,8.97056450203955
1776554608299360000,6.551360107421875,-2.2134885346531865,3.243549083010852,8.986113953348994
1776554608309401000,6.561401123046875,-2.2250758043333887,3.1950875421807168,9.000601912906765
1776554608319442000,6.57144189453125,-2.2416921542219814,3.1503970443218945,9.012224546161294
1776554608329482000,6.58148193359375,-2.2593314174175263,3.110818482649326,9.021562867870927
1776554608339523000,6.591523193359375,-2.269419388450682,3.076378160648048,9.030836892172694
1776554608349563100,6.601563232421875,-2.2712924888461825,3.048590866795182,9.039785337781906
1776554608359604200,6.611604248046875,-2.272597141703963,3.0301673213541505,9.045649845901131
1776554608369644300,6.621644287109375,-2.28085614374429,3.023307372456789,9.045867288044095
1776554608379685000,6.63168505859375,-2.280574404193461,3.0277991309180856,9.044435793936252
1776554608389726200,6.641726318359375,-2.232938354402035,3.0400390192881224,9.052211688634753
1776554608399766000,6.65176611328125,-2.129475641839951,3.055119976302981,9.07204393182993
1776554608409806800,6.661806884765625,-2.002501559178531,3.065569766385853,9.097399322360754
1776554608419847000,6.671846923828125,-1.9033147703699766,3.063259151355922,9.119442811864614
1776554608429888000,6.681887939453125,-1.8714763014301656,3.0475515868753194,9.131285809871553
1776554608439928000,6.691927978515625,-1.9062933477893471,3.0253055605366823,9.131481624704598
1776554608449969200,6.70196923828125,-1.9697180644735692,3.003152180917561,9.125331285381316
1776554608460010000,6.712010009765625,-2.0108041080996393,2.986101969656348,9.121966192862391
1776554608470050000,6.722050048828125,-1.9949416453182696,2.974869504763186,9.129114895573258
1776554608480091100,6.732091064453125,-1.9247110480114817,2.965516277745366,9.14721812301874
1776554608490131200,6.742131103515625,-1.8326140713334083,2.9550597656607627,9.16948957605958
1776554608500172000,6.752172119140625,-1.7607701936110853,2.945215247994661,9.186716605192423
1776554608510213000,6.762213134765625,-1.7375331104084848,2.9407497930184006,9.192569422873854
1776554608520253000,6.7722529296875,-1.761900220554322,2.9457287504747507,9.186335496920346
1776554608530294300,6.782294189453125,-1.8069841016449033,2.959244065608084,9.173225255456567
1776554608540334000,6.792333984375,-1.8443292051769793,2.9755078026667237,9.160521841228007
1776554608550375000,6.802375,-1.8557291355915366,2.990186316360533,9.153439189490676
1776554608560415000,6.8124150390625,-1.8361572968982158,3.004442805249989,9.152717889478803
1776554608570456000,6.8224560546875,-1.7950594167038798,3.0205922682791946,9.155553989687562
1776554608580497200,6.8324970703125,-1.7527905930340288,3.039126580618322,9.15760975317359
1776554608590537000,6.842536865234375,-1.7304747163295744,3.0595287326559424,9.155060068690776
1776554608600578000,6.852578125,-1.7374207360751925,3.0799411138266324,9.146896635979413
1776554608610618000,6.8626181640625,-1.7691843862131238,3.0960175116196273,9.135374540489911
1776554608620659200,6.8726591796875,-1.809644991417229,3.1033114680200815,9.124967712765931
1776554608630699300,6.88269921875,-1.8399832849271593,3.101721860741079,9.119439304733277
1776554608640740000,6.892739990234375,-1.848069999140501,3.095167616792023,9.12002967184186
1776554608650781200,6.90278125,-1.8326586411274968,3.0851737537831068,9.126524879080057
1776554608660821000,6.912821044921875,-1.8034809158295393,3.0703681065782904,9.137323920992015
1776554608670862000,6.922862060546875,-1.771442394272983,3.0500019026368856,9.150402013751863
1776554608680902000,6.93290185546875,-1.7441705025963483,3.024949878966808,9.163945970457792
1776554608690943000,6.94294287109375,-1.7245934032060204,2.9966069970577953,9.176956258678436
1776554608700983000,6.952983154296875,-1.7129061802826822,2.9682214450508355,9.18836261883378
1776554608711024000,6.963024169921875,-1.70564554162994,2.9463167794957754,9.196758691257237
1776554608721065000,6.97306494140625,-1.6973600899741053,2.9376889441430567,9.201049666449427
1776554608731105000,6.98310498046875,-1.6807161214262245,2.9448771020814775,9.20180779134035
1776554608741146000,6.99314599609375,-1.6491250513762234,2.964650893087685,9.2011759231776
1776554608751186200,7.003186279296875,-1.6005210333354771,2.9913305179595944,9.201123900729417
1776554608761227000,7.01322705078125,-1.5392511565975844,3.019755525194108,9.2022923599869
1776554608771267000,7.02326708984375,-1.4735248849727212,3.045080812847614,9.204705266347528
1776554608781308200,7.03330810546875,-1.4089999519616365,3.0640941408753393,9.208497644367814
1776554608791349200,7.043349365234375,-1.3458040755972265,3.0744518687605855,9.214496592521668
1776554608801389000,7.05338916015625,-1.2815788561850785,3.07489142922163,9.223501736754178
1776554608811430000,7.063429931640625,-1.2150273857824503,3.066223261858523,9.235386820337176
1776554608821470000,7.073469970703125,-1.1482168991174548,3.0513094781041143,9.248865895113349
1776554608831511000,7.083510986328125,-1.0862467651557177,3.0339570690259334,9.26204920181334
1776554608841551000,7.093551025390625,-1.0355786541920156,3.018387451711297,9.272933583921194
1776554608851592000,7.103592041015625,-1.001035383272916,3.0077330789670347,9.280186916050315
1776554608861633000,7.113633056640625,-0.9833337954308837,3.002514175274968,9.283766528102754
1776554608871673000,7.123673095703125,-0.9797445387672632,3.0007749303922053,9.284710530954598
1776554608881714200,7.133714111328125,-0.9846384482886642,3.0003885614231227,9.284318316766619
1776554608891754200,7.143754150390625,-0.9894481866579502,3.0002623046949504,9.283846607601642
1776554608901795000,7.153795166015625,-0.9861145121905952,2.9995719843432305,9.284422361662983
1776554608911835000,7.1638349609375,-0.9717361504871398,2.9974267890080806,9.286632438927889
1776554608921876000,7.1738759765625,-0.94937197766155,2.9932629473268983,9.2902874543041
1776554608931917000,7.1839169921875,-0.925299831874296,2.9885218902796504,9.294241744887827
1776554608941957000,7.19395703125,-0.9042070672240108,2.984621375709772,9.297571766093373
1776554608951998000,7.203998046875,-0.8882369793497026,2.9817668630614875,9.300027342551946
1776554608962038000,7.2140380859375,-0.8775511154886335,2.9801930378735064,9.301545345899463
1776554608972079000,7.2240791015625,-0.8705320305068045,2.9796760282620784,9.302368937242031
1776554608982119200,7.234119140625,-0.8668970350053161,2.979880610923469,9.302643662530183
1776554608992160000,7.244159912109375,-0.866781957258284,2.9805472581386563,9.302440248912573
1776554609002201000,7.254201171875,-0.8705338571377098,2.9822853339776394,9.30153307093978
1776554609012241000,7.264240966796875,-0.8793716089140623,2.986134118360281,9.299466201537847
1776554609022282000,7.274281982421875,-0.8936115850601345,2.993655453775823,9.295690190130472
1776554609032322000,7.284322021484375,-0.9125877228826283,3.0045944886803624,9.290315511354803
1776554609042363000,7.29436279296875,-0.9334545698225498,3.017297902908921,9.284123670977353
1776554609052403000,7.30440283203125,-0.95238854900375,3.0285712843343613,9.278528042927384
1776554609062444000,7.314444091796875,-0.9668260204833,3.0362396270051595,9.27452757511437
1776554609072484900,7.32448486328125,-0.9769249513018876,3.0389792811021206,9.272574102959036
1776554609082525000,7.33452490234375,-0.9871935395989566,3.036523996904492,9.272291194364428
1776554609092566000,7.34456591796875,-0.9992628937076776,3.0294924908325074,9.273297156536579
1776554609102606000,7.354606201171875,-1.0141318154070527,3.019198475833237,9.275040200811624
1776554609112647200,7.364647216796875,-1.033574255567044,3.0066099201560017,9.276983151572942
1776554609122687000,7.37468701171875,-1.0561856811519712,2.9933631928309796,9.27872093515098
1776554609132727800,7.384727783203125,-1.0781333821311592,2.9813047985076904,9.280077610456942
1776554609142769000,7.394768798828125,-1.0968351599916815,2.971086479093134,9.281163652127981
1776554609152809000,7.40480908203125,-1.1100413361106067,2.963372835975885,9.282057970619201
1776554609162849800,7.414849853515625,-1.1166406613104045,2.959393703211844,9.282537278568745
1776554609172889900,7.424889892578125,-1.1166372272443026,2.9600322933763263,9.282332695907353
1776554609182931000,7.434930908203125,-1.1111143721695989,2.9648049146056175,9.281472864207625
1776554609192971000,7.444970947265625,-1.101968723487854,2.9722566919162867,9.280181070831418
1776554609203012000,7.45501220703125,-1.0903288468375802,2.9806869588702916,9.278851283532381
1776554609213052200,7.46505224609375,-1.0764928483825176,2.989242313508689,9.27771438845694
1776554609223093000,7.475093017578125,-1.062549005638808,2.9969089026138183,9.276848711538314
1776554609233134000,7.485134033203125,-1.0513605990830808,3.0035093237921595,9.275988295316695
1776554609243174100,7.495174072265625,-1.0461409647386521,3.008879618653655,9.274838540759681
1776554609253215000,7.505215087890625,-1.0489455007653683,3.01334595041275,9.273072115609049
1776554609263254800,7.5152548828125,-1.0606436834741384,3.0173572318807245,9.270435337364674
1776554609273293000,7.52529296875,-1.0803092648655175,3.021024522216618,9.26696970708072
1776554609283333000,7.5353330078125,-1.1051635009411722,3.024204029035568,9.263001972493528
1776554609293374000,7.5453740234375,-1.1326407789967954,3.0272616630405187,9.258682355728745
1776554609303413800,7.555413818359375,-1.161161720886454,3.0301436482176185,9.254205502575635
1776554609313454800,7.565454833984375,-1.1891522822264582,3.0332074197024106,9.24964623183608
1776554609323495000,7.575494873046875,-1.2152272922687233,3.0367715419247743,9.245086961096524
1776554609333536000,7.585535888671875,-1.2388688646189867,3.0407872073069213,9.240628228121995
1776554609343576800,7.595576904296875,-1.2599134062133728,3.045030836226046,9.236384014680981
1776554609353617000,7.605616943359375,-1.2781560421295464,3.0491081686675545,9.232531430906057
1776554609363658000,7.615657958984375,-1.2941054525420068,3.0523028730556367,9.229254016670584
1776554609373698000,7.625697998046875,-1.308941494885087,3.054659957575798,9.226381091582775
1776554609383739000,7.63573876953125,-1.3238915189966558,3.056280252254009,9.223710411068797
1776554609393779000,7.645779052734375,-1.3398895908564328,3.057885933884978,9.220868465641141
1776554609403820000,7.655820068359375,-1.357177994787693,3.05988704457432,9.217676976123451
1776554609413861000,7.665861083984375,-1.3750762011803686,3.0623817839995024,9.214194394704698
1776554609423901200,7.675901123046875,-1.392619456655532,3.0647678023532032,9.210766173821687
1776554609433942000,7.68594189453125,-1.4085545462816953,3.067067019206285,9.207577022391558
1776554609443981800,7.69598193359375,-1.4225488771036265,3.068830229486525,9.204837952816487
1776554609454023000,7.70602294921875,-1.4345089256189762,3.070092212246358,9.202560071012376
1776554609464063000,7.71606298828125,-1.4447599782593548,3.0709456142053004,9.20067089626491
1776554609474103800,7.726103759765625,-1.453156050682813,3.0715631615817545,9.19914237152338
1776554609484145000,7.736144775390625,-1.4598267606183886,3.072232439145446,9.197862853106855
1776554609494185000,7.74618505859375,-1.4650801511019467,3.073542644961178,9.196589179909228
1776554609504226000,7.75622607421875,-1.4697005043789744,3.0754701058924194,9.19520737016201
1776554609514266000,7.76626611328125,-1.4738373119227588,3.077728406213224,9.19378932005763
1776554609524307000,7.776306884765625,-1.4766777960456907,3.080242142599821,9.192491681462526
1776554609534347000,7.786346923828125,-1.4760964890263975,3.0828385888338086,9.191715436393022
1776554609544388000,7.79638818359375,-1.4702712900042534,3.0851421896010636,9.191876764434575
1776554609554428000,7.806427978515625,-1.4589564075246453,3.0869375485852357,9.193077372395992
1776554609564468700,7.81646875,-1.4439935239315032,3.0886262323245406,9.194871854597329
1776554609574509800,7.826509765625,-1.4291868538133798,3.0904969946324825,9.196555862161517
1776554609584550000,7.8365498046875,-1.4187293188154697,3.0929174997776743,9.197361333325505
1776554609594591000,7.846591064453125,-1.4162217199087141,3.0955408340185877,9.196865074241162
1776554609604631000,7.856631103515625,-1.4235003326095639,3.0971006306812163,9.195215553468465
1776554609614672000,7.866671875,-1.43894077058658,3.0971891857475042,9.19278277336359
1776554609624712000,7.8767119140625,-1.4581858615435659,3.0957857486903664,9.190223736530541
1776554609634753000,7.8867529296875,-1.4775494643136857,3.093444446261227,9.187917797675729
1776554609644793000,7.89679296875,-1.4941874415121972,3.0907506771326063,9.186133252346515
1776554609654834000,7.906833984375,-1.5056358872435986,3.0886636417254802,9.184965377610922
1776554609664875000,7.916875,-1.5106376410536466,3.087355481736362,9.184583684816957
1776554609674915000,7.9269150390625,-1.509138196276128,3.0865529331818222,9.185100986689328
1776554609684956200,7.9369560546875,-1.5028070935584603,3.085652184949815,9.18644246442616
1776554609694996000,7.946995849609375,-1.4934361847534774,3.084163699957728,9.188469586339592
1776554609705036800,7.957036865234375,-1.48242306169942,3.0819758345246315,9.190985953074692
1776554609715076900,7.967076904296875,-1.4709499199181795,3.0790514715105295,9.193808609279989
1776554609725118000,7.977117919921875,-1.4597629016019402,3.075521543818712,9.19677330430448
1776554609735159000,7.987158935546875,-1.4498355279579758,3.0717499163255093,9.199604143816233
1776554609745198800,7.99719873046875,-1.4427524378292262,3.0686572110071775,9.201751092717052
1776554609755240000,8.007239990234375,-1.4393281624689698,3.066823565839231,9.202897340142727
1776554609765280000,8.017280029296876,-1.4384595629408954,3.0668086605310436,9.203038794440031
1776554609775321000,8.027321044921875,-1.4398412265576421,3.0684926680952307,9.202260795804857
1776554609785361200,8.037361083984376,-1.443481190495193,3.071540365228057,9.200674403396249
1776554609795402000,8.047402099609375,-1.4487842653393745,3.0750445739567276,9.198669493314624
1776554609805442000,8.057442138671876,-1.4547674314022063,3.0781469238862393,9.196686795064807
1776554609815483100,8.067483154296875,-1.4600947639048099,3.0798736015483734,9.195264653307198
1776554609825524000,8.07752392578125,-1.464346868391335,3.0797613733455536,9.194626355403662
1776554609835563800,8.087563720703125,-1.4679324717931448,3.078363781507313,9.194523479551076
1776554609845604900,8.09760498046875,-1.4717511532984673,3.07657017608881,9.194512373635172
1776554609855645000,8.10764501953125,-1.4766267965108155,3.074799951545894,9.194321234977245
1776554609865686000,8.11768603515625,-1.4822607107445598,3.0733941764011976,9.193885766169428
1776554609875726000,8.12772607421875,-1.488761178679764,3.0727348357096314,9.193056329607963
1776554609885767000,8.137766845703124,-1.4964325900904833,3.0731653360813853,9.191666921076179
1776554609895807000,8.147806884765625,-1.504710004570335,3.0746877233430743,9.189806972423195
1776554609905848000,8.15784814453125,-1.5128171770498156,3.076960928972065,9.187713799536228
1776554609915889200,8.16788916015625,-1.5194772194609045,3.0796102744370697,9.185727594155072
1776554609925929000,8.177928955078125,-1.5244963627971708,3.082203798061609,9.184025466412304
1776554609935970000,8.187969970703126,-1.527231194588542,3.0841523017808794,9.18291779743135
1776554609946009900,8.198009765625,-1.5280029096134007,3.085255002325773,9.182418615737557
1776554609956051000,8.208051025390626,-1.52735599001199,3.0853982101887465,9.182477652448416
1776554609966091500,8.218091552734375,-1.5255172302775084,3.084754943849146,9.183000215017795
1776554609976132400,8.22813232421875,-1.5226777690678834,3.0837451822847126,9.18380977783501
1776554609986173400,8.23817333984375,-1.5195418091297148,3.0824913828313347,9.184750858077406
1776554609996213500,8.248213623046874,-1.5163864138387142,3.081603494080901,9.185570357766746
1776554610006254300,8.25825439453125,-1.513667802529782,3.081164518141746,9.186164232006668
1776554610016294400,8.26829443359375,-1.5116894881941376,3.081133246220648,9.186500916615127
1776554610026335500,8.27833544921875,-1.510097104436159,3.081555271025002,9.186622497168182
1776554610036375600,8.28837548828125,-1.5090969874829052,3.0820480229780074,9.186621328124403
1776554610046416600,8.298416748046876,-1.5088264999784529,3.0826810601845382,9.186452985820173
1776554610056456400,8.30845654296875,-1.5089489573143422,3.0830443405389785,9.18631153152287
1776554610066497300,8.318497314453126,-1.509417451608926,3.083398853065073,9.186115132167934
1776554610076538400,8.328538330078125,-1.5097585201315582,3.083552582322061,9.186007580140233
1776554610086578400,8.338578369140626,-1.5097319243855774,3.083363781751692,9.186075384679436
1776554610096619300,8.348619384765625,-1.5091040017455815,3.0829949484392998,9.186302763694524
1776554610106659300,8.358659423828126,-1.508050254908949,3.08219239988476,9.186744077721238
1776554610116700400,8.368700439453125,-1.5066501788526772,3.080850045365095,9.187425045722723
1776554610126740500,8.378740478515626,-1.504473565465957,3.0793142140999437,9.188294814294576
1776554610136781600,8.388781494140625,-1.5024300769396126,3.077985595844686,9.189074566495417
1776554610146822400,8.398822509765624,-1.500699746015668,3.077192107379436,9.189623432549833
1776554610156862500,8.408862548828125,-1.4994858401812612,3.0768171365872026,9.18994667315483
1776554610166903600,8.418903564453124,-1.4985897681243716,3.076823858588934,9.190091050061582
1776554610176943600,8.428943603515625,-1.4972062048114836,3.0769544992312787,9.190272251847386
1776554610186984400,8.438984375,-1.4955226356387137,3.076936963574588,9.190552237832545
1776554610197024300,8.449024169921875,-1.493323372028768,3.0769904473274945,9.190891845050453
1776554610207065300,8.4590654296875,-1.4908872309230268,3.0770816327422854,9.191256586709619
1776554610217105400,8.46910546875,-1.488396875412017,3.0773595729008316,9.19156872139871
1776554610227146500,8.479146484375,-1.4858108044415712,3.0775925048738717,9.191909497660397
1776554610237187300,8.489187255859376,-1.4834997510202228,3.077856416507065,9.192193575298786
1776554610247227400,8.499227294921875,-1.4816330803655087,3.0781822874605655,9.192385298478603
1776554610257268500,8.5092685546875,-1.4804346643611788,3.078426617610454,9.192496357637642
1776554610267308500,8.51930859375,-1.479670548120886,3.0782176510348913,9.19268983438313
1776554610277349400,8.529349365234374,-1.4790201213881373,3.0779250978291035,9.19289324800074
1776554610287389400,8.539389404296875,-1.4782773401968181,3.0777824744880196,9.193059836739302
1776554610297430500,8.549430419921874,-1.4777413336239755,3.0776459886267777,9.19319193868637
1776554610307471600,8.5594716796875,-1.4776755749113857,3.07757672278285,9.193225256434083
1776554610317511400,8.569511474609374,-1.4776549705147743,3.0775255771175023,9.193245714700222
1776554610327552300,8.57955224609375,-1.47763480450958,3.0775016117200256,9.193255651572347
1776554610337592300,8.58959228515625,-1.4774375283718109,3.077335022981465,9.193343914377689
1776554610347633400,8.59963330078125,-1.4772908133774996,3.077168726503849,9.193423409354686
1776554610357673500,8.609673583984375,-1.4770229562215507,3.0770705268263816,9.193498228156566
1776554610367714300,8.61971435546875,-1.4763747214458882,3.076992785415053,9.193628576537966
1776554610377754400,8.62975439453125,-1.4754484003812074,3.076595602791011,9.193910316088795
1776554610387795500,8.63979541015625,-1.474317058263719,3.0759944220274686,9.19429317792654
1776554610397836500,8.64983642578125,-1.4733414912298322,3.075471274936199,9.194624017316102
1776554610407876600,8.659876708984376,-1.4729979384891687,3.0750805220529434,9.194810479798912
1776554610417917400,8.66991748046875,-1.4728494699291883,3.0747581582307815,9.194941997224092
1776554610427957500,8.67995751953125,-1.4728282810106872,3.074560589832067,9.195012139850855
1776554610437998600,8.68999853515625,-1.4727388491615652,3.074540131565928,9.195033767160773
1776554610448038400,8.700038330078126,-1.472315947574377,3.0744498229339716,9.19513079779446
1776554610458079200,8.710079345703125,-1.471529619502276,3.0743422709062695,9.195293294879793
1776554610468120300,8.720120361328124,-1.4708949748605489,3.0741330120697614,9.195462806227802
1776554610478160400,8.730160400390625,-1.4702474707372486,3.073807725638151,9.195675572195649
1776554610488201500,8.740201416015625,-1.4693969913877547,3.0734242792785165,9.195940945133566
1776554610498241500,8.750241455078125,-1.468541105210781,3.0729020089700816,9.196252495300769
1776554610508282400,8.760282470703125,-1.4682161110401153,3.072375647008419,9.196479289793968
1776554610518322400,8.770322509765625,-1.468321763371676,3.0716677910000083,9.19669907002449
1776554610528363500,8.780363525390625,-1.4684433439247309,3.0709847771719097,9.196908328860998
1776554610538404400,8.790404296875,-1.4685416897326706,3.070398501716554,9.197087777081132
1776554610548444400,8.8004443359375,-1.4686020416177807,3.069984075696766,9.197216371896863
1776554610558485500,8.810485595703126,-1.46900930724442,3.069778908513486,9.19722046355009
1776554610568525600,8.820525634765625,-1.4694453605741262,3.0699890441328286,9.197080178296565
1776554610578566700,8.830566650390624,-1.469911078389734,3.0702164231479165,9.196928787127137
1776554610588606500,8.8406064453125,-1.4703341261073946,3.0701556328713893,9.196882025375961
1776554610598647300,8.850647216796874,-1.4705375397250056,3.0699823221310973,9.196907744339107
1776554610608688400,8.8606884765625,-1.470924785476923,3.069848174357414,9.196889624160528
1776554610618728400,8.870728515625,-1.4713883113354445,3.0698399910509586,9.196818312489986
1776554610628769300,8.880769287109375,-1.4718220265775919,3.0698806153222917,9.19673531038165
1776554610638809300,8.890809326171874,-1.4722883289150892,3.069708181364834,9.196719528290629
1776554610648850400,8.900850341796875,-1.4730968688189983,3.069173343835771,9.196768628129362
1776554610658890500,8.910890380859374,-1.4739363883830605,3.068452628345787,9.196874426591396
1776554610668931600,8.920931640625,-1.4743625048406421,3.0680066381439564,9.196955090612173
1776554610678971600,8.9309716796875,-1.4744624580837786,3.0682579825565215,9.196855721890925
1776554610689012500,8.941012451171876,-1.4747525270715356,3.069141779653728,9.196513776585459
1776554610699053600,8.951053466796875,-1.475535932534188,3.070957596904039,9.195781370657683
1776554610709093400,8.96109326171875,-1.4767989382073283,3.0736861450850963,9.19466727193594
1776554610719134200,8.97113427734375,-1.4786965885221957,3.077410426305234,9.1931165353626
1776554610729174300,8.98117431640625,-1.480821471721679,3.0818872794583436,9.191275291410088
1776554610739215400,8.99121533203125,-1.4826917956382035,3.0865567325741052,9.18940657492876
1776554610749255400,9.00125537109375,-1.4839339046537876,3.0903619700759646,9.187926565504073
1776554610759296500,9.011296630859375,-1.4847047428958118,3.0923648343309758,9.18712869312465
1776554610769337300,9.02133740234375,-1.4847791233062744,3.0927120403334496,9.18699951378703
1776554610779377400,9.03137744140625,-1.4845678186431526,3.0918916638612743,9.187308725866675
1776554610789418500,9.04141845703125,-1.4835245932005345,3.0903660617291924,9.187990862911938
1776554610799458600,9.05145849609375,-1.481386119867116,3.0891520097643137,9.188744311627746
1776554610809499400,9.06149951171875,-1.47822254126966,3.088215313436091,9.189568487492203
1776554610819539500,9.07153955078125,-1.4751426954329012,3.08769450443238,9.190238934099673
1776554610829580500,9.08158056640625,-1.4734116338565946,3.0874340999305248,9.190603675758839
1776554610839621600,9.09162158203125,-1.4744419998176395,3.087181878735125,9.190522427216171
1776554610849661400,9.101661376953125,-1.477752585670352,3.087159374642372,9.189998695603013
1776554610859702300,9.111702392578126,-1.4812925963647663,3.0873984440952538,9.18934987630546
1776554610869742300,9.121742431640625,-1.4832280944719909,3.0871374550715087,9.189124250856041
1776554610879783400,9.131783447265626,-1.4829012006051838,3.0860937912374733,9.189526986438036
1776554610889823500,9.141823486328125,-1.481582226961106,3.083961163122952,9.190456376242636
1776554610899864300,9.1518642578125,-1.4807226875223218,3.080949121825397,9.19160437723398
1776554610909905400,9.161905517578125,-1.482398804040998,3.0777354204759,9.192410432919859
1776554610919945500,9.171945556640624,-1.487683612576127,3.0750445739567276,9.192456610149145
1776554610929986600,9.181986572265625,-1.4963824673384427,3.0730685977086423,9.191706668564677
1776554610940026600,9.192026611328124,-1.5071036217086016,3.071536273574829,9.190466313114761
1776554610950067500,9.2020673828125,-1.5190990337982773,3.0700153476178644,9.189000332215429
1776554610960107300,9.212107177734374,-1.5321120984978973,3.0683351394459604,9.187399911281465
1776554610970148000,9.222148193359375,-1.546343599076569,3.065885115945339,9.185834561660885
1776554610980189200,9.232189208984375,-1.5613776482097803,3.0620497755661606,9.184570825335383
1776554610990229200,9.242229248046876,-1.5771097626097499,3.0566061232075095,9.183695796066521
1776554611000270000,9.25227001953125,-1.5947110318824649,3.0497385755255815,9.182940009263158
1776554611010310100,9.26231005859375,-1.6156839695453642,3.0430978223368523,9.181476950973272
1776554611020351200,9.272351318359375,-1.6410579186461864,3.038275516746938,9.178573046225308
1776554611030392000,9.28239208984375,-1.670354155757278,3.037140082976222,9.17366364687383
1776554611040432000,9.29243212890625,-1.7016823370873928,3.0406197417855263,9.166748752918839
1776554611050473200,9.30247314453125,-1.7315838466152549,3.0476649841219183,9.158806854003668
1776554611060513300,9.31251318359375,-1.7568705558240412,3.0564775283917784,9.151052002093195
1776554611070554400,9.322554443359374,-1.7763951943747698,3.065196549159288,9.144362733587622
1776554611080594200,9.33259423828125,-1.7901422724373637,3.0724580645948647,9.139244075399636
1776554611090635300,9.34263525390625,-1.799804419273883,3.0759760095879436,9.13616072243154
1776554611100676400,9.35267626953125,-1.806964520161599,3.0745775409668683,9.135220226711034
1776554611110716200,9.362716064453124,-1.812122633577138,3.0685853148147464,9.136213329401611
1776554611120757000,9.372757080078125,-1.8156740424484012,3.059239978842437,9.13864084880948
1776554611130797000,9.382797119140625,-1.8195153741769492,3.0476953792601824,9.141734138649701
1776554611140838100,9.392838134765626,-1.8270384631581604,3.035162645423412,9.144403065598011
1776554611150878200,9.402878173828125,-1.842448652127385,3.023954438188672,9.145024412366748
1776554611160919300,9.412919189453126,-1.869027154712379,3.0169647254317997,9.141938136789202
1776554611170960100,9.422960205078125,-1.905988373493403,3.016402999895811,9.134490158870817
1776554611181000200,9.433000244140626,-1.949198569666594,3.0226679055094716,9.12329364207387
1776554611191041300,9.443041259765625,-1.9933739576101301,3.032771950894594,9.11038622970581
1776554611201081300,9.453081298828126,-2.033079798924178,3.0432135576710104,9.098122960460186
1776554611211122200,9.4631220703125,-2.0631236395321784,3.051616059835255,9.088540308600663
1776554611221163300,9.473163330078124,-2.0795098339267075,3.0565237056210637,9.083155108430981
1776554611231203000,9.483203125,-2.080964562779665,3.0568074909985063,9.082725484842062
1776554611241244200,9.493244140625,-2.069947494202852,3.0523765228137374,9.086731213352083
1776554611251284200,9.5032841796875,-2.0519350137807426,3.043611617077887,9.093755997422337
1776554611261325000,9.513324951171874,-2.0338446458168327,3.0320284390509125,9.101683283290267
1776554611271365000,9.523365234375,-2.0214402145348487,3.020084026496112,9.108417559981346
1776554611281406200,9.53340625,-2.016848502830416,3.0102400933519005,9.112691584038734
1776554611291447000,9.543447021484376,-2.019030523044616,3.003290420344472,9.114503017374872
1776554611301487000,9.553487060546875,-2.0243442654132844,2.998431289875507,9.114923288613557
1776554611311528200,9.563528076171876,-2.030423877587914,2.994711100308597,9.114794109275936
1776554611321568300,9.573568359375,-2.0377032209411263,2.9913325637862083,9.114278560969233
1776554611331609300,9.583609375,-2.0483707454279063,2.98841083112061,9.11284589781761
1776554611341649400,9.5936494140625,-2.063803730750829,2.9868825986400247,9.10986366713643
1776554611351690200,9.603690185546874,-2.0835037258684634,2.9869851822316646,9.105345897451043
1776554611361731300,9.6137314453125,-2.1054735656142234,2.9896123158648606,9.099428197839856
1776554611371771100,9.623771240234374,-2.1262780148424207,2.995949117670953,9.092502782490849
1776554611381812000,9.63381201171875,-2.143360520938039,3.006726532272994,9.084932639497518
1776554611391852000,9.64385205078125,-2.156239583994448,3.021436902409792,9.077000677454471
1776554611401893000,9.65389306640625,-2.1658612526901067,3.0388322738468645,9.068898035019636
1776554611411934200,9.663934326171875,-2.1720238669730723,3.057114072729647,9.061278207665682
1776554611421974300,9.673974365234375,-2.174008611049503,3.07467661742717,9.054856650185584
1776554611432015000,9.68401513671875,-2.1723754568897187,3.0894375487074255,9.050223145166038
1776554611442055200,9.69405517578125,-2.168802128447592,3.099470282422006,9.047649495285748
1776554611452096300,9.70409619140625,-2.165309025634825,3.1047908929228782,9.046662822335957
1776554611462136300,9.71413623046875,-2.163943874761462,3.1074396538659927,9.046079469490051
1776554611472177200,9.72417724609375,-2.1659273036636413,3.1108889175370336,9.044418842801452
1776554611482218200,9.73421826171875,-2.1706867731504143,3.1179081486493345,9.040861442580818
1776554611492258000,9.744258056640625,-2.1775740484461186,3.1292887898415325,9.035269321662186
1776554611502299100,9.754299072265624,-2.1872668826818464,3.1439883463233707,9.02782309730947
1776554611512339200,9.764339111328125,-2.2018137328200043,3.159142660835385,9.018992725121974
1776554611522380000,9.774380126953124,-2.220910793608427,3.1708097177535293,9.010212621816992
1776554611532421000,9.784421142578125,-2.2412745133318004,3.175752142591774,9.003425153633952
1776554611542461200,9.794461181640624,-2.2593777407772837,3.172996706403792,8.999871845066547
1776554611552502300,9.804502197265625,-2.273469686754793,3.164760500717163,8.999222441247104
1776554611562542000,9.8145419921875,-2.2833282329462468,3.154653532722592,9.00027633421421
1776554611572583200,9.824583251953126,-2.2885266783721745,3.145011844152212,9.00232917509079
1776554611582623200,9.834623291015625,-2.2902111243277785,3.1377260710582133,9.004443390765786
1776554611592664300,9.844664306640626,-2.2889000417292116,3.1347219208061694,9.005823446947335
1776554611602705200,9.854705078125,-2.286755138655007,3.1371812966570256,9.005511896780133
1776554611612745200,9.8647451171875,-2.2875809219546617,3.144097944177687,9.00288914706111
1776554611622787300,9.874787353515625,-2.2930397718824445,3.1540418305650353,8.99802007972002
1776554611632827400,9.884827392578124,-2.3013347220189866,3.165450236546993,8.991893705794215
1776554611642868200,9.8948681640625,-2.3105651994399725,3.1766999448359012,8.985557488510013
1776554611652909300,9.904909423828125,-2.3195780885875226,3.1859052878156304,8.979975304463505
1776554611662949000,9.91494921875,-2.3284913167528805,3.191344848521054,8.975735767197609
1776554611672990200,9.924990234375,-2.337539423344284,3.1924560246333478,8.972987929794192
1776554611683030000,9.935030029296875,-2.3472768273741007,3.190422765240073,8.971168313151598
1776554611693071000,9.945071044921875,-2.3590911838084456,3.1864643830031154,8.969476122280955
1776554611703112200,9.9551123046875,-2.373905452711135,3.182367469078302,8.96702288390994
1776554611713152300,9.96515234375,-2.391814911150187,3.179758163362741,8.963188420313596
1776554611723193000,9.975193115234376,-2.411738924282044,3.1795006814703344,8.95793941374421
1776554611733233200,9.985233154296875,-2.4311703315913675,3.1813691056907176,8.952021129611134
1776554611743274200,9.995274169921874,-2.445860827983916,3.1843907915994523,8.946943972477316
1776554611753314300,10.005314208984375,-2.4518831570133566,3.187179545535147,8.944301933535932
1776554611763355100,10.015355224609374,-2.447165042450279,3.1885546332806345,8.945104482090473
1776554611773396200,10.025396240234375,-2.4323244700625537,3.187662360616028,8.949468522518872
1776554611783436300,10.035436279296874,-2.410556436499208,3.1846348294883966,8.956434854400158
1776554611793477400,10.045477294921875,-2.3850933478102085,3.1805951987087724,8.964681873741746
1776554611803517200,10.05551708984375,-2.357869240798056,3.1767490446746347,8.973243950381875
1776554611813558000,10.06555810546875,-2.330417024118453,3.173535343325138,8.98155000643432
1776554611823599000,10.07559912109375,-2.3032383636832234,3.171147863666713,8.989399550890923
1776554611833639200,10.08563916015625,-2.2756498072728513,3.16971753860265,8.996928192830085
1776554611843680300,10.09568017578125,-2.2451646526381372,3.1687130377352237,9.00493672724068
1776554611853720000,10.105719970703126,-2.2093175325788557,3.1661534163802862,9.014697658276557
1776554611863761200,10.11576123046875,-2.1659201432704926,3.1595939117342233,9.027521484014391
1776554611873801200,10.12580126953125,-2.114228242217004,3.147264299254119,9.04406696062386
1776554611883842300,10.13584228515625,-2.054216987238079,3.1293337980270386,9.064097356739639
1776554611893883100,10.145883056640624,-1.9895412475794552,3.107146516138315,9.086129155805706
1776554611903923200,10.155923095703125,-1.9266257955916224,3.0830776582866903,9.107859926098584
1776554611913964300,10.16596435546875,-1.8693521488830447,3.059825669775903,9.127616765969991
1776554611924004000,10.176004150390625,-1.8195090905666351,3.0405028374075886,9.144130678397417
1776554611934045200,10.186045166015624,-1.778399519934505,3.026709289854765,9.156785577309131
1776554611944086000,10.1960859375,-1.7472747522220013,3.016856296621263,9.166023361253737
1776554611954126000,10.2061259765625,-1.7245175614908337,3.0078511523887514,9.173289552864432
1776554611964167200,10.216167236328126,-1.7037997676327823,2.99728796505928,9.180615950229763
1776554611974211300,10.22621142578125,-1.679956242969632,2.9819612165898084,9.189996942037343
1776554611984252400,10.23625244140625,-1.6535792543061076,2.9584648979291317,9.20236717878878
1776554611994292200,10.246292236328125,-1.6220445906184613,2.9270857170641422,9.21799904768467
1776554612004333300,10.256333251953125,-1.5848141995072365,2.890226058961451,9.23608883112669
1776554612014374100,10.2663740234375,-1.5373051370963453,2.851838460639119,9.256030964437127
1776554612024414200,10.276414306640625,-1.4778881947487592,2.8165765931218862,9.276482800835371
1776554612034455300,10.286455322265626,-1.4099302185490727,2.786839041984081,9.296022198563813
1776554612044495400,10.296495361328125,-1.3432478152431546,2.762202613377571,9.313232861083746
1776554612054536400,10.306536376953124,-1.2854362622655928,2.7421906297013163,9.327294704183936
1776554612064576500,10.316576416015625,-1.2377613417685032,2.7282544588074087,9.33782428150475
1776554612074617300,10.326617431640624,-1.19949948871769,2.7209850523263213,9.344936159336566
1776554612084658400,10.336658447265625,-1.168976559355855,2.718358503215015,9.349566157224773
1776554612094698500,10.346698486328124,-1.1449620620399712,2.7172628169327973,9.35285584641993
1776554612104739300,10.3567392578125,-1.1251258002568036,2.7151927326604723,9.355865549629927
1776554612114779100,10.366779052734374,-1.1083060367505997,2.7113112150520084,9.358997417914868
1776554612124820500,10.376820556640626,-1.0930532303001732,2.705316650812328,9.362525592041015
1776554612134861600,10.386861572265625,-1.0794182343099266,2.695996449281275,9.366795524445175
1776554612144901400,10.3969013671875,-1.0704057104885578,2.685451966652274,9.370857367056608
1776554612154942200,10.406942138671875,-1.0728056112371385,2.6774840565130114,9.372862277138232
1776554612164982300,10.416982177734376,-1.0794189649622887,2.676959448117018,9.37225320532918
1776554612175023400,10.4270234375,-1.0843950728744267,2.6840596355110407,9.369646822223066
1776554612185063400,10.4370634765625,-1.0894666770502923,2.6955381841197608,9.365762674266099
1776554612195104300,10.447104248046875,-1.0951660577356814,2.709970614098012,9.36093160084784
1776554612205144300,10.457144287109376,-1.10177809628658,2.7258412601858377,9.355546400678158
1776554612215185400,10.467185302734375,-1.1093054961167275,2.7416908634856343,9.350023253342508
1776554612225226500,10.4772265625,-1.1166254637412727,2.755922802455723,9.344967723518609
1776554612235266600,10.4872666015625,-1.1229876922495663,2.766295727910101,9.341140274184943
1776554612245307400,10.497307373046874,-1.1280202065240592,2.770930986495316,9.339158744978905
1776554612255347200,10.50734716796875,-1.1323902383018285,2.771032693304121,9.338600526574254
1776554612265388300,10.51738818359375,-1.1365895896878093,2.769015216001868,9.338689958423375
1776554612275429400,10.527429443359376,-1.1418969753809272,2.7666549166113135,9.33874022730589
1776554612285469200,10.53746923828125,-1.1490545189853756,2.7644360715180634,9.338521031597256
1776554612295510300,10.54751025390625,-1.1572256235465406,2.761284621749818,9.338443874707817
1776554612305550300,10.55755029296875,-1.1651853503793477,2.756772989544272,9.338787573578953
1776554612315591400,10.56759130859375,-1.1719834130216389,2.752445481733978,9.339211936470866
1776554612325631500,10.577631591796875,-1.177551860803738,2.749850496804714,9.339276233878731
1776554612335672300,10.58767236328125,-1.1826570749882608,2.7496502980574964,9.338689958423375
1776554612345713400,10.59771337890625,-1.1871917227432132,2.7518735270649195,9.337459539845586
1776554612355753500,10.60775341796875,-1.1899501546058804,2.7559833004713057,9.335897112834454
1776554612365794300,10.617794189453125,-1.1892804386507718,2.7611846685066816,9.334443991416693
1776554612375834400,10.62783447265625,-1.1832434965740888,2.76738907610476,9.333374900880456
1776554612385875500,10.63787548828125,-1.1717091991901396,2.7740760065227748,9.33284415500462
1776554612395915300,10.647915283203124,-1.1560646169431508,2.779252240116894,9.333255073893069
1776554612405956400,10.657956298828125,-1.1388597996421157,2.7801223009496927,9.335112684458494
1776554612415997200,10.6679970703125,-1.1221040412828325,2.77578164139688,9.338432184270024
1776554612426037200,10.678037353515625,-1.11024277696684,2.7688690855294467,9.341901906207204
1776554612436078300,10.688078369140625,-1.1081317030970006,2.7633354167997837,9.343790496432781
1776554612446118400,10.698118408203126,-1.11027266064845,2.7629735977500673,9.34364378143847
1776554612456159200,10.7081591796875,-1.1121702378980816,2.76803292696625,9.341918857342005
1776554612466199300,10.71819921875,-1.1198071625173092,2.774114000445604,9.339202584120631
1776554612476240400,10.728240478515625,-1.1271285914465785,2.779408599722385,9.336748176705838
1776554612486280400,10.738280517578126,-1.1304328206237404,2.7830490020513534,9.335264075627922
1776554612496321500,10.748321533203125,-1.136766919016093,2.7837062969163058,9.33429786094427
1776554612506362400,10.7583623046875,-1.1448033643469213,2.7840146322131156,9.333224678754807
1776554612516402200,10.768402099609375,-1.1495066466670483,2.7855627384379504,9.332184814313054
1776554612526443300,10.778443359375,-1.156802210502699,2.7869237976580856,9.330876654323935
1776554612536483300,10.7884833984375,-1.1709363881867378,2.7888880834683776,9.328526876327395
1776554612546524200,10.798524169921874,-1.1899644753921776,2.7923212727874516,9.325091641181707
1776554612556564200,10.808564208984375,-1.211192410729453,2.7962308474466204,9.32118586591482
1776554612566605300,10.818605224609374,-1.2323778951644897,2.799275037448108,9.317493441137671
1776554612576646400,10.828646484375,-1.2517328762367368,2.800330683980882,9.314596550652384
1776554612586686500,10.8386865234375,-1.2685657914854584,2.7989345534473657,9.31273835556507
1776554612596727300,10.848727294921876,-1.2844383372694252,2.795306426078081,9.311652898415922
1776554612606767400,10.858767333984375,-1.3017059906736015,2.7907085768938065,9.31063232319653
1776554612616808400,10.868808349609376,-1.3213758829139173,2.7864743003249166,9.309130686461925
1776554612626848500,10.8788486328125,-1.3418152982220053,2.7834368323251604,9.307115254986286
1776554612636889300,10.888889404296876,-1.360287066718936,2.781407956846058,9.305040786799788
1776554612646929200,10.89892919921875,-1.3741799829930066,2.778610727342963,9.303834333619475
1776554612656970200,10.90897021484375,-1.383629656122625,2.772896441349387,9.304138285002113
1776554612667011300,10.91901123046875,-1.3919139387346804,2.7634382926523684,9.305716494104265
1776554612677051400,10.929051513671874,-1.4034491859667002,2.751644394484162,9.307479412123561
1776554612687092200,10.93909228515625,-1.422745568719506,2.7404148522004483,9.307862858483194
1776554612697132300,10.94913232421875,-1.4515578217059373,2.732809637893736,9.30565102765262
1776554612707173400,10.95917333984375,-1.4891750201776623,2.7311773605167864,9.300184578940272
1776554612717213400,10.96921337890625,-1.534585502874106,2.7361770685002207,9.291328487789631
1776554612727254300,10.979254150390625,-1.5864545140601694,2.7477643381804224,9.27918913718462
1776554612737294300,10.98929443359375,-1.6408717484243214,2.7659394618183373,9.264313639613986
1776554612747335400,10.99933544921875,-1.6913268011592328,2.789588632953167,9.24813524275124
1776554612757375200,11.009375244140625,-1.7303600039087235,2.816450044132769,9.232759978964925
1776554612767416300,11.019416259765626,-1.7529440300300716,2.8438530148431655,9.220089882484078
1776554612777457200,11.02945703125,-1.7593254016302524,2.868755693170428,9.211157218965887
1776554612787497200,11.039497314453126,-1.753113249117136,2.8893720724806187,9.205895937436818
1776554612797538300,11.049538330078125,-1.738214516801387,2.9048405675083395,9.203851864388584
1776554612807578400,11.059578369140626,-1.7157472489275036,2.913883997924626,9.205209708738327
1776554612817619200,11.069619140625,-1.6864022042386233,2.9148315079078078,9.21033187405765
1776554612827659300,11.0796591796875,-1.6521366542823612,2.9061019657462834,9.219294932714105
1776554612837700400,11.089700439453125,-1.6174113778598607,2.8890634449228645,9.230800661590695
1776554612847740400,11.099740478515624,-1.5874788886718452,2.8678528991118073,9.242603327587247
1776554612857781500,11.109781494140625,-1.5672658294655382,2.8467782546401024,9.252563580587505
1776554612867822300,11.119822265625,-1.5594132162690162,2.830424793471396,9.258905643090605
1776554612877862400,11.1298623046875,-1.5629577570080757,2.822456883332133,9.260738703736662
1776554612887903500,11.139903564453125,-1.5739371239230036,2.8253318542465564,9.25800255677104
1776554612897943300,11.149943359375,-1.5874661753207444,2.837239441922307,9.252048616802693
1776554612907984400,11.159984375,-1.5993861840866506,2.853805961319804,9.244897576004266
1776554612918024200,11.170024169921875,-1.6044051812924445,2.870548714067042,9.238842513749002
1776554612928065300,11.180065185546875,-1.5978500605605541,2.883349743451178,9.235991800493002
1776554612938105300,11.190105224609376,-1.5770558404654265,2.8893294023826717,9.237697435367107
1776554612948146400,11.200146484375,-1.5442466267973183,2.8870991591125725,9.243936037495732
1776554612958186500,11.2101865234375,-1.5066718061625957,2.8773455346003174,9.253173821440338
1776554612968223200,11.22022314453125,-1.4729326181679963,2.8620050498664376,9.263357361802457
1776554612978264300,11.230264404296875,-1.4480666185893118,2.8444445509955285,9.272682239508628
1776554612988304400,11.240304443359374,-1.4316433070547878,2.829211618289351,9.279889978930354
1776554612998345500,11.250345458984375,-1.4191818848885596,2.819463838995993,9.284768398621678
1776554613008385500,11.260385498046874,-1.4049347483493386,2.8146991088122126,9.288381328421831
1776554613018426400,11.27042626953125,-1.3841598174765706,2.812453083451092,9.292179551661015
1776554613028466400,11.280466552734374,-1.354970694001764,2.8099866933375597,9.297227482700347
1776554613038507500,11.290507568359375,-1.320849374821782,2.805463078433275,9.303500571620464
1776554613048547600,11.300547607421874,-1.2873304054491221,2.799079222615063,9.310119697499275
1776554613058588400,11.31058837890625,-1.2570565554775297,2.7934941159591076,9.315931598648428
1776554613068628500,11.32062841796875,-1.2307460561789572,2.7908839334607123,9.320224911928177
1776554613078669600,11.330669677734376,-1.2090049836877732,2.791555256851017,9.322869288957119
1776554613088709400,11.34070947265625,-1.1924115762833505,2.7944617919474837,9.32413653241396
1776554613098750500,11.35075048828125,-1.180083498173207,2.7971096761077643,9.324911023917794
1776554613108790300,11.360790283203125,-1.1696763051230459,2.7969948175564405,9.326256008785963
1776554613118831400,11.370831298828126,-1.1586164203178138,2.7930057479202746,9.328831412231922
1776554613128872400,11.38087255859375,-1.1458024583868682,2.78589883852452,9.332537865534425
1776554613138912500,11.39091259765625,-1.1324258210718632,2.777859032192826,9.336567559441924
1776554613148953300,11.400953369140625,-1.1202976494479924,2.771322323900461,9.339972983971238
1776554613158993400,11.410993408203124,-1.1106531843986363,2.767513871528208,9.342253788384795
1776554613169034500,11.421034423828125,-1.1047007057350129,2.76626065659672,9.343329308661819
1776554613179074600,11.431074462890624,-1.1047188989788292,2.7667072313204404,9.34319486862719
1776554613189115600,11.44111572265625,-1.1107136824142188,2.7689237383261323,9.341829425492882
1776554613199155500,11.451155517578124,-1.1188902668680996,2.772675199814141,9.339739759737252
1776554613209196300,11.4611962890625,-1.1253237339816986,2.777066128249466,9.337661199897527
1776554613219236400,11.471236328125,-1.1275507623814045,2.780720559103787,9.336305109113454
1776554613229277400,11.48127734375,-1.1251509346980602,2.7827134864866734,9.336000573208928
1776554613239317500,11.4913173828125,-1.119650802911818,2.782607395763695,9.336693816170095
1776554613249358300,11.5013583984375,-1.1131493851285428,2.7806109612494705,9.33806627356708
1776554613259398400,11.5113984375,-1.1080475319448857,2.7776901053667067,9.339542191338538
1776554613269439500,11.521439453125,-1.1057236921072005,2.776040584594011,9.340307915014028
1776554613279478500,11.531478515625,-1.1072398688238114,2.7768916484653947,9.33987478429377
1776554613289519600,11.54151953125,-1.1119890361122786,2.7801407133892178,9.33834509050846
1776554613299559400,11.551559326171875,-1.1187987891923636,2.7835724414035674,9.336508522731066
1776554613309600300,11.561600341796876,-1.1251485966105013,2.7855922567933797,9.335142495074868
1776554613319641300,11.571641357421875,-1.1295976119086146,2.785658015505969,9.334587199279666
1776554613329681400,11.581681396484376,-1.132085117875412,2.7843428412541744,9.334678384694456
1776554613339722500,11.591722412109375,-1.1332401331294328,2.783141356509924,9.33489582683742
1776554613349762600,11.601762451171876,-1.1335140546999871,2.7832018545255064,9.334844973433016
1776554613359803400,11.611803466796875,-1.1340014728907495,2.7841698227748273,9.334496598386764
1776554613369843500,11.621843505859376,-1.1359838058143854,2.7853911812633276,9.333891618230938
1776554613379884500,11.631884521484375,-1.1398279140219092,2.786368501862883,9.333131155252456
1776554613389924600,11.641924560546874,-1.144687482882291,2.7869413333147763,9.332365431576967
1776554613399965400,11.65196533203125,-1.1491301415048538,2.787417426393926,9.331677449312805
1776554613410005200,11.662005126953124,-1.1526027860514818,2.7882956705331803,9.330986544439195
1776554613420046300,11.67204638671875,-1.1559536308493465,2.7898966759890316,9.330093394991755
1776554613430086400,11.68208642578125,-1.1606566939737648,2.792113767516613,9.328846609801053
1776554613440127500,11.69212744140625,-1.168163489407301,2.794218923102319,9.327277753049135
1776554613450167300,11.702167236328124,-1.1785018550049513,2.7954262530654668,9.325615957316757
1776554613460208400,11.71220849609375,-1.1919207240264862,2.7955533865764735,9.32387174399793
1776554613470248400,11.72224853515625,-1.208214344766736,2.795836295171082,9.32168972378373
1776554613480289500,11.73228955078125,-1.2264620952494443,2.797997857119143,9.318657224220036
1776554613490329600,11.74232958984375,-1.2466384757071733,2.802372711202502,9.314665524235368
1776554613500370400,11.752370361328126,-1.2686539081603287,2.8074805557355282,9.310153599768876
1776554613510410500,11.762410400390625,-1.2922158394031227,2.812162576071918,9.305497882917523
1776554613520451600,11.77245166015625,-1.3173971885412932,2.8158658145040274,9.300846257719398
1776554613530491400,11.782491455078125,-1.3428506326191127,2.8185253891021014,9.296399215182662
1776554613540532200,11.7925322265625,-1.366549634245038,2.820446712553501,9.292361922490596
1776554613550572300,11.802572265625,-1.3868787210464477,2.822743006797135,9.288653131100535
1776554613560613400,11.81261328125,-1.4043198313213885,2.825211734998226,9.285281608840823
1776554613570653400,11.8226533203125,-1.421420895987004,2.8281001499161125,9.28179902742207
1776554613580694500,11.832694580078124,-1.4409636547163127,2.831804265131056,9.277655936267971
1776554613590734600,11.842734619140625,-1.4642800867654382,2.8363042068988085,9.272627878972887
1776554613600775400,11.852775390625,-1.4921350390270351,2.8414126359537244,9.266623085600138
1776554613610815500,11.8628154296875,-1.5238789615511894,2.8469211702421306,9.259763721224665
1776554613620856600,11.872856689453124,-1.5572490239724517,2.8532506655246017,9.252260213726759
1776554613630897400,11.8828974609375,-1.5898421106718479,2.8594331535518167,9.244805806067586
1776554613640937200,11.892937255859374,-1.6195969052053987,2.864146738070249,9.238180250447988
1776554613650977300,11.902977294921875,-1.6442130216762423,2.8667449378699064,9.233024182859063
1776554613661018400,11.913018310546875,-1.6635848077528177,2.866791699621081,9.229538678830862
1776554613671059500,11.9230595703125,-1.6791979719482362,2.864806078761816,9.227325678956507
1776554613681099500,11.933099609375,-1.6926185945354402,2.8620687627524135,9.225725258022546
1776554613691140400,11.943140380859376,-1.704304940675944,2.859425262506306,9.22439254811406
1776554613701180400,11.953180419921875,-1.7134240666769445,2.857150303311646,9.223408213251828
1776554613711221500,11.963221435546876,-1.7207621544800697,2.8555487133339046,9.222537275636196
1776554613721261600,11.973261474609375,-1.7288493070848285,2.855295907616615,9.221104612484574
1776554613731302400,11.983302490234376,-1.739967497948557,2.85696471761167,9.218495306769013
1776554613741342500,11.993342529296875,-1.7555134421266614,2.8609906121268867,9.214297855079174
1776554613751383600,12.003383544921874,-1.774649227490276,2.8673849893391132,9.208642605796456
1776554613761423400,12.01342333984375,-1.7947636486276983,2.8741204350739715,9.202642488598823
1776554613771464400,12.02346435546875,-1.8131535840600728,2.878793395321071,9.197577021902799
1776554613781504500,12.03350439453125,-1.8282127676345408,2.8803233813673255,9.194115483272075
1776554613791545300,12.04354541015625,-1.8391881890267132,2.8787761519253254,9.192412186485528
1776554613801585400,12.05358544921875,-1.8458878327958286,2.8755346857860684,9.192083100661636
1776554613811626500,12.06362646484375,-1.8483555380836127,2.871592962422967,9.19281959824264
1776554613821666600,12.07366650390625,-1.845699470616877,2.867600093394518,9.194599467396735
1776554613831707400,12.083707275390625,-1.83704460112676,2.8624714983344077,9.19792948860228
1776554613841747500,12.09374755859375,-1.8223611189968882,2.8545880516082045,9.20329890668094
1776554613851788500,12.10378857421875,-1.8025879125125706,2.8437451705545187,9.210546393591166
1776554613861828400,12.113828369140625,-1.7801022321991622,2.8325419317558405,9.21836905004084
1776554613871869400,12.123869384765625,-1.759225740648061,2.823253294406831,9.225224322763085
1776554613881909200,12.1339091796875,-1.7449786041088402,2.8181466189175843,9.229491332557798
1776554613891950300,12.143950439453125,-1.7417258859232068,2.818411991855502,9.2300238319993
1776554613901990400,12.153990478515626,-1.7506918671891092,2.823850968039036,9.226663415655493
1776554613912031500,12.164031494140625,-1.769541821348667,2.83376504381001,9.220026754119992
1776554613922071600,12.174071533203126,-1.7945681260555981,2.8471561480417846,9.21105901928842
1776554613932112400,12.1841123046875,-1.819797405988723,2.863094890929758,9.201163063696026
1776554613942152400,12.19415234375,-1.839710020943731,2.8794191260039805,9.192105312493442
1776554613952193500,12.204193603515625,-1.8503581100776791,2.8932106277301908,9.185634655174612
1776554613962233600,12.214233642578124,-1.8499299477934836,2.902299943114817,9.182852915501593
1776554613972274200,12.224274169921875,-1.8406389723569154,2.904299592499435,9.18408859477639
1776554613982314000,12.23431396484375,-1.827894057074189,2.897773405601084,9.188694042745231
1776554613992355000,12.24435498046875,-1.8167010474085807,2.8847926357358693,9.194995773237943
1776554614002395100,12.25439501953125,-1.8091896488651633,2.8700910334274172,9.201075969934463
1776554614012436200,12.264436279296875,-1.8044880470454692,2.857588110207021,9.205888338652253
1776554614022476300,12.274476318359374,-1.8009728785313666,2.8500007238179443,9.208930190566182
1776554614032517000,12.28451708984375,-1.7971362229779362,2.847493417172134,9.210454623654485
1776554614042557200,12.29455712890625,-1.7918876547999678,2.84873143453449,9.2110940906018
1776554614052598300,12.304598388671875,-1.7847263848684727,2.85170635869205,9.21156287715733
1776554614062638300,12.314638427734375,-1.7752469011224805,2.8549107076913116,9.21240283511281
1776554614072679200,12.32467919921875,-1.7628266877494752,2.857875402715802,9.213868816012143
1776554614082719000,12.334718994140625,-1.7481433517500757,2.8600191367462275,9.21600173638761
1776554614092760000,12.344760009765626,-1.7321167844481766,2.860702442835271,9.218814455720782
1776554614102800100,12.354800048828125,-1.7167694315820932,2.859363595446944,9.22210005326271
1776554614112841200,12.36484130859375,-1.703373358914256,2.8559102401226757,9.225653361830116
1776554614122881300,12.37488134765625,-1.6927327224344013,2.851359444950521,9.22901903887093
1776554614132922000,12.384922119140626,-1.6847886315621434,2.8473218599975105,9.231717776435612
1776554614142962200,12.394962158203125,-1.6786746787264941,2.8459271907687187,9.233262667790054
1776554614153003300,12.405003173828124,-1.67295688560158,2.8482918740734458,9.233571879869698
1776554614163043300,12.415043212890625,-1.6666453643672168,2.853446188096702,9.233121213492751
1776554614173084200,12.425084228515624,-1.6605020393066108,2.8582100414976477,9.232754718267918
1776554614183124200,12.435124267578125,-1.6566244672209023,2.8603794944912195,9.232780437231064
1776554614193165300,12.445165283203124,-1.6562620636492966,2.860266974027455,9.23287863690853
1776554614203205000,12.455205078125,-1.6599068498924374,2.8596362749084827,9.232419787225126
1776554614213246200,12.46524609375,-1.6661081887505949,2.860905856452882,9.230909382662176
1776554614223286300,12.475286376953125,-1.6718838495425878,2.863853015820682,9.228952403375505
1776554614233327000,12.4853271484375,-1.6737407294556497,2.866888730254769,9.227671715915202
1776554614243367200,12.4953671875,-1.6698361232325434,2.8671850828528402,9.228287217465043
1776554614253408300,12.505408203125,-1.6597493212431669,2.862229798533022,9.231644126677512
1776554614263448300,12.5154482421875,-1.6442083455011247,2.852756452266872,9.23735607458353
1776554614273489200,12.5254892578125,-1.6237300594873725,2.8417800079613924,9.244358062300085
1776554614283529200,12.535529296875,-1.600486400413513,2.8327959065169095,9.251165988749266
1776554614293570300,12.5455703125,-1.5776184427842497,2.8277251791238784,9.256644712421297
1776554614303610000,12.555610107421876,-1.557644599161297,2.8269150317847727,9.26027517787814
1776554614313651200,12.565651123046875,-1.5417559790253639,2.8292516580387947,9.262219882205128
1776554614323691000,12.57569091796875,-1.5306081236757336,2.833036145013571,9.262913125166296
1776554614333732000,12.585732177734375,-1.5239049727752805,2.8368445973858236,9.2628505813241
1776554614343772200,12.595772216796876,-1.5190877817519008,2.8410283128112552,9.262360167458652
1776554614353813200,12.605813232421875,-1.513351722317934,2.846180288746953,9.261717777901888
1776554614363853300,12.615853271484376,-1.5067203214794396,2.8512030853450296,9.261254252043367
1776554614373894100,12.62589404296875,-1.5013183163054287,2.8544767001882194,9.261122734618187
1776554614383934200,12.635934326171874,-1.4989865123569965,2.8561358655720945,9.260990048149228
1776554614393975300,12.645975341796875,-1.498817585530877,2.857762297730148,9.260515416374803
1776554614404015400,12.656015380859374,-1.4987180706791579,2.860327764303982,9.259739755827187
1776554614414056200,12.66605615234375,-1.499130158611387,2.863346235342324,9.258739638873934
1776554614424096000,12.676095947265624,-1.5009581046909093,2.866135573799908,9.257579362922906
1776554614434137000,12.68613720703125,-1.5063342447713017,2.868178185543418,9.256074219056963
1776554614444177200,12.69617724609375,-1.5172612969771027,2.869222433899343,9.253965848600863
1776554614454218200,12.70621826171875,-1.5336273253664374,2.870117629173398,9.25098946313858
1776554614464258300,12.71625830078125,-1.553721434368193,2.8720339841887355,9.247039848729967
1776554614474299100,12.726299072265626,-1.5749129832178352,2.8756612347751855,9.242326264211535
1776554614484339200,12.736339111328125,-1.5948856577970087,2.881225298643112,9.237166104969381
1776554614494380300,12.74638037109375,-1.6130470451705157,2.8878023389458654,9.231958014932275
1776554614504420400,12.75642041015625,-1.6297032886780798,2.8942943313136693,9.227000100263952
1776554614514461200,12.766461181640626,-1.6460859759412705,2.8994901463910936,9.222458949702977
1776554614524501000,12.7765009765625,-1.663566541443765,2.902978573028743,9.218224673134088
1776554614534542000,12.7865419921875,-1.6822000763736664,2.9055852483958002,9.214020791703462
1776554614544582100,12.79658203125,-1.7015389830939471,2.9082071213319898,9.209642138227819
1776554614554623200,12.806623291015624,-1.7204658018819987,2.9114789826095104,9.20509105079472
1776554614564663300,12.816663330078125,-1.7374217589884995,2.91587137234956,9.200513659876584
1776554614574704000,12.8267041015625,-1.7511878340125082,2.9211636335387823,9.196223269206286
1776554614584744200,12.836744140625,-1.760161560193449,2.926763060981035,9.192728412827849
1776554614594785300,12.846785400390624,-1.7628452463194726,2.9315695844799277,9.190683170735836
1776554614604825300,12.856825439453125,-1.7585120394207536,2.9346982378944753,9.190514243909716
1776554614614866200,12.8668662109375,-1.7466186264008283,2.9352634705618024,9.192601571577788
1776554614624906200,12.87690625,-1.7278287318654357,2.932449874445796,9.197049198636412
1776554614634947300,12.886947265625,-1.7038175955504178,2.9257109215795993,9.203673585212231
1776554614644987100,12.896987060546875,-1.6768693828701973,2.9149373063698407,9.212038677975535
1776554614655028200,12.9070283203125,-1.6486898748293517,2.9008854001417754,9.221553525295853
1776554614665068000,12.917068115234375,-1.6217602207191288,2.8847151865854856,9.231397458440064
1776554614675109000,12.927109130859375,-1.5990985993169247,2.868364063504338,9.240442350161075
1776554614685149200,12.937149169921875,-1.5844384980626403,2.8551699431493875,9.247050370123981
1776554614695190300,12.947190185546875,-1.580441391250491,2.8485870576277375,9.249764889779687
1776554614705230300,12.957230224609376,-1.5872053324274717,2.85017666490674,9.24811536900699
1776554614715271200,12.967271240234375,-1.6010203611597418,2.858781411644816,9.243077959361672
1776554614725311200,12.977311279296876,-1.6150269669413566,2.8716724573999644,9.236642373356222
