time,seconds_elapsed,z,y,x
1776554601818174700,0.0701748046875,0.0005739112384617329,-0.0013126720441505313,-0.07720450311899185
1776554601828215600,0.080215576171875,-0.034997664391994476,0.030460171401500702,-0.10303717106580734
1776554601838255600,0.090255615234375,-0.03923662006855011,0.037826474756002426,-0.1216430813074112
1776554601848296700,0.100296630859375,-0.021752966567873955,0.026216156780719757,-0.12008379399776459
1776554601858337500,0.110337646484375,-0.01007820013910532,0.023921044543385506,-0.1303446888923645
1776554601868377600,0.120377685546875,-0.010069678537547588,0.008894424885511398,-0.1410042643547058
1776554601878418700,0.130418701171875,-0.012636433355510235,-0.021502362564206123,-0.14621099829673767
1776554601888458500,0.14045849609375,-0.0014588796766474843,-0.06663601845502853,-0.16188237071037292
1776554601898499600,0.15049951171875,0.016535300761461258,-0.10052820295095444,-0.17283383011817932
1776554601908539600,0.16053955078125,0.03015390783548355,-0.07462230324745178,-0.13466966152191162
1776554601918580500,0.17058056640625,0.0163643267005682,-0.025973277166485786,-0.09511958807706833
1776554601928620500,0.18062060546875,-0.008547947742044926,0.0020658141002058983,-0.08463792502880096
1776554601938661600,0.19066162109375,0.003192331176251173,0.0019166769925504923,-0.08406694233417511
1776554601948701700,0.20070166015625,0.055997222661972046,0.01082654856145382,-0.082208052277565
1776554601958742500,0.210742431640625,0.07899681478738785,0.013855627737939358,-0.07989855855703354
1776554601968783600,0.22078369140625,0.06463278830051422,-0.032409340143203735,-0.07847749441862106
1776554601978823700,0.23082373046875,0.04797578230500221,-0.09259065240621567,-0.07295623421669006
1776554601988864800,0.24086474609375,0.04941388964653015,-0.12481676787137985,-0.06012698635458946
1776554601998904600,0.250904541015625,0.045418880879879,-0.11754447221755981,-0.05413620546460152
1776554602008945400,0.2609453125,0.024338096380233765,-0.08628029376268387,-0.04761599004268646
1776554602018985500,0.2709853515625,0.003029345767572522,-0.0234637800604105,-0.027813522145152092
1776554602029026600,0.281026611328125,-0.003715375903993845,0.06048944219946861,-0.022409701719880104
1776554602039066600,0.291066650390625,0.0003981425834354013,0.15409769117832184,-0.02377270720899105
1776554602049107500,0.301107421875,0.026275012642145157,0.24132341146469116,-0.028596756979823112
1776554602059147500,0.3111474609375,0.0772380605340004,0.25750023126602173,-0.044976528733968735
1776554602069188600,0.321188720703125,0.09613105654716492,0.21510379016399384,-0.06022712215781212
1776554602079229700,0.331229736328125,0.12648071348667145,0.16297906637191772,-0.03960706293582916
1776554602089269800,0.341269775390625,0.1737281233072281,0.1740405112504959,-0.006844590418040752
1776554602099310600,0.351310546875,0.19099418818950653,0.2092520147562027,0.003507649526000023
1776554602109350400,0.361350341796875,0.15614672005176544,0.24716025590896606,-0.030830083414912224
1776554602119391700,0.371391845703125,0.10311413556337357,0.3313092291355133,-0.08167116343975067
1776554602129431600,0.381431640625,0.09050140529870987,0.4442773163318634,-0.12035250663757324
1776554602139472400,0.391472412109375,0.11324186623096466,0.5531702637672424,-0.18006883561611176
1776554602149512400,0.401512451171875,0.12086410075426102,0.4790709912776947,-0.23316960036754608
1776554602159553500,0.411553466796875,0.1448509246110916,0.47381284832954407,-0.26314109563827515
1776554602169593600,0.421593505859375,0.17930184304714203,0.4923013150691986,-0.1797441989183426
1776554602179634700,0.431634765625,0.20204311609268188,0.5001163482666016,-0.12911830842494965
1776554602189675500,0.441675537109375,0.25782540440559387,0.5181571245193481,-0.1694401651620865
1776554602199715600,0.451715576171875,0.28492680191993713,0.39972981810569763,-0.248847097158432
1776554602209756700,0.461756591796875,0.28205591440200806,0.30370423197746277,-0.3457443416118622
1776554602219796700,0.471796630859375,0.29999950528144836,0.34505540132522583,-0.4569830000400543
1776554602229837600,0.481837646484375,0.4088311791419983,0.6416069269180298,-0.4979615807533264
1776554602239877400,0.49187744140625,0.49139875173568726,1.0504868030548096,-0.4876365065574646
1776554602249918500,0.50191845703125,0.42240050435066223,1.332127332687378,-0.5047646164894104
1776554602259958500,0.51195849609375,0.23960460722446442,1.672399640083313,-0.46561935544013977
1776554602269999600,0.52199951171875,0.008947156369686127,1.9936602115631104,-0.3260939419269562
1776554602280039400,0.532039306640625,-0.13369175791740417,2.1130824089050293,-0.09380212426185608
1776554602290080500,0.54208056640625,-0.11513005197048187,1.9914367198944092,0.09114695340394974
1776554602300120600,0.55212060546875,0.0028535770252346992,1.3372632265090942,0.011379687115550041
1776554602310161700,0.56216162109375,0.0194860827177763,0.9279769062995911,-0.00019121496006846428
1776554602320202500,0.572202392578125,0.14553935825824738,0.5003238320350647,-0.2101771980524063
1776554602330242600,0.58224267578125,0.05561346188187599,0.6082206964492798,-0.35417965054512024
1776554602340283600,0.59228369140625,-0.038483742624521255,0.6044965386390686,-0.5980517268180847
1776554602350323700,0.60232373046875,-0.1036749929189682,0.46646809577941895,-0.837803304195404
1776554602360364800,0.61236474609375,-0.12939368188381195,0.48094743490219116,-0.9846444129943848
1776554602370404600,0.622404541015625,-0.14902277290821075,0.5885916352272034,-0.9986598491668701
1776554602380445400,0.632445556640625,-0.15356425940990448,0.6586213111877441,-0.8496226668357849
1776554602390485500,0.642485595703125,-0.07810545712709427,0.5708706974983215,-0.5390514731407166
1776554602400526600,0.652526611328125,0.020615529268980026,0.5711250305175781,-0.18564176559448242
1776554602410566700,0.662566650390625,0.15384069085121155,0.7172577381134033,0.14092490077018738
1776554602420607500,0.672607421875,0.2268291562795639,0.8331416845321655,0.39316698908805847
1776554602430648600,0.682648681640625,0.2388133704662323,1.2325383424758911,0.5708536505699158
1776554602440688600,0.692688720703125,0.19734103977680206,1.5290374755859375,0.6992696523666382
1776554602450729700,0.702729736328125,0.17800702154636383,1.5622323751449585,0.8430297374725342
1776554602460769500,0.71276953125,0.2610417306423187,1.5060678720474243,1.0220266580581665
1776554602470810600,0.722810546875,0.34161990880966187,1.65425443649292,1.04494047164917
1776554602480850400,0.732850341796875,0.31732550263404846,1.6392600536346436,0.7807615995407104
1776554602490891500,0.7428916015625,0.24503186345100403,1.536798119544983,0.40345850586891174
1776554602500931600,0.752931640625,0.21182677149772644,1.3016116619110107,0.13436393439769745
1776554602510972400,0.762972412109375,0.3837769627571106,0.9449121952056885,0.016094813123345375
1776554602521012500,0.773012451171875,0.7083627581596375,0.6747635006904602,0.02412184700369835
1776554602531053600,0.783053466796875,0.995171070098877,0.36571165919303894,0.01258024014532566
1776554602541094700,0.7930947265625,1.1624796390533447,0.12302152812480927,0.06867147237062454
1776554602551134500,0.803134521484375,1.2323613166809082,-0.06921795010566711,0.23992498219013214
1776554602561175600,0.813175537109375,1.2226204872131348,-0.32838907837867737,0.47141891717910767
1776554602571215600,0.823215576171875,1.212949275970459,-0.6217367649078369,0.7098301649093628
1776554602581256700,0.833256591796875,1.2752623558044434,-0.8272066116333008,0.9553642868995667
1776554602591296800,0.843296875,1.330849528312683,-1.0003349781036377,1.1508818864822388
1776554602601337600,0.853337646484375,1.283941626548767,-1.1317609548568726,1.2677373886108398
1776554602611377400,0.86337744140625,1.1382797956466675,-1.0143336057662964,1.258166790008545
1776554602621418500,0.87341845703125,0.8673310875892639,-0.9171737432479858,1.1120185852050781
1776554602631458600,0.88345849609375,0.5993664860725403,-0.8733285665512085,0.7604368925094604
1776554602641499400,0.89349951171875,0.42082685232162476,-0.7891737222671509,0.28585517406463623
1776554602651540500,0.90354052734375,0.2910802960395813,-0.844448983669281,-0.19818472862243652
1776554602661580500,0.91358056640625,0.13096600770950317,-1.4026645421981812,-0.49594423174858093
1776554602671621600,0.92362158203125,-0.09258106350898743,-2.0500659942626953,-0.4562740623950958
1776554602681661700,0.93366162109375,0.08263789117336273,-1.9961609840393066,-0.11494016647338867
1776554602691702500,0.94370263671875,0.4786515235900879,-1.4227714538574219,0.33957114815711975
1776554602701742600,0.95374267578125,0.7804428339004517,-0.752924382686615,0.5716115832328796
1776554602711783700,0.96378369140625,0.7722333669662476,-0.8160383701324463,0.5360461473464966
1776554602721823500,0.973823486328125,0.536017119884491,-0.9455819725990295,0.5860720276832581
1776554602731864600,0.983864501953125,0.3157672882080078,-1.1513851881027222,0.8079167604446411
1776554602741904400,0.993904296875,0.21424464881420135,-1.443008542060852,1.047834038734436
1776554602751945500,1.003945556640625,0.24690991640090942,-1.0745679140090942,1.2600480318069458
1776554602761986600,1.013986572265625,0.20328973233699799,-0.6951851844787598,1.22999906539917
1776554602772026600,1.024026611328125,0.052148155868053436,-0.420322984457016,1.0957943201065063
1776554602782067500,1.0340673828125,-0.04477492719888687,0.1438751518726349,0.721693754196167
1776554602792107500,1.044107421875,-0.1101326271891594,0.6049551367759705,0.20907652378082275
1776554602802148600,1.054148681640625,-0.2696029841899872,0.7530596852302551,-0.12444738298654556
1776554602812188700,1.064188720703125,-0.4540753662586212,0.9568372964859009,-0.16721536219120026
1776554602822229500,1.0742294921875,-0.612912654876709,1.165209412574768,-0.015060442499816418
1776554602832269600,1.08426953125,-0.7618478536605835,1.2534972429275513,0.1979471743106842
1776554602842310700,1.094310546875,-0.8351585268974304,1.5154832601547241,0.36903688311576843
1776554602852350500,1.1043505859375,-0.9072287082672119,1.8586134910583496,0.5944236516952515
1776554602862391600,1.1143916015625,-0.8801502585411072,2.5053999423980713,0.8371297717094421
1776554602872432400,1.124432373046875,-0.8950463533401489,3.0506701469421387,0.9715230464935303
1776554602882472400,1.134472412109375,-1.0338563919067383,3.6335246562957764,1.0043445825576782
1776554602892513500,1.144513427734375,-1.1209594011306763,3.9601428508758545,0.9990696907043457
1776554602902553600,1.1545537109375,-1.058064579963684,4.147373676300049,0.9331985116004944
1776554602912594400,1.164594482421875,-0.6876670718193054,4.462154865264893,0.8041526675224304
1776554602922634500,1.174634521484375,-0.2514532804489136,4.833152770996094,0.6447851061820984
1776554602932675600,1.184675537109375,-0.03075631521642208,5.078051567077637,0.4291234016418457
1776554602942715600,1.194715576171875,-0.18019454181194305,5.222359657287598,0.1289827525615692
1776554602952756700,1.2047568359375,-0.6977985501289368,5.232722759246826,-0.14777667820453644
1776554602962797300,1.21479736328125,-1.1309547424316406,5.287509441375732,-0.13616237044334412
1776554602972837400,1.22483740234375,-1.395203948020935,5.136877536773682,0.10625267028808594
1776554602982878500,1.23487841796875,-1.6458865404129028,4.754005432128906,0.4582091271877289
1776554602992918300,1.244918212890625,-2.0342891216278076,4.33585786819458,0.7617902755737305
1776554603002959400,1.25495947265625,-2.6713321208953857,3.891287326812744,0.8999124765396118
1776554603012999400,1.26499951171875,-3.4845778942108154,3.337672472000122,0.8541966676712036
1776554603023040300,1.275040283203125,-4.2849812507629395,2.6209888458251953,0.6317657232284546
1776554603033080300,1.285080322265625,-4.797011375427246,1.7337948083877563,0.30624648928642273
1776554603043121400,1.295121337890625,-4.903226852416992,0.73992520570755,0.01906423829495907
1776554603053161500,1.305161376953125,-4.703435897827148,-0.2905578017234802,-0.1284535825252533
1776554603063202300,1.315202392578125,-4.33477783203125,-1.424055814743042,-0.1270999014377594
1776554603073243400,1.325243408203125,-3.878157138824463,-2.681231737136841,-0.0308146383613348
1776554603083283500,1.335283447265625,-3.6184310913085938,-3.6815950870513916,-0.008518652990460396
1776554603093324500,1.345324462890625,-3.516371011734009,-4.232639312744141,-0.26115837693214417
1776554603103364400,1.3553642578125,-3.502340078353882,-4.257119655609131,-0.8432827591896057
1776554603113405400,1.365405517578125,-3.4689090251922607,-3.6476824283599854,-1.5724722146987915
1776554603123445200,1.3754453125,-3.249457836151123,-2.6144001483917236,-2.3520374298095703
1776554603133486300,1.385486328125,-3.1994266510009766,-1.3602888584136963,-2.772627592086792
1776554603143526400,1.3955263671875,-2.98339581489563,0.03780170902609825,-2.817655324935913
1776554603153567200,1.405567138671875,-2.725149631500244,1.1882119178771973,-2.647268056869507
1776554603163607300,1.415607177734375,-2.527606248855591,2.170053243637085,-2.4044206142425537
1776554603173648400,1.4256484375,-2.389397382736206,2.786543369293213,-2.140501022338867
1776554603183689500,1.435689453125,-2.1468074321746826,3.0679032802581787,-1.8932116031646729
1776554603193729300,1.445729248046875,-1.8798761367797852,3.099912643432617,-1.7557892799377441
1776554603203770400,1.455770263671875,-1.6988892555236816,2.976412296295166,-1.8036420345306396
1776554603213810400,1.465810546875,-1.6110066175460815,2.8652195930480957,-1.9622207880020142
1776554603223851500,1.4758515625,-1.4064260721206665,2.7308175563812256,-2.194277286529541
1776554603233891300,1.485891357421875,-1.0632774829864502,2.5351691246032715,-2.3654041290283203
1776554603243932200,1.49593212890625,-0.6880508065223694,2.2072360515594482,-2.3730850219726562
1776554603253972200,1.50597216796875,-0.2997712790966034,1.8631144762039185,-2.23952054977417
1776554603264013300,1.516013427734375,0.06691378355026245,1.6741479635238647,-2.0222270488739014
1776554603274053400,1.526053466796875,0.336038738489151,1.5230426788330078,-1.7730060815811157
1776554603284094200,1.53609423828125,0.5056016445159912,1.4843847751617432,-1.555610179901123
1776554603294135300,1.54613525390625,0.5255228877067566,1.5614451169967651,-1.3666791915893555
1776554603304175400,1.55617529296875,0.43294423818588257,1.6245574951171875,-1.2131739854812622
1776554603314216400,1.566216552734375,0.30203601717948914,1.7194931507110596,-1.0883026123046875
1776554603324256500,1.576256591796875,0.19448532164096832,1.7558335065841675,-0.9865618944168091
1776554603334297300,1.58629736328125,0.25099998712539673,1.7119324207305908,-0.9270250797271729
1776554603344337400,1.59633740234375,0.4475836455821991,1.56916081905365,-0.8827915787696838
1776554603354378500,1.60637841796875,0.6221975088119507,1.3615286350250244,-0.7716445326805115
1776554603364418300,1.616418212890625,0.7451332807540894,1.241512656211853,-0.6263365745544434
1776554603374459400,1.62645947265625,0.7537353038787842,1.2140896320343018,-0.47626161575317383
1776554603384499200,1.636499267578125,0.6580868363380432,1.2989102602005005,-0.34586524963378906
1776554603394540300,1.646540283203125,0.5518146753311157,1.4935559034347534,-0.2702423930168152
1776554603404581400,1.656581298828125,0.47537505626678467,1.6632202863693237,-0.22274386882781982
1776554603414621400,1.666621337890625,0.33226290345191956,1.7272436618804932,-0.21312212944030762
1776554603424662300,1.676662353515625,0.2515302300453186,1.6654839515686035,-0.11144903302192688
1776554603434702300,1.686702392578125,0.36502671241760254,1.5341237783432007,0.025781262665987015
1776554603444743400,1.696743408203125,0.5572115778923035,1.3719865083694458,0.051361456513404846
1776554603454783500,1.706783447265625,0.7088333368301392,1.234613299369812,-0.06290919333696365
1776554603464824300,1.71682421875,0.7779479622840881,1.042922854423523,-0.24595198035240173
1776554603474864000,1.726864013671875,0.8102909922599792,0.7781450152397156,-0.46942129731178284
1776554603484905200,1.7369052734375,0.9228609204292297,0.41470396518707275,-0.7001445293426514
1776554603494946300,1.7469462890625,1.1253693103790283,-0.05515699461102486,-0.8489688634872437
1776554603504986400,1.756986328125,1.3091402053833008,-0.473105251789093,-0.8783938884735107
1776554603515027200,1.767027099609375,1.3804445266723633,-0.6806269884109497,-0.8307992219924927
1776554603525067300,1.7770673828125,1.297471046447754,-0.7461764812469482,-0.7749798893928528
1776554603535108400,1.7871083984375,1.166771650314331,-0.770488977432251,-0.770254909992218
1776554603545148400,1.7971484375,1.1751067638397217,-0.8934564590454102,-0.7859768867492676
1776554603555189200,1.807189208984375,1.3212834596633911,-1.0972540378570557,-0.7689267992973328
1776554603565229300,1.817229248046875,1.496269941329956,-1.3419623374938965,-0.6755816340446472
1776554603575270400,1.8272705078125,1.6134034395217896,-1.6050877571105957,-0.5083343386650085
1776554603585311500,1.8373115234375,1.6209499835968018,-1.726699948310852,-0.32644495368003845
1776554603595351600,1.8473515625,1.5304539203643799,-1.8034868240356445,-0.18948496878147125
1776554603605392400,1.857392333984375,1.3989661931991577,-1.8883745670318604,-0.12831562757492065
1776554603615432200,1.86743212890625,1.286863088607788,-1.9610204696655273,-0.11174304038286209
1776554603625473300,1.877473388671875,1.2769479751586914,-2.1147642135620117,-0.08760707825422287
1776554603635513300,1.887513427734375,1.35551917552948,-2.275162935256958,0.009208411909639835
1776554603645554400,1.897554443359375,1.457292079925537,-2.486677408218384,0.15234586596488953
1776554603655594200,1.90759423828125,1.6274540424346924,-2.580604314804077,0.26838964223861694
1776554603665635300,1.91763525390625,1.8700940608978271,-2.4607248306274414,0.34911617636680603
1776554603675675400,1.92767529296875,2.041297435760498,-2.305476665496826,0.3483901917934418
1776554603685716500,1.937716552734375,2.0370192527770996,-2.0384292602539062,0.2915783226490021
1776554603695757300,1.94775732421875,1.9467225074768066,-1.650665283203125,0.14903715252876282
1776554603705797400,1.95779736328125,1.9498724937438965,-1.3384405374526978,-0.032761674374341965
1776554603715838500,1.96783837890625,2.1270694732666016,-1.30622136592865,-0.204223170876503
1776554603725878300,1.977878173828125,2.275693416595459,-1.6094204187393188,-0.31881898641586304
1776554603735919400,1.98791943359375,2.3516321182250977,-1.9636013507843018,-0.5175515413284302
1776554603745959200,1.997959228515625,2.5257601737976074,-1.9994920492172241,-0.6398292183876038
1776554603756000300,2.008000244140625,2.670212507247925,-1.9530928134918213,-0.7031653523445129
1776554603766040300,2.018040283203125,2.820844888687134,-1.805471658706665,-0.6104002594947815
1776554603776081400,2.028081298828125,3.017526149749756,-1.8196558952331543,-0.5058383941650391
1776554603786122200,2.038122314453125,3.128478765487671,-1.9273725748062134,-0.432729572057724
1776554603796162300,2.048162353515625,3.1607003211975098,-1.849041223526001,-0.6956267356872559
1776554603806203400,2.058203369140625,3.1183724403381348,-1.7595540285110474,-1.0307269096374512
1776554603816243500,2.068243408203125,3.0074336528778076,-1.8014907836914062,-0.9931167364120483
1776554603826284300,2.0782841796875,2.846047878265381,-1.8005053997039795,-0.7152385115623474
1776554603836324400,2.088324462890625,2.816080093383789,-1.779928207397461,-0.4744962155818939
1776554603846365400,2.098365478515625,2.8612639904022217,-1.619112491607666,-0.3418622612953186
1776554603856405200,2.1084052734375,2.7964425086975098,-1.5590429306030273,-0.30011188983917236
1776554603866446300,2.1184462890625,2.697392463684082,-1.4125728607177734,-0.2935144305229187
1776554603876487200,2.128487060546875,2.5204179286956787,-1.1057790517807007,-0.38927051424980164
1776554603886527200,2.13852734375,2.173539161682129,-0.9871435165405273,-0.4141567051410675
1776554603896568300,2.148568359375,1.5995811223983765,-1.1570146083831787,-0.34204867482185364
1776554603906608400,2.1586083984375,1.1353665590286255,-1.3432281017303467,-0.08780202269554138
1776554603916649200,2.168649169921875,0.9435803294181824,-1.4426261186599731,0.23528628051280975
1776554603926689300,2.178689208984375,0.8135291337966919,-1.1903696060180664,0.6254500150680542
1776554603936730400,2.18873046875,0.3649713099002838,-1.05352783203125,1.1243003606796265
1776554603946770400,2.1987705078125,-0.5641986727714539,-0.4926219582557678,1.5391513109207153
1776554603956811500,2.2088115234375,-1.3956003189086914,0.08786407858133316,1.771105170249939
1776554603966852900,2.218852783203125,-2.134772777557373,0.8196290731430054,1.9442039728164673
1776554603976892700,2.228892578125,-3.653109550476074,0.2821451425552368,2.4204750061035156
1776554603986933800,2.238933837890625,-4.421141624450684,0.5038756728172302,2.44620418548584
1776554603996973800,2.248973876953125,-4.52547025680542,-0.27618950605392456,2.301284074783325
1776554604007014700,2.2590146484375,-4.406002998352051,-0.5737106800079346,1.9757294654846191
1776554604017054700,2.2690546875,-3.985295534133911,-0.5027446150779724,1.6800434589385986
1776554604027095800,2.279095703125,-3.458967447280884,-0.3988957107067108,1.3893210887908936
1776554604037136000,2.289135986328125,-3.1169824600219727,-0.4156627058982849,1.1011438369750977
1776554604047177000,2.299177001953125,-3.014453411102295,-0.6314048767089844,0.8837433457374573
1776554604057217800,2.3092177734375,-3.143298864364624,-1.1346099376678467,0.872402548789978
1776554604067257900,2.3192578125,-3.2179369926452637,-1.7388050556182861,0.9987466335296631
1776554604077299000,2.329298828125,-3.0896620750427246,-0.7314699292182922,1.2673035860061646
1776554604087339000,2.339339111328125,-2.7298688888549805,-0.45974281430244446,1.714316487312317
1776554604097379800,2.3493798828125,-2.381983757019043,0.22089429199695587,1.9667001962661743
1776554604107419600,2.359419677734375,-2.183558702468872,1.1092784404754639,1.8378483057022095
1776554604117460700,2.369460693359375,-2.2298195362091064,1.520359754562378,1.416487455368042
1776554604127500800,2.379500732421875,-2.133629083633423,1.4554990530014038,0.9392332434654236
1776554604137542000,2.3895419921875,-1.6094462871551514,0.9559792280197144,0.6951026320457458
1776554604147582700,2.399582763671875,-0.8686504364013672,0.4111079275608063,0.6482352614402771
1776554604157622800,2.409622802734375,-0.41519081592559814,0.042330145835876465,0.7584256529808044
1776554604167663900,2.419663818359375,-0.3080984354019165,0.028376514092087746,0.7615516781806946
1776554604177704000,2.429703857421875,-0.34901630878448486,0.24403662979602814,0.5976932644844055
1776554604187744800,2.439744873046875,-0.4423113763332367,0.450884073972702,0.4659445285797119
1776554604197784800,2.449784912109375,-0.21623429656028748,0.4594959616661072,0.6331723928451538
1776554604207826000,2.459825927734375,0.41819486021995544,0.369248628616333,0.9947242140769958
1776554604217865700,2.46986572265625,1.3305189609527588,0.31457364559173584,1.2732213735580444
1776554604227906800,2.47990673828125,2.2593889236450195,0.5213335156440735,1.1422431468963623
1776554604237947600,2.48994775390625,2.90114688873291,0.7401283979415894,0.8685697317123413
1776554604247987700,2.49998779296875,3.241826057434082,0.9571917653083801,0.8273240327835083
1776554604258028800,2.51002880859375,3.5912675857543945,1.2430330514907837,1.3236219882965088
1776554604268068900,2.52006884765625,3.9579994678497314,1.3278076648712158,1.9809074401855469
1776554604278109700,2.530109619140625,3.803223133087158,1.30703604221344,1.9344751834869385
1776554604288149800,2.540149658203125,3.814176321029663,1.5458531379699707,1.100876808166504
1776554604298190800,2.55019091796875,4.006814002990723,1.23641037940979,0.16745157539844513
1776554604308231000,2.56023095703125,3.898475408554077,0.6190427541732788,-0.5462971329689026
1776554604318272000,2.57027197265625,3.371241331100464,0.29169949889183044,-0.4564032256603241
1776554604328312800,2.580312744140625,2.972048282623291,1.2243983745574951,-0.14517609775066376
1776554604338353000,2.590352783203125,2.390846014022827,0.9810031056404114,-0.28475716710090637
1776554604348394000,2.60039404296875,1.878641963005066,1.0072991847991943,-0.963113009929657
1776554604358433800,2.610433837890625,1.703715443611145,0.8319076299667358,-1.4686204195022583
1776554604368474600,2.620474609375,1.4006527662277222,0.49186375737190247,-1.712751030921936
1776554604378514700,2.6305146484375,1.298890471458435,-0.522491991519928,-1.6854605674743652
1776554604388555800,2.6405556640625,1.3420896530151367,-1.326170563697815,-1.0795928239822388
1776554604398596900,2.650596923828125,1.1346275806427002,-1.0493078231811523,-1.087955355644226
1776554604408637000,2.660636962890625,0.8961536884307861,-2.1360883712768555,-1.4572255611419678
1776554604418677800,2.670677734375,0.8004192113876343,-2.3353312015533447,-1.871810793876648
1776554604428717800,2.6807177734375,0.28486448526382446,-2.2682135105133057,-2.044517755508423
1776554604438759000,2.690759033203125,-0.26877421140670776,-2.1319310665130615,-2.022359848022461
1776554604448799000,2.700799072265625,-0.7194265723228455,-1.524771809577942,-1.7662140130996704
1776554604458839800,2.71083984375,-1.342300295829773,-0.9859536290168762,-1.3040567636489868
1776554604468879600,2.720879638671875,-1.8517014980316162,-0.5697361826896667,-0.8422473073005676
1776554604478920700,2.730920654296875,-1.9220768213272095,-0.6759547591209412,-0.19175691902637482
1776554604488961800,2.7409619140625,-1.8271926641464233,-1.0753793716430664,1.0824306011199951
1776554604499001900,2.751001953125,-1.9189878702163696,-1.3900235891342163,2.084200620651245
1776554604509042700,2.761042724609375,-2.00124454498291,-1.322211503982544,2.240246057510376
1776554604519082800,2.771082763671875,-2.1751909255981445,-1.3449525833129883,2.0750839710235596
1776554604529123800,2.781123779296875,-2.7367942333221436,-1.2574878931045532,1.7123949527740479
1776554604539164000,2.791163818359375,-3.0208637714385986,-1.000037431716919,1.1891347169876099
1776554604549204700,2.801204833984375,-3.196244716644287,-0.6814107894897461,0.5492745637893677
1776554604559245800,2.811245849609375,-3.1362361907958984,-0.5322098135948181,0.059838831424713135
1776554604569286000,2.821285888671875,-2.89070987701416,-0.8884677886962891,-0.10611871629953384
1776554604579327000,2.831326904296875,-2.901305913925171,-1.2578767538070679,-0.3079240024089813
1776554604589367000,2.841366943359375,-3.01023530960083,-1.5032631158828735,-0.9651455283164978
1776554604599407900,2.851407958984375,-3.178016424179077,-1.753397822380066,-1.9652701616287231
1776554604609447700,2.86144775390625,-3.026931047439575,-2.4323911666870117,-2.9114654064178467
1776554604619488800,2.87148876953125,-3.374744415283203,-2.8321077823638916,-3.7006428241729736
1776554604629529600,2.881529541015625,-3.87200665473938,-2.7887542247772217,-4.048411846160889
1776554604639569700,2.891569580078125,-4.507558822631836,-1.0271793603897095,-3.8805575370788574
1776554604649610800,2.90161083984375,-5.7205400466918945,1.1228395700454712,-3.682757616043091
1776554604659650800,2.91165087890625,-6.526815891265869,2.9038331508636475,-3.7620291709899902
1776554604669692000,2.92169189453125,-6.433590888977051,2.723228931427002,-4.30379056930542
1776554604679732000,2.93173193359375,-5.922737121582031,1.9694502353668213,-4.7485270500183105
1776554604689772800,2.941772705078125,-3.8080968856811523,0.9274879097938538,-4.54487943649292
1776554604699812900,2.951812744140625,-1.7689785957336426,-0.42715558409690857,-4.001358509063721
1776554604709854000,2.96185400390625,-1.6285738945007324,-0.3934684693813324,-3.1645309925079346
1776554604719894800,2.971894775390625,-2.8372690677642822,0.4049046039581299,-2.824281692504883
1776554604729934600,2.9819345703125,-2.499751091003418,0.13118119537830353,-2.484586238861084
1776554604739976000,2.991975830078125,-1.1034655570983887,-0.46040329337120056,-1.7798064947128296
1776554604750015700,3.002015625,-0.2563369870185852,-1.0458076000213623,-0.8476356863975525
1776554604760056800,3.012056884765625,-0.14287592470645905,-1.1945641040802002,-0.16500680148601532
1776554604770097000,3.022096923828125,0.009429986588656902,-1.4855623245239258,0.12382420897483826
1776554604780137700,3.0321376953125,0.44339555501937866,-1.7177218198776245,0.3978874385356903
1776554604790178800,3.0421787109375,1.1483705043792725,-1.510319709777832,0.9043072462081909
1776554604800219000,3.052218994140625,1.8926854133605957,-0.7047885060310364,1.554121971130371
1776554604810259700,3.062259765625,2.4121813774108887,0.7187458872795105,2.188276767730713
1776554604820299800,3.0722998046875,2.678833246231079,2.009883165359497,2.773263454437256
1776554604830340900,3.0823408203125,2.657622814178467,3.2721314430236816,2.9506754875183105
1776554604840381000,3.092380859375,2.969754219055176,3.655787944793701,2.9436745643615723
1776554604850422000,3.102422119140625,3.4910941123962402,3.1762781143188477,3.036050319671631
1776554604860461800,3.1124619140625,4.070518493652344,2.180072784423828,3.4314756393432617
1776554604870502700,3.122502685546875,4.751054286956787,1.2430455684661865,3.762627601623535
1776554604880543700,3.132543701171875,5.591233253479004,0.30258864164352417,3.87088680267334
1776554604890583800,3.142583740234375,6.455869197845459,0.12426895648241043,3.838322401046753
1776554604900624600,3.152624755859375,6.790339469909668,0.9259161353111267,3.8998842239379883
1776554604910664700,3.162664794921875,6.678821086883545,1.6610854864120483,3.509092330932617
1776554604920705800,3.172705810546875,6.180638790130615,2.030829906463623,2.795076608657837
1776554604930745900,3.182745849609375,5.4253411293029785,1.7023946046829224,1.9064923524856567
1776554604940787000,3.192786865234375,4.5630292892456055,1.2281996011734009,1.277351975440979
1776554604950827800,3.202827880859375,3.809107542037964,0.5439010858535767,0.9913358688354492
1776554604960866800,3.21286669921875,3.23712158203125,-0.3216424882411957,0.9954443573951721
1776554604970908000,3.222907958984375,2.974888324737549,-1.2310198545455933,0.37769803404808044
1776554604980948000,3.232947998046875,2.8376355171203613,-0.8445003628730774,0.11720145493745804
1776554604990989000,3.242989013671875,2.526148557662964,-0.2948833107948303,0.3298572599887848
1776554605001029000,3.253029052734375,2.2453041076660156,0.5983672738075256,0.7480459809303284
1776554605011070000,3.263070068359375,1.586564302444458,1.4730548858642578,1.0464606285095215
1776554605021111000,3.273111083984375,0.8193342685699463,1.6362382173538208,0.8936218619346619
1776554605031151000,3.283151123046875,0.3339449465274811,1.1406196355819702,0.11227594316005707
1776554605041192000,3.29319189453125,0.27193084359169006,-0.1366148293018341,-0.784986674785614
1776554605051231700,3.303231689453125,0.4626387357711792,-1.095339298248291,-1.6516687870025635
1776554605061272800,3.31327294921875,0.5932018160820007,-1.844155192375183,-2.179731845855713
1776554605071313000,3.32331298828125,0.4086322486400604,-2.1765711307525635,-2.415255069732666
1776554605081354000,3.33335400390625,-0.1620941013097763,-2.003777027130127,-2.4480464458465576
1776554605091394800,3.343394775390625,-0.7014976739883423,-1.5232535600662231,-2.230801820755005
1776554605101435000,3.353434814453125,-1.6885969638824463,-0.4809700846672058,-1.5295681953430176
1776554605111476000,3.36347607421875,-2.511789083480835,0.2727777361869812,-0.417481392621994
1776554605121516000,3.37351611328125,-3.217357873916626,0.614849328994751,0.24110129475593567
1776554605131556900,3.383556884765625,-4.002130031585693,0.41204801201820374,0.14337819814682007
1776554605141597000,3.393596923828125,-4.669239044189453,-0.10255460441112518,-0.6486280560493469
1776554605151638000,3.403637939453125,-4.918495178222656,-0.705778181552887,-1.7661460638046265
1776554605161678000,3.413677978515625,-4.611217975616455,-1.5392948389053345,-2.5278403759002686
1776554605171719200,3.42371923828125,-4.224794864654541,-1.7531381845474243,-2.8161299228668213
1776554605181760000,3.433760009765625,-4.000376224517822,-1.1061229705810547,-3.1120431423187256
1776554605191799800,3.4437998046875,-4.538856506347656,0.019293803721666336,-3.08681583404541
1776554605201841000,3.4538408203125,-5.655045032501221,1.0552512407302856,-2.6801071166992188
1776554605211881000,3.463880859375,-6.547357082366943,2.1447622776031494,-2.025620222091675
1776554605221922000,3.473922119140625,-6.625714302062988,3.2646050453186035,-1.46207594871521
1776554605231961900,3.4839619140625,-6.1538543701171875,3.9917075634002686,-1.4236361980438232
1776554605242003000,3.4940029296875,-5.332279205322266,4.074991226196289,-2.000859498977661
1776554605252044000,3.5040439453125,-4.481549263000488,3.8715262413024902,-2.672555923461914
1776554605262084000,3.514083984375,-3.9576642513275146,3.753124713897705,-2.688019275665283
1776554605272125000,3.524125,-3.2338340282440186,3.6682381629943848,-2.3398783206939697
1776554605282165000,3.5341650390625,-2.508902072906494,3.701261281967163,-1.8457064628601074
1776554605292206000,3.5442060546875,-2.3320841789245605,3.3052005767822266,-1.4730242490768433
1776554605302246100,3.55424609375,-3.2862610816955566,2.455867290496826,-1.3190224170684814
1776554605312287000,3.564286865234375,-3.143739700317383,1.1786972284317017,-1.0930076837539673
1776554605322328000,3.574328125,-1.4421736001968384,-0.4677240550518036,-0.728641927242279
1776554605332368000,3.584367919921875,-0.3354698717594147,-1.4416553974151611,-0.3491992652416229
1776554605342409000,3.594408935546875,-0.041666220873594284,-1.5727412700653076,-0.1658153384923935
1776554605352449000,3.604448974609375,0.0667438730597496,-1.4548918008804321,-0.02142672799527645
1776554605362489900,3.61448974609375,-0.10267950594425201,-1.3963065147399902,0.09087531268596649
1776554605372530000,3.624530029296875,-0.2058224081993103,-1.411489725112915,0.17989332973957062
1776554605382571000,3.634571044921875,-0.136660635471344,-1.4268689155578613,0.19040802121162415
1776554605392612000,3.644612060546875,0.0734768807888031,-1.2390868663787842,0.12846049666404724
1776554605402652000,3.65465185546875,0.26700931787490845,-0.7901577353477478,0.13823243975639343
1776554605412693000,3.66469287109375,0.3796192407608032,-0.24810966849327087,0.3008216321468353
1776554605422733000,3.674733154296875,0.15331338346004486,0.3411192297935486,0.3848899006843567
1776554605432774100,3.684774169921875,-0.18865273892879486,0.6957401633262634,0.39333051443099976
1776554605442814000,3.69481396484375,-0.4079611301422119,1.157020926475525,0.3909427225589752
1776554605452854800,3.704854736328125,-0.4183855354785919,1.5463165044784546,0.4629921615123749
1776554605462895900,3.714895751953125,-0.32268351316452026,1.635269284248352,0.6100513935089111
1776554605472936000,3.72493603515625,-0.14028121531009674,1.5056482553482056,0.759355902671814
1776554605482977000,3.73497705078125,-0.056282445788383484,1.2068990468978882,0.9024081230163574
1776554605493016800,3.745016845703125,0.049310293048620224,0.9215637445449829,0.9799713492393494
1776554605503058000,3.755057861328125,0.19653037190437317,0.9311844110488892,0.9424037337303162
1776554605513098000,3.765097900390625,0.28480562567710876,0.7782001495361328,0.8157352805137634
1776554605523139000,3.77513916015625,0.3378520607948303,0.5295637249946594,0.6816171407699585
1776554605533180000,3.785179931640625,0.2976471185684204,0.7199949026107788,0.44036513566970825
1776554605543220000,3.795219970703125,-0.025191372260451317,0.5964889526367188,0.5285173654556274
1776554605553261000,3.805260986328125,-0.1352483630180359,0.6160666346549988,0.5673470497131348
1776554605563301000,3.815301025390625,-0.21652351319789886,0.6626019477844238,0.2938728928565979
1776554605573342200,3.82534228515625,-0.32847321033477783,0.46258842945098877,-0.25597238540649414
1776554605583382000,3.835382080078125,-0.3564510643482208,0.2648537755012512,-0.7945599555969238
1776554605593422800,3.8454228515625,-0.5102208852767944,0.1287662386894226,-1.1295377016067505
1776554605603464000,3.8554638671875,-0.6290469169616699,-0.25024154782295227,-1.3200932741165161
1776554605613504000,3.86550390625,-0.6382153630256653,-1.0069776773452759,-1.2599623203277588
1776554605623544800,3.875544921875,-0.6277413964271545,-1.5182572603225708,-0.8798924088478088
1776554605633585000,3.8855849609375,-0.6827594041824341,-1.7085717916488647,-0.3517971932888031
1776554605643626000,3.8956259765625,-0.47409459948539734,-1.2753750085830688,0.0521276481449604
1776554605653666000,3.905666015625,-0.3450543284416199,-0.9425520896911621,0.0699780210852623
1776554605663707100,3.91570703125,-0.3521804213523865,-0.7525752186775208,-0.24879464507102966
1776554605673748000,3.925748046875,-0.5528905987739563,-0.46653974056243896,-0.6996209621429443
1776554605683788000,3.9357880859375,-0.8710827231407166,-0.12936198711395264,-1.1280364990234375
1776554605693829000,3.9458291015625,-1.1399815082550049,0.10365262627601624,-1.3015581369400024
1776554605703869000,3.955868896484375,-1.3661433458328247,0.1975540816783905,-1.0773829221725464
1776554605713909800,3.96590966796875,-1.3471869230270386,-0.01095517911016941,-0.7034638524055481
1776554605723949800,3.97594970703125,-1.0588054656982422,-0.1813327670097351,-0.24199531972408295
1776554605733991000,3.985990966796875,-0.6437254548072815,-0.4215531051158905,0.18798455595970154
1776554605744032000,3.996031982421875,-0.25769731402397156,-0.40547239780426025,0.5257501006126404
1776554605754072000,4.006072021484375,0.10040570050477982,-0.3130716383457184,0.6182632446289062
1776554605764113000,4.01611279296875,0.16599109768867493,-0.11504349857568741,0.5512871146202087
1776554605774153000,4.026153076171875,0.07889001816511154,0.007066165097057819,0.41554659605026245
1776554605784194000,4.036194091796875,-0.05387308448553085,-0.0025939189363271,0.3197830617427826
1776554605794234000,4.046234130859375,-0.2037278264760971,-0.1144046038389206,0.37747031450271606
1776554605804275000,4.05627490234375,-0.27505767345428467,-0.2595876157283783,0.5173238515853882
1776554605814316000,4.06631591796875,-0.37766551971435547,-0.24303634464740753,0.5860980749130249
1776554605824356000,4.076356201171875,-0.5805914998054504,-0.3865799307823181,0.531915545463562
1776554605834397200,4.086397216796875,-0.5780225992202759,-0.38719645142555237,0.3990882635116577
1776554605844437000,4.09643701171875,-0.44823503494262695,-0.631060779094696,0.15534138679504395
1776554605854477800,4.106477783203125,-0.2630113959312439,-0.8254368901252747,-0.03843420743942261
1776554605864519000,4.116518798828125,-0.08246292173862457,-0.9621103405952454,-0.11493989825248718
1776554605874559000,4.12655908203125,0.014525679871439934,-1.0591408014297485,-0.10020116716623306
1776554605884599800,4.136599853515625,-0.016762202605605125,-1.422080397605896,-0.1704425811767578
1776554605894639900,4.146639892578125,-0.04728389158844948,-1.8088208436965942,-0.2651464343070984
1776554605904681000,4.156680908203125,0.011414308100938797,-2.292257308959961,-0.3871527910232544
1776554605914721000,4.166720947265625,0.16049566864967346,-2.7999606132507324,-0.5116100311279297
1776554605924762000,4.17676220703125,0.36468422412872314,-2.9228572845458984,-0.5471051335334778
1776554605934803000,4.186802978515625,0.31132620573043823,-2.6398086547851562,-0.589451014995575
1776554605944843000,4.196843017578125,0.2138555645942688,-2.212210178375244,-0.5940428376197815
1776554605954884000,4.206884033203125,-0.009339706040918827,-2.002443790435791,-0.6125115752220154
1776554605964924200,4.216924072265625,-0.0633816346526146,-0.8802735209465027,-0.34671080112457275
1776554605974965000,4.226965087890625,0.15734568238258362,-0.14926324784755707,-0.20625703036785126
1776554605985005000,4.237005126953125,0.3539905548095703,0.485100120306015,-0.18971534073352814
1776554605995046100,4.247046142578125,0.1884053349494934,0.3347034156322479,-0.30377399921417236
1776554606005087200,4.257087158203125,0.15868231654167175,0.8469813466072083,-0.5896313190460205
1776554606015127300,4.267127197265625,0.3552584946155548,1.4625606536865234,-0.34930527210235596
1776554606025168100,4.277168212890625,0.44909682869911194,2.042623519897461,-0.2966018319129944
1776554606035208000,4.2872080078125,0.4209693372249603,2.376291275024414,-0.28040608763694763
1776554606045249000,4.2972490234375,0.08269248157739639,2.223761558532715,-0.27525022625923157
1776554606055289900,4.307289794921875,-0.18447797000408173,1.471195101737976,-0.6297345161437988
1776554606065330000,4.317329833984375,-0.27734798192977905,1.379805564880371,-0.4705677926540375
1776554606075371000,4.32737109375,-0.2988373041152954,1.0331575870513916,-0.4517211318016052
1776554606085411000,4.3374111328125,-0.29987940192222595,0.972974419593811,-0.3898945152759552
1776554606095452200,4.3474521484375,-0.2599759101867676,1.1369096040725708,-0.15109950304031372
1776554606105493000,4.357492919921875,-0.26532942056655884,1.4691517353057861,0.002778742229565978
1776554606115533000,4.367532958984375,-0.25578436255455017,1.9378180503845215,0.10296233743429184
1776554606125574100,4.37757421875,-0.22292868793010712,2.2989377975463867,0.09790419042110443
1776554606135614200,4.3876142578125,0.010973821394145489,2.422694444656372,0.01005156897008419
1776554606145655000,4.397655029296875,0.08672583848237991,2.3871824741363525,-0.08635859191417694
1776554606155695000,4.407695068359375,-0.038546591997146606,1.8904342651367188,-0.24640658497810364
1776554606165736200,4.417736083984375,-0.2917676568031311,1.1418875455856323,-0.40900880098342896
1776554606175777300,4.42777734375,-0.5623789429664612,0.6257919669151306,-0.38613277673721313
1776554606185817000,4.437817138671875,-0.6822707056999207,0.41714397072792053,-0.25256380438804626
1776554606195858000,4.44785791015625,-0.6086516380310059,0.3070089519023895,-0.17196643352508545
1776554606205898000,4.45789794921875,-0.3206866681575775,0.19139473140239716,-0.14173662662506104
1776554606215939000,4.46793896484375,-0.02214232087135315,0.13494130969047546,-0.11987607181072235
1776554606225979100,4.477979248046875,0.14141730964183807,0.20997506380081177,-0.09053975343704224
1776554606236020000,4.48802001953125,0.20781631767749786,0.41606244444847107,0.006515157409012318
1776554606246061000,4.49806103515625,0.17032966017723083,0.4705533981323242,0.05822575464844704
1776554606256101000,4.50810107421875,0.10608675330877304,0.3738263249397278,0.060206882655620575
1776554606266142200,4.51814208984375,0.03093288280069828,0.23640108108520508,0.055388424545526505
1776554606276182300,4.528182373046875,0.024451280012726784,0.1919928789138794,0.08900337666273117
1776554606286223000,4.53822314453125,0.13389548659324646,0.28507915139198303,0.16721801459789276
1776554606296264200,4.54826416015625,0.3037108778953552,0.6271874904632568,0.34995588660240173
1776554606306304300,4.55830419921875,0.44623446464538574,1.0689022541046143,0.5704246163368225
1776554606316345000,4.568344970703125,0.4523821175098419,1.3481470346450806,0.7131748199462891
1776554606326385000,4.578385009765625,0.4100533127784729,1.414198398590088,0.833473265171051
1776554606336426000,4.588426025390625,0.3175204396247864,1.2724820375442505,0.8323861956596375
1776554606346467000,4.598467041015625,0.2318449467420578,0.9278125762939453,0.6696776747703552
1776554606356507100,4.608507080078125,0.19009163975715637,0.7661752104759216,0.5124025940895081
1776554606366548000,4.6185478515625,0.08965372294187546,0.7334135174751282,0.37922802567481995
1776554606376588000,4.628588134765625,0.01619628071784973,0.6745296716690063,0.05626753345131874
1776554606386629000,4.638629150390625,0.002802444389089942,0.8532075881958008,-0.1030382364988327
1776554606396669200,4.648669189453125,-0.08460649847984314,0.9267443418502808,-0.1411273032426834
1776554606406710300,4.658710205078125,-0.17831380665302277,0.8928828239440918,-0.043538689613342285
1776554606416751000,4.668751220703125,-0.17641790211200714,0.9166621565818787,0.1991940587759018
1776554606426791200,4.678791259765625,-0.14976099133491516,0.8876497149467468,0.387631356716156
1776554606436832300,4.688832275390625,-0.1626128852367401,0.871720016002655,0.44083598256111145
1776554606446872000,4.6988720703125,-0.13245071470737457,0.9061384201049805,0.3103296458721161
1776554606456913000,4.708912841796875,0.0015811186749488115,1.1149049997329712,0.11491699516773224
1776554606466954000,4.7189541015625,0.30558815598487854,1.4799484014511108,-0.010301372967660427
1776554606476994000,4.728994140625,0.6221898198127747,1.6568577289581299,-0.10248589515686035
1776554606487035100,4.73903515625,0.7323357462882996,1.6096893548965454,-0.13255591690540314
1776554606497075200,4.7490751953125,0.6428452730178833,1.2697051763534546,-0.12130352109670639
1776554606507116000,4.759115966796875,0.49651095271110535,0.8507646322250366,-0.08763371407985687
1776554606517156000,4.769156005859375,0.28930744528770447,0.4961426556110382,-0.08399636298418045
1776554606527197200,4.779197265625,0.054795339703559875,0.39125537872314453,-0.17159944772720337
1776554606537238000,4.789238037109375,-0.058514442294836044,0.48134905099868774,-0.40432271361351013
1776554606547278000,4.799278076171875,-0.07796350866556168,0.7644745111465454,-0.7569012641906738
1776554606557319200,4.809319091796875,-0.11872372031211853,1.029393196105957,-1.182030200958252
1776554606567359200,4.819359130859375,-0.26474112272262573,0.6804181933403015,-1.6435829401016235
1776554606577400300,4.829400390625,-0.3521476686000824,0.27160701155662537,-1.8048969507217407
1776554606587441200,4.839441162109375,-0.3749818801879883,-0.1492970734834671,-1.6324210166931152
1776554606597481000,4.84948095703125,-0.33027884364128113,-0.5035470128059387,-1.2750948667526245
1776554606607522000,4.85952197265625,-0.26426202058792114,-1.0790997743606567,-1.0631482601165771
1776554606617562000,4.86956201171875,-0.2100246101617813,-1.611867070198059,-1.0428712368011475
1776554606627603000,4.87960302734375,-0.21590539813041687,-1.9205090999603271,-1.0363433361053467
1776554606637644000,4.88964404296875,-0.3290979862213135,-1.3635834455490112,-0.7010145783424377
1776554606647684000,4.89968408203125,-0.19482354819774628,-1.1868667602539062,-0.821145236492157
1776554606657725200,4.90972509765625,-0.05239609628915787,-1.069214940071106,-0.9375890493392944
1776554606667765200,4.91976513671875,0.4538673758506775,-0.8599339127540588,-0.8795685768127441
1776554606677806000,4.92980615234375,0.841910719871521,-0.257998526096344,-0.5754337310791016
1776554606687846100,4.93984619140625,1.0428845882415771,0.32569420337677,-0.20288200676441193
1776554606697887200,4.94988720703125,1.0138579607009888,0.7593713402748108,0.19542355835437775
1776554606707928000,4.959927978515625,0.8988733291625977,1.1427839994430542,0.6811545491218567
1776554606717968000,4.9699677734375,0.7420647740364075,1.4157979488372803,0.9787982702255249
1776554606728009000,4.980009033203125,0.803806483745575,1.1766966581344604,0.9518542289733887
1776554606738049000,4.990049072265625,0.9558103680610657,0.6092774271965027,0.5575117468833923
1776554606748090000,5.000090087890625,0.988070547580719,0.256430983543396,0.10066695511341095
1776554606758131000,5.010130859375,0.9571624398231506,0.21116603910923004,-0.3881288170814514
1776554606768171000,5.0201708984375,0.9557453989982605,0.40432724356651306,-0.7959730625152588
1776554606778212000,5.030212158203125,1.1442716121673584,0.7365975975990295,-0.846098780632019
1776554606788252200,5.040252197265625,1.2371283769607544,0.5415761470794678,-0.739927351474762
1776554606798293000,5.05029296875,1.0600265264511108,0.32210665941238403,-0.6086295247077942
1776554606808334000,5.060333984375,1.024526596069336,0.11511114239692688,-0.7624379992485046
1776554606818374100,5.0703740234375,1.1369130611419678,-0.16701509058475494,-0.8386321067810059
1776554606828415200,5.080415283203125,1.306800127029419,-0.5467365980148315,-0.8419468998908997
1776554606838455300,5.090455322265625,1.6703619956970215,-0.6753067970275879,-0.7337008714675903
1776554606848496000,5.10049609375,1.885623812675476,-0.9981319904327393,-0.3415256440639496
1776554606858536000,5.110535888671875,2.276414155960083,-1.4238699674606323,0.32494214177131653
1776554606868577000,5.120576904296875,2.3845977783203125,-1.893876075744629,0.7548868656158447
1776554606878618000,5.1306181640625,1.7913793325424194,-2.3653879165649414,0.6289832592010498
1776554606888658000,5.140657958984375,1.3769104480743408,-2.6267101764678955,0.08684621751308441
1776554606898699000,5.150698974609375,1.5993914604187012,-2.307614326477051,-0.04548013210296631
1776554606908739000,5.160739013671875,2.1830008029937744,-1.782920002937317,0.32876110076904297
1776554606918780200,5.1707802734375,2.1734330654144287,-1.2644520998001099,0.4540410041809082
1776554606928821000,5.180821044921875,1.9632070064544678,-0.9781678915023804,0.3691580593585968
1776554606938861000,5.190861083984375,1.6236257553100586,-0.8958791494369507,0.2919471561908722
1776554606948902100,5.200902099609375,1.050397276878357,-0.9786240458488464,0.19678309559822083
1776554606958942200,5.210942138671875,0.29968366026878357,-0.9492558240890503,0.10842474550008774
1776554606968983300,5.2209833984375,-0.053882937878370285,-0.3463805913925171,0.12555205821990967
1776554606979024400,5.2310244140625,-0.29589611291885376,-0.19684116542339325,0.038728486746549606
1776554606989064400,5.241064453125,-0.44892746210098267,-0.239524707198143,-0.0014508900931105018
1776554606999105500,5.25110546875,-0.47546160221099854,-0.047745686024427414,0.020833376795053482
1776554607009145600,5.2611455078125,-0.5666269063949585,0.08097873628139496,0.051178500056266785
1776554607019186400,5.2711865234375,-0.7131713628768921,0.28445783257484436,-0.0327928327023983
1776554607029226500,5.2812265625,-0.991878092288971,0.5844045877456665,-0.026191391050815582
1776554607039267600,5.291267578125,-1.204832673072815,1.1492607593536377,0.09393768012523651
1776554607049308400,5.301308349609375,-1.2753868103027344,1.5588682889938354,0.213152214884758
1776554607059348200,5.31134814453125,-1.206144094467163,1.6252890825271606,0.34725090861320496
1776554607069389300,5.321389404296875,-1.1101549863815308,1.426302194595337,0.4356103241443634
1776554607079429400,5.331429443359375,-1.0123423337936401,1.0990551710128784,0.4735180139541626
1776554607089470500,5.341470458984375,-0.9628493785858154,0.9237706661224365,0.4886849820613861
1776554607099511300,5.35151123046875,-0.8024085760116577,0.7286027669906616,0.4538620412349701
1776554607109551400,5.36155126953125,-0.5096358060836792,0.6457249522209167,0.40798696875572205
1776554607119592400,5.371592529296875,-0.26410967111587524,0.5478236675262451,0.33693090081214905
1776554607129632500,5.381632568359375,-0.09111712872982025,0.4381142258644104,0.3006138801574707
1776554607139673300,5.39167333984375,-0.012680108658969402,0.4591079354286194,0.26541996002197266
1776554607149714400,5.40171435546875,-0.12493713945150375,0.5403492450714111,0.19793066382408142
1776554607159754500,5.41175439453125,-0.4759015440940857,0.5466196537017822,0.005356415640562773
1776554607169795600,5.421795654296875,-1.0576893091201782,0.5186895132064819,-0.1252303570508957
1776554607179835400,5.43183544921875,-1.5063574314117432,0.4591662585735321,-0.11308527737855911
1776554607189876200,5.441876220703125,-1.7527210712432861,0.38733628392219543,-0.06497687101364136
1776554607199916300,5.451916259765625,-1.9272042512893677,0.3218821585178375,-0.041967157274484634
1776554607209957400,5.461957275390625,-2.0683889389038086,0.2935573160648346,-0.10797999799251556
1776554607219998500,5.47199853515625,-2.195934534072876,0.2674282491207123,-0.23811376094818115
1776554607230038500,5.48203857421875,-2.333158016204834,0.23924347758293152,-0.3899956941604614
1776554607240079400,5.492079345703125,-2.498750925064087,0.2664721608161926,-0.4968758225440979
1776554607250119400,5.502119384765625,-2.662687301635742,0.24960264563560486,-0.5760204195976257
1776554607260160500,5.512160400390625,-2.822937250137329,0.358863890171051,-0.5908369421958923
1776554607270201300,5.522201416015625,-2.95266056060791,0.5493374466896057,-0.5209734439849854
1776554607280241400,5.532241455078125,-3.0986404418945312,0.6540877819061279,-0.419204443693161
1776554607290282500,5.542282470703125,-3.2629401683807373,0.5179912447929382,-0.37584206461906433
1776554607300322600,5.552322509765625,-3.3796136379241943,0.16862869262695312,-0.4687267243862152
1776554607310363600,5.56236376953125,-3.4485902786254883,-0.37399595975875854,-0.6924503445625305
1776554607320404500,5.572404541015625,-3.387535333633423,-0.9732617735862732,-1.0322436094284058
1776554607330444300,5.5824443359375,-3.006645441055298,-1.6085513830184937,-1.463732123374939
1776554607340485400,5.5924853515625,-2.81948184967041,-2.3454041481018066,-1.5967861413955688
1776554607350525400,5.602525390625,-2.8039417266845703,-3.0423622131347656,-1.5239534378051758
1776554607360566300,5.612566162109375,-2.6096889972686768,-3.6426987648010254,-1.5483791828155518
1776554607370606300,5.6226064453125,-2.196270227432251,-3.89412260055542,-1.5515943765640259
1776554607380647400,5.6326474609375,-1.6042122840881348,-3.5406291484832764,-1.2673070430755615
1776554607390688500,5.6426884765625,-0.9914421439170837,-2.735177755355835,-0.7976998090744019
1776554607400728600,5.652728515625,-0.4316787123680115,-1.5582813024520874,-0.25724858045578003
1776554607410769400,5.662769287109375,-0.1858913004398346,-0.5361294746398926,0.07578850537538528
1776554607420809500,5.6728095703125,-0.4478190541267395,-0.37445002794265747,-0.06999213248491287
1776554607430850600,5.6828505859375,-0.8527801036834717,-0.11813569813966751,-0.2818567156791687
1776554607440891400,5.692891357421875,-0.7683930993080139,0.21547849476337433,0.04848071560263634
1776554607450931500,5.702931396484375,-0.512344241142273,0.18042010068893433,0.3424002230167389
1776554607460972500,5.71297265625,-0.21470484137535095,0.10416075587272644,0.4097808599472046
1776554607471012400,5.723012451171875,0.16993550956249237,0.24468325078487396,0.4861467480659485
1776554607481053400,5.733053466796875,0.4479551315307617,0.483533650636673,0.6080537438392639
1776554607491094300,5.74309423828125,0.6179479360580444,0.7249241471290588,0.6509042382240295
1776554607501134300,5.75313427734375,0.6756234765052795,0.9962108135223389,0.6687836647033691
1776554607511175400,5.763175537109375,0.7108416557312012,1.3528650999069214,0.8166165351867676
1776554607521215500,5.773215576171875,0.8914159536361694,1.5167155265808105,0.938595175743103
1776554607531256300,5.78325634765625,1.2288243770599365,1.5702985525131226,0.9386649131774902
1776554607541296400,5.79329638671875,1.7156049013137817,1.7075331211090088,0.8132542967796326
1776554607551337500,5.80333740234375,2.2130370140075684,2.108130931854248,0.7462286353111267
1776554607561378600,5.813378662109375,2.616990327835083,2.4667651653289795,0.678282618522644
1776554607571418600,5.823418701171875,2.924431562423706,2.838592767715454,0.6359705924987793
1776554607581459500,5.83345947265625,2.983445644378662,3.2029755115509033,0.6471419930458069
1776554607591499300,5.843499267578125,2.720440626144409,3.451018810272217,0.6126285195350647
1776554607601540400,5.853540283203125,2.326606512069702,3.403557777404785,0.44774341583251953
1776554607611581400,5.86358154296875,1.814134955406189,3.21147084236145,0.31447112560272217
1776554607621621200,5.873621337890625,1.40751314163208,2.804891347885132,0.19455111026763916
1776554607631662300,5.883662353515625,1.1451393365859985,2.063964366912842,0.019638149067759514
1776554607641702400,5.893702392578125,0.8688434958457947,1.1277986764907837,-0.13705000281333923
1776554607651743500,5.903743408203125,0.4813985824584961,0.09064041823148727,-0.29701781272888184
1776554607661783600,5.913783447265625,0.012544287368655205,-0.7151713967323303,-0.45071712136268616
1776554607671824400,5.923824462890625,-0.5184162855148315,-1.5045725107192993,-0.6486549377441406
1776554607681865500,5.933865478515625,-0.9781724214553833,-2.192286729812622,-0.836834192276001
1776554607691905500,5.943905517578125,-1.319961428642273,-2.7284510135650635,-0.9691725373268127
1776554607701946600,5.953946533203125,-1.6921390295028687,-3.2388579845428467,-1.102745771408081
1776554607711986400,5.963986328125,-2.101285219192505,-3.7349050045013428,-1.1928644180297852
1776554607722027500,5.974027587890625,-2.5186920166015625,-4.241986274719238,-1.3480300903320312
1776554607732068600,5.984068603515625,-2.867227077484131,-4.76520299911499,-1.5165327787399292
1776554607742108400,5.9941083984375,-2.6176626682281494,-5.061911582946777,-1.492160677909851
1776554607752149200,6.004149169921875,-1.9281803369522095,-4.9699931144714355,-0.5689316391944885
1776554607762189300,6.014189208984375,-1.412217617034912,-4.885814189910889,0.03032648004591465
1776554607772230400,6.02423046875,-0.9462485313415527,-4.813924789428711,-0.023375896736979485
1776554607782270500,6.0342705078125,-0.6133496761322021,-4.08066987991333,0.2710634469985962
1776554607792311600,6.0443115234375,-0.3607741594314575,-2.872330904006958,0.6011441349983215
1776554607802352400,6.054352294921875,-0.08444617688655853,-1.5118483304977417,0.5724382400512695
1776554607812392400,6.064392333984375,0.2158004641532898,-0.13100488483905792,0.5101732611656189
1776554607822433500,6.07443359375,0.3908982574939728,0.9491682052612305,0.595794141292572
1776554607832473600,6.0844736328125,0.4110780954360962,1.5546634197235107,0.7670841217041016
1776554607842514400,6.094514404296875,0.32828494906425476,1.6069940328598022,0.7646465301513672
1776554607852555500,6.104555419921875,0.2761964201927185,1.3943061828613281,0.8204064965248108
1776554607862595300,6.11459521484375,0.34250542521476746,0.9863083362579346,0.9760178923606873
1776554607872636400,6.124636474609375,0.591244637966156,0.5795406103134155,1.1094627380371094
1776554607882676500,6.134676513671875,0.9273723363876343,0.643235445022583,1.3799264430999756
1776554607892717300,6.14471728515625,1.3064041137695312,1.7044830322265625,2.014657974243164
1776554607902758400,6.15475830078125,1.6619195938110352,1.463860034942627,2.244859457015991
1776554607912798500,6.164798583984375,2.1071982383728027,2.0003764629364014,2.5139150619506836
1776554607922839300,6.17483935546875,2.511648178100586,2.207383871078491,2.501134157180786
1776554607932879400,6.18487939453125,2.9449446201324463,2.6999804973602295,2.4675371646881104
1776554607942920400,6.19492041015625,3.3739428520202637,3.2945709228515625,2.5091943740844727
1776554607952960500,6.20496044921875,3.5933215618133545,3.889329433441162,2.6325221061706543
1776554607963001000,6.2150009765625,3.4710121154785156,4.29543924331665,2.6997268199920654
1776554607973042000,6.2250419921875,2.9868128299713135,4.547860145568848,2.7462236881256104
1776554607983082000,6.23508203125,2.1377663612365723,4.238156318664551,2.386690855026245
1776554607993123000,6.245123046875,1.1900982856750488,3.2627007961273193,1.6452913284301758
1776554608003163100,6.2551630859375,0.7336763739585876,2.0479722023010254,0.9136977791786194
1776554608013204200,6.265204345703125,0.28477156162261963,0.4506816864013672,0.021863486617803574
1776554608023245000,6.2752451171875,0.003480218816548586,-0.8630663156509399,-0.7576184868812561
1776554608033285000,6.28528515625,-0.2633804976940155,-1.4937728643417358,-1.306358814239502
1776554608043326200,6.295326171875,-0.4671624004840851,-1.6105620861053467,-1.629280686378479
1776554608053366000,6.305365966796875,-0.4907896816730499,-1.3295453786849976,-1.6850368976593018
1776554608063406800,6.31540673828125,-0.342352032661438,-0.9652829766273499,-1.5215033292770386
1776554608073447000,6.325447021484375,-0.12460051476955414,-0.6332168579101562,-1.1666927337646484
1776554608083488000,6.335488037109375,0.1747092306613922,-0.4301106333732605,-0.6380699276924133
1776554608093529000,6.345529052734375,0.48401114344596863,-0.4248322546482086,-0.026702983304858208
1776554608103569200,6.355569091796875,0.7569215297698975,-0.5606212615966797,0.5642063617706299
1776554608113610000,6.36560986328125,0.9477905035018921,-0.6760588884353638,1.0211691856384277
1776554608123650000,6.375650146484375,0.9958198666572571,-0.6242721080780029,1.2727901935577393
1776554608133691100,6.385691162109375,0.9265148043632507,-0.38241103291511536,1.2766499519348145
1776554608143731200,6.395731201171875,0.7845350503921509,-0.036142025142908096,1.051932692527771
1776554608153772000,6.40577197265625,0.6116223931312561,0.2697412073612213,0.6317704916000366
1776554608163813000,6.415813232421875,0.4117009937763214,0.34165826439857483,0.17469032108783722
1776554608173853200,6.425853271484375,0.22693008184432983,0.15180844068527222,-0.1559581756591797
1776554608183894300,6.435894287109375,0.08963534235954285,-0.15262123942375183,-0.31961768865585327
1776554608193934000,6.44593408203125,-0.007393467705696821,-0.3563927412033081,-0.2989049553871155
1776554608203975000,6.455974853515625,-0.04542260989546776,-0.3707900643348694,-0.16984789073467255
1776554608214016000,6.46601611328125,-0.021951638162136078,-0.22417052090168,-0.026064356788992882
1776554608224056000,6.47605615234375,0.03819505497813225,-0.003955326974391937,0.08511675894260406
1776554608234097000,6.486096923828125,0.1184597983956337,0.21839332580566406,0.12035863846540451
1776554608244137000,6.496136962890625,0.1951601654291153,0.39236271381378174,0.11071213334798813
1776554608254178000,6.506177978515625,0.27907344698905945,0.4430810213088989,0.10129572451114655
1776554608264218000,6.516218017578125,0.3534899055957794,0.3526453971862793,0.13978107273578644
1776554608274259200,6.52625927734375,0.4009181261062622,0.21678264439105988,0.2422773540019989
1776554608284300000,6.536300048828125,0.4345839321613312,0.09853855520486832,0.3863735496997833
1776554608294340000,6.546340087890625,0.43177512288093567,0.07757814973592758,0.4919915795326233
1776554608304381200,6.556381103515625,0.4319932162761688,0.04392910748720169,0.4760797321796417
1776554608314421200,6.566421142578125,0.41417959332466125,-0.05913202837109566,0.3635838031768799
1776554608324462000,6.576462158203125,0.39116138219833374,-0.1277845948934555,0.2172526866197586
1776554608334502000,6.586501953125,0.3811843693256378,-0.10398977994918823,0.03460165113210678
1776554608344543000,6.59654296875,0.34043002128601074,-0.04549717903137207,-0.08966969698667526
1776554608354584000,6.606583984375,0.2255851924419403,-0.02209172025322914,-0.04336877912282944
1776554608364624100,6.6166240234375,0.036860812455415726,-0.03311081603169441,0.19823212921619415
1776554608374665000,6.6266650390625,-0.15764474868774414,0.12144786864519119,0.45716649293899536
1776554608384705000,6.636705078125,-0.2506282329559326,0.6824920177459717,0.48912307620048523
1776554608394746000,6.64674609375,-0.2244911640882492,1.2488741874694824,0.26071202754974365
1776554608404786200,6.6567861328125,-0.10411947965621948,1.4202326536178589,-0.037287451326847076
1776554608414827000,6.666826904296875,0.08127408474683762,1.0428600311279297,-0.21487821638584137
1776554608424868000,6.6768681640625,0.22350099682807922,0.28542882204055786,-0.17043592035770416
1776554608434908200,6.686908203125,0.23608629405498505,-0.3751816153526306,0.09784187376499176
1776554608444949200,6.69694921875,0.17124685645103455,-0.6005654335021973,0.3945862054824829
1776554608454989000,6.706989013671875,0.0833020806312561,-0.3078305125236511,0.5158060789108276
1776554608465030000,6.71702978515625,0.03850052133202553,0.3078877925872803,0.4065791964530945
1776554608475071000,6.727071044921875,0.07657493650913239,0.8385732173919678,0.1511402428150177
1776554608485111000,6.737111083984375,0.14481337368488312,1.0044373273849487,-0.09267933666706085
1776554608495151900,6.74715185546875,0.15740133821964264,0.7382426261901855,-0.1894809752702713
1776554608505192000,6.75719189453125,0.08404164016246796,0.2119085192680359,-0.12039352208375931
1776554608515233000,6.76723291015625,-0.048294827342033386,-0.27939915657043457,0.019958794116973877
1776554608525273000,6.777273193359375,-0.16700389981269836,-0.46665745973587036,0.13466034829616547
1776554608535314200,6.787314208984375,-0.20413848757743835,-0.36377474665641785,0.1717296838760376
1776554608545355000,6.79735498046875,-0.17808344960212708,-0.07980455458164215,0.14575187861919403
1776554608555395000,6.80739501953125,-0.16071990132331848,0.2460198849439621,0.08066927641630173
1776554608565436200,6.817436279296875,-0.16063974797725677,0.452896386384964,-0.023974841460585594
1776554608575476200,6.827476318359375,-0.1708199381828308,0.43878453969955444,-0.11027244478464127
1776554608585517000,6.83751708984375,-0.1838369369506836,0.19298356771469116,-0.15767697989940643
1776554608595556900,6.847556884765625,-0.19547894597053528,-0.11435107886791229,-0.1041431799530983
1776554608605598000,6.857597900390625,-0.16518442332744598,-0.36387595534324646,-0.0198043305426836
1776554608615639000,6.86763916015625,-0.07956593483686447,-0.439449280500412,0.049388587474823
1776554608625679000,6.87767919921875,0.016809606924653053,-0.31650257110595703,0.0723213329911232
1776554608635720000,6.887719970703125,0.07733766734600067,-0.08308876305818558,0.023037409409880638
1776554608645760000,6.897760009765625,0.1340600699186325,0.14779691398143768,-0.08472553640604019
1776554608655801000,6.907801025390625,0.2120336890220642,0.2559169828891754,-0.20245324075222015
1776554608665841200,6.917841064453125,0.2882421910762787,0.2595197260379791,-0.28189027309417725
1776554608675882000,6.927882080078125,0.33814874291419983,0.20286177098751068,-0.28834763169288635
1776554608685923000,6.937923095703125,0.3649963438510895,0.13464435935020447,-0.23658457398414612
1776554608695963100,6.947963134765625,0.3480413258075714,0.07643990963697433,-0.14056244492530823
1776554608706004200,6.958004150390625,0.25723499059677124,0.06371293216943741,-0.028332572430372238
1776554608716044000,6.9680439453125,0.09453342854976654,0.10210613161325455,0.06022179499268532
1776554608726084900,6.9780849609375,-0.08703263849020004,0.20012430846691132,0.08345174789428711
1776554608736125000,6.988125,-0.2138611525297165,0.3464663326740265,0.02731630951166153
1776554608746166000,6.998166015625,-0.26960378885269165,0.502997875213623,-0.07734671980142593
1776554608756207000,7.00820703125,-0.271336168050766,0.609544038772583,-0.18043449521064758
1776554608766247000,7.018246826171875,-0.22458970546722412,0.6320940852165222,-0.2490745335817337
1776554608776288000,7.0282880859375,-0.15614113211631775,0.6096769571304321,-0.26150989532470703
1776554608786328000,7.038328125,-0.0687127485871315,0.6038480997085571,-0.22895169258117676
1776554608796369200,7.048369140625,0.02653174288570881,0.6401642560958862,-0.15210671722888947
1776554608806409200,7.0584091796875,0.11200349777936935,0.7045896053314209,-0.03804831579327583
1776554608816450000,7.068449951171875,0.15925490856170654,0.7594219446182251,0.11455321311950684
1776554608826491100,7.0784912109375,0.16742148995399475,0.7543401122093201,0.25460806488990784
1776554608836531200,7.08853125,0.13729260861873627,0.6644142270088196,0.3613419532775879
1776554608846572300,7.098572265625,0.08052733540534973,0.5032801628112793,0.4087752401828766
1776554608856611800,7.10861181640625,0.022646456956863403,0.3166429400444031,0.3987590968608856
1776554608866653000,7.11865283203125,-0.008914931677281857,0.14400909841060638,0.34155628085136414
1776554608876693000,7.12869287109375,-0.01467801257967949,0.026440128684043884,0.2654508352279663
1776554608886734000,7.138734130859375,-0.011054514907300472,0.0049468218348920345,0.19887980818748474
1776554608896775000,7.14877490234375,0.00022743394947610795,0.0853380635380745,0.16070765256881714
1776554608906815000,7.15881494140625,0.01678031124174595,0.20379653573036194,0.1459774523973465
1776554608916856000,7.16885595703125,0.03958629071712494,0.29499462246894836,0.15987887978553772
1776554608926896000,7.178896240234375,0.04249845817685127,0.32596930861473083,0.20268893241882324
1776554608936937200,7.188937255859375,0.028235366567969322,0.3070632815361023,0.2506066560745239
1776554608946977000,7.19897705078125,0.014190919697284698,0.26344576478004456,0.287851482629776
1776554608957018000,7.20901806640625,-0.0019827233627438545,0.21005895733833313,0.30575913190841675
1776554608967059000,7.219058837890625,-0.010935472324490547,0.16683745384216309,0.29389312863349915
1776554608977099000,7.22909912109375,-0.016041817143559456,0.11797457188367844,0.25408926606178284
1776554608987139800,7.239139892578125,-0.01570652425289154,0.06435315310955048,0.2003120630979538
1776554608997180000,7.249179931640625,-0.02028290182352066,0.0037987329997122288,0.13615304231643677
1776554609007221000,7.259220947265625,-0.03762141242623329,-0.06627489626407623,0.0880126804113388
1776554609017261000,7.269260986328125,-0.0763203352689743,-0.1367943286895752,0.051724713295698166
1776554609027302100,7.27930224609375,-0.11029614508152008,-0.19673755764961243,0.029586920514702797
1776554609037343000,7.289343017578125,-0.12838353216648102,-0.22741052508354187,-0.0059718722477555275
1776554609047383000,7.299383056640625,-0.10465983301401138,-0.23049472272396088,-0.07361669838428497
1776554609057424100,7.309424072265625,-0.05483022704720497,-0.2125231772661209,-0.17271079123020172
1776554609067464000,7.3194638671875,0.00863237027078867,-0.1912333369255066,-0.2700573205947876
1776554609077504800,7.3295048828125,0.07154528796672821,-0.22222667932510376,-0.33335188031196594
1776554609087544800,7.339544921875,0.12507934868335724,-0.2457493096590042,-0.3526936173439026
1776554609097586000,7.3495859375,0.1567041277885437,-0.2634066045284271,-0.3289709687232971
1776554609107627000,7.359626953125,0.17807546257972717,-0.30024290084838867,-0.2791392207145691
1776554609117667000,7.3696669921875,0.180535688996315,-0.32257112860679626,-0.2285599410533905
1776554609127708000,7.3797080078125,0.1644376814365387,-0.30683183670043945,-0.21686440706253052
1776554609137748000,7.389748046875,0.14917723834514618,-0.2824711203575134,-0.250895619392395
1776554609147789000,7.3997890625,0.13049888610839844,-0.24421186745166779,-0.31452199816703796
1776554609157829000,7.4098291015625,0.09806983917951584,-0.1910381317138672,-0.3768508732318878
1776554609167870000,7.419869873046875,0.05246347561478615,-0.13211914896965027,-0.41231751441955566
1776554609177911000,7.4299111328125,0.006364422384649515,-0.0710853636264801,-0.4043400287628174
1776554609187951000,7.439951171875,-0.029628200456500053,-0.017082579433918,-0.3558736741542816
1776554609197992200,7.4499921875,-0.04746099188923836,0.03207910805940628,-0.2879774570465088
1776554609208032000,7.460031982421875,-0.05804971978068352,0.08371113985776901,-0.2072029858827591
1776554609218072800,7.47007275390625,-0.05537297576665878,0.10483346879482269,-0.13917040824890137
1776554609228113000,7.48011279296875,-0.05120406672358513,0.09179596602916718,-0.09082524478435516
1776554609238154000,7.490154052734375,-0.040659546852111816,0.03929946944117546,-0.05206586420536041
1776554609248194000,7.500194091796875,-0.033427730202674866,-0.038659244775772095,-0.02690858021378517
1776554609258235000,7.51023486328125,-0.03208496421575546,-0.12787167727947235,-0.0033457293175160885
1776554609268271900,7.52027197265625,-0.03050597757101059,-0.21032901108264923,0.00762889115139842
1776554609278313000,7.53031298828125,-0.02563612163066864,-0.26223400235176086,0.01998649165034294
1776554609288353800,7.540353759765625,-0.02600097469985485,-0.29031652212142944,0.021502895280718803
1776554609298393900,7.550393798828125,-0.022705579176545143,-0.3017433285713196,0.021945245563983917
1776554609308435000,7.56043505859375,-0.023266440257430077,-0.29994329810142517,0.009318400174379349
1776554609318475000,7.57047509765625,-0.02852937951683998,-0.2810407280921936,-0.0015544871566817164
1776554609328516000,7.58051611328125,-0.03146364912390709,-0.26101401448249817,-0.01745568960905075
1776554609338556200,7.59055615234375,-0.03128388524055481,-0.23872415721416473,-0.03290228918194771
1776554609348597000,7.600596923828125,-0.028872927650809288,-0.21238097548484802,-0.04673527926206589
1776554609358637000,7.610636962890625,-0.01637125015258789,-0.19090896844863892,-0.056958358734846115
1776554609368678100,7.62067822265625,-0.006865096744149923,-0.17907707393169403,-0.05958130583167076
1776554609378719000,7.630718994140625,0.0022895196452736855,-0.18143025040626526,-0.06121169030666351
1776554609388758800,7.6407587890625,0.0007680556736886501,-0.192902609705925,-0.05583583563566208
1776554609398800000,7.6507998046875,-0.0030485205352306366,-0.2073739618062973,-0.05433247983455658
1776554609408840000,7.66083984375,-0.00920042209327221,-0.21311280131340027,-0.054001983255147934
1776554609418881000,7.670881103515625,-0.006866960786283016,-0.2103002369403839,-0.051708467304706573
1776554609428921000,7.680921142578125,-0.007209975738078356,-0.19071535766124725,-0.05066264420747757
1776554609438962000,7.6909619140625,-0.0020546286832541227,-0.16605128347873688,-0.04140523076057434
1776554609449003000,7.7010029296875,0.00033156355493701994,-0.13896694779396057,-0.02526354417204857
1776554609459043000,7.71104296875,0.0023555660154670477,-0.11432763934135437,-0.0062736086547374725
1776554609469084000,7.721083984375,0.0019433086272329092,-0.0869133248925209,0.00965395849198103
1776554609479124000,7.7311240234375,0.0006500775925815105,-0.06904751062393188,0.01056449394673109
1776554609489165000,7.7411650390625,-0.0062392535619437695,-0.055093079805374146,0.0038477350026369095
1776554609499204900,7.751204833984375,-0.012383166700601578,-0.04986635968089104,0.002257827902212739
1776554609509246000,7.761245849609375,-0.015447665937244892,-0.0443408340215683,0.00492125516757369
1776554609519286000,7.7712861328125,-0.019531356170773506,-0.02798929065465927,0.012741894461214542
1776554609529326800,7.781326904296875,-0.02201981469988823,0.01085957232862711,0.01997211016714573
1776554609539368000,7.791367919921875,-0.018424546346068382,0.06770554184913635,0.018918829038739204
1776554609549408000,7.801407958984375,-0.01056076493114233,0.12681546807289124,0.00842837244272232
1776554609559448800,7.81144873046875,-0.0070698936469852924,0.1626829206943512,-0.005536179058253765
1776554609569489000,7.821489013671875,-0.00723474333062768,0.15691158175468445,-0.016507070511579514
1776554609579530000,7.831530029296875,-0.013982927426695824,0.10862980782985687,-0.019353458657860756
1776554609589570000,7.841570068359375,-0.020444555208086967,0.029041770845651627,0.0040975394658744335
1776554609599611100,7.851611083984375,-0.013776798732578754,-0.06650259345769882,0.04291684180498123
1776554609609652000,7.86165185546875,-0.004929511342197657,-0.1432594209909439,0.08355854451656342
1776554609619692000,7.871692138671875,0.009671535342931747,-0.1754743456840515,0.10463453084230423
1776554609629733000,7.881733154296875,0.020536167547106743,-0.18107737600803375,0.09710977226495743
1776554609639773000,7.89177294921875,0.030048713088035583,-0.1619446873664856,0.06741765886545181
1776554609649814000,7.90181396484375,0.030357904732227325,-0.11908857524394989,0.020269053056836128
1776554609659853800,7.911853759765625,0.02960449829697609,-0.06496701389551163,-0.025610288605093956
1776554609669895000,7.92189501953125,0.028736039996147156,-0.0020511667244136333,-0.05903562158346176
1776554609679935000,7.93193505859375,0.03014139086008072,0.047274038195610046,-0.06502214074134827
1776554609689976000,7.94197607421875,0.03476863354444504,0.08291885256767273,-0.04975690320134163
1776554609700017000,7.952016845703125,0.03894872963428497,0.10903754085302353,-0.02972966618835926
1776554609710057000,7.962056884765625,0.0447794571518898,0.11687309294939041,-0.021824073046445847
1776554609720098000,7.97209814453125,0.05077609419822693,0.11621635407209396,-0.019515911117196083
1776554609730138000,7.98213818359375,0.05637912079691887,0.10230639576911926,-0.024456340819597244
1776554609740179000,7.992178955078125,0.04916301742196083,0.06647409498691559,-0.03206232935190201
1776554609750218800,8.00221875,0.03569940850138664,0.022775353863835335,-0.039751406759023666
1776554609760259800,8.012259765625,0.014889467507600784,-0.0048799761570990086,-0.04279646649956703
1776554609770300000,8.0222998046875,-0.003005110891535878,-0.030643396079540253,-0.04121161997318268
1776554609780341000,8.032341064453124,-0.01955239661037922,-0.0524006225168705,-0.03488687798380852
1776554609790381800,8.0423818359375,-0.023788686841726303,-0.06735507398843765,-0.028504878282546997
1776554609800422000,8.052421875,-0.021396635100245476,-0.07186061143875122,-0.016992298886179924
1776554609810463000,8.062462890625,-0.008979646489024162,-0.06100316718220711,-0.0037238982040435076
1776554609820503000,8.0725029296875,0.010704576037824154,-0.04512087255716324,0.009852098301053047
1776554609830544000,8.0825439453125,0.021935658529400826,-0.03265275061130524,0.02064109593629837
1776554609840584000,8.092583984375,0.02508724294602871,-0.03158429265022278,0.029265476390719414
1776554609850625000,8.102625,0.02478950284421444,-0.04200417548418045,0.03466849774122238
1776554609860666000,8.112666015625,0.020244019106030464,-0.04784368723630905,0.036607012152671814
1776554609870706200,8.1227060546875,0.013106214813888073,-0.058885421603918076,0.034873828291893005
1776554609880747000,8.1327470703125,0.0005478122038766742,-0.07560022175312042,0.026309102773666382
1776554609890786800,8.142786865234376,-0.009308546781539917,-0.08735301345586777,0.010734137147665024
1776554609900828000,8.152827880859375,-0.01426362432539463,-0.09220582991838455,-0.00379021093249321
1776554609910868000,8.162867919921876,-0.01546337828040123,-0.07949882000684738,-0.019770508632063866
1776554609920908800,8.17290869140625,-0.013435914181172848,-0.06740620732307434,-0.03206179663538933
1776554609930948900,8.182948974609374,-0.004997155629098415,-0.04102706164121628,-0.033553432673215866
1776554609940990000,8.192989990234375,0.004186222795397043,-0.019239740446209908,-0.02997414395213127
1776554609951031000,8.203031005859375,0.012415656819939613,-0.0002615224220789969,-0.02183392643928528
1776554609961071000,8.213071044921875,0.01931457594037056,0.016094280406832695,-0.011380219832062721
1776554609971112400,8.223112548828125,0.02366032265126705,0.026732012629508972,-0.010702178813517094
1776554609981152500,8.233152587890626,0.027061711996793747,0.028122980147600174,-0.01423246506601572
1776554609991193600,8.243193603515625,0.022285597398877144,0.025974608957767487,-0.021495705470442772
1776554610001233400,8.2532333984375,0.017855962738394737,0.02117213048040867,-0.01979927159845829
1776554610011274200,8.263274169921875,0.014172011986374855,0.011655856855213642,-0.021703431382775307
1776554610021314300,8.273314208984376,0.00851678941398859,0.009454754181206226,-0.02400094084441662
1776554610031355400,8.28335546875,0.009385512210428715,0.0026581010315567255,-0.02694826014339924
1776554610041396500,8.293396484375,0.007180947344750166,-0.007095459848642349,-0.02907426282763481
1776554610051436500,8.3034365234375,0.011388476006686687,-0.0111647704616189,-0.028713403269648552
1776554610061477400,8.313477294921874,0.010570352897047997,-0.016895093023777008,-0.03213849663734436
1776554610071517400,8.323517333984375,0.01353711448609829,-0.013409814797341824,-0.02533438429236412
1776554610081558500,8.33355859375,0.016751017421483994,-0.008442752994596958,-0.019273828715085983
1776554610091598600,8.3435986328125,0.017099890857934952,0.0008857673965394497,-0.015047925524413586
1776554610101639400,8.353639404296874,0.02178359217941761,0.007565774489194155,-0.01059085875749588
1776554610111680500,8.363680419921875,0.02658793516457081,0.012389292009174824,-0.006068811286240816
1776554610121720600,8.373720458984375,0.029995715245604515,0.02123870886862278,-0.013244432397186756
1776554610131761700,8.38376171875,0.02702282927930355,0.018567558377981186,-0.010329603217542171
1776554610141801500,8.393801513671875,0.020368920639157295,0.013221529312431812,-0.015623434446752071
1776554610151842300,8.40384228515625,0.01477868016809225,0.006451773922890425,-0.014371482655405998
1776554610161882400,8.41388232421875,0.009128783829510212,0.004018976353108883,-0.009921606630086899
1776554610171923500,8.42392333984375,0.009275257587432861,0.012141617946326733,-0.008374043740332127
1776554610181963500,8.433963623046875,0.011598332785069942,0.014801849611103535,-0.005770271178334951
1776554610192004400,8.44400439453125,0.008274441584944725,0.022718362510204315,-0.0010357033461332321
1776554610202045400,8.45404541015625,0.010033992119133472,0.02364141307771206,-0.00552233075723052
1776554610212085500,8.46408544921875,0.00806351937353611,0.02303767390549183,-0.004029096569865942
1776554610222126600,8.474126708984375,0.00914636068046093,0.023556990548968315,-0.007072556763887405
1776554610232166700,8.484166748046874,0.008037952706217766,0.02231915481388569,-0.0021670141723006964
1776554610242207500,8.49420751953125,0.0075484635308384895,0.018547318875789642,0.0014202637830749154
1776554610252247300,8.504247314453124,0.006200105417519808,0.012319516390562057,0.002294047037139535
1776554610262288400,8.514288330078125,0.012298477813601494,0.007245129905641079,0.0003222425002604723
1776554610272329200,8.5243291015625,0.014593590050935745,0.0038448055274784565,-0.007319165393710136
1776554610282369300,8.534369384765625,0.013480388559401035,0.005150021053850651,-0.011040134355425835
1776554610292410400,8.544410400390625,0.014879346825182438,0.0005371595616452396,-0.017039969563484192
1776554610302450400,8.554450439453126,0.011877698823809624,-0.0028573055751621723,-0.00863316934555769
1776554610312491500,8.564491455078125,0.011414041742682457,0.00047058056225068867,-0.0011046791914850473
1776554610322531600,8.574531494140626,0.010183661244809628,0.0016594156622886658,0.002569950418546796
1776554610332572400,8.584572509765625,0.011508051306009293,0.0030133668333292007,0.0025688852183520794
1776554610342612500,8.594612548828126,0.011967180296778679,-0.00035979304811917245,-0.001651426195167005
1776554610352653600,8.604653564453125,0.012043080292642117,0.0009624664089642465,-0.005243764258921146
1776554610362694400,8.6146943359375,0.01242258120328188,0.00458676228299737,-0.009241967462003231
1776554610372734500,8.624734375,0.016328373923897743,0.006881075445562601,-0.004983573220670223
1776554610382775600,8.634775634765624,0.017109744250774384,0.010397779755294323,0.00032676986302249134
1776554610392815400,8.6448154296875,0.0142918536439538,0.009837450459599495,0.0012418320402503014
1776554610402856400,8.6548564453125,0.01239248737692833,0.003004844533279538,0.0016772588714957237
1776554610412896500,8.664896484375,0.013702495954930782,0.0007605988066643476,-0.004514058120548725
1776554610422937300,8.674937255859374,0.014098241925239563,-0.003958788700401783,-0.007539409212768078
1776554610432978400,8.684978515625,0.013113405555486679,-0.004661863669753075,-0.01311979629099369
1776554610443018500,8.6950185546875,0.014271347783505917,-0.0005813680472783744,-0.015955796465277672
1776554610453059300,8.705059326171876,0.0143493777140975,0.00355851580388844,-0.015556588768959045
1776554610463099400,8.715099365234375,0.015735020861029625,0.0012780509423464537,-0.014759238809347153
1776554610473140500,8.725140380859376,0.016892431303858757,0.002347310073673725,-0.015150989405810833
1776554610483180500,8.7351806640625,0.018031198531389236,0.0038344194181263447,-0.015312910079956055
1776554610493221600,8.7452216796875,0.019592076539993286,0.002888997085392475,-0.016636766493320465
1776554610503262500,8.755262451171875,0.017283648252487183,-0.00418355967849493,-0.017889518290758133
1776554610513302300,8.76530224609375,0.01883600652217865,-0.007357514929026365,-0.014677213504910469
1776554610523343400,8.77534326171875,0.019402192905545235,-0.007426224648952484,-0.014742461033165455
1776554610533383400,8.785383544921874,0.018264491111040115,-0.006075469311326742,-0.010521350428462029
1776554610543424300,8.79542431640625,0.015682555735111237,-0.0036844832357019186,-0.007766842842102051
1776554610553464300,8.80546435546875,0.014171745628118515,-0.007778827100992203,-0.005279450677335262
1776554610563505400,8.81550537109375,0.007728493306785822,-0.008558601140975952,-0.008095743134617805
1776554610573546500,8.82554638671875,0.00896872766315937,-0.011634818278253078,-0.01569587178528309
1776554610583586600,8.835586669921875,0.014005830511450768,-0.011255317367613316,-0.018685802817344666
1776554610593627400,8.84562744140625,0.01483567152172327,-0.008113586343824863,-0.018812304362654686
1776554610603667500,8.85566748046875,0.014037787914276123,-0.012112323194742203,-0.016040218994021416
1776554610613708500,8.86570849609375,0.011431085877120495,-0.011714979074895382,-0.011293667368590832
1776554610623748600,8.87574853515625,0.010432134382426739,-0.007754858583211899,-0.004825381562113762
1776554610633789400,8.88578955078125,0.012232697568833828,-0.0062677497044205666,-0.00035473305615596473
1776554610643830500,8.89583056640625,0.01435443852096796,-0.007833688519895077,0.008981510996818542
1776554610653870300,8.905870361328125,0.017643442377448082,-0.009793775156140327,0.0052235242910683155
1776554610663911400,8.915911376953124,0.014434865675866604,-0.004202734678983688,0.00490287970751524
1776554610673951500,8.925951416015625,0.006999319884926081,-0.0011065434664487839,-0.0011464908020570874
1776554610683992300,8.935992431640624,0.002110288944095373,-0.005304750520735979,-0.005183043889701366
1776554610694032400,8.946032470703125,-0.00732395937666297,-0.013163738884031773,-0.0117325559258461
1776554610704073500,8.956073486328124,-0.016889235004782677,-0.019103121012449265,-0.013499563559889793
1776554610714113500,8.966113525390625,-0.02809341996908188,-0.028781579807400703,-0.014522217214107513
1776554610724154400,8.976154296875,-0.03520086407661438,-0.031131820753216743,-0.018437596037983894
1776554610734195500,8.986195556640626,-0.03844645991921425,-0.028002606704831123,-0.01950685679912567
1776554610744235500,8.996235595703125,-0.029941121116280556,-0.020970528945326805,-0.016080167144536972
1776554610754276600,9.006276611328126,-0.00926167517900467,-0.01296346914023161,-0.00737296137958765
1776554610764316400,9.01631640625,0.007311975117772818,0.0024578312877565622,0.006421413738280535
1776554610774357200,9.026357177734376,0.01908128336071968,0.004576642066240311,0.012439625337719917
1776554610784397300,9.036397216796875,0.026817765086889267,0.013178120367228985,0.0095698032528162
1776554610794438400,9.0464384765625,0.022588400170207024,0.020357469096779823,-0.006039782892912626
1776554610804479500,9.0564794921875,0.024036893621087074,0.0251636765897274,-0.027100859209895134
1776554610814519300,9.066519287109376,0.02197427488863468,0.01696806401014328,-0.043846018612384796
1776554610824560400,9.076560302734375,0.018438661471009254,0.0021254688035696745,-0.047749411314725876
1776554610834600400,9.086600341796874,0.01649561896920204,-0.02532293274998665,-0.03521178290247917
1776554610844641500,9.0966416015625,0.01293470710515976,-0.04561062902212143,-0.02232794277369976
1776554610854681600,9.106681640625,0.007261907681822777,-0.041490718722343445,-0.00765845226123929
1776554610864722400,9.116722412109375,0.014303305186331272,-0.02340252697467804,-0.002419215627014637
1776554610874763500,9.126763427734375,0.023058447986841202,0.0021022993605583906,-0.004856008104979992
1776554610884803600,9.136803466796875,0.03471110761165619,0.012484366074204445,-0.005146292503923178
1776554610894844400,9.146844482421875,0.04387238249182701,0.00944756343960762,-0.0033302828669548035
1776554610904884200,9.15688427734375,0.04288967698812485,-0.01495018694549799,0.008742358535528183
1776554610914925300,9.16692529296875,0.03353958576917648,-0.04910948872566223,0.02286803163588047
1776554610924966400,9.17696630859375,0.023333285003900528,-0.08254946768283844,0.04069576412439346
1776554610935006500,9.18700634765625,0.016657540574669838,-0.10133913904428482,0.04919950291514397
1776554610945047300,9.19704736328125,0.01649135909974575,-0.11308341473340988,0.05638524517416954
1776554610955087400,9.20708740234375,0.01787673495709896,-0.12149526923894882,0.060329120606184006
1776554610965128400,9.21712841796875,0.022942068055272102,-0.13143126666545868,0.07326675951480865
1776554610975168300,9.227168212890625,0.03389405086636543,-0.130719393491745,0.10161343961954117
1776554610985209300,9.237209228515624,0.045705970376729965,-0.12686499953269958,0.13314713537693024
1776554610995250200,9.247250244140625,0.056175652891397476,-0.1341351717710495,0.17175550758838654
1776554611005290200,9.257290283203124,0.04681677371263504,-0.15824715793132782,0.20739872753620148
1776554611015331300,9.267331298828125,0.02473996765911579,-0.2054426372051239,0.21832887828350067
1776554611025371100,9.27737109375,-0.012447881512343884,-0.25506290793418884,0.19691093266010284
1776554611035412000,9.287411865234375,-0.05716901272535324,-0.29259538650512695,0.15348303318023682
1776554611045452000,9.2974521484375,-0.08750374615192413,-0.29724153876304626,0.09857397526502609
1776554611055493000,9.3074931640625,-0.09668739140033722,-0.2611277401447296,0.04802478477358818
1776554611065534200,9.3175341796875,-0.08800655603408813,-0.20781071484088898,0.018702847883105278
1776554611075574300,9.32757421875,-0.07533283531665802,-0.14366422593593597,0.01732226461172104
1776554611085615000,9.337614990234375,-0.039141543209552765,-0.08602835983037949,0.0532003715634346
1776554611095655200,9.3476552734375,0.003525758860632777,-0.037630997598171234,0.11881347000598907
1776554611105696300,9.3576962890625,0.038482945412397385,0.007250988855957985,0.1910647600889206
1776554611115736300,9.367736328125,0.059428971260786057,0.05041630193591118,0.26402124762535095
1776554611125777200,9.377777099609375,0.07231148332357407,0.06732630729675293,0.3202083706855774
1776554611135818200,9.387818359375,0.07745404541492462,0.03734657168388367,0.3525221049785614
1776554611145858300,9.3978583984375,0.061939533799886703,-0.04849110171198845,0.354986310005188
1776554611155899400,9.4078994140625,0.019575566053390503,-0.1812310367822647,0.3330399990081787
1776554611165939200,9.417939208984375,-0.04388649761676788,-0.3106188476085663,0.2962617576122284
1776554611175980000,9.42797998046875,-0.11289006471633911,-0.3951649069786072,0.2434595227241516
1776554611186020000,9.43802001953125,-0.1436130851507187,-0.4232791066169739,0.19091136753559113
1776554611196061200,9.448061279296875,-0.1374492049217224,-0.38980716466903687,0.14599183201789856
1776554611206102000,9.45810205078125,-0.11084955185651779,-0.29199376702308655,0.12138661742210388
1776554611216142000,9.46814208984375,-0.07218631356954575,-0.14364930987358093,0.1138828918337822
1776554611226183200,9.47818310546875,-0.019572369754314423,0.021577198058366776,0.11150495707988739
1776554611236223200,9.48822314453125,0.031675372272729874,0.16341236233711243,0.11760333180427551
1776554611246264300,9.498264404296876,0.07955261319875717,0.24270665645599365,0.12058686465024948
1776554611256305200,9.50830517578125,0.11340512335300446,0.23689909279346466,0.10705214738845825
1776554611266345200,9.51834521484375,0.1249680370092392,0.16042350232601166,0.07640236616134644
1776554611276386300,9.52838623046875,0.11459395289421082,0.053703974932432175,0.018126273527741432
1776554611286426000,9.538426025390624,0.09693213552236557,-0.044627390801906586,-0.052732985466718674
1776554611296467200,9.54846728515625,0.08613941073417664,-0.09483116865158081,-0.10831368714570999
1776554611306507000,9.558507080078124,0.07996700704097748,-0.1109108030796051,-0.13658714294433594
1776554611316548000,9.568548095703125,0.07566120475530624,-0.11901213973760605,-0.12918488681316376
1776554611326589200,9.578589111328125,0.06408631056547165,-0.14768825471401215,-0.09765332192182541
1776554611336629200,9.588629150390625,0.03783765807747841,-0.18897578120231628,-0.05684863403439522
1776554611346670000,9.598670166015625,0.014051903039216995,-0.2237502783536911,-0.019895145669579506
1776554611356710100,9.608710205078125,-0.01666526310145855,-0.24600817263126373,-0.005302353762090206
1776554611366751200,9.618751220703125,-0.056900300085544586,-0.23450864851474762,-0.010931210592389107
1776554611376792300,9.628792236328126,-0.10323424637317657,-0.19965319335460663,-0.02965669520199299
1776554611386832100,9.63883203125,-0.14156298339366913,-0.15668494999408722,-0.04838484153151512
1776554611396873200,9.648873291015626,-0.17350147664546967,-0.11730265617370605,-0.03743499144911766
1776554611406913300,9.658913330078125,-0.19364430010318756,-0.0661662369966507,0.005357747431844473
1776554611416954400,9.668954345703124,-0.19987370073795319,-0.001312139444053173,0.06235205754637718
1776554611426994200,9.678994140625,-0.18458662927150726,0.06321705132722855,0.1306120753288269
1776554611437035000,9.689034912109374,-0.1474110186100006,0.10790702700614929,0.1981373131275177
1776554611447076000,9.699076171875,-0.10812167823314667,0.12595979869365692,0.25417742133140564
1776554611457116200,9.7091162109375,-0.08363790810108185,0.11158884316682816,0.281792014837265
1776554611467157200,9.7191572265625,-0.08794023841619492,0.06477979570627213,0.257214218378067
1776554611477197000,9.729197021484374,-0.11141280829906464,0.010628942400217056,0.18376131355762482
1776554611487238100,9.739238037109375,-0.13432052731513977,-0.04980377480387688,0.07459194213151932
1776554611497278200,9.7492783203125,-0.14320695400238037,-0.12130432575941086,-0.04584898054599762
1776554611507319300,9.7593193359375,-0.1283521056175232,-0.2065180242061615,-0.12925225496292114
1776554611517360000,9.769360107421875,-0.08218994736671448,-0.2688610255718231,-0.15635472536087036
1776554611527400200,9.779400146484376,-0.013895842246711254,-0.2739487290382385,-0.12827327847480774
1776554611537441300,9.789441162109375,0.054374292492866516,-0.22051958739757538,-0.05113562196493149
1776554611547481300,9.7994814453125,0.08898153901100159,-0.13307389616966248,0.06265805661678314
1776554611557522200,9.809522216796875,0.08405069261789322,-0.05434872582554817,0.15814515948295593
1776554611567563300,9.819563232421874,0.06662270426750183,0.01233150064945221,0.20493477582931519
1776554611577603000,9.82960302734375,0.04210963472723961,0.046421293169260025,0.19693490862846375
1776554611587644200,9.83964404296875,0.007967378944158554,0.06496062129735947,0.14444851875305176
1776554611597684200,9.849684326171875,-0.030878553166985512,0.04266171157360077,0.0507662408053875
1776554611607725000,9.85972509765625,-0.052625928074121475,-0.027473436668515205,-0.05604329705238342
1776554611617765000,9.86976513671875,-0.060796771198511124,-0.1182403564453125,-0.15946263074874878
1776554611627807200,9.87980712890625,-0.05963989347219467,-0.17312970757484436,-0.22823689877986908
1776554611637848000,9.88984814453125,-0.05383340269327164,-0.1876215636730194,-0.2419457882642746
1776554611647888100,9.89988818359375,-0.038493331521749496,-0.17317551374435425,-0.20940621197223663
1776554611657929200,9.90992919921875,-0.009900568053126335,-0.15557041764259338,-0.15630652010440826
1776554611667970300,9.91997021484375,0.025950107723474503,-0.1388004869222641,-0.10398632287979126
1776554611678010000,9.930010009765626,0.055144745856523514,-0.13771338760852814,-0.08573514223098755
1776554611688051200,9.94005126953125,0.08038059622049332,-0.16442862153053284,-0.09475793689489365
1776554611698091300,9.95009130859375,0.09223751723766327,-0.21179774403572083,-0.13398975133895874
1776554611708132400,9.96013232421875,0.08825848996639252,-0.26442232728004456,-0.18376317620277405
1776554611718172200,9.970172119140624,0.07109788060188293,-0.29975104331970215,-0.2211315780878067
1776554611728213000,9.980212890625,0.05161792039871216,-0.3014541268348694,-0.2347336858510971
1776554611738254000,9.990254150390625,0.036908481270074844,-0.24764202535152435,-0.2291860431432724
1776554611748294100,10.000294189453125,0.033119071274995804,-0.14236299693584442,-0.207192063331604
1776554611758335200,10.010335205078125,0.041314683854579926,-0.011995675973594189,-0.17862460017204285
1776554611768375000,10.020375,0.06004868820309639,0.11288740485906601,-0.14899054169654846
1776554611778416000,10.030416015625,0.07780051976442337,0.19923986494541168,-0.12586258351802826
1776554611788457200,10.040457275390626,0.0858941376209259,0.24206669628620148,-0.11633007228374481
1776554611798497300,10.050497314453125,0.0881037563085556,0.25445064902305603,-0.13340839743614197
1776554611808538000,10.0605380859375,0.08953840285539627,0.24352183938026428,-0.16960075497627258
1776554611818578200,10.070578125,0.0919743999838829,0.22252309322357178,-0.219390407204628
1776554611828619300,10.080619384765624,0.0942295640707016,0.20552998781204224,-0.2713686525821686
1776554611838659300,10.090659423828125,0.09975296258926392,0.22211162745952606,-0.31858891248703003
1776554611848700200,10.1007001953125,0.12111310660839081,0.27353647351264954,-0.34528762102127075
1776554611858741200,10.1107412109375,0.1638166308403015,0.3586502969264984,-0.34747326374053955
1776554611868781000,10.120781005859374,0.22399207949638367,0.45478615164756775,-0.32825297117233276
1776554611878822100,10.130822265625,0.27911391854286194,0.5558054447174072,-0.30487123131752014
1776554611888862200,10.1408623046875,0.31517791748046875,0.624043345451355,-0.2663571238517761
1776554611898903000,10.150903076171875,0.321692556142807,0.6164674758911133,-0.22234465181827545
1776554611908943000,10.160943115234375,0.30543580651283264,0.5623408555984497,-0.19024504721164703
1776554611918984200,10.170984130859376,0.2574632167816162,0.4853222370147705,-0.17453958094120026
1776554611929025300,10.181025390625,0.19317051768302917,0.3887333571910858,-0.17611031234264374
1776554611939065300,10.1910654296875,0.15046566724777222,0.27545687556266785,-0.1899441033601761
1776554611949106200,10.201106201171875,0.14166311919689178,0.17975963652133942,-0.1892024129629135
1776554611959146200,10.211146240234376,0.15340687334537506,0.16475273668766022,-0.1669682115316391
1776554611969191400,10.22119140625,0.19483047723770142,0.22160296142101288,-0.11928778141736984
1776554611979232300,10.231232177734375,0.2726035714149475,0.26834702491760254,-0.04339061677455902
1776554611989272300,10.241272216796874,0.3456045389175415,0.35623428225517273,0.030049778521060944
1776554611999313400,10.2513134765625,0.41144266724586487,0.3935531675815582,-0.0041244374588131905
1776554612009353500,10.261353515625,0.43596771359443665,0.49623292684555054,-0.05226879566907883
1776554612019394300,10.271394287109375,0.4164150655269623,0.5925229787826538,-0.15497227013111115
1776554612029434400,10.281434326171874,0.3708134889602661,0.6521636843681335,-0.27608802914619446
1776554612039475500,10.291475341796875,0.3244883418083191,0.6143355965614319,-0.348707914352417
1776554612049516500,10.3015166015625,0.27781909704208374,0.5078251361846924,-0.3677210211753845
1776554612059556400,10.311556396484375,0.21041715145111084,0.3969345688819885,-0.3763757646083832
1776554612069597200,10.32159716796875,0.13524357974529266,0.29609769582748413,-0.37308862805366516
1776554612079637200,10.33163720703125,0.07828494906425476,0.2293761968612671,-0.32750222086906433
1776554612089678300,10.34167822265625,0.0480644628405571,0.18715551495552063,-0.22310924530029297
1776554612099719200,10.35171923828125,0.037641119211912155,0.1960163712501526,-0.04731238633394241
1776554612109759200,10.36175927734375,0.032333437353372574,0.22328075766563416,0.16205069422721863
1776554612119800300,10.37180029296875,0.036258939653635025,0.24998827278614044,0.30898022651672363
1776554612129840400,10.38184033203125,0.07072397321462631,0.24631710350513458,0.3541279733181
1776554612139881500,10.391881591796874,0.08642623573541641,0.1990923285484314,0.33251136541366577
1776554612149921500,10.401921630859375,0.06409482657909393,0.05414073169231415,0.3095378875732422
1776554612159962400,10.41196240234375,-0.017076987773180008,0.006274939980357885,0.2771383821964264
1776554612170003500,10.42200341796875,-0.09673532843589783,0.01727406121790409,0.24235591292381287
1776554612180043500,10.43204345703125,-0.14096111059188843,0.01847860962152481,0.25843366980552673
1776554612190084400,10.44208447265625,-0.18350538611412048,0.03682033345103264,0.33959856629371643
1776554612200124200,10.452124267578125,-0.21410323679447174,0.06478805094957352,0.46530431509017944
1776554612210165200,10.462165283203126,-0.22833304107189178,0.08858472853899002,0.5832487940788269
1776554612220205300,10.472205322265625,-0.21940292418003082,0.10895764082670212,0.6419179439544678
1776554612230246400,10.482246337890626,-0.1739153414964676,0.11063943058252335,0.6072595715522766
1776554612240287200,10.492287353515625,-0.0968405231833458,0.09559017419815063,0.49894988536834717
1776554612250327300,10.502327392578126,-0.03273637592792511,0.05992884561419487,0.3632780611515045
1776554612260368400,10.512368408203125,0.0020122844725847244,0.03237392008304596,0.2630300223827362
1776554612270408400,10.522408447265626,0.010016681626439095,0.008132228627800941,0.21938854455947876
1776554612280449300,10.53244921875,0.00404454255476594,-0.010465158149600029,0.22757643461227417
1776554612290489300,10.5424892578125,0.01107582077383995,-0.011984757147729397,0.2578967809677124
1776554612300530400,10.552530517578125,0.024226775392889977,0.0002772350562736392,0.294720321893692
1776554612310571500,10.562571533203124,0.01872122287750244,0.01888953521847725,0.31854867935180664
1776554612320611300,10.572611328125,-0.001761148450896144,0.034450918436050415,0.3193838596343994
1776554612330652200,10.582652099609374,-0.024997761473059654,0.031684160232543945,0.29553791880607605
1776554612340692200,10.592692138671875,-0.04361485689878464,0.01798113062977791,0.23442742228507996
1776554612350733300,10.6027333984375,-0.05603796988725662,0.016772055998444557,0.16352714598178864
1776554612360773400,10.6127734375,-0.05692719668149948,0.029760824516415596,0.08577162772417068
1776554612370814200,10.622814208984375,-0.059059057384729385,0.07057642936706543,0.02195802889764309
1776554612380855300,10.632855224609376,-0.06063458323478699,0.1195162758231163,-0.013560017570853233
1776554612390895400,10.642895263671875,-0.04488411918282509,0.16259610652923584,-0.016995495185256004
1776554612400936400,10.6529365234375,-0.0037052559200674295,0.18968231976032257,0.0211284551769495
1776554612410976500,10.6629765625,0.049038115888834,0.20310305058956146,0.07332214713096619
1776554612421017300,10.673017333984374,0.07229842990636826,0.16405285894870758,0.122199147939682
1776554612431057400,10.683057373046875,0.052745502442121506,0.06373690068721771,0.16418680548667908
1776554612441098500,10.693098388671874,-0.0020868529099971056,0.016701482236385345,0.15372031927108765
1776554612451138300,10.70313818359375,-0.05805211886763573,0.013993846252560616,0.09220822155475616
1776554612461179100,10.71317919921875,-0.06396486610174179,-0.06683282554149628,0.07579409331083298
1776554612471220200,10.72322021484375,-0.05281953886151314,-0.06502187997102737,0.053649913519620895
1776554612481260300,10.73326025390625,-0.032398954033851624,-0.025903236120939255,0.016597619280219078
1776554612491301400,10.74330126953125,0.0011254518758505583,-0.0611238069832325,0.02623400092124939
1776554612501341400,10.753341552734375,0.0017576862592250109,-0.07584816217422485,0.04969139024615288
1776554612511382300,10.76338232421875,-0.010450243949890137,-0.0371851846575737,0.03032461553812027
1776554612521422300,10.77342236328125,-0.003799531841650605,-0.07399939000606537,0.01101776398718357
1776554612531463400,10.78346337890625,-0.009756756946444511,-0.15423190593719482,0.0003552656853571534
1776554612541504300,10.793504150390625,-0.02755546197295189,-0.20783895254135132,-0.0073713636957108974
1776554612551544300,10.80354443359375,-0.03247645124793053,-0.23199541866779327,-0.003477555699646473
1776554612561585400,10.81358544921875,-0.02654319442808628,-0.22035767138004303,0.028317125514149666
1776554612571625500,10.82362548828125,-0.011813249439001083,-0.18612699210643768,0.07369312644004822
1776554612581666600,10.83366650390625,0.008944759145379066,-0.14398406445980072,0.1215599849820137
1776554612591706400,10.843706298828126,0.028751220554113388,-0.12221725285053253,0.15875102579593658
1776554612601747200,10.853747314453125,0.03513028845191002,-0.1348920315504074,0.1702212691307068
1776554612611787300,10.863787353515624,0.0335124209523201,-0.16748221218585968,0.1590612828731537
1776554612621828400,10.873828369140625,0.02622787468135357,-0.18525587022304535,0.12446150183677673
1776554612631869400,10.883869384765624,0.020185962319374084,-0.17894631624221802,0.07219883054494858
1776554612641909200,10.8939091796875,0.03640381246805191,-0.1461217850446701,0.01290514599531889
1776554612651950300,10.903950439453125,0.07720743864774704,-0.1122056320309639,-0.04318741708993912
1776554612661990400,10.913990478515625,0.12401515245437622,-0.108639657497406,-0.0741029903292656
1776554612672031500,10.924031494140625,0.1498747169971466,-0.14315102994441986,-0.07449793815612793
1776554612682071600,10.934071533203126,0.13875707983970642,-0.22144876420497894,-0.05002215504646301
1776554612692112400,10.9441123046875,0.09489535540342331,-0.315563827753067,-0.015861786901950836
1776554612702152200,10.954152099609376,0.026693129912018776,-0.4022188186645508,0.007257912773638964
1776554612712193300,10.964193359375,-0.04424362629652023,-0.48467934131622314,0.010538394562900066
1776554612722234400,10.974234375,-0.11389914155006409,-0.5584456920623779,0.003949468024075031
1776554612732274200,10.984274169921875,-0.1846204400062561,-0.5936276316642761,-0.011468370445072651
1776554612742315300,10.994315185546874,-0.2385835498571396,-0.5630939602851868,-0.04306650906801224
1776554612752355300,11.004355224609375,-0.26415228843688965,-0.4537927806377411,-0.08918793499469757
1776554612762396400,11.014396484375,-0.2611019015312195,-0.28962889313697815,-0.1429337114095688
1776554612772436500,11.0244365234375,-0.22300511598587036,-0.13042724132537842,-0.19804170727729797
1776554612782477300,11.034477294921874,-0.16810165345668793,-0.005840844940394163,-0.23729804158210754
1776554612792517400,11.044517333984375,-0.10969320684671402,0.07843701541423798,-0.25770875811576843
1776554612802558500,11.054558349609374,-0.03970799967646599,0.15907274186611176,-0.2646191418170929
1776554612812599300,11.064599365234375,0.045878276228904724,0.2339341938495636,-0.2611636817455292
1776554612822639400,11.074639404296875,0.1491229087114334,0.2947078049182892,-0.24509310722351074
1776554612832680400,11.084680419921876,0.23708578944206238,0.3071599304676056,-0.22345119714736938
1776554612842720300,11.09472021484375,0.27478548884391785,0.26442739367485046,-0.19522222876548767
1776554612852761300,11.10476123046875,0.2661925256252289,0.17129266262054443,-0.15414217114448547
1776554612862801400,11.114801513671875,0.20717981457710266,0.04769961163401604,-0.11717908829450607
1776554612872842200,11.12484228515625,0.11323414742946625,-0.06903685629367828,-0.09320957213640213
1776554612882882300,11.13488232421875,-0.00515747768804431,-0.15149524807929993,-0.09516513347625732
1776554612892923400,11.14492333984375,-0.10014338046312332,-0.18577252328395844,-0.11878843605518341
1776554612902963500,11.15496337890625,-0.14614789187908173,-0.17668449878692627,-0.1409294307231903
1776554612913004300,11.16500439453125,-0.14535292983055115,-0.1059352234005928,-0.15533073246479034
1776554612923045400,11.17504541015625,-0.10209600627422333,0.016515327617526054,-0.16510319709777832
1776554612933085400,11.18508544921875,-0.027832163497805595,0.17415794730186462,-0.16497910022735596
1776554612943126500,11.19512646484375,0.05692107230424881,0.3172277510166168,-0.1297934204339981
1776554612953166300,11.205166259765624,0.12706394493579865,0.3881365656852722,-0.06595318019390106
1776554612963207200,11.215207275390625,0.1773683875799179,0.3639638423919678,-0.002691656816750765
1776554612973243400,11.225243408203125,0.1964358240365982,0.27684491872787476,0.03316887095570564
1776554612983284500,11.235284423828125,0.16881617903709412,0.18495067954063416,0.04308275505900383
1776554612993324500,11.245324462890625,0.10883300751447678,0.13592295348644257,0.026372751221060753
1776554613003365600,11.25536572265625,0.060857225209474564,0.14675003290176392,-0.007428355049341917
1776554613013405400,11.265405517578126,0.040039561688899994,0.20706236362457275,-0.04741917923092842
1776554613023446300,11.2754462890625,0.046127546578645706,0.29342496395111084,-0.0755554810166359
1776554613033486300,11.285486328125,0.06936043500900269,0.3445318043231964,-0.08218381553888321
1776554613043527400,11.29552734375,0.08975731581449509,0.3383498191833496,-0.06699634343385696
1776554613053568300,11.305568359375,0.07645376026630402,0.31257468461990356,-0.037343643605709076
1776554613063608300,11.3156083984375,0.03825977072119713,0.2802809178829193,-0.006548446603119373
1776554613073649400,11.3256494140625,-0.0008178567513823509,0.2400624006986618,0.024175643920898438
1776554613083689500,11.335689453125,-0.02732216753065586,0.18639756739139557,0.03899959847331047
1776554613093730600,11.34573046875,-0.02533198893070221,0.13953925669193268,0.038602251559495926
1776554613103770400,11.355770263671875,0.008142881095409393,0.11179710179567337,0.013039102777838707
1776554613113811500,11.3658115234375,0.05453701317310333,0.11045460402965546,-0.018682075664401054
1776554613123851500,11.3758515625,0.09069261699914932,0.1278248131275177,-0.03333665058016777
1776554613133892600,11.385892578125,0.10088613629341125,0.1362268179655075,-0.021290907636284828
1776554613143932400,11.395932373046875,0.0798221305012703,0.1335817575454712,0.011541874147951603
1776554613153973200,11.40597314453125,0.04589425399899483,0.11726324260234833,0.047213584184646606
1776554613164013300,11.416013427734375,0.016506271436810493,0.08300833404064178,0.06588687002658844
1776554613174054400,11.426054443359375,-0.0016623451374471188,0.02015640027821064,0.0727253332734108
1776554613184094500,11.436094482421876,-0.021387847140431404,-0.04837019741535187,0.06418164819478989
1776554613194135600,11.446135498046875,-0.035236019641160965,-0.07315437495708466,0.05632505938410759
1776554613204176400,11.45617626953125,-0.04139670729637146,-0.05795198306441307,0.04580237716436386
1776554613214216400,11.466216552734375,-0.03417634591460228,-0.012554673478007317,0.044686511158943176
1776554613224257500,11.476257568359374,-0.017885789275169373,0.04322283715009689,0.059900350868701935
1776554613234297600,11.486297607421875,0.0010817759903147817,0.0845111533999443,0.09064841270446777
1776554613244338400,11.49633837890625,0.01859578862786293,0.10390695929527283,0.11451272666454315
1776554613254378200,11.506378173828125,0.030472155660390854,0.08863505721092224,0.11326850205659866
1776554613264419300,11.51641943359375,0.02045094594359398,0.048234641551971436,0.07699944078922272
1776554613274458400,11.526458251953125,-0.0007462177309207618,-0.012911004945635796,0.022062957286834717
1776554613284499500,11.53649951171875,-0.02377297356724739,-0.06232835352420807,-0.029810626059770584
1776554613294539500,11.54653955078125,-0.02033456601202488,-0.09355498105287552,-0.05782708153128624
1776554613304580400,11.556580322265624,-0.003468234557658434,-0.08940204977989197,-0.06963633745908737
1776554613314620400,11.566620361328125,0.0182261411100626,-0.06917987018823624,-0.07025258988142014
1776554613324661500,11.57666162109375,0.03321334719657898,-0.047868989408016205,-0.0652647539973259
1776554613334701600,11.58670166015625,0.031036479398608208,-0.030130205675959587,-0.05597751587629318
1776554613344742700,11.59674267578125,0.0145312724635005,-0.015352324582636356,-0.04123399034142494
1776554613354782500,11.606782470703125,0.002978213131427765,-0.013205284252762794,-0.027575967833399773
1776554613364823300,11.6168232421875,-0.0008255799184553325,-0.026991670951247215,-0.019121229648590088
1776554613374863400,11.62686328125,0.002126800362020731,-0.046352319419384,-0.014849785715341568
1776554613384904400,11.636904541015625,0.006587062496691942,-0.056415338069200516,-0.014826616272330284
1776554613394944500,11.646944580078125,0.006945523899048567,-0.05428986996412277,-0.018549183383584023
1776554613404985300,11.6569853515625,0.0010381002211943269,-0.04015354439616203,-0.010601511225104332
1776554613415025400,11.667025390625,-0.008095210418105125,-0.03214914724230766,0.009020392782986164
1776554613425066500,11.67706640625,-0.01702132821083069,-0.0419519767165184,0.025231320410966873
1776554613435107600,11.687107666015624,-0.019208049401640892,-0.06731326133012772,0.04506441205739975
1776554613445147400,11.6971474609375,-0.011049455031752586,-0.09222553670406342,0.059296078979969025
1776554613455187200,11.707187255859376,0.001615207176655531,-0.12373605370521545,0.06668049097061157
1776554613465228300,11.717228271484375,-0.0019438412273302674,-0.153957337141037,0.07492537051439285
1776554613475269400,11.727269287109374,-0.023562051355838776,-0.17320533096790314,0.07583484053611755
1776554613485309400,11.737309326171875,-0.04732117801904678,-0.1973402351140976,0.07022090256214142
1776554613495350300,11.747350341796874,-0.05348160117864609,-0.22013422846794128,0.058215368539094925
1776554613505390300,11.757390380859375,-0.04757550731301308,-0.23580241203308105,0.0544147714972496
1776554613515431400,11.767431396484374,-0.038177214562892914,-0.2540101706981659,0.06144951283931732
1776554613525471500,11.777471435546875,-0.029455360025167465,-0.25212571024894714,0.07525081187486649
1776554613535512300,11.78751220703125,-0.021202756091952324,-0.22926488518714905,0.08663635700941086
1776554613545552400,11.797552490234375,-0.02792271040380001,-0.190695121884346,0.08996850252151489
1776554613555593500,11.807593505859375,-0.027700336650013924,-0.1602589190006256,0.08382512629032135
1776554613565633500,11.817633544921875,-0.030044984072446823,-0.1639612466096878,0.06217096373438835
1776554613575674600,11.827674560546875,-0.035529766231775284,-0.1994670331478119,0.037282656878232956
1776554613585714400,11.83771435546875,-0.03977803885936737,-0.2473115175962448,0.011114702560007572
1776554613595755300,11.84775537109375,-0.04417358711361885,-0.30191725492477417,0.00007084008393576369
1776554613605795300,11.85779541015625,-0.047628771513700485,-0.34512650966644287,-0.001383512164466083
1776554613615836400,11.86783642578125,-0.06089876964688301,-0.35962527990341187,0.008170045912265778
1776554613625876500,11.87787646484375,-0.06077706441283226,-0.34906265139579773,0.01618855632841587
1776554613635917300,11.887917236328125,-0.04469183832406998,-0.31916892528533936,0.018730277195572853
1776554613645957400,11.897957275390626,-0.020013121888041496,-0.2634294927120209,0.01071176677942276
1776554613655998500,11.90799853515625,0.011434548534452915,-0.21093088388442993,-0.007707720622420311
1776554613666038500,11.91803857421875,0.03797641023993492,-0.17836894094944,-0.02972700260579586
1776554613676079600,11.92807958984375,0.049734268337488174,-0.16070125997066498,-0.048704687505960464
1776554613686119400,11.938119384765624,0.05074440315365791,-0.14799052476882935,-0.0656684935092926
1776554613696160500,11.948160400390625,0.050884220749139786,-0.1279984414577484,-0.09428069740533829
1776554613706200300,11.958200439453124,0.05105040222406387,-0.11733648180961609,-0.12644235789775848
1776554613716241400,11.968241455078125,0.04015088081359863,-0.13183926045894623,-0.14632338285446167
1776554613726281500,11.978281494140624,0.017460215836763382,-0.16248372197151184,-0.14387328922748566
1776554613736322300,11.988322265625,-0.011541341431438923,-0.2049640715122223,-0.11942999064922333
1776554613746362400,11.9983623046875,-0.04676803946495056,-0.23328891396522522,-0.0806511715054512
1776554613756403500,12.008403564453126,-0.05446697026491165,-0.2371574193239212,-0.05411596596240997
1776554613766443500,12.018443603515625,-0.03266366943717003,-0.2146957963705063,-0.04103425145149231
1776554613776484600,12.028484619140626,0.0008436894277110696,-0.17868666350841522,-0.04273654520511627
1776554613786524400,12.0385244140625,0.03742114081978798,-0.13606488704681396,-0.04717230424284935
1776554613796565500,12.0485654296875,0.05856530740857124,-0.09126359969377518,-0.05999036505818367
1776554613806605300,12.058605224609375,0.06780887395143509,-0.04800401255488396,-0.0680895745754242
1776554613816646400,12.068646484375,0.0670168474316597,0.005392102058976889,-0.07335091382265091
1776554613826686500,12.0786865234375,0.08034010976552963,0.06811860203742981,-0.08118113875389099
1776554613836727300,12.088727294921876,0.11331351101398468,0.12759177386760712,-0.09751936793327332
1776554613846767400,12.098767333984375,0.15372776985168457,0.17583441734313965,-0.12240926921367645
1776554613856808400,12.108808349609374,0.15986156463623047,0.1988113671541214,-0.14871837198734283
1776554613866848500,12.1188486328125,0.14199042320251465,0.178799569606781,-0.1586490273475647
1776554613876889300,12.128889404296874,0.09465939551591873,0.10945192724466324,-0.15517041087150574
1776554613886929400,12.138929443359375,0.030171483755111694,-0.0034847462084144354,-0.12937849760055542
1776554613896970500,12.148970458984374,-0.03086071088910103,-0.1307779848575592,-0.09937559068202972
1776554613907010600,12.159010498046875,-0.08296279609203339,-0.23159994184970856,-0.08000855147838593
1776554613917051600,12.1690517578125,-0.12304896116256714,-0.29486411809921265,-0.06221596896648407
1776554613927091500,12.179091552734375,-0.15449796617031097,-0.2933599650859833,-0.052854690700769424
1776554613937132300,12.18913232421875,-0.16039925813674927,-0.2331315279006958,-0.045102763921022415
1776554613947172400,12.19917236328125,-0.132695734500885,-0.1302482783794403,-0.039202794432640076
1776554613957213400,12.20921337890625,-0.08577588945627213,-0.002094842493534088,-0.024443291127681732
1776554613967253500,12.21925341796875,-0.01495098602026701,0.10733098536729813,0.011635084636509418
1776554613977294000,12.229294189453125,0.06635905057191849,0.16451704502105713,0.0749349594116211
1776554613987334100,12.239334228515625,0.12413499504327774,0.1691914200782776,0.15084011852741241
1776554613997375200,12.249375244140625,0.1313638836145401,0.14438781142234802,0.20904776453971863
1776554614007415300,12.259415283203126,0.10496263206005096,0.11721956729888916,0.21983249485492706
1776554614017456400,12.269456298828125,0.05721508711576462,0.0904497355222702,0.18017509579658508
1776554614027496200,12.27949609375,0.017160611227154732,0.07055166363716125,0.10462600737810135
1776554614037537000,12.289537109375,-0.005072256550192833,0.05636447295546532,0.0033190976828336716
1776554614047577000,12.2995771484375,-0.005933256354182959,0.04904397577047348,-0.09113550186157227
1776554614057618200,12.3096181640625,0.006592388730496168,0.05067569389939308,-0.1640440672636032
1776554614067658200,12.319658203125,0.014484666287899017,0.0723772644996643,-0.1990843415260315
1776554614077699000,12.329698974609375,0.022875221446156502,0.09673026949167252,-0.1925569325685501
1776554614087739100,12.3397392578125,0.031496673822402954,0.12562210857868195,-0.1523469239473343
1776554614097780200,12.3497802734375,0.04057538881897926,0.1389395147562027,-0.08416574448347092
1776554614107820300,12.3598203125,0.051115382462739944,0.138340562582016,-0.01937263272702694
1776554614117861400,12.369861328125,0.05470345914363861,0.1210169717669487,0.02419748157262802
1776554614127901200,12.379901123046874,0.047863129526376724,0.09636009484529495,0.04025634378194809
1776554614137942000,12.38994189453125,0.020772922784090042,0.07231148332357407,0.024411067366600037
1776554614147982000,12.399982177734374,-0.015133678913116455,0.059191685169935226,-0.004627774935215712
1776554614158023200,12.410023193359375,-0.04355600103735924,0.061230599880218506,-0.019829098135232925
