time,seconds_elapsed,z,y,x
1776554601833235500,0.0852353515625,-13.28192138671875,-17.199851989746094,19.153770446777344
1776554601843276500,0.095276611328125,-13.312744140625,-17.26915740966797,19.107818603515625
1776554601853316600,0.105316650390625,-13.206207275390625,-17.203948974609375,19.078838348388672
1776554601863357400,0.115357421875,-13.40911865234375,-16.916088104248047,19.084651947021484
1776554601873397500,0.1253974609375,-13.4456787109375,-16.90530014038086,19.147972106933594
1776554601883438600,0.1354384765625,-13.607696533203125,-16.887832641601562,19.135482788085938
1776554601893478700,0.145478759765625,-13.642974853515625,-16.813697814941406,19.109561920166016
1776554601903519700,0.155519775390625,-13.528106689453125,-16.581317901611328,19.50521469116211
1776554601913560600,0.165560546875,-12.213623046875,-16.227031707763672,20.72484588623047
1776554601923600600,0.1756005859375,-12.170989990234375,-16.260421752929688,20.97298812866211
1776554601933641700,0.185641845703125,-11.979278564453125,-16.152324676513672,21.049373626708984
1776554601943681800,0.195681884765625,-12.437347412109375,-16.044864654541016,20.80489730834961
1776554601953722600,0.20572265625,-13.26666259765625,-16.29446029663086,19.76384735107422
1776554601963762400,0.215762451171875,-12.316619873046875,-15.901123046875,20.914634704589844
1776554601973803500,0.225803466796875,-12.1844482421875,-16.0042724609375,20.747116088867188
1776554601983843600,0.235843505859375,-12.523162841796875,-16.112377166748047,20.698566436767578
1776554601993884700,0.245884765625,-12.181732177734375,-16.037654876708984,20.904979705810547
1776554602003924700,0.2559248046875,-13.806304931640625,-16.503490447998047,19.597209930419922
1776554602013965600,0.265965576171875,-12.53106689453125,-16.048969268798828,20.987884521484375
1776554602024006700,0.276006591796875,-12.98126220703125,-16.135406494140625,20.339962005615234
1776554602034046700,0.286046630859375,-12.539581298828125,-15.912212371826172,20.780563354492188
1776554602044087600,0.296087646484375,-12.126708984375,-15.76144790649414,21.090801239013672
1776554602054127400,0.30612744140625,-12.722625732421875,-16.146610260009766,20.67464828491211
1776554602064168400,0.31616845703125,-12.42047119140625,-16.13402557373047,20.871055603027344
1776554602074208500,0.32620849609375,-13.299560546875,-16.51180648803711,19.643016815185547
1776554602084249600,0.33624951171875,-12.59136962890625,-16.160079956054688,20.584430694580078
1776554602094289700,0.34628955078125,-12.211029052734375,-16.084667205810547,21.09946060180664
1776554602104330500,0.35633056640625,-11.62078857421875,-15.900032043457031,21.396987915039062
1776554602114370600,0.36637060546875,-11.7269287109375,-16.01589584350586,21.513301849365234
1776554602124411600,0.37641162109375,-13.0931396484375,-16.333232879638672,20.279247283935547
1776554602134452500,0.386452392578125,-13.046844482421875,-16.39365005493164,20.403316497802734
1776554602144492500,0.396492431640625,-12.93499755859375,-16.56625747680664,19.995567321777344
1776554602154533600,0.40653369140625,-12.271514892578125,-16.23477554321289,20.767566680908203
1776554602164573700,0.41657373046875,-11.9779052734375,-16.111087799072266,20.95807647705078
1776554602174614800,0.42661474609375,-12.67108154296875,-16.50192642211914,20.07144546508789
1776554602184654600,0.436654541015625,-13.245361328125,-16.584640502929688,19.764358520507812
1776554602194695400,0.4466953125,-13.29620361328125,-16.738147735595703,19.697406768798828
1776554602204735500,0.456735595703125,-11.740081787109375,-16.07928466796875,20.99197006225586
1776554602214776600,0.466776611328125,-12.0009765625,-16.528026580810547,20.928424835205078
1776554602224816600,0.476816650390625,-11.563385009765625,-16.27063751220703,21.113277435302734
1776554602234857500,0.486857421875,-11.240447998046875,-16.382373809814453,21.29294204711914
1776554602244898600,0.496898681640625,-11.256256103515625,-16.65296173095703,21.016212463378906
1776554602254938600,0.506938720703125,-10.826416015625,-16.636119842529297,21.258602142333984
1776554602264979700,0.516979736328125,-10.278411865234375,-16.51825714111328,21.522319793701172
1776554602275019500,0.52701953125,-9.500579833984375,-16.238174438476562,21.960887908935547
1776554602285060600,0.537060546875,-9.773468017578125,-16.255558013916016,21.546916961669922
1776554602295100400,0.547100341796875,-9.277618408203125,-16.223194122314453,21.900012969970703
1776554602305141500,0.5571416015625,-8.59808349609375,-16.022647857666016,22.124000549316406
1776554602315181600,0.567181640625,-8.319732666015625,-16.047035217285156,22.200454711914062
1776554602325222400,0.577222412109375,-8.924713134765625,-16.197906494140625,21.355792999267578
1776554602335262500,0.587262451171875,-8.7388916015625,-16.328739166259766,21.203189849853516
1776554602345303600,0.597303466796875,-8.317413330078125,-16.14708709716797,21.6348876953125
1776554602355343600,0.607343505859375,-7.45947265625,-15.862167358398438,22.694671630859375
1776554602365384700,0.617384765625,-7.978485107421875,-15.95663070678711,21.936298370361328
1776554602375425500,0.627425537109375,-7.430938720703125,-15.866035461425781,22.390701293945312
1776554602385465600,0.637465576171875,-7.524932861328125,-15.709850311279297,22.071578979492188
1776554602395506700,0.647506591796875,-7.2265625,-15.736579895019531,22.63283920288086
1776554602405546800,0.657546630859375,-6.969085693359375,-15.696723937988281,22.81774139404297
1776554602415587600,0.667587646484375,-7.399627685546875,-15.961784362792969,22.07170867919922
1776554602425627400,0.67762744140625,-5.928924560546875,-15.820587158203125,23.21185302734375
1776554602435668500,0.68766845703125,-6.001678466796875,-16.102149963378906,22.814865112304688
1776554602445708500,0.69770849609375,-5.4396820068359375,-16.28057098388672,23.046321868896484
1776554602455749600,0.70774951171875,-4.7757415771484375,-16.20800018310547,23.107261657714844
1776554602465789400,0.71778955078125,-3.67205810546875,-16.152873992919922,23.458419799804688
1776554602475830500,0.72783056640625,-3.30767822265625,-16.296951293945312,23.051956176757812
1776554602485871600,0.73787158203125,-2.7539825439453125,-16.438613891601562,23.219913482666016
1776554602495911700,0.74791162109375,-2.232147216796875,-16.601749420166016,23.260120391845703
1776554602505952500,0.757952392578125,-1.32928466796875,-16.446514129638672,23.77001953125
1776554602515992600,0.76799267578125,-0.172088623046875,-16.295337677001953,24.602523803710938
1776554602526033700,0.77803369140625,0.1962432861328125,-16.697025299072266,24.730792999267578
1776554602536073500,0.788073486328125,0.18487548828125,-16.859622955322266,24.757701873779297
1776554602546114600,0.798114501953125,0.5163116455078125,-17.24036407470703,25.024585723876953
1776554602556154400,0.808154296875,0.5357513427734375,-17.719970703125,24.979450225830078
1776554602566195500,0.818195556640625,0.32080078125,-18.00162124633789,24.81591033935547
1776554602576235500,0.828235595703125,0.32080078125,-18.00162124633789,24.81591033935547
1776554602586276600,0.838276611328125,0.63433837890625,-18.436561584472656,24.97309112548828
1776554602596317400,0.8483173828125,0.1376800537109375,-19.001659393310547,24.903709411621094
1776554602606357500,0.858357421875,-0.0189361572265625,-19.304443359375,24.764911651611328
1776554602616398600,0.868398681640625,0.0338134765625,-19.42300796508789,24.89942169189453
1776554602626438700,0.878438720703125,-0.13555908203125,-19.626190185546875,24.90060043334961
1776554602636479700,0.888479736328125,-0.1837158203125,-19.970989227294922,24.997074127197266
1776554602646519600,0.89851953125,-1.6900177001953125,-20.701431274414062,23.979225158691406
1776554602656560600,0.908560546875,-3.028106689453125,-21.219772338867188,22.849746704101562
1776554602666600400,0.918600341796875,-1.982452392578125,-20.72917938232422,24.340473175048828
1776554602676641500,0.9286416015625,-2.056488037109375,-20.702926635742188,24.86227035522461
1776554602686681600,0.938681640625,-2.5054931640625,-20.76290512084961,25.04910659790039
1776554602696722400,0.948722412109375,-3.0880279541015625,-20.816162109375,25.157470703125
1776554602706763500,0.958763427734375,-4.578460693359375,-21.307758331298828,24.220348358154297
1776554602716803600,0.968803466796875,-4.1773223876953125,-21.305458068847656,24.73482894897461
1776554602726844700,0.9788447265625,-4.416259765625,-21.741619110107422,24.890064239501953
1776554602736884500,0.988884521484375,-4.3073577880859375,-21.780868530273438,24.927433013916016
1776554602746925600,0.998925537109375,-4.5992431640625,-22.030467987060547,24.770137786865234
1776554602756965600,1.008965576171875,-5.856597900390625,-22.765647888183594,23.830181121826172
1776554602767006700,1.0190068359375,-5.299591064453125,-22.809452056884766,24.624698638916016
1776554602777046500,1.029046630859375,-5.251556396484375,-22.91791534423828,24.75348663330078
1776554602787087600,1.039087646484375,-5.162384033203125,-23.032501220703125,24.88382339477539
1776554602797127400,1.04912744140625,-5.1781463623046875,-23.128009796142578,25.045021057128906
1776554602807168500,1.05916845703125,-4.96099853515625,-23.113677978515625,25.427715301513672
1776554602817209600,1.069209716796875,-4.8085479736328125,-22.83889389038086,25.714508056640625
1776554602827249400,1.07924951171875,-4.6643524169921875,-22.59496307373047,26.028106689453125
1776554602837290500,1.08929052734375,-4.6132965087890625,-22.447708129882812,26.148406982421875
1776554602847330600,1.09933056640625,-4.6479644775390625,-22.43621826171875,26.22679901123047
1776554602857371600,1.10937158203125,-3.7550201416015625,-22.04758071899414,26.786659240722656
1776554602867411700,1.11941162109375,-3.1868896484375,-21.96411895751953,27.285476684570312
1776554602877452500,1.12945263671875,-2.561614990234375,-21.753746032714844,27.423229217529297
1776554602887492600,1.13949267578125,-1.6359405517578125,-21.53122329711914,27.65811538696289
1776554602897533700,1.14953369140625,-0.2584686279296875,-21.185569763183594,28.153629302978516
1776554602907573500,1.159573486328125,0.96539306640625,-20.69501495361328,28.270477294921875
1776554602917614300,1.1696142578125,2.457366943359375,-20.44402313232422,28.263145446777344
1776554602927655400,1.179655517578125,4.3400115966796875,-20.025470733642578,28.576740264892578
1776554602937695500,1.189695556640625,6.11407470703125,-20.116893768310547,28.410785675048828
1776554602947736600,1.199736572265625,8.124282836914062,-20.010787963867188,28.366558074951172
1776554602957776400,1.2097763671875,8.584060668945312,-20.199649810791016,27.034969329833984
1776554602967817200,1.219817138671875,11.463760375976562,-19.37468719482422,27.523807525634766
1776554602977857300,1.229857177734375,13.338302612304688,-19.04983901977539,27.350826263427734
1776554602987898400,1.2398984375,15.328353881835938,-18.379467010498047,27.166847229003906
1776554602997938400,1.2499384765625,17.090103149414062,-17.644489288330078,26.973526000976562
1776554603007979500,1.2599794921875,18.417129516601562,-16.680927276611328,26.59967041015625
1776554603018020400,1.270020263671875,20.300735473632812,-15.254528045654297,26.553043365478516
1776554603028060400,1.280060302734375,21.320663452148438,-13.888946533203125,26.242530822753906
1776554603038101500,1.2901015625,21.92742919921875,-12.464523315429688,25.789386749267578
1776554603048141300,1.300141357421875,22.81103515625,-10.906967163085938,26.063621520996094
1776554603058182100,1.31018212890625,22.933639526367188,-9.244720458984375,26.02490234375
1776554603068222200,1.32022216796875,23.043701171875,-7.4093475341796875,26.549335479736328
1776554603078263300,1.33026318359375,22.613937377929688,-6.207855224609375,27.34101104736328
1776554603088303400,1.340303466796875,21.752914428710938,-4.765129089355469,28.3822021484375
1776554603098344400,1.350344482421875,20.407974243164062,-3.595001220703125,28.842220306396484
1776554603108384300,1.36038427734375,19.365036010742188,-2.1680679321289062,29.930530548095703
1776554603118425300,1.37042529296875,18.323165893554688,-1.05914306640625,30.754165649414062
1776554603128466400,1.380466552734375,17.997833251953125,-0.03549957275390625,31.48095703125
1776554603138506500,1.390506591796875,18.018905639648438,1.0406112670898438,31.702545166015625
1776554603148547300,1.40054736328125,18.43145751953125,2.0131607055664062,31.860450744628906
1776554603158587400,1.41058740234375,19.050827026367188,2.7651443481445312,31.612232208251953
1776554603168628500,1.42062841796875,19.9749755859375,3.3096542358398438,30.722198486328125
1776554603178668300,1.430668212890625,21.702423095703125,3.9440689086914062,29.981826782226562
1776554603188709400,1.44070947265625,23.984359741210938,4.5637664794921875,29.41988754272461
1776554603198749200,1.450749267578125,25.708419799804688,5.310340881347656,28.483238220214844
1776554603208790300,1.460790283203125,27.376922607421875,5.607246398925781,27.289356231689453
1776554603218830300,1.470830322265625,28.219711303710938,5.6983642578125,25.529109954833984
1776554603228871400,1.480871337890625,29.811553955078125,5.7260284423828125,24.482437133789062
1776554603238912300,1.490912353515625,31.15826416015625,5.5385284423828125,23.454723358154297
1776554603248952300,1.500952392578125,32.40794372558594,5.084449768066406,22.682151794433594
1776554603258993400,1.510993408203125,33.55293273925781,4.565376281738281,21.549179077148438
1776554603269033500,1.521033447265625,34.717620849609375,4.0950469970703125,21.21807098388672
1776554603279074300,1.53107421875,35.200439453125,3.3824310302734375,20.103023529052734
1776554603289114000,1.541114013671875,35.71391296386719,2.7731246948242188,19.272388458251953
1776554603299155200,1.5511552734375,36.19496154785156,2.0982513427734375,18.768585205078125
1776554603309195300,1.5611953125,36.10821533203125,1.3658828735351562,17.51504135131836
1776554603319236400,1.571236328125,36.356048583984375,0.6536483764648438,16.11370849609375
1776554603329276400,1.5812763671875,36.57170104980469,0.072601318359375,15.072021484375
1776554603339317200,1.591317138671875,37.38775634765625,-0.09795379638671875,14.93326187133789
1776554603349358300,1.6013583984375,37.91926574707031,-0.303985595703125,14.563396453857422
1776554603359398400,1.6113984375,38.26609802246094,-0.7892303466796875,14.111263275146484
1776554603369439500,1.621439453125,38.2320556640625,-1.2805938720703125,13.499988555908203
1776554603379479300,1.631479248046875,38.70732116699219,-1.5274124145507812,13.165275573730469
1776554603389520400,1.641520263671875,39.062652587890625,-1.677276611328125,12.48483657836914
1776554603399560400,1.651560546875,39.275634765625,-1.85943603515625,11.929740905761719
1776554603409601500,1.6616015625,39.60499572753906,-1.93341064453125,11.298023223876953
1776554603419641300,1.671641357421875,39.82374572753906,-1.99517822265625,10.629386901855469
1776554603429682200,1.68168212890625,39.81840515136719,-2.2257308959960938,9.67831039428711
1776554603439723300,1.69172314453125,40.24256896972656,-2.26171875,9.312187194824219
1776554603449763300,1.701763427734375,40.226409912109375,-2.3984603881835938,8.770503997802734
1776554603459804400,1.711804443359375,40.504302978515625,-2.546600341796875,8.518451690673828
1776554603469844200,1.72184423828125,40.22959899902344,-2.8524627685546875,7.7460174560546875
1776554603479885300,1.73188525390625,40.44242858886719,-2.9650421142578125,7.668876647949219
1776554603489925400,1.74192529296875,40.54084777832031,-3.4100265502929688,7.7381591796875
1776554603499966500,1.751966552734375,40.44212341308594,-3.9316558837890625,7.522865295410156
1776554603510006500,1.762006591796875,40.59295654296875,-4.428260803222656,7.995635986328125
1776554603520047400,1.77204736328125,40.69966125488281,-4.7953643798828125,8.272186279296875
1776554603530087400,1.78208740234375,41.16461181640625,-5.21759033203125,9.026573181152344
1776554603540128500,1.79212841796875,39.33464050292969,-6.375640869140625,7.7324371337890625
1776554603550169300,1.80216943359375,39.987579345703125,-6.413047790527344,8.741561889648438
1776554603560209200,1.812209228515625,40.03913879394531,-6.8136444091796875,9.532005310058594
1776554603570250200,1.822250244140625,40.06040954589844,-7.275840759277344,10.391487121582031
1776554603580290300,1.832290283203125,40.0284423828125,-7.578346252441406,11.290573120117188
1776554603590331400,1.842331298828125,39.38703918457031,-7.9932098388671875,11.758766174316406
1776554603600371500,1.852371337890625,38.1610107421875,-8.781227111816406,11.581993103027344
1776554603610412300,1.862412353515625,37.039825439453125,-9.357795715332031,11.667095184326172
1776554603620452400,1.872452392578125,37.29029846191406,-9.367950439453125,13.104270935058594
1776554603630493400,1.882493408203125,37.52912902832031,-9.269622802734375,14.609901428222656
1776554603640534500,1.892534423828125,37.32713317871094,-9.568244934082031,15.735591888427734
1776554603650574300,1.90257421875,36.42286682128906,-9.968536376953125,16.355224609375
1776554603660615400,1.912615478515625,35.24993896484375,-10.387985229492188,16.79781723022461
1776554603670655200,1.9226552734375,34.591064453125,-10.563278198242188,17.656620025634766
1776554603680696300,1.9326962890625,33.855712890625,-11.042091369628906,18.465805053710938
1776554603690736400,1.942736328125,33.47332763671875,-11.317489624023438,19.454517364501953
1776554603700777200,1.952777099609375,32.681365966796875,-11.750076293945312,19.883647918701172
1776554603710817300,1.9628173828125,32.16670227050781,-12.357826232910156,20.297534942626953
1776554603720858400,1.9728583984375,31.782684326171875,-12.744430541992188,20.867427825927734
1776554603730899500,1.9828994140625,30.249908447265625,-13.913040161132812,20.42749786376953
1776554603740939300,1.992939208984375,29.811859130859375,-14.789939880371094,21.122661590576172
1776554603750980400,2.00298046875,29.538925170898438,-15.741825103759766,22.168399810791016
1776554603761020400,2.0130205078125,28.599960327148438,-16.600086212158203,22.488624572753906
1776554603771061500,2.0230615234375,28.091522216796875,-17.504150390625,23.027786254882812
1776554603781101600,2.0331015625,26.310760498046875,-19.06704330444336,22.37337875366211
1776554603791142400,2.043142333984375,26.388076782226562,-19.82413101196289,23.247058868408203
1776554603801182200,2.05318212890625,25.499664306640625,-21.02307891845703,23.262222290039062
1776554603811223300,2.063223388671875,24.974197387695312,-22.250045776367188,23.614856719970703
1776554603821263400,2.073263427734375,24.277694702148438,-23.267105102539062,23.502696990966797
1776554603831304200,2.08330419921875,23.255844116210938,-24.26938247680664,23.358776092529297
1776554603841345300,2.09334521484375,23.255844116210938,-24.26938247680664,23.358776092529297
1776554603851385300,2.10338525390625,22.05938720703125,-25.266647338867188,22.880367279052734
1776554603861426400,2.113426513671875,22.012313842773438,-26.139144897460938,22.950958251953125
1776554603871466500,2.123466552734375,21.627456665039062,-27.065818786621094,22.964771270751953
1776554603881507300,2.13350732421875,22.31280517578125,-27.626705169677734,23.66216278076172
1776554603891547400,2.14354736328125,21.3558349609375,-28.42147445678711,22.871768951416016
1776554603901588500,2.15358837890625,20.727859497070312,-29.266490936279297,22.560394287109375
1776554603911628300,2.163628173828125,20.162826538085938,-29.885677337646484,22.275428771972656
1776554603921669000,2.173669189453125,19.744964599609375,-30.246776580810547,22.028759002685547
1776554603931710200,2.183710205078125,19.608963012695312,-30.461307525634766,22.02792739868164
1776554603941750300,2.193750244140625,19.49822998046875,-30.568626403808594,21.732891082763672
1776554603951791400,2.203791259765625,19.4678955078125,-30.52328109741211,21.870647430419922
1776554603961832000,2.21383203125,20.10687255859375,-29.9725341796875,22.151405334472656
1776554603971872800,2.223872802734375,20.621414184570312,-29.28592300415039,22.330810546875
1776554603981912800,2.233912841796875,21.273788452148438,-28.162517547607422,22.587406158447266
1776554603991954000,2.243953857421875,21.87823486328125,-26.356922149658203,23.24566650390625
1776554604001994000,2.253993896484375,22.071044921875,-24.56121063232422,23.88677978515625
1776554604012034800,2.264034912109375,22.075897216796875,-22.939682006835938,24.624279022216797
1776554604022076000,2.274075927734375,21.942428588867188,-21.408641815185547,25.097366333007812
1776554604032115700,2.28411572265625,22.380264282226562,-19.561283111572266,25.930587768554688
1776554604042156800,2.29415673828125,22.535537719726562,-18.203392028808594,26.636268615722656
1776554604052196900,2.30419677734375,23.016448974609375,-16.858409881591797,27.320571899414062
1776554604062237700,2.31423779296875,22.759109497070312,-15.62747573852539,27.54079818725586
1776554604072277800,2.32427783203125,22.236343383789062,-14.585067749023438,27.682518005371094
1776554604082318800,2.33431884765625,21.992385864257812,-13.370246887207031,28.448429107666016
1776554604092359000,2.34435888671875,22.145950317382812,-11.933486938476562,28.786392211914062
1776554604102399700,2.354399658203125,22.37237548828125,-10.372428894042969,29.093334197998047
1776554604112440800,2.36444091796875,21.82049560546875,-9.459915161132812,28.18819808959961
1776554604122481000,2.37448095703125,21.931991577148438,-8.442672729492188,27.706974029541016
1776554604132522000,2.38452197265625,23.084732055664062,-7.2201385498046875,27.585372924804688
1776554604142561800,2.394561767578125,23.842254638671875,-6.103790283203125,27.643264770507812
1776554604152603000,2.404602783203125,24.032272338867188,-5.585014343261719,27.42137908935547
1776554604162642700,2.414642578125,24.118804931640625,-5.166221618652344,27.37592315673828
1776554604172683800,2.424683837890625,24.0069580078125,-4.9244537353515625,27.373149871826172
1776554604182724600,2.434724609375,23.79248046875,-4.605735778808594,27.166542053222656
1776554604192764700,2.4447646484375,24.024734497070312,-4.285209655761719,27.085620880126953
1776554604202805800,2.4548056640625,24.728485107421875,-3.9304428100585938,27.622154235839844
1776554604212845800,2.464845703125,24.445053100585938,-3.970458984375,27.070087432861328
1776554604222887000,2.474886962890625,24.677597045898438,-3.9608688354492188,27.21863555908203
1776554604232926700,2.4849267578125,24.503204345703125,-4.537574768066406,26.91425323486328
1776554604242967800,2.4949677734375,24.793487548828125,-4.9000396728515625,27.003971099853516
1776554604253008000,2.5050078125,24.647079467773438,-5.877296447753906,26.859676361083984
1776554604263049000,2.515049072265625,24.90472412109375,-6.651023864746094,26.606151580810547
1776554604273089800,2.52508984375,25.090728759765625,-7.6710662841796875,26.17138671875
1776554604283129600,2.535129638671875,25.04644775390625,-8.722892761230469,25.752010345458984
1776554604293171000,2.5451708984375,25.236785888671875,-9.656547546386719,25.313739776611328
1776554604303210800,2.555210693359375,25.578964233398438,-10.718513488769531,24.92168426513672
1776554604313251800,2.565251953125,25.52191162109375,-12.233673095703125,24.247238159179688
1776554604323292000,2.5752919921875,25.67523193359375,-13.870223999023438,24.04693603515625
1776554604333332700,2.585332763671875,26.102630615234375,-15.041023254394531,24.059768676757812
1776554604343372800,2.595372802734375,26.642364501953125,-16.34029769897461,23.740447998046875
1776554604353414000,2.605413818359375,26.397140502929688,-17.45718765258789,23.194358825683594
1776554604363454700,2.615454833984375,26.989151000976562,-18.12643814086914,23.228538513183594
1776554604373494800,2.625494873046875,26.804611206054688,-19.109142303466797,22.871856689453125
1776554604383535900,2.635535888671875,26.825119018554688,-19.86522674560547,22.93755340576172
1776554604393576000,2.645575927734375,26.415557861328125,-20.438251495361328,23.34172821044922
1776554604403617000,2.655616943359375,25.188812255859375,-21.278785705566406,22.89379119873047
1776554604413656800,2.66565673828125,25.14666748046875,-21.86751937866211,23.79190444946289
1776554604423697700,2.67569775390625,24.47674560546875,-22.368648529052734,24.313495635986328
1776554604433738800,2.68573876953125,23.180389404296875,-23.08858871459961,24.411151885986328
1776554604443778800,2.69577880859375,21.735870361328125,-23.597434997558594,24.500904083251953
1776554604453819600,2.705819580078125,20.41168212890625,-24.220630645751953,24.433860778808594
1776554604463859700,2.715859619140625,20.520980834960938,-23.861934661865234,25.431365966796875
1776554604473900800,2.72590087890625,19.998611450195312,-23.675586700439453,25.448455810546875
1776554604483940900,2.73594091796875,20.009490966796875,-23.09076690673828,26.10440444946289
1776554604493982000,2.74598193359375,19.308670043945312,-22.663787841796875,26.21051025390625
1776554604504021800,2.756021728515625,18.848892211914062,-21.884662628173828,26.40152359008789
1776554604514062800,2.766062744140625,19.317138671875,-20.667293548583984,27.005901336669922
1776554604524104000,2.77610400390625,19.0328369140625,-19.451194763183594,27.64316177368164
1776554604534144000,2.78614404296875,18.822036743164062,-18.155391693115234,27.866943359375
1776554604544184800,2.796184814453125,18.607391357421875,-16.812580108642578,28.43587875366211
1776554604554224600,2.806224609375,18.754119873046875,-15.569099426269531,29.00402069091797
1776554604564265700,2.816265625,18.8868408203125,-14.517036437988281,29.381210327148438
1776554604574305800,2.826305908203125,18.650833129882812,-13.25128173828125,29.78188705444336
1776554604584347000,2.836346923828125,18.111587524414062,-12.206352233886719,29.654701232910156
1776554604594387700,2.8463876953125,17.1153564453125,-11.265708923339844,29.967849731445312
1776554604604427800,2.856427734375,16.660247802734375,-10.1251220703125,30.452468872070312
1776554604614468900,2.86646875,15.912200927734375,-9.137863159179688,30.743919372558594
1776554604624509000,2.876509033203125,14.80340576171875,-8.380126953125,31.22500991821289
1776554604634549800,2.8865498046875,13.779144287109375,-7.3631744384765625,31.55408477783203
1776554604644589800,2.89658984375,13.774063110351562,-6.026847839355469,31.712474822998047
1776554604654631000,2.906630859375,14.2994384765625,-4.386543273925781,31.54128646850586
1776554604664672000,2.916672119140625,15.72833251953125,-2.64312744140625,30.997207641601562
1776554604674711800,2.9267119140625,17.211868286132812,-0.8723068237304688,30.527084350585938
1776554604684752600,2.936752685546875,18.235137939453125,0.4965667724609375,29.51336669921875
1776554604694792700,2.946792724609375,19.690643310546875,1.4583358764648438,29.429153442382812
1776554604704833800,2.956833740234375,20.164169311523438,1.4678192138671875,29.032733917236328
1776554604714873900,2.966873779296875,20.77069091796875,1.7036514282226562,29.166675567626953
1776554604724914700,2.976914794921875,21.223892211914062,2.1837005615234375,28.810718536376953
1776554604734954800,2.986954833984375,21.289535522460938,2.466552734375,28.587818145751953
1776554604744995800,2.996995849609375,21.339706420898438,2.497955322265625,28.620010375976562
1776554604755037000,3.007036865234375,21.053314208984375,2.439178466796875,28.815433502197266
1776554604765077000,3.017076904296875,21.18829345703125,2.6545867919921875,29.35350799560547
1776554604775117800,3.027117919921875,20.169158935546875,2.5046310424804688,29.243331909179688
1776554604785158000,3.037157958984375,19.507431030273438,2.4196395874023438,29.611892700195312
1776554604795199000,3.047198974609375,18.668731689453125,2.2052841186523438,29.78936004638672
1776554604805238800,3.05723876953125,18.495254516601562,2.034423828125,30.35610580444336
1776554604815279600,3.067279541015625,18.683425903320312,1.5174560546875,30.49923324584961
1776554604825319700,3.077319580078125,19.17340087890625,1.11187744140625,30.482025146484375
1776554604835360800,3.08736083984375,19.874038696289062,0.5631561279296875,29.853618621826172
1776554604845401900,3.09740185546875,20.648696899414062,0.21210479736328125,29.49942398071289
1776554604855442000,3.10744189453125,21.708145141601562,-0.19921112060546875,29.148738861083984
1776554604865482800,3.117482666015625,22.161483764648438,-0.954803466796875,28.95769500732422
1776554604875522800,3.127522705078125,22.3399658203125,-1.9127273559570312,28.979244232177734
1776554604885564000,3.13756396484375,22.095504760742188,-2.9503326416015625,28.844070434570312
1776554604895604000,3.14760400390625,21.302017211914062,-4.507392883300781,28.742305755615234
1776554604905644800,3.157644775390625,21.292282104492188,-5.991203308105469,28.504531860351562
1776554604915686000,3.167685791015625,21.0272216796875,-7.800270080566406,27.31734848022461
1776554604925725700,3.1777255859375,21.528350830078125,-9.382102966308594,26.908672332763672
1776554604935766800,3.187766845703125,21.440628051757812,-10.902153015136719,25.83499526977539
1776554604945806800,3.197806884765625,22.178909301757812,-12.137863159179688,25.727127075195312
1776554604955847700,3.20784765625,22.672683715820312,-12.780380249023438,25.606796264648438
1776554604965887000,3.217886962890625,22.323928833007812,-13.816291809082031,25.504520416259766
1776554604975928000,3.227927978515625,22.085418701171875,-14.906517028808594,25.479110717773438
1776554604985969200,3.23796923828125,22.03436279296875,-15.679763793945312,25.231674194335938
1776554604996009000,3.248009033203125,21.43780517578125,-16.667076110839844,24.728912353515625
1776554605006049800,3.2580498046875,21.860382080078125,-17.111663818359375,24.315933227539062
1776554605016089900,3.26808984375,21.490005493164062,-17.736324310302734,23.47663116455078
1776554605026131000,3.278130859375,22.657943725585938,-17.64281463623047,23.65692901611328
1776554605036171000,3.2881708984375,22.876724243164062,-17.79979705810547,23.418209075927734
1776554605046211800,3.2982119140625,22.564697265625,-18.18819808959961,23.46841812133789
1776554605056253000,3.3082529296875,22.035568237304688,-18.719005584716797,23.736244201660156
1776554605066293000,3.31829296875,21.368194580078125,-19.560462951660156,24.089157104492188
1776554605076334000,3.328333984375,20.848968505859375,-19.936397552490234,24.589935302734375
1776554605086374100,3.3383740234375,19.842880249023438,-20.42374038696289,25.12894058227539
1776554605096415000,3.3484150390625,19.842880249023438,-20.42374038696289,25.12894058227539
1776554605106455000,3.358455078125,18.9827880859375,-20.64240264892578,24.978641510009766
1776554605116496100,3.36849609375,18.497802734375,-20.399673461914062,25.033695220947266
1776554605126537000,3.378536865234375,18.668106079101562,-19.77437973022461,25.457324981689453
1776554605136576800,3.38857666015625,18.728424072265625,-18.82270050048828,25.780277252197266
1776554605146617900,3.398617919921875,18.609039306640625,-17.597347259521484,25.959522247314453
1776554605156658000,3.408657958984375,18.253250122070312,-16.390178680419922,26.100154876708984
1776554605166699000,3.418698974609375,17.6343994140625,-15.322940826416016,26.243282318115234
1776554605176739000,3.428739013671875,18.486068725585938,-13.851776123046875,27.726139068603516
1776554605186780000,3.43877978515625,17.956512451171875,-13.053077697753906,28.32101821899414
1776554605196820000,3.448820068359375,17.809814453125,-11.816558837890625,28.78329086303711
1776554605206861000,3.458861083984375,16.152725219726562,-11.338905334472656,27.224605560302734
1776554605216902100,3.468902099609375,17.54266357421875,-9.43328857421875,27.99921417236328
1776554605226942000,3.47894189453125,18.72100830078125,-7.531410217285156,27.8770751953125
1776554605236983000,3.488983154296875,20.16790771484375,-5.362884521484375,27.349369049072266
1776554605247022800,3.49902294921875,21.950393676757812,-3.6435089111328125,26.422374725341797
1776554605257064000,3.50906396484375,23.604095458984375,-2.3214492797851562,25.394489288330078
1776554605267104000,3.51910400390625,24.974777221679688,-1.5599899291992188,24.116905212402344
1776554605277144800,3.529144775390625,26.674301147460938,-1.0048370361328125,23.151809692382812
1776554605287186000,3.53918603515625,28.316452026367188,-0.6057510375976562,22.107295989990234
1776554605297226000,3.54922607421875,29.104034423828125,-0.31258392333984375,20.25037384033203
1776554605307267000,3.55926708984375,30.473236083984375,0.1624908447265625,19.550758361816406
1776554605317307000,3.569306884765625,29.834259033203125,0.06203460693359375,17.505950927734375
1776554605327348000,3.579347900390625,29.720977783203125,0.19539642333984375,16.735332489013672
1776554605337388000,3.589387939453125,29.599533081054688,0.10533905029296875,16.910442352294922
1776554605347429000,3.59942919921875,29.480560302734375,0.27490997314453125,17.332355499267578
1776554605357470000,3.609469970703125,29.239028930664062,0.26239013671875,17.670482635498047
1776554605367510000,3.619510009765625,28.750762939453125,0.41921234130859375,18.010501861572266
1776554605377551000,3.629551025390625,28.383636474609375,0.45782470703125,18.446250915527344
1776554605387591000,3.6395908203125,27.854324340820312,0.6235427856445312,18.8214111328125
1776554605397632000,3.649632080078125,27.510055541992188,0.6832656860351562,19.215496063232422
1776554605407671800,3.659671875,27.24072265625,0.5862655639648438,19.523696899414062
1776554605417713000,3.669712890625,26.763198852539062,0.712860107421875,19.76049041748047
1776554605427754000,3.67975390625,27.63311767578125,1.2126235961914062,20.829437255859375
1776554605437794000,3.6897939453125,29.577133178710938,1.8271713256835938,22.602100372314453
1776554605447835000,3.6998349609375,29.785736083984375,2.135528564453125,22.470741271972656
1776554605457875000,3.709875,30.0235595703125,2.60650634765625,21.837623596191406
1776554605467916000,3.719916015625,28.2071533203125,2.4023361206054688,19.488842010498047
1776554605477956000,3.7299560546875,29.5997314453125,3.0323638916015625,20.10787582397461
1776554605487997000,3.739996826171875,30.12933349609375,3.467254638671875,19.960800170898438
1776554605498038000,3.7500380859375,30.400482177734375,3.907012939453125,19.618545532226562
1776554605508077800,3.760077880859375,30.612823486328125,4.2527923583984375,19.58041000366211
1776554605518119200,3.770119140625,30.409027099609375,4.63531494140625,19.265438079833984
1776554605528159000,3.780158935546875,29.090316772460938,4.683341979980469,17.977413177490234
1776554605538199800,3.79019970703125,29.651458740234375,5.2225494384765625,18.219242095947266
1776554605548240000,3.800239990234375,30.01702880859375,5.6636810302734375,18.614151000976562
1776554605558281000,3.810281005859375,30.12347412109375,6.0645294189453125,18.65319061279297
1776554605568322000,3.820322021484375,30.518386840820312,6.334770202636719,18.97295379638672
1776554605578362000,3.830362060546875,30.5697021484375,6.5058746337890625,18.931583404541016
1776554605588403000,3.84040283203125,30.493850708007812,6.4409637451171875,18.475318908691406
1776554605598443000,3.850443115234375,30.539031982421875,6.40814208984375,18.58047103881836
1776554605608484000,3.860484130859375,30.90606689453125,6.231986999511719,18.93114471435547
1776554605618524200,3.870524169921875,31.278564453125,6.185920715332031,19.19240951538086
1776554605628565000,3.88056494140625,30.63250732421875,5.893348693847656,19.376068115234375
1776554605638606000,3.890606201171875,30.486038208007812,6.1600341796875,19.735885620117188
1776554605648646000,3.90064599609375,30.30267333984375,6.40045166015625,20.19629669189453
1776554605658687000,3.91068701171875,29.860504150390625,6.58721923828125,20.410926818847656
1776554605668727000,3.92072705078125,29.605621337890625,6.714469909667969,20.754169464111328
1776554605678767900,3.930767822265625,29.71356201171875,6.6424102783203125,20.773700714111328
1776554605688808000,3.940807861328125,29.597518920898438,6.820518493652344,20.39841079711914
1776554605698849000,3.95084912109375,30.3812255859375,6.712516784667969,20.56804656982422
1776554605708889900,3.960889892578125,30.447280883789062,6.705543518066406,20.394939422607422
1776554605718930000,3.970929931640625,30.66595458984375,6.871650695800781,20.259578704833984
1776554605728971000,3.980970947265625,30.971817016601562,7.0082550048828125,20.37598419189453
1776554605739011000,3.991010986328125,30.801895141601562,7.403602600097656,20.32464599609375
1776554605749052200,4.00105224609375,30.429763793945312,7.504219055175781,20.412067413330078
1776554605759092000,4.011092041015625,30.070358276367188,7.719703674316406,20.432373046875
1776554605769133000,4.021133056640625,29.965011596679688,7.875144958496094,20.388572692871094
1776554605779174100,4.031174072265625,29.871826171875,7.843147277832031,20.397186279296875
1776554605789214000,4.0412138671875,29.888153076171875,8.209251403808594,20.160053253173828
1776554605799254800,4.0512548828125,29.696365356445312,8.300697326660156,20.106285095214844
1776554605809294800,4.061294921875,29.109085083007812,8.599044799804688,19.901458740234375
1776554605819336000,4.0713359375,28.54541015625,8.663955688476562,19.734275817871094
1776554605829376000,4.0813759765625,28.150466918945312,8.807823181152344,19.559085845947266
1776554605839417000,4.0914169921875,28.330856323242188,9.241920471191406,19.812503814697266
1776554605849458000,4.1014580078125,28.43609619140625,9.485862731933594,20.242969512939453
1776554605859498000,4.111498046875,28.502197265625,9.637138366699219,20.569644927978516
1776554605869539000,4.1215390625,27.797561645507812,9.577056884765625,20.461284637451172
1776554605879579100,4.1315791015625,27.647705078125,9.548530578613281,20.796524047851562
1776554605889620000,4.141619873046875,27.657302856445312,9.604454040527344,21.49384307861328
1776554605899661000,4.1516611328125,27.041915893554688,9.615753173828125,22.033889770507812
1776554605909700900,4.161700927734375,26.461669921875,9.445335388183594,22.561607360839844
1776554605919742000,4.171741943359375,25.878204345703125,9.328445434570312,23.403316497802734
1776554605929782000,4.181781982421875,24.580490112304688,9.040008544921875,23.703460693359375
1776554605939822800,4.19182275390625,23.544509887695312,8.721473693847656,24.257530212402344
1776554605949863000,4.20186279296875,23.479812622070312,8.669586181640625,25.127601623535156
1776554605959904300,4.211904296875,22.434524536132812,8.230880737304688,25.385536193847656
1776554605969945000,4.221945068359375,21.098358154296875,7.9305877685546875,24.814716339111328
1776554605979985000,4.23198486328125,21.900527954101562,7.928413391113281,25.564014434814453
1776554605990026000,4.24202587890625,22.19000244140625,7.9716644287109375,25.782554626464844
1776554606000066000,4.252066162109375,22.902496337890625,7.819770812988281,26.18756103515625
1776554606010107100,4.262107177734375,22.815643310546875,7.5112762451171875,25.865894317626953
1776554606020148000,4.27214794921875,22.086898803710938,7.29168701171875,24.53396224975586
1776554606030188000,4.28218798828125,22.597625732421875,7.20587158203125,23.876609802246094
1776554606040229000,4.29222900390625,23.3189697265625,6.910575866699219,23.25273895263672
1776554606050269200,4.302269287109375,25.12615966796875,6.924591064453125,23.45006561279297
1776554606060310000,4.31231005859375,25.688491821289062,6.7574920654296875,23.36977767944336
1776554606070350000,4.32235009765625,26.074798583984375,6.4832305908203125,22.952129364013672
1776554606080391200,4.33239111328125,26.704452514648438,6.509300231933594,22.764240264892578
1776554606090432300,4.342432373046875,26.3709716796875,6.51690673828125,21.836502075195312
1776554606100472300,4.352472412109375,26.496292114257812,6.535247802734375,21.368942260742188
1776554606110513200,4.36251318359375,27.0823974609375,6.314491271972656,20.911556243896484
1776554606120553000,4.372552978515625,27.95068359375,6.485382080078125,20.455745697021484
1776554606130594000,4.382593994140625,28.52349853515625,6.454071044921875,19.765480041503906
1776554606140635100,4.39263525390625,29.436386108398438,6.447959899902344,19.23529052734375
1776554606150675000,4.402675048828125,29.892715454101562,6.47454833984375,18.463764190673828
1776554606160716000,4.412716064453125,30.72125244140625,6.4732208251953125,18.079971313476562
1776554606170756000,4.422756103515625,30.835189819335938,6.3684234619140625,17.377925872802734
1776554606180797200,4.432797119140625,31.057388305664062,6.581565856933594,17.315570831298828
1776554606190837200,4.442837158203125,31.238616943359375,6.492668151855469,17.29206085205078
1776554606200878000,4.452878173828125,30.952545166015625,6.568214416503906,16.77423858642578
1776554606210919200,4.462919189453125,31.57745361328125,6.531822204589844,16.973857879638672
1776554606220959200,4.472959228515625,31.848342895507812,6.55712890625,16.809524536132812
1776554606231000000,4.483,31.819976806640625,6.591117858886719,16.800228118896484
1776554606241040000,4.493039794921875,31.579010009765625,6.467559814453125,16.347244262695312
1776554606251081000,4.5030810546875,31.7509765625,6.397819519042969,16.269580841064453
1776554606261122000,4.5131220703125,32.043853759765625,6.6335296630859375,16.405487060546875
1776554606271162000,4.523162109375,31.982513427734375,6.4890289306640625,16.402729034423828
1776554606281203000,4.533202880859375,31.8721923828125,6.5247955322265625,16.134178161621094
1776554606291243000,4.543242919921875,32.395111083984375,6.507354736328125,16.15781021118164
1776554606301284000,4.5532841796875,32.03192138671875,6.5467529296875,15.801765441894531
1776554606311324200,4.56332421875,33.01609802246094,6.7602081298828125,15.893024444580078
1776554606321365000,4.573364990234375,33.42552185058594,7.1793212890625,15.538433074951172
1776554606331406000,4.583406005859375,33.20664978027344,7.324920654296875,14.68313980102539
1776554606341446100,4.593446044921875,33.52601623535156,7.4495086669921875,14.516563415527344
1776554606351487200,4.6034873046875,33.589874267578125,7.6902313232421875,14.365333557128906
1776554606361527300,4.61352734375,33.69892883300781,7.7884674072265625,14.088340759277344
1776554606371568000,4.623568115234375,33.75532531738281,7.7150726318359375,13.873580932617188
1776554606381609200,4.633609130859375,33.75532531738281,7.7150726318359375,13.873580932617188
1776554606391649000,4.64364892578125,33.87095642089844,7.9216766357421875,13.492958068847656
1776554606401690000,4.653690185546875,34.14451599121094,7.737571716308594,13.263973236083984
1776554606411730200,4.663730224609375,34.17839050292969,7.669654846191406,12.69301986694336
1776554606421771000,4.67377099609375,34.70878601074219,8.057769775390625,12.708736419677734
1776554606431811000,4.68381103515625,35.46405029296875,8.031478881835938,12.710075378417969
1776554606441852200,4.69385205078125,34.71315002441406,8.1102294921875,11.53268814086914
1776554606451893000,4.70389306640625,34.67301940917969,8.155120849609375,11.311347961425781
1776554606461933000,4.71393310546875,35.124755859375,8.367462158203125,11.35013198852539
1776554606471974100,4.72397412109375,35.628814697265625,8.279548645019531,11.055381774902344
1776554606482014200,4.73401416015625,34.02171325683594,7.622154235839844,8.790031433105469
1776554606492055300,4.74405517578125,34.725677490234375,7.677070617675781,8.662796020507812
1776554606502096100,4.75409619140625,35.653839111328125,7.7224273681640625,8.700122833251953
1776554606512136200,4.76413623046875,36.46232604980469,7.684104919433594,8.696598052978516
1776554606522177300,4.77417724609375,37.37342834472656,7.51812744140625,8.832221984863281
1776554606532217000,4.784217041015625,37.953948974609375,7.7044830322265625,9.031200408935547
1776554606542258000,4.7942578125,37.617645263671875,7.54254150390625,8.563850402832031
1776554606552299000,4.804299072265625,38.03675842285156,7.195137023925781,8.46609878540039
1776554606562339000,4.814339111328125,37.74334716796875,6.627288818359375,7.962184906005859
1776554606572380200,4.824380126953125,38.442108154296875,6.22479248046875,7.823101043701172
1776554606582420200,4.834420166015625,38.5201416015625,5.4662322998046875,7.558082580566406
1776554606592461000,4.8444609375,39.03263854980469,4.901237487792969,7.6580810546875
1776554606602501000,4.854501220703125,39.05360412597656,3.9872207641601562,7.969169616699219
1776554606612542200,4.864542236328125,38.705535888671875,3.6700973510742188,8.179290771484375
1776554606622583000,4.8745830078125,38.25640869140625,3.2649383544921875,8.273719787597656
1776554606632623000,4.884623046875,38.34080505371094,2.9574813842773438,9.199657440185547
1776554606642664200,4.894664306640625,38.4019775390625,2.5500106811523438,9.929641723632812
1776554606652704000,4.9047041015625,38.05516052246094,2.2093887329101562,10.581344604492188
1776554606662745000,4.9147451171875,37.80131530761719,1.74224853515625,11.01226806640625
1776554606672786000,4.924785888671875,37.661834716796875,1.29364013671875,11.591781616210938
1776554606682826000,4.934825927734375,37.494293212890625,0.8566207885742188,11.863277435302734
1776554606692867000,4.9448671875,37.96434020996094,0.5620956420898438,11.988414764404297
1776554606702907100,4.9549072265625,38.11714172363281,0.47259521484375,12.03897476196289
1776554606712948000,4.964947998046875,37.91069030761719,0.25726318359375,11.60061264038086
1776554606722989000,4.974989013671875,38.077056884765625,0.3246612548828125,11.062637329101562
1776554606733029000,4.985029052734375,37.03541564941406,0.5655746459960938,9.670429229736328
1776554606743070200,4.9950703125,38.05192565917969,0.8616714477539062,10.006153106689453
1776554606753110300,5.0051103515625,38.64508056640625,0.896484375,10.460895538330078
1776554606763151000,5.015151123046875,38.70091247558594,0.6923065185546875,10.45394515991211
1776554606773192200,5.025192138671875,38.60371398925781,0.23892974853515625,10.314579010009766
1776554606783232300,5.035232177734375,38.89268493652344,-0.1703338623046875,10.315608978271484
1776554606793273000,5.045273193359375,39.371826171875,-0.7107696533203125,10.230419158935547
1776554606803313000,5.05531298828125,39.48402404785156,-1.15167236328125,10.315868377685547
1776554606813354000,5.06535400390625,39.52763366699219,-1.6239395141601562,10.109989166259766
1776554606823394000,5.07539404296875,39.41485595703125,-2.2273406982421875,10.327796936035156
1776554606833435100,5.08543505859375,39.22773742675781,-2.8090362548828125,10.396984100341797
1776554606843476000,5.09547607421875,39.1163330078125,-3.258880615234375,10.71895980834961
1776554606853516000,5.10551611328125,38.47979736328125,-3.8334503173828125,10.955528259277344
1776554606863557000,5.11555712890625,38.39910888671875,-3.9856719970703125,11.76132583618164
1776554606873597200,5.12559716796875,37.96324157714844,-4.1471710205078125,12.413558959960938
1776554606883638000,5.135637939453125,37.54150390625,-4.2582550048828125,13.456707000732422
1776554606893679000,5.14567919921875,37.04400634765625,-4.410972595214844,14.441970825195312
1776554606903719200,5.15571923828125,36.3916015625,-4.6142425537109375,15.46274185180664
1776554606913760300,5.16576025390625,35.868927001953125,-4.945770263671875,16.147418975830078
1776554606923800000,5.175800048828125,35.89985656738281,-5.045112609863281,16.914531707763672
1776554606933841000,5.1858408203125,34.69984436035156,-5.29296875,17.13166046142578
1776554606943881000,5.195880859375,34.67332458496094,-5.672264099121094,17.427745819091797
1776554606953922000,5.205922119140625,34.2672119140625,-5.696418762207031,17.825061798095703
1776554606963963400,5.21596337890625,34.332061767578125,-5.783943176269531,18.424854278564453
1776554606974003500,5.22600341796875,33.9112548828125,-5.6314697265625,18.236568450927734
1776554606984044500,5.23604443359375,34.20558166503906,-5.52191162109375,18.61101531982422
1776554606994084400,5.24608447265625,34.383331298828125,-5.595909118652344,18.506004333496094
1776554607004125400,5.25612548828125,32.21009826660156,-5.7753448486328125,16.505779266357422
1776554607014166300,5.266166259765625,31.614700317382812,-5.67840576171875,15.96743392944336
1776554607024206300,5.276206298828125,31.378677368164062,-5.6386260986328125,15.67193603515625
1776554607034247400,5.286247314453125,33.78977966308594,-5.039093017578125,17.575626373291016
1776554607044287500,5.29628759765625,34.50062561035156,-4.84423828125,17.82599639892578
1776554607054328300,5.306328369140625,34.79859924316406,-4.46075439453125,16.997657775878906
1776554607064369400,5.316369384765625,35.54161071777344,-4.246925354003906,16.906639099121094
1776554607074409500,5.326409423828125,36.05793762207031,-3.8370513916015625,16.337238311767578
1776554607084450600,5.336450439453125,36.809906005859375,-3.2182693481445312,16.239215850830078
1776554607094490600,5.34649072265625,36.94880676269531,-2.9334182739257812,15.8753662109375
1776554607104531500,5.356531494140625,36.97218322753906,-2.5080642700195312,15.520198822021484
1776554607114571300,5.3665712890625,36.93597412109375,-2.1773757934570312,15.034477233886719
1776554607124612400,5.3766123046875,37.55610656738281,-1.7578659057617188,14.90365982055664
1776554607134653400,5.3866533203125,37.675018310546875,-1.8293075561523438,14.853767395019531
1776554607144693200,5.396693359375,37.91484069824219,-1.5994186401367188,14.828388214111328
1776554607154734300,5.406734375,37.733917236328125,-1.6093597412109375,14.605377197265625
1776554607164774400,5.4167744140625,38.25541687011719,-1.4070510864257812,14.306217193603516
1776554607174815500,5.4268154296875,38.16471862792969,-1.34600830078125,13.887775421142578
1776554607184856300,5.436856201171875,38.192657470703125,-1.2097244262695312,13.81088638305664
1776554607194896400,5.446896484375,38.08045959472656,-0.7625808715820312,13.219306945800781
1776554607204937500,5.4569375,38.5445556640625,-0.3969573974609375,13.202278137207031
1776554607214977500,5.4669775390625,38.68701171875,0.02901458740234375,13.048110961914062
1776554607225018600,5.4770185546875,38.83515930175781,0.4434967041015625,12.802387237548828
1776554607235059500,5.4870595703125,39.093902587890625,0.6998748779296875,12.43646240234375
1776554607245099500,5.497099609375,39.273529052734375,0.8805160522460938,12.166275024414062
1776554607255140600,5.507140625,39.382171630859375,1.1888809204101562,11.960941314697266
1776554607265180400,5.517180419921875,39.619720458984375,1.3909149169921875,11.732429504394531
1776554607275221200,5.52722119140625,39.776092529296875,1.6824417114257812,11.405235290527344
1776554607285261300,5.53726123046875,39.72308349609375,1.9443588256835938,10.64834213256836
1776554607295302400,5.547302490234375,40.00828552246094,2.46209716796875,10.549766540527344
1776554607305343500,5.557343505859375,40.30125427246094,2.7748794555664062,10.0423583984375
1776554607315383600,5.567383544921875,40.50276184082031,3.04193115234375,10.017135620117188
1776554607325424400,5.57742431640625,40.13392639160156,3.1152801513671875,10.195465087890625
1776554607335464400,5.58746435546875,39.79704284667969,3.0034103393554688,10.210426330566406
1776554607345505500,5.597505615234375,39.79652404785156,2.8561553955078125,11.093070983886719
1776554607355546400,5.60754638671875,39.756378173828125,2.7005462646484375,12.127384185791016
1776554607365586400,5.61758642578125,39.162445068359375,2.7598495483398438,13.385761260986328
1776554607375627500,5.62762744140625,38.331573486328125,2.504608154296875,14.517295837402344
1776554607385667300,5.637667236328125,37.817657470703125,2.367462158203125,15.64724349975586
1776554607395708400,5.64770849609375,37.19482421875,2.473602294921875,16.54220962524414
1776554607405748500,5.65774853515625,37.107421875,2.39007568359375,17.018138885498047
1776554607415789300,5.667789306640625,36.966644287109375,2.396881103515625,17.371726989746094
1776554607425830400,5.677830322265625,36.943878173828125,2.4970169067382812,17.383384704589844
1776554607435870500,5.687870361328125,36.82984924316406,2.643096923828125,17.45559310913086
1776554607445911300,5.697911376953125,36.99229431152344,2.9486846923828125,17.315078735351562
1776554607455951400,5.707951416015625,36.87660217285156,3.0644073486328125,17.24179458618164
1776554607465992400,5.717992431640625,36.559112548828125,3.341278076171875,17.191856384277344
1776554607476033500,5.728033447265625,36.67759704589844,3.4523086547851562,16.864803314208984
1776554607486073600,5.738073486328125,36.052947998046875,3.5027084350585938,16.269954681396484
1776554607496114400,5.748114501953125,36.45399475097656,3.4678573608398438,16.532733917236328
1776554607506154500,5.758154541015625,36.83831787109375,3.7417144775390625,16.246585845947266
1776554607516195600,5.768195556640625,36.73069763183594,3.9146728515625,15.55147933959961
1776554607526236400,5.778236328125,36.88079833984375,3.9888992309570312,14.977394104003906
1776554607536276200,5.788276123046875,37.15625,4.0881805419921875,14.424434661865234
1776554607546317300,5.7983173828125,37.613372802734375,4.224540710449219,13.839595794677734
1776554607556357400,5.808357421875,37.59649658203125,4.0255889892578125,12.954841613769531
1776554607566398500,5.8183984375,38.02857971191406,3.7677688598632812,12.025943756103516
1776554607576439300,5.828439208984375,38.54908752441406,3.6002883911132812,11.519847869873047
1776554607586479400,5.838479248046875,39.374725341796875,3.4500808715820312,10.5230712890625
1776554607596520400,5.8485205078125,39.63775634765625,3.2726669311523438,9.258186340332031
1776554607606560500,5.858560546875,40.388519287109375,3.1384735107421875,8.388858795166016
1776554607616601300,5.868601318359375,40.7691650390625,3.0897598266601562,6.7592010498046875
1776554607626641400,5.878641357421875,41.385772705078125,3.0418701171875,6.098350524902344
1776554607636682500,5.8886826171875,41.719085693359375,2.9829635620117188,5.299171447753906
1776554607646723600,5.8987236328125,41.719085693359375,2.9829635620117188,5.299171447753906
1776554607656763600,5.908763671875,41.95442199707031,2.9205169677734375,4.816764831542969
1776554607666804500,5.918804443359375,41.82281494140625,2.7956314086914062,4.8585052490234375
1776554607676844300,5.92884423828125,41.49263000488281,2.4660415649414062,4.868988037109375
1776554607686885400,5.938885498046875,41.466278076171875,2.3798828125,5.659690856933594
1776554607696925400,5.948925537109375,41.6033935546875,2.0579986572265625,6.621345520019531
1776554607706966500,5.958966552734375,41.50750732421875,2.0152664184570312,7.772403717041016
1776554607717007400,5.96900732421875,40.6370849609375,1.7141036987304688,8.879100799560547
1776554607727047400,5.97904736328125,39.9052734375,1.4501571655273438,10.049564361572266
1776554607737088500,5.989088623046875,39.302642822265625,1.2461700439453125,11.7950439453125
1776554607747128600,5.999128662109375,38.60455322265625,1.1752471923828125,13.48952865600586
1776554607757169400,6.00916943359375,37.63386535644531,1.149688720703125,15.133922576904297
1776554607767210500,6.01921044921875,36.13575744628906,1.3585968017578125,16.558643341064453
1776554607777250600,6.02925048828125,34.44361877441406,1.6102142333984375,17.8446044921875
1776554607787291600,6.039291748046875,33.930328369140625,1.9852066040039062,19.487838745117188
1776554607797331500,6.04933154296875,33.01628112792969,2.165557861328125,20.730106353759766
1776554607807372300,6.059372314453125,32.31300354003906,2.3223800659179688,21.697254180908203
1776554607817413400,6.069413330078125,31.979934692382812,2.674407958984375,21.97469711303711
1776554607827453400,6.079453369140625,31.924468994140625,2.9331207275390625,22.00457000732422
1776554607837494300,6.089494384765625,32.55316162109375,3.04931640625,21.759769439697266
1776554607847534300,6.099534423828125,32.71369934082031,3.3373947143554688,21.04814910888672
1776554607857575400,6.109575439453125,32.71687316894531,3.4725570678710938,20.435760498046875
1776554607867615500,6.119615478515625,33.20726013183594,3.890869140625,20.015316009521484
1776554607877656600,6.129656494140625,32.388885498046875,3.8202285766601562,18.71794891357422
1776554607887697400,6.139697509765625,33.17262268066406,4.129119873046875,19.363094329833984
1776554607897737500,6.149737548828125,33.666839599609375,4.6473388671875,19.099666595458984
1776554607907778600,6.159778564453125,33.63671875,4.8690032958984375,18.271041870117188
1776554607917818600,6.169818603515625,34.033721923828125,5.27423095703125,17.834442138671875
1776554607927859500,6.179859375,34.360321044921875,5.6658172607421875,17.40869140625
1776554607937900500,6.189900634765625,34.662078857421875,6.0649871826171875,16.79721450805664
1776554607947940400,6.1999404296875,34.88243103027344,6.201301574707031,15.820518493652344
1776554607957981400,6.2099814453125,35.082275390625,6.391914367675781,14.456859588623047
1776554607968021200,6.220021240234375,35.834320068359375,6.739990234375,13.424751281738281
1776554607978062000,6.23006201171875,36.54095458984375,7.167900085449219,12.243106842041016
1776554607988102000,6.240101806640625,37.3267822265625,7.6833648681640625,10.835678100585938
1776554607998143000,6.25014306640625,37.55213928222656,8.143203735351562,9.591468811035156
1776554608008184000,6.26018408203125,38.03413391113281,8.469825744628906,8.312149047851562
1776554608018224000,6.27022412109375,38.19651794433594,8.847740173339844,7.924167633056641
1776554608028265000,6.280264892578125,38.083221435546875,8.614837646484375,7.851482391357422
1776554608038305000,6.290304931640625,38.21449279785156,8.223922729492188,8.042442321777344
1776554608048346000,6.30034619140625,38.071624755859375,7.747161865234375,8.716056823730469
1776554608058387000,6.310386962890625,38.34318542480469,7.223785400390625,9.133472442626953
1776554608068427000,6.320427001953125,38.39851379394531,6.778495788574219,9.477458953857422
1776554608078468000,6.330468017578125,38.33953857421875,6.3656768798828125,9.85379409790039
1776554608088508200,6.340508056640625,38.19468688964844,5.9716949462890625,9.98849868774414
1776554608098549200,6.35054931640625,38.271697998046875,5.8103485107421875,10.359916687011719
1776554608108589000,6.360589111328125,38.28236389160156,6.14996337890625,10.448291778564453
1776554608118630100,6.370630126953125,37.83982849121094,6.1071014404296875,10.72500228881836
1776554608128671200,6.380671142578125,37.70115661621094,6.413169860839844,11.067554473876953
1776554608138711000,6.3907109375,37.38079833984375,6.7663421630859375,11.002094268798828
1776554608148752000,6.400751953125,37.496002197265625,7.0099029541015625,11.24896240234375
1776554608158792000,6.4107919921875,37.30110168457031,7.151847839355469,11.098686218261719
1776554608168833000,6.4208330078125,37.00602722167969,7.2547607421875,11.148090362548828
1776554608178873000,6.430873046875,37.09632873535156,7.082115173339844,10.90109634399414
1776554608188914200,6.4409140625,36.78706359863281,7.0816802978515625,10.50189208984375
1776554608198955000,6.450955078125,36.873565673828125,7.138679504394531,10.860267639160156
1776554608208995000,6.4609951171875,36.80220031738281,6.941680908203125,11.137271881103516
1776554608219036200,6.4710361328125,36.986785888671875,7.033500671386719,11.423797607421875
1776554608229076200,6.481076171875,37.07952880859375,6.944549560546875,11.563220977783203
1776554608239117000,6.491116943359375,36.88299560546875,6.954948425292969,11.246170043945312
1776554608249158100,6.501158203125,36.86341857910156,6.898796081542969,11.091865539550781
1776554608259198000,6.511197998046875,36.795806884765625,7.0006561279296875,10.972213745117188
1776554608269239000,6.521239013671875,37.012481689453125,7.18426513671875,10.988014221191406
1776554608279279000,6.531279052734375,36.99000549316406,6.9805755615234375,10.918327331542969
1776554608289320000,6.54131982421875,36.93424987792969,7.10693359375,11.003101348876953
1776554608299360000,6.551360107421875,36.84234619140625,7.1392059326171875,10.875320434570312
1776554608309401000,6.561401123046875,36.78155517578125,7.295234680175781,11.020454406738281
1776554608319442000,6.57144189453125,36.76507568359375,7.317779541015625,11.105838775634766
1776554608329482000,6.58148193359375,36.595855712890625,7.404563903808594,11.196693420410156
1776554608339523000,6.591523193359375,36.9161376953125,7.501365661621094,11.340534210205078
1776554608349563100,6.601563232421875,37.08978271484375,7.391876220703125,11.529109954833984
1776554608359604200,6.611604248046875,37.08149719238281,7.527992248535156,11.480792999267578
1776554608369644300,6.621644287109375,36.80842590332031,7.4603118896484375,11.282615661621094
1776554608379685000,6.63168505859375,36.88618469238281,7.569183349609375,11.355514526367188
1776554608389726200,6.641726318359375,37.208953857421875,7.815345764160156,11.023422241210938
1776554608399766000,6.65176611328125,37.78907775878906,8.149711608886719,10.624351501464844
1776554608409806800,6.661806884765625,37.56486511230469,8.008918762207031,10.108558654785156
1776554608419847000,6.671846923828125,37.69996643066406,8.055946350097656,9.570148468017578
1776554608429888000,6.681887939453125,38.101837158203125,7.86669921875,9.594440460205078
1776554608439928000,6.691927978515625,38.22596740722656,7.78790283203125,9.795547485351562
1776554608449969200,6.70196923828125,38.3055419921875,8.079368591308594,10.043575286865234
1776554608460010000,6.712010009765625,38.22509765625,8.221954345703125,10.193756103515625
1776554608470050000,6.722050048828125,37.62890625,8.201637268066406,9.610542297363281
1776554608480091100,6.732091064453125,38.24888610839844,8.466690063476562,9.649589538574219
1776554608490131200,6.742131103515625,38.42118835449219,8.488700866699219,9.43801498413086
1776554608500172000,6.752172119140625,39.04911804199219,8.494781494140625,9.429695129394531
1776554608510213000,6.762213134765625,38.91972351074219,8.347160339355469,9.035114288330078
1776554608520253000,6.7722529296875,38.12422180175781,8.387474060058594,8.547073364257812
1776554608530294300,6.782294189453125,38.115081787109375,8.459999084472656,8.70382308959961
1776554608540334000,6.792333984375,38.22154235839844,8.532424926757812,8.799575805664062
1776554608550375000,6.802375,38.38615417480469,8.817970275878906,8.932342529296875
1776554608560415000,6.8124150390625,38.542236328125,8.774543762207031,8.772624969482422
1776554608570456000,6.8224560546875,38.42701721191406,8.66925048828125,8.624504089355469
1776554608580497200,6.8324970703125,38.53153991699219,8.660743713378906,8.320755004882812
1776554608590537000,6.842536865234375,38.36334228515625,8.815597534179688,8.068622589111328
1776554608600578000,6.852578125,38.23594665527344,8.880027770996094,8.116676330566406
1776554608610618000,6.8626181640625,38.29066467285156,8.882087707519531,8.28963851928711
1776554608620659200,6.8726591796875,38.513214111328125,8.877677917480469,8.50723648071289
1776554608630699300,6.88269921875,38.39393615722656,8.657188415527344,8.598735809326172
1776554608640740000,6.892739990234375,38.122283935546875,8.584190368652344,8.630096435546875
1776554608650781200,6.90278125,37.775115966796875,8.4708251953125,8.056694030761719
1776554608660821000,6.912821044921875,37.98826599121094,8.37744140625,8.225006103515625
1776554608670862000,6.922862060546875,38.32801818847656,8.263580322265625,8.423072814941406
1776554608680902000,6.93290185546875,38.333770751953125,8.070205688476562,8.494441986083984
1776554608690943000,6.94294287109375,38.413116455078125,8.115402221679688,8.4749755859375
1776554608700983000,6.952983154296875,38.37298583984375,7.9839019775390625,8.132293701171875
1776554608711024000,6.963024169921875,38.36152648925781,8.037628173828125,8.360488891601562
1776554608721065000,6.97306494140625,38.58164978027344,8.214942932128906,8.40389633178711
1776554608731105000,6.98310498046875,38.58384704589844,8.298011779785156,8.330615997314453
1776554608741146000,6.99314599609375,38.735748291015625,8.285675048828125,8.08966064453125
1776554608751186200,7.003186279296875,38.59004211425781,8.22869873046875,7.435699462890625
1776554608761227000,7.01322705078125,38.75776672363281,8.285346984863281,7.3204345703125
1776554608771267000,7.02326708984375,38.84187316894531,8.0689697265625,7.1709442138671875
1776554608781308200,7.03330810546875,39.24708557128906,8.149688720703125,7.155601501464844
1776554608791349200,7.043349365234375,39.35523986816406,7.891258239746094,6.8909454345703125
1776554608801389000,7.05338916015625,39.04643249511719,7.832695007324219,6.088157653808594
1776554608811430000,7.063429931640625,39.311676025390625,7.832366943359375,5.809600830078125
1776554608821470000,7.073469970703125,39.45292663574219,7.9648895263671875,5.535057067871094
1776554608831511000,7.083510986328125,39.72711181640625,8.144798278808594,5.24761962890625
1776554608841551000,7.093551025390625,39.14581298828125,8.095252990722656,4.35687255859375
1776554608851592000,7.103592041015625,39.264312744140625,8.220161437988281,4.266075134277344
1776554608861633000,7.113633056640625,39.1005859375,8.463142395019531,3.8446884155273438
1776554608871673000,7.123673095703125,39.631500244140625,8.551902770996094,4.04833984375
1776554608881714200,7.133714111328125,39.77101135253906,8.688682556152344,4.1591339111328125
1776554608891754200,7.143754150390625,39.85072326660156,8.900253295898438,4.24395751953125
1776554608901795000,7.153795166015625,39.78926086425781,9.083274841308594,3.9629440307617188
1776554608911835000,7.1638349609375,39.803253173828125,9.192840576171875,3.8832473754882812
1776554608921876000,7.1738759765625,39.803253173828125,9.192840576171875,3.8832473754882812
1776554608931917000,7.1839169921875,39.508270263671875,8.880592346191406,3.5382003784179688
1776554608941957000,7.19395703125,39.19740295410156,9.022956848144531,3.29217529296875
1776554608951998000,7.203998046875,39.71321105957031,9.072830200195312,3.27398681640625
1776554608962038000,7.2140380859375,39.597076416015625,9.180992126464844,3.1689682006835938
1776554608972079000,7.2240791015625,39.54762268066406,9.548591613769531,3.0323028564453125
1776554608982119200,7.234119140625,39.701629638671875,9.693580627441406,2.99932861328125
1776554608992160000,7.244159912109375,39.744720458984375,9.632240295410156,2.81134033203125
1776554609002201000,7.254201171875,39.81675720214844,9.624641418457031,2.9027481079101562
1776554609012241000,7.264240966796875,39.71891784667969,9.680549621582031,2.8932952880859375
1776554609022282000,7.274281982421875,39.58958435058594,9.842796325683594,2.87567138671875
1776554609032322000,7.284322021484375,39.608673095703125,9.736114501953125,3.104888916015625
1776554609042363000,7.29436279296875,39.189788818359375,9.752197265625,2.7040023803710938
1776554609052403000,7.30440283203125,38.94709777832031,9.687110900878906,2.7523193359375
1776554609062444000,7.314444091796875,39.051666259765625,9.719680786132812,2.903411865234375
1776554609072484900,7.32448486328125,39.318206787109375,9.84002685546875,3.2852249145507812
1776554609082525000,7.33452490234375,39.3111572265625,9.585044860839844,3.5682525634765625
1776554609092566000,7.34456591796875,38.8818359375,9.376953125,3.2923965454101562
1776554609102606000,7.354606201171875,39.25028991699219,9.39215087890625,3.736968994140625
1776554609112647200,7.364647216796875,39.49458312988281,9.321342468261719,3.963470458984375
1776554609122687000,7.37468701171875,39.78851318359375,9.312271118164062,4.270240783691406
1776554609132727800,7.384727783203125,39.69905090332031,9.162986755371094,4.4070587158203125
1776554609142769000,7.394768798828125,39.50146484375,9.043998718261719,4.6175384521484375
1776554609152809000,7.40480908203125,39.57061767578125,9.016410827636719,4.7144012451171875
1776554609162849800,7.414849853515625,38.89344787597656,8.685348510742188,4.089790344238281
1776554609172889900,7.424889892578125,39.561767578125,8.543937683105469,4.781623840332031
1776554609182931000,7.434930908203125,39.83406066894531,8.267852783203125,4.848731994628906
1776554609192971000,7.444970947265625,39.73455810546875,8.013145446777344,5.069671630859375
1776554609203012000,7.45501220703125,40.045684814453125,8.096694946289062,5.071868896484375
1776554609213052200,7.46505224609375,40.28697204589844,7.882804870605469,5.113517761230469
1776554609223093000,7.475093017578125,40.28131103515625,7.945953369140625,5.0571441650390625
1776554609233134000,7.485134033203125,40.08781433105469,7.746788024902344,5.047019958496094
1776554609243174100,7.495174072265625,40.02537536621094,7.831756591796875,4.7836151123046875
1776554609253215000,7.505215087890625,39.98356628417969,7.800758361816406,4.6992645263671875
1776554609263254800,7.5152548828125,39.79661560058594,7.7595062255859375,4.859352111816406
1776554609273293000,7.52529296875,39.43760681152344,7.784049987792969,4.569305419921875
1776554609283333000,7.5353330078125,39.78523254394531,7.662849426269531,4.821907043457031
1776554609293374000,7.5453740234375,39.8983154296875,7.717247009277344,4.858024597167969
1776554609303413800,7.555413818359375,39.22203063964844,7.596382141113281,4.548614501953125
1776554609313454800,7.565454833984375,39.32270812988281,7.721046447753906,4.8677520751953125
1776554609323495000,7.575494873046875,39.3697509765625,7.803253173828125,4.7937469482421875
1776554609333536000,7.585535888671875,39.138458251953125,7.690483093261719,5.067359924316406
1776554609343576800,7.595576904296875,39.34034729003906,7.809303283691406,5.091484069824219
1776554609353617000,7.605616943359375,39.43626403808594,7.839935302734375,5.346473693847656
1776554609363658000,7.615657958984375,39.572601318359375,7.969512939453125,5.526824951171875
1776554609373698000,7.625697998046875,39.000885009765625,7.6206512451171875,5.1324920654296875
1776554609383739000,7.63573876953125,39.19122314453125,7.617286682128906,5.4947357177734375
1776554609393779000,7.645779052734375,39.04158020019531,7.804267883300781,5.684135437011719
1776554609403820000,7.655820068359375,39.03099060058594,7.793693542480469,5.698966979980469
1776554609413861000,7.665861083984375,38.586029052734375,7.548454284667969,5.455619812011719
1776554609423901200,7.675901123046875,38.445343017578125,7.480827331542969,5.217506408691406
1776554609433942000,7.68594189453125,38.52215576171875,7.4712982177734375,5.305938720703125
1776554609443981800,7.69598193359375,38.56565856933594,7.618072509765625,5.586814880371094
1776554609454023000,7.70602294921875,38.18812561035156,7.473777770996094,5.427864074707031
1776554609464063000,7.71606298828125,38.27276611328125,7.390815734863281,5.482292175292969
1776554609474103800,7.726103759765625,38.34765625,7.43267822265625,5.612190246582031
1776554609484145000,7.736144775390625,38.21983337402344,7.317527770996094,5.700752258300781
1776554609494185000,7.74618505859375,38.54023742675781,7.656974792480469,5.802772521972656
1776554609504226000,7.75622607421875,38.538055419921875,7.534858703613281,5.7741851806640625
1776554609514266000,7.76626611328125,38.53125,7.4977874755859375,5.819854736328125
1776554609524307000,7.776306884765625,37.9818115234375,7.3790740966796875,5.422721862792969
1776554609534347000,7.786346923828125,38.83973693847656,7.484962463378906,5.798065185546875
1776554609544388000,7.79638818359375,38.58892822265625,7.383827209472656,5.5733184814453125
1776554609554428000,7.806427978515625,38.35418701171875,7.2659454345703125,5.527259826660156
1776554609564468700,7.81646875,38.27870178222656,7.272300720214844,5.477104187011719
1776554609574509800,7.826509765625,38.20745849609375,7.242523193359375,5.36322021484375
1776554609584550000,7.8365498046875,38.37860107421875,7.2230224609375,5.561500549316406
1776554609594591000,7.846591064453125,38.59002685546875,7.368003845214844,5.7950897216796875
1776554609604631000,7.856631103515625,37.91310119628906,7.171539306640625,5.1238250732421875
1776554609614672000,7.866671875,38.043731689453125,7.23687744140625,5.233818054199219
1776554609624712000,7.8767119140625,37.85429382324219,7.330299377441406,5.3069305419921875
1776554609634753000,7.8867529296875,37.60176086425781,7.4998321533203125,5.358100891113281
1776554609644793000,7.89679296875,36.543701171875,7.169227600097656,4.563774108886719
1776554609654834000,7.906833984375,36.56715393066406,7.147071838378906,4.34942626953125
1776554609664875000,7.916875,36.32301330566406,7.140373229980469,4.093475341796875
1776554609674915000,7.9269150390625,36.15092468261719,7.052497863769531,4.109153747558594
1776554609684956200,7.9369560546875,35.95137023925781,7.082786560058594,4.063591003417969
1776554609694996000,7.946995849609375,36.106842041015625,7.05181884765625,4.28594970703125
1776554609705036800,7.957036865234375,36.106842041015625,7.05181884765625,4.28594970703125
1776554609715076900,7.967076904296875,36.31349182128906,7.028831481933594,4.486045837402344
1776554609725118000,7.977117919921875,36.626708984375,7.072746276855469,4.6850128173828125
1776554609735159000,7.987158935546875,36.950103759765625,7.202667236328125,5.0118408203125
1776554609745198800,7.99719873046875,36.836395263671875,7.163352966308594,4.495719909667969
1776554609755240000,8.007239990234375,36.82402038574219,7.073844909667969,4.4657440185546875
1776554609765280000,8.017280029296876,36.5086669921875,6.992805480957031,4.230964660644531
1776554609775321000,8.027321044921875,36.37306213378906,7.102378845214844,4.0394134521484375
1776554609785361200,8.037361083984376,36.395477294921875,7.039848327636719,4.0211334228515625
1776554609795402000,8.047402099609375,36.53102111816406,7.1403656005859375,4.101554870605469
1776554609805442000,8.057442138671876,36.469482421875,7.3055419921875,4.074623107910156
1776554609815483100,8.067483154296875,37.130767822265625,7.363006591796875,4.6515960693359375
1776554609825524000,8.07752392578125,36.97935485839844,7.277496337890625,4.6240081787109375
1776554609835563800,8.087563720703125,36.570159912109375,7.016197204589844,4.3817901611328125
1776554609845604900,8.09760498046875,37.11328125,7.21551513671875,4.676475524902344
1776554609855645000,8.10764501953125,37.53419494628906,7.419593811035156,4.945442199707031
1776554609865686000,8.11768603515625,37.65950012207031,7.2659149169921875,5.358146667480469
1776554609875726000,8.12772607421875,37.38606262207031,7.1503448486328125,5.085723876953125
1776554609885767000,8.137766845703124,36.81455993652344,6.990875244140625,4.4764404296875
1776554609895807000,8.147806884765625,37.06419372558594,7.323066711425781,5.043670654296875
1776554609905848000,8.15784814453125,37.020660400390625,7.170036315917969,5.135498046875
1776554609915889200,8.16788916015625,37.12355041503906,7.302558898925781,4.899925231933594
1776554609925929000,8.177928955078125,36.59965515136719,7.040412902832031,4.6614837646484375
1776554609935970000,8.187969970703126,36.21586608886719,7.038124084472656,4.598175048828125
1776554609946009900,8.198009765625,36.52177429199219,7.1054840087890625,4.5129241943359375
1776554609956051000,8.208051025390626,37.10627746582031,7.411964416503906,5.086906433105469
1776554609966091500,8.218091552734375,36.493194580078125,7.101371765136719,4.599761962890625
1776554609976132400,8.22813232421875,36.99275207519531,7.1775360107421875,4.6831207275390625
1776554609986173400,8.23817333984375,37.017059326171875,7.176536560058594,4.8685455322265625
1776554609996213500,8.248213623046874,37.44671630859375,7.374237060546875,5.1811981201171875
1776554610006254300,8.25825439453125,37.63665771484375,7.49310302734375,5.2754974365234375
1776554610016294400,8.26829443359375,37.87017822265625,7.608642578125,5.4850921630859375
1776554610026335500,8.27833544921875,37.17022705078125,7.339241027832031,5.0135345458984375
1776554610036375600,8.28837548828125,37.52622985839844,7.3310394287109375,5.219635009765625
1776554610046416600,8.298416748046876,38.07917785644531,7.614311218261719,5.541694641113281
1776554610056456400,8.30845654296875,37.007293701171875,7.250175476074219,4.8067779541015625
1776554610066497300,8.318497314453126,37.860809326171875,7.3797607421875,5.459831237792969
1776554610076538400,8.328538330078125,37.85333251953125,7.481536865234375,5.49658203125
1776554610086578400,8.338578369140626,37.31529235839844,7.382621765136719,4.800300598144531
1776554610096619300,8.348619384765625,37.887359619140625,7.5339202880859375,5.483726501464844
1776554610106659300,8.358659423828126,38.10064697265625,7.289581298828125,5.656867980957031
1776554610116700400,8.368700439453125,38.1043701171875,7.327392578125,5.977500915527344
1776554610126740500,8.378740478515626,37.61753845214844,7.348670959472656,5.65533447265625
1776554610136781600,8.388781494140625,37.66407775878906,7.228767395019531,5.665870666503906
1776554610146822400,8.398822509765624,38.07408142089844,7.300933837890625,5.7934112548828125
1776554610156862500,8.408862548828125,37.90171813964844,7.2759552001953125,5.53173828125
1776554610166903600,8.418903564453124,38.39176940917969,7.3747100830078125,5.922065734863281
1776554610176943600,8.428943603515625,37.60102844238281,7.213996887207031,5.167930603027344
1776554610186984400,8.438984375,37.905731201171875,7.362693786621094,5.575523376464844
1776554610197024300,8.449024169921875,37.7655029296875,7.3525390625,5.451881408691406
1776554610207065300,8.4590654296875,38.25239562988281,7.355255126953125,5.753181457519531
1776554610217105400,8.46910546875,38.3511962890625,7.422393798828125,5.8798370361328125
1776554610227146500,8.479146484375,37.21440124511719,7.2857208251953125,4.825164794921875
1776554610237187300,8.489187255859376,37.796875,7.472412109375,5.355010986328125
1776554610247227400,8.499227294921875,38.39796447753906,7.506385803222656,5.658439636230469
1776554610257268500,8.5092685546875,38.38105773925781,7.427070617675781,5.716957092285156
1776554610267308500,8.51930859375,38.36724853515625,7.522453308105469,5.893806457519531
1776554610277349400,8.529349365234374,37.6312255859375,7.433563232421875,5.380668640136719
1776554610287389400,8.539389404296875,37.869720458984375,7.514747619628906,5.447265625
1776554610297430500,8.549430419921874,37.85234069824219,7.419059753417969,5.504112243652344
1776554610307471600,8.5594716796875,38.28541564941406,7.550498962402344,5.5877532958984375
1776554610317511400,8.569511474609374,38.04478454589844,7.236808776855469,5.387458801269531
1776554610327552300,8.57955224609375,38.34027099609375,7.279655456542969,5.9448699951171875
1776554610337592300,8.58959228515625,38.19575500488281,7.390594482421875,5.969108581542969
1776554610347633400,8.59963330078125,38.145965576171875,7.364021301269531,5.6497039794921875
1776554610357673500,8.609673583984375,37.92034912109375,7.366981506347656,5.5061187744140625
1776554610367714300,8.61971435546875,37.94679260253906,7.4503173828125,5.534385681152344
1776554610377754400,8.62975439453125,37.75355529785156,7.440681457519531,5.083198547363281
1776554610387795500,8.63979541015625,38.51692199707031,7.5662384033203125,5.939048767089844
1776554610397836500,8.64983642578125,38.19819641113281,7.5559844970703125,5.5174713134765625
1776554610407876600,8.659876708984376,38.057342529296875,7.478729248046875,5.517829895019531
1776554610417917400,8.66991748046875,38.49066162109375,7.6445465087890625,5.9410552978515625
1776554610427957500,8.67995751953125,38.72908020019531,7.901634216308594,6.362098693847656
1776554610437998600,8.68999853515625,38.459991455078125,7.684089660644531,6.1417999267578125
1776554610448038400,8.700038330078126,37.53071594238281,7.319389343261719,5.4584197998046875
1776554610458079200,8.710079345703125,37.83586120605469,7.491859436035156,5.559623718261719
1776554610468120300,8.720120361328124,38.25946044921875,7.523353576660156,5.778861999511719
1776554610478160400,8.730160400390625,38.10337829589844,7.4204559326171875,5.4631195068359375
1776554610488201500,8.740201416015625,38.33372497558594,7.581581115722656,5.93182373046875
1776554610498241500,8.750241455078125,38.496551513671875,7.5364990234375,6.08929443359375
1776554610508282400,8.760282470703125,37.93072509765625,7.4189300537109375,5.39459228515625
1776554610518322400,8.770322509765625,39.53594970703125,7.670570373535156,6.751976013183594
1776554610528363500,8.780363525390625,39.90150451660156,7.6168975830078125,6.935127258300781
1776554610538404400,8.790404296875,40.30586242675781,7.6719818115234375,7.552848815917969
1776554610548444400,8.8004443359375,40.604034423828125,7.50396728515625,7.61065673828125
1776554610558485500,8.810485595703126,39.84523010253906,7.5859375,7.291267395019531
1776554610568525600,8.820525634765625,40.22843933105469,7.539772033691406,7.462867736816406
1776554610578566700,8.830566650390624,40.210296630859375,7.572883605957031,7.48260498046875
1776554610588606500,8.8406064453125,40.38861083984375,7.766807556152344,7.795188903808594
1776554610598647300,8.850647216796874,39.79533386230469,7.717918395996094,7.118492126464844
1776554610608688400,8.8606884765625,39.21467590332031,7.510032653808594,6.561492919921875
1776554610618728400,8.870728515625,39.19439697265625,7.352775573730469,6.754417419433594
1776554610628769300,8.880769287109375,39.22529602050781,7.4851837158203125,6.5540618896484375
1776554610638809300,8.890809326171874,39.249114990234375,7.411956787109375,6.401603698730469
1776554610648850400,8.900850341796875,39.263702392578125,7.515678405761719,6.8121337890625
1776554610658890500,8.910890380859374,38.60536193847656,7.332122802734375,6.096366882324219
1776554610668931600,8.920931640625,39.4898681640625,7.430473327636719,6.771705627441406
1776554610678971600,8.9309716796875,39.68312072753906,7.474845886230469,6.736991882324219
1776554610689012500,8.941012451171876,39.42408752441406,7.303779602050781,6.6937103271484375
1776554610699053600,8.951053466796875,39.74293518066406,7.490264892578125,6.7619171142578125
1776554610709093400,8.96109326171875,39.707855224609375,7.530723571777344,6.759605407714844
1776554610719134200,8.97113427734375,39.69572448730469,7.6123199462890625,6.908660888671875
1776554610729174300,8.98117431640625,39.857025146484375,7.6610107421875,7.0520172119140625
1776554610739215400,8.99121533203125,39.429473876953125,7.5732879638671875,6.473625183105469
1776554610749255400,9.00125537109375,39.97386169433594,7.5902252197265625,6.773796081542969
1776554610759296500,9.011296630859375,39.83001708984375,7.561279296875,6.746299743652344
1776554610769337300,9.02133740234375,39.60261535644531,7.532905578613281,6.78094482421875
1776554610779377400,9.03137744140625,39.84104919433594,7.69384765625,6.796058654785156
1776554610789418500,9.04141845703125,39.37890625,7.4482421875,6.364768981933594
1776554610799458600,9.05145849609375,39.63484191894531,7.532859802246094,6.6894683837890625
1776554610809499400,9.06149951171875,40.349029541015625,7.688697814941406,7.295074462890625
1776554610819539500,9.07153955078125,40.33695983886719,7.646812438964844,7.422981262207031
1776554610829580500,9.08158056640625,40.10923767089844,7.309364318847656,7.0634307861328125
1776554610839621600,9.09162158203125,40.02351379394531,7.423133850097656,6.833778381347656
1776554610849661400,9.101661376953125,40.00788879394531,7.4824066162109375,6.866416931152344
1776554610859702300,9.111702392578126,40.05924987792969,7.3287353515625,6.791717529296875
1776554610869742300,9.121742431640625,40.334686279296875,7.58154296875,7.239387512207031
1776554610879783400,9.131783447265626,40.61427307128906,7.627998352050781,7.49945068359375
1776554610889823500,9.141823486328125,40.211944580078125,7.487205505371094,7.178428649902344
1776554610899864300,9.1518642578125,40.428985595703125,7.687347412109375,7.6734771728515625
1776554610909905400,9.161905517578125,40.23060607910156,7.5428466796875,7.543243408203125
1776554610919945500,9.171945556640624,40.00390625,7.401031494140625,6.967048645019531
1776554610929986600,9.181986572265625,40.545867919921875,7.5901336669921875,7.637542724609375
1776554610940026600,9.192026611328124,40.18644714355469,7.450042724609375,7.4347076416015625
1776554610950067500,9.2020673828125,40.660675048828125,7.5751800537109375,8.149829864501953
1776554610960107300,9.212107177734374,40.59733581542969,7.6643829345703125,8.176193237304688
1776554610970148000,9.222148193359375,40.38385009765625,7.639228820800781,7.831306457519531
1776554610980189200,9.232189208984375,40.38385009765625,7.639228820800781,7.831306457519531
1776554610990229200,9.242229248046876,40.264312744140625,7.6334228515625,7.952999114990234
1776554611000270000,9.25227001953125,40.330413818359375,7.8312835693359375,8.032978057861328
1776554611010310100,9.26231005859375,40.81109619140625,7.841789245605469,8.420783996582031
1776554611020351200,9.272351318359375,40.81724548339844,7.9396820068359375,8.436229705810547
1776554611030392000,9.28239208984375,40.3121337890625,8.050132751464844,8.198814392089844
1776554611040432000,9.29243212890625,40.27363586425781,8.040550231933594,8.573341369628906
1776554611050473200,9.30247314453125,40.20762634277344,7.971122741699219,8.733795166015625
1776554611060513300,9.31251318359375,40.21006774902344,8.238357543945312,8.847938537597656
1776554611070554400,9.322554443359374,39.436676025390625,8.1883544921875,8.175296783447266
1776554611080594200,9.33259423828125,39.37852478027344,8.167129516601562,8.153007507324219
1776554611090635300,9.34263525390625,40.1138916015625,8.432853698730469,9.076042175292969
1776554611100676400,9.35267626953125,40.61433410644531,8.553047180175781,9.370819091796875
1776554611110716200,9.362716064453124,40.708740234375,8.4697265625,9.44820785522461
1776554611120757000,9.372757080078125,40.49354553222656,8.571563720703125,9.376564025878906
1776554611130797000,9.382797119140625,39.581146240234375,8.626739501953125,8.685539245605469
1776554611140838100,9.392838134765626,39.988677978515625,8.659164428710938,8.838069915771484
1776554611150878200,9.402878173828125,39.39031982421875,8.70880126953125,8.579227447509766
1776554611160919300,9.412919189453126,39.50689697265625,8.871742248535156,8.72677230834961
1776554611170960100,9.422960205078125,39.13890075683594,8.835960388183594,8.706489562988281
1776554611181000200,9.433000244140626,38.92396545410156,8.888725280761719,8.627609252929688
1776554611191041300,9.443041259765625,38.73890686035156,9.06866455078125,8.975135803222656
1776554611201081300,9.453081298828126,38.83525085449219,9.407218933105469,9.22369384765625
1776554611211122200,9.4631220703125,38.69755554199219,9.384361267089844,9.31405258178711
1776554611221163300,9.473163330078124,38.62471008300781,9.514373779296875,9.418712615966797
1776554611231203000,9.483203125,38.62664794921875,9.399917602539062,9.377971649169922
1776554611241244200,9.493244140625,38.21159362792969,9.265533447265625,9.07000732421875
1776554611251284200,9.5032841796875,37.65086364746094,9.170013427734375,8.574054718017578
1776554611261325000,9.513324951171874,37.669097900390625,9.297607421875,8.482688903808594
1776554611271365000,9.523365234375,38.39215087890625,9.556282043457031,8.937252044677734
1776554611281406200,9.53340625,37.73823547363281,9.297431945800781,8.340461730957031
1776554611291447000,9.543447021484376,37.917877197265625,9.39031982421875,8.279136657714844
1776554611301487000,9.553487060546875,37.66648864746094,9.240806579589844,8.368484497070312
1776554611311528200,9.563528076171876,37.84153747558594,9.345237731933594,8.323856353759766
1776554611321568300,9.573568359375,37.99113464355469,9.185714721679688,8.67605209350586
1776554611331609300,9.583609375,37.703033447265625,9.086494445800781,8.658802032470703
1776554611341649400,9.5936494140625,37.784912109375,9.240867614746094,8.808616638183594
1776554611351690200,9.603690185546874,37.527740478515625,9.094207763671875,8.790386199951172
1776554611361731300,9.6137314453125,37.22206115722656,8.981094360351562,8.464519500732422
1776554611371771100,9.623771240234374,37.59806823730469,9.013999938964844,8.9580078125
1776554611381812000,9.63381201171875,37.25750732421875,8.988578796386719,8.711833953857422
1776554611391852000,9.64385205078125,37.43614196777344,8.96673583984375,9.070880889892578
1776554611401893000,9.65389306640625,37.643890380859375,9.086677551269531,9.128673553466797
1776554611411934200,9.663934326171875,37.251739501953125,9.101104736328125,8.801017761230469
1776554611421974300,9.673974365234375,38.47914123535156,9.430061340332031,10.006732940673828
1776554611432015000,9.68401513671875,38.23493957519531,9.327232360839844,9.832984924316406
1776554611442055200,9.69405517578125,38.22271728515625,9.425956726074219,9.923248291015625
1776554611452096300,9.70409619140625,37.94630432128906,9.413414001464844,9.485523223876953
1776554611462136300,9.71413623046875,37.22657775878906,9.401863098144531,8.730445861816406
1776554611472177200,9.72417724609375,37.53941345214844,9.547416687011719,8.789478302001953
1776554611482218200,9.73421826171875,37.35560607910156,9.76458740234375,8.674785614013672
1776554611492258000,9.744258056640625,37.74726867675781,9.954116821289062,9.197101593017578
1776554611502299100,9.754299072265624,37.89329528808594,9.972457885742188,9.244186401367188
1776554611512339200,9.764339111328125,38.26251220703125,9.943565368652344,9.737236022949219
1776554611522380000,9.774380126953124,37.977691650390625,9.981796264648438,9.538597106933594
1776554611532421000,9.784421142578125,37.81159973144531,9.928512573242188,9.329391479492188
1776554611542461200,9.794461181640624,37.793212890625,10.136245727539062,9.509979248046875
1776554611552502300,9.804502197265625,36.741363525390625,9.915870666503906,8.498226165771484
1776554611562542000,9.8145419921875,36.788177490234375,9.947288513183594,8.621768951416016
1776554611572583200,9.824583251953126,37.44647216796875,10.054733276367188,9.643638610839844
1776554611582623200,9.834623291015625,37.33868408203125,10.129676818847656,9.63364028930664
1776554611592664300,9.844664306640626,37.42616271972656,10.19830322265625,9.687885284423828
1776554611602705200,9.854705078125,37.15379333496094,10.087326049804688,9.278560638427734
1776554611612745200,9.8647451171875,36.963531494140625,10.216995239257812,9.043460845947266
1776554611622787300,9.874787353515625,37.2572021484375,10.207206726074219,9.332279205322266
1776554611632827400,9.884827392578124,37.67720031738281,10.375167846679688,9.736698150634766
1776554611642868200,9.8948681640625,37.88642883300781,10.228515625,9.774307250976562
1776554611652909300,9.904909423828125,37.81878662109375,10.201545715332031,9.908885955810547
1776554611662949000,9.91494921875,37.405120849609375,9.994850158691406,9.666275024414062
1776554611672990200,9.924990234375,37.92222595214844,10.252311706542969,10.205989837646484
1776554611683030000,9.935030029296875,38.196319580078125,10.089424133300781,10.585098266601562
1776554611693071000,9.945071044921875,37.74617004394531,9.851371765136719,10.335159301757812
1776554611703112200,9.9551123046875,37.868255615234375,9.988136291503906,10.597892761230469
1776554611713152300,9.96515234375,37.9453125,9.883865356445312,10.606441497802734
1776554611723193000,9.975193115234376,38.28019714355469,9.789718627929688,11.11611557006836
1776554611733233200,9.985233154296875,38.140106201171875,9.608795166015625,11.259143829345703
1776554611743274200,9.995274169921874,38.22496032714844,9.659103393554688,11.429969787597656
1776554611753314300,10.005314208984375,38.08403015136719,9.580253601074219,11.600761413574219
1776554611763355100,10.015355224609374,38.145233154296875,9.450843811035156,11.378173828125
1776554611773396200,10.025396240234375,38.35432434082031,9.4466552734375,11.527595520019531
1776554611783436300,10.035436279296874,38.24482727050781,9.5184326171875,11.4771728515625
1776554611793477400,10.045477294921875,38.09306335449219,9.335136413574219,11.181377410888672
1776554611803517200,10.05551708984375,38.12858581542969,9.15484619140625,11.090030670166016
1776554611813558000,10.06555810546875,38.568359375,9.086868286132812,11.234931945800781
1776554611823599000,10.07559912109375,38.635040283203125,9.099700927734375,11.191410064697266
1776554611833639200,10.08563916015625,38.587646484375,9.043052673339844,10.975288391113281
1776554611843680300,10.09568017578125,38.59269714355469,8.872634887695312,10.609352111816406
1776554611853720000,10.105719970703126,38.210601806640625,8.585426330566406,10.157157897949219
1776554611863761200,10.11576123046875,38.819976806640625,8.545158386230469,10.63437271118164
1776554611873801200,10.12580126953125,38.72932434082031,8.470527648925781,10.162040710449219
1776554611883842300,10.13584228515625,38.72979736328125,8.18829345703125,9.795406341552734
1776554611893883100,10.145883056640624,38.9898681640625,8.147323608398438,9.81817626953125
1776554611903923200,10.155923095703125,39.535675048828125,8.111434936523438,9.92816162109375
1776554611913964300,10.16596435546875,39.85203552246094,8.119552612304688,10.07931900024414
1776554611924004000,10.176004150390625,40.04765319824219,8.049346923828125,10.062850952148438
1776554611934045200,10.186045166015624,40.4677734375,7.9844970703125,10.056098937988281
1776554611944086000,10.1960859375,40.66600036621094,7.9924163818359375,9.909191131591797
1776554611954126000,10.2061259765625,40.94508361816406,7.882652282714844,10.088821411132812
1776554611964167200,10.216167236328126,41.02409362792969,7.853782653808594,10.087932586669922
1776554611974211300,10.22621142578125,40.82969665527344,7.8099517822265625,9.742427825927734
1776554611984252400,10.23625244140625,41.251220703125,7.973258972167969,9.697036743164062
1776554611994292200,10.246292236328125,41.03382873535156,7.781745910644531,9.428791046142578
1776554612004333300,10.256333251953125,41.20887756347656,7.846412658691406,9.416252136230469
1776554612014374100,10.2663740234375,41.62174987792969,7.88470458984375,9.528030395507812
1776554612024414200,10.276414306640625,41.602142333984375,7.7547454833984375,9.397361755371094
1776554612034455300,10.286455322265626,41.92906188964844,7.531669616699219,9.238292694091797
1776554612044495400,10.296495361328125,41.971221923828125,7.567481994628906,9.005352020263672
1776554612054536400,10.306536376953124,42.14215087890625,7.453529357910156,8.985614776611328
1776554612064576500,10.316576416015625,41.91572570800781,7.198051452636719,8.511436462402344
1776554612074617300,10.326617431640624,42.16130065917969,6.928886413574219,8.674880981445312
1776554612084658400,10.336658447265625,42.47578430175781,6.8548126220703125,8.56417465209961
1776554612094698500,10.346698486328124,42.084259033203125,6.7395782470703125,8.158401489257812
1776554612104739300,10.3567392578125,42.50910949707031,6.749397277832031,8.31783676147461
1776554612114779100,10.366779052734374,42.58378601074219,6.671318054199219,8.244861602783203
1776554612124820500,10.376820556640626,42.82281494140625,6.959564208984375,8.15097427368164
1776554612134861600,10.386861572265625,42.72578430175781,7.053001403808594,8.108001708984375
1776554612144901400,10.3969013671875,42.27705383300781,7.015907287597656,7.841590881347656
1776554612154942200,10.406942138671875,42.352508544921875,7.159782409667969,7.7950439453125
1776554612164982300,10.416982177734376,42.26054382324219,7.277740478515625,7.6169586181640625
1776554612175023400,10.4270234375,42.05519104003906,7.243797302246094,7.598152160644531
1776554612185063400,10.4370634765625,42.439483642578125,7.567665100097656,7.6463165283203125
1776554612195104300,10.447104248046875,41.629119873046875,7.4857330322265625,7.076385498046875
1776554612205144300,10.457144287109376,41.45658874511719,7.691932678222656,6.603240966796875
1776554612215185400,10.467185302734375,42.26914978027344,8.053657531738281,7.1702880859375
1776554612225226500,10.4772265625,42.10835266113281,8.291656494140625,7.035980224609375
1776554612235266600,10.4872666015625,42.649383544921875,8.654487609863281,7.320037841796875
1776554612245307400,10.497307373046874,42.61875915527344,8.718681335449219,7.3537750244140625
1776554612255347200,10.50734716796875,42.37480163574219,8.856475830078125,7.272193908691406
1776554612265388300,10.51738818359375,42.31629943847656,8.9647216796875,7.286109924316406
1776554612275429400,10.527429443359376,42.2734375,9.075698852539062,7.1507720947265625
1776554612285469200,10.53746923828125,42.56732177734375,9.406547546386719,7.2441864013671875
1776554612295510300,10.54751025390625,42.25634765625,9.164352416992188,7.0882568359375
1776554612305550300,10.55755029296875,41.794403076171875,9.288330078125,6.79827880859375
1776554612315591400,10.56759130859375,41.83305358886719,9.370147705078125,6.864753723144531
1776554612325631500,10.577631591796875,41.939605712890625,9.557243347167969,6.7819671630859375
1776554612335672300,10.58767236328125,41.96018981933594,9.781173706054688,6.840721130371094
1776554612345713400,10.59771337890625,41.95683288574219,9.897239685058594,6.805961608886719
1776554612355753500,10.60775341796875,41.60516357421875,9.912284851074219,6.599464416503906
1776554612365794300,10.617794189453125,41.85882568359375,9.874015808105469,6.729057312011719
1776554612375834400,10.62783447265625,42.21186828613281,9.877639770507812,6.654884338378906
1776554612385875500,10.63787548828125,41.91441345214844,9.798233032226562,6.344108581542969
1776554612395915300,10.647915283203124,41.91441345214844,9.798233032226562,6.344108581542969
1776554612405956400,10.657956298828125,42.0396728515625,9.771514892578125,6.375511169433594
1776554612415997200,10.6679970703125,42.19529724121094,9.870658874511719,6.201805114746094
1776554612426037200,10.678037353515625,42.17938232421875,9.873245239257812,6.216606140136719
1776554612436078300,10.688078369140625,41.75439453125,9.839118957519531,5.976104736328125
1776554612446118400,10.698118408203126,41.87025451660156,9.98883056640625,6.081779479980469
1776554612456159200,10.7081591796875,41.98997497558594,10.08746337890625,5.952995300292969
1776554612466199300,10.71819921875,42.34815979003906,10.219902038574219,6.092231750488281
1776554612476240400,10.728240478515625,42.217437744140625,10.097587585449219,6.001564025878906
1776554612486280400,10.738280517578126,42.03636169433594,10.006950378417969,5.918800354003906
1776554612496321500,10.748321533203125,41.904937744140625,9.945854187011719,5.8171844482421875
1776554612506362400,10.7583623046875,42.184173583984375,9.947341918945312,5.981903076171875
1776554612516402200,10.768402099609375,41.869232177734375,9.689544677734375,5.361106872558594
1776554612526443300,10.778443359375,40.444244384765625,9.557861328125,4.518653869628906
1776554612536483300,10.7884833984375,40.031036376953125,9.532386779785156,4.6854705810546875
1776554612546524200,10.798524169921874,39.95533752441406,9.52703857421875,4.695213317871094
1776554612556564200,10.808564208984375,40.37992858886719,9.643562316894531,4.8590850830078125
1776554612566605300,10.818605224609374,40.09251403808594,9.720512390136719,4.6098480224609375
1776554612576646400,10.828646484375,40.60972595214844,9.833305358886719,5.156425476074219
1776554612586686500,10.8386865234375,39.98814392089844,9.305595397949219,5.007240295410156
1776554612596727300,10.848727294921876,40.0977783203125,9.637985229492188,5.122642517089844
1776554612606767400,10.858767333984375,40.38005065917969,9.625373840332031,5.425254821777344
1776554612616808400,10.868808349609376,40.27812194824219,9.492584228515625,5.225883483886719
1776554612626848500,10.8788486328125,40.653778076171875,9.707511901855469,5.812400817871094
1776554612636889300,10.888889404296876,40.22357177734375,9.783256530761719,5.5796051025390625
1776554612646929200,10.89892919921875,40.50141906738281,9.771697998046875,5.71795654296875
1776554612656970200,10.90897021484375,40.24549865722656,9.600311279296875,5.8138885498046875
1776554612667011300,10.91901123046875,40.315826416015625,9.697250366210938,5.8986053466796875
1776554612677051400,10.929051513671874,40.29179382324219,9.90875244140625,5.8824462890625
1776554612687092200,10.93909228515625,39.92070007324219,9.498733520507812,5.73602294921875
1776554612697132300,10.94913232421875,40.16511535644531,9.514068603515625,5.9421844482421875
1776554612707173400,10.95917333984375,40.27409362792969,9.806259155273438,6.144126892089844
1776554612717213400,10.96921337890625,39.940582275390625,9.465934753417969,6.126068115234375
1776554612727254300,10.979254150390625,39.660797119140625,9.636962890625,6.182151794433594
1776554612737294300,10.98929443359375,39.71270751953125,9.432708740234375,6.644630432128906
1776554612747335400,10.99933544921875,39.50224304199219,9.43353271484375,6.496551513671875
1776554612757375200,11.009375244140625,39.5526123046875,9.4708251953125,6.955322265625
1776554612767416300,11.019416259765626,39.4591064453125,9.425636291503906,7.012840270996094
1776554612777457200,11.02945703125,39.63496398925781,9.48004150390625,7.165107727050781
1776554612787497200,11.039497314453126,39.56196594238281,9.473762512207031,7.140632629394531
1776554612797538300,11.049538330078125,39.504150390625,9.544204711914062,7.080223083496094
1776554612807578400,11.059578369140626,39.85212707519531,9.425468444824219,7.301795959472656
1776554612817619200,11.069619140625,39.89039611816406,9.216941833496094,7.074089050292969
1776554612827659300,11.0796591796875,40.0506591796875,9.114700317382812,6.8422088623046875
1776554612837700400,11.089700439453125,40.336700439453125,9.116691589355469,6.864189147949219
1776554612847740400,11.099740478515624,40.03877258300781,8.970603942871094,6.675689697265625
1776554612857781500,11.109781494140625,40.50260925292969,8.971542358398438,7.09918212890625
1776554612867822300,11.119822265625,40.754638671875,8.857948303222656,7.1959991455078125
1776554612877862400,11.1298623046875,40.47944641113281,8.804145812988281,7.1016998291015625
1776554612887903500,11.139903564453125,40.42417907714844,8.704551696777344,7.043312072753906
1776554612897943300,11.149943359375,40.20973205566406,8.592849731445312,6.9593658447265625
1776554612907984400,11.159984375,40.49601745605469,8.745529174804688,7.190956115722656
1776554612918024200,11.170024169921875,40.36810302734375,8.461509704589844,7.339851379394531
1776554612928065300,11.180065185546875,40.344390869140625,8.386863708496094,7.249107360839844
1776554612938105300,11.190105224609376,40.73200988769531,8.393028259277344,7.3626251220703125
1776554612948146400,11.200146484375,40.78804016113281,8.2352294921875,7.249603271484375
1776554612958186500,11.2101865234375,40.71089172363281,8.041725158691406,7.094940185546875
1776554612968223200,11.22022314453125,40.83551025390625,7.852508544921875,6.922615051269531
1776554612978264300,11.230264404296875,40.591094970703125,8.054779052734375,6.5102081298828125
1776554612988304400,11.240304443359374,40.98248291015625,8.181053161621094,6.719451904296875
1776554612998345500,11.250345458984375,41.45703125,8.197418212890625,6.997520446777344
1776554613008385500,11.260385498046874,41.66400146484375,8.108001708984375,6.810569763183594
1776554613018426400,11.27042626953125,41.28416442871094,8.132652282714844,6.524070739746094
1776554613028466400,11.280466552734374,41.278717041015625,7.942543029785156,6.4086761474609375
1776554613038507500,11.290507568359375,41.59693908691406,8.08929443359375,6.688972473144531
1776554613048547600,11.300547607421874,41.93316650390625,8.082878112792969,6.486610412597656
1776554613058588400,11.31058837890625,41.90852355957031,8.237495422363281,6.241111755371094
1776554613068628500,11.32062841796875,42.070587158203125,8.071357727050781,6.301780700683594
1776554613078669600,11.330669677734376,42.068511962890625,8.211814880371094,5.978065490722656
1776554613088709400,11.34070947265625,42.09941101074219,8.170249938964844,5.938011169433594
1776554613098750500,11.35075048828125,42.193634033203125,8.100944519042969,6.081611633300781
1776554613108790300,11.360790283203125,42.02906799316406,8.065116882324219,5.884521484375
1776554613118831400,11.370831298828126,42.253631591796875,7.993461608886719,5.9140625
1776554613128872400,11.38087255859375,41.81956481933594,7.957099914550781,5.481956481933594
1776554613138912500,11.39091259765625,42.23130798339844,7.920921325683594,5.7080230712890625
1776554613148953300,11.400953369140625,42.49064636230469,8.059455871582031,5.862083435058594
1776554613158993400,11.410993408203124,42.36521911621094,8.0621337890625,5.6434173583984375
1776554613169034500,11.421034423828125,42.569305419921875,8.117568969726562,5.858863830566406
1776554613179074600,11.431074462890624,42.28059387207031,7.977241516113281,5.571403503417969
1776554613189115600,11.44111572265625,42.29573059082031,8.018264770507812,5.705596923828125
1776554613199155500,11.451155517578124,42.49310302734375,7.987632751464844,5.763130187988281
1776554613209196300,11.4611962890625,42.30145263671875,7.9789886474609375,5.733612060546875
1776554613219236400,11.471236328125,42.62870788574219,8.04241943359375,5.8862152099609375
1776554613229277400,11.48127734375,42.430938720703125,8.096275329589844,5.6864776611328125
1776554613239317500,11.4913173828125,42.58966064453125,8.006881713867188,5.845245361328125
1776554613249358300,11.5013583984375,42.612457275390625,8.046913146972656,5.690803527832031
1776554613259398400,11.5113984375,42.499237060546875,8.083602905273438,5.578239440917969
1776554613269439500,11.521439453125,42.395660400390625,8.120567321777344,5.53656005859375
1776554613279478500,11.531478515625,41.43463134765625,7.8296051025390625,4.791755676269531
1776554613289519600,11.54151953125,41.929168701171875,7.989662170410156,5.101768493652344
1776554613299559400,11.551559326171875,41.9150390625,8.026763916015625,5.1481170654296875
1776554613309600300,11.561600341796876,41.43354797363281,8.054985046386719,4.8038787841796875
1776554613319641300,11.571641357421875,42.037567138671875,8.093330383300781,5.1853790283203125
1776554613329681400,11.581681396484376,41.798370361328125,8.069664001464844,5.169586181640625
1776554613339722500,11.591722412109375,41.93846130371094,8.019157409667969,5.186836242675781
1776554613349762600,11.601762451171876,42.05470275878906,7.978843688964844,5.040008544921875
1776554613359803400,11.611803466796875,41.86564636230469,7.842842102050781,4.983154296875
1776554613369843500,11.621843505859376,40.89665222167969,7.704139709472656,4.228179931640625
1776554613379884500,11.631884521484375,41.08268737792969,7.7388763427734375,4.529998779296875
1776554613389924600,11.641924560546874,41.35655212402344,7.654991149902344,4.531684875488281
1776554613399965400,11.65196533203125,41.378082275390625,7.5751495361328125,4.698722839355469
1776554613410005200,11.662005126953124,41.10862731933594,7.546333312988281,4.5181732177734375
1776554613420046300,11.67204638671875,41.38520812988281,7.6004791259765625,4.753753662109375
1776554613430086400,11.68208642578125,40.96533203125,7.625129699707031,4.4798583984375
1776554613440127500,11.69212744140625,40.98902893066406,7.7151947021484375,4.396064758300781
1776554613450167300,11.702167236328124,41.19169616699219,7.764442443847656,4.709342956542969
1776554613460208400,11.71220849609375,41.28584289550781,7.88385009765625,4.7508697509765625
1776554613470248400,11.72224853515625,41.19743347167969,7.956024169921875,4.768623352050781
1776554613480289500,11.73228955078125,40.950836181640625,7.821388244628906,4.8124847412109375
1776554613490329600,11.74232958984375,40.61662292480469,7.659065246582031,4.567100524902344
1776554613500370400,11.752370361328126,40.61662292480469,7.659065246582031,4.567100524902344
1776554613510410500,11.762410400390625,40.416412353515625,7.56951904296875,4.891120910644531
1776554613520451600,11.77245166015625,40.58135986328125,7.879547119140625,4.872314453125
1776554613530491400,11.782491455078125,40.59600830078125,7.8805999755859375,5.0809478759765625
1776554613540532200,11.7925322265625,40.42860412597656,7.7544403076171875,4.8967437744140625
1776554613550572300,11.802572265625,40.0986328125,7.907203674316406,4.7253875732421875
1776554613560613400,11.81261328125,40.35252380371094,7.971412658691406,5.215202331542969
1776554613570653400,11.8226533203125,40.274139404296875,8.05108642578125,5.04083251953125
1776554613580694500,11.832694580078124,39.37983703613281,7.838096618652344,4.578483581542969
1776554613590734600,11.842734619140625,39.50689697265625,7.8585205078125,5.013832092285156
1776554613600775400,11.852775390625,39.59465026855469,7.9360809326171875,5.017913818359375
1776554613610815500,11.8628154296875,40.016448974609375,8.195625305175781,5.458457946777344
1776554613620856600,11.872856689453124,39.70872497558594,8.009925842285156,5.2771453857421875
1776554613630897400,11.8828974609375,39.88505554199219,8.171134948730469,5.4335784912109375
1776554613640937200,11.892937255859374,39.55387878417969,8.029228210449219,5.5602874755859375
1776554613650977300,11.902977294921875,38.815460205078125,8.095626831054688,5.355506896972656
1776554613661018400,11.913018310546875,39.14909362792969,8.028358459472656,5.734458923339844
1776554613671059500,11.9230595703125,38.8311767578125,8.190711975097656,5.60430908203125
1776554613681099500,11.933099609375,39.09391784667969,8.182403564453125,5.853660583496094
1776554613691140400,11.943140380859376,39.00260925292969,8.046562194824219,6.0736083984375
1776554613701180400,11.953180419921875,38.89900207519531,8.025688171386719,5.982414245605469
1776554613711221500,11.963221435546876,38.107666015625,7.93115234375,5.336952209472656
1776554613721261600,11.973261474609375,38.51869201660156,7.976959228515625,5.860504150390625
1776554613731302400,11.983302490234376,38.16020202636719,7.9330596923828125,5.7993011474609375
1776554613741342500,11.993342529296875,38.135986328125,7.8321990966796875,5.803489685058594
1776554613751383600,12.003383544921874,38.42851257324219,7.89556884765625,6.041816711425781
1776554613761423400,12.01342333984375,38.10285949707031,7.905586242675781,6.110443115234375
1776554613771464400,12.02346435546875,38.417510986328125,7.918731689453125,6.489166259765625
1776554613781504500,12.03350439453125,38.155120849609375,8.218589782714844,6.335418701171875
1776554613791545300,12.04354541015625,38.130096435546875,8.062210083007812,6.433555603027344
1776554613801585400,12.05358544921875,38.517578125,8.036628723144531,6.734321594238281
1776554613811626500,12.06362646484375,38.342864990234375,7.9520111083984375,6.8318328857421875
1776554613821666600,12.07366650390625,38.23350524902344,7.8847198486328125,6.835823059082031
1776554613831707400,12.083707275390625,38.091583251953125,7.713493347167969,6.716209411621094
1776554613841747500,12.09374755859375,38.22404479980469,7.814796447753906,6.8503265380859375
1776554613851788500,12.10378857421875,37.89781188964844,8.087966918945312,6.417633056640625
1776554613861828400,12.113828369140625,38.20097351074219,7.949516296386719,6.7326202392578125
1776554613871869400,12.123869384765625,36.77854919433594,7.493568420410156,5.305503845214844
1776554613881909200,12.1339091796875,36.961395263671875,7.642234802246094,5.401725769042969
1776554613891950300,12.143950439453125,36.90740966796875,7.5447998046875,5.291351318359375
1776554613901990400,12.153990478515626,36.18226623535156,7.282463073730469,4.709587097167969
1776554613912031500,12.164031494140625,37.77301025390625,7.692649841308594,6.028656005859375
1776554613922071600,12.174071533203126,36.36433410644531,7.339012145996094,4.8394622802734375
1776554613932112400,12.1841123046875,37.44078063964844,7.619880676269531,6.406120300292969
1776554613942152400,12.19415234375,37.68719482421875,7.761299133300781,6.675384521484375
1776554613952193500,12.204193603515625,37.849945068359375,7.7462921142578125,6.716949462890625
1776554613962233600,12.214233642578124,37.994598388671875,7.779197692871094,6.862739562988281
1776554613972274200,12.224274169921875,37.280517578125,7.66339111328125,6.2530670166015625
1776554613982314000,12.23431396484375,37.83067321777344,7.874458312988281,6.827110290527344
1776554613992355000,12.24435498046875,37.85255432128906,7.970115661621094,6.838645935058594
1776554614002395100,12.25439501953125,37.93840026855469,8.015754699707031,6.806282043457031
1776554614012436200,12.264436279296875,37.683441162109375,8.052803039550781,6.566650390625
1776554614022476300,12.274476318359374,37.83174133300781,8.174812316894531,6.7359771728515625
1776554614032517000,12.28451708984375,37.98504638671875,8.099899291992188,6.8998870849609375
1776554614042557200,12.29455712890625,37.765899658203125,8.07073974609375,6.801605224609375
1776554614052598300,12.304598388671875,37.49183654785156,8.218452453613281,6.406028747558594
1776554614062638300,12.314638427734375,37.73860168457031,8.160491943359375,6.6568145751953125
1776554614072679200,12.32467919921875,37.492095947265625,8.025093078613281,6.72906494140625
1776554614082719000,12.334718994140625,37.79917907714844,8.029098510742188,6.757942199707031
1776554614092760000,12.344760009765626,37.7919921875,8.091354370117188,6.3289337158203125
1776554614102800100,12.354800048828125,37.63507080078125,7.86572265625,6.2955474853515625
1776554614112841200,12.36484130859375,38.004486083984375,8.02740478515625,6.68511962890625
1776554614122881300,12.37488134765625,38.02555847167969,8.042243957519531,6.5989532470703125
1776554614132922000,12.384922119140626,37.99147033691406,7.8145599365234375,6.54156494140625
1776554614142962200,12.394962158203125,37.644927978515625,7.946876525878906,6.0880126953125
1776554614153003300,12.405003173828124,37.63764953613281,7.9593353271484375,5.7899932861328125
1776554614163043300,12.415043212890625,37.731353759765625,7.94720458984375,6.02825927734375
1776554614173084200,12.425084228515624,37.82855224609375,8.057022094726562,6.053985595703125
1776554614183124200,12.435124267578125,37.82177734375,7.976051330566406,6.230537414550781
1776554614193165300,12.445165283203124,37.65803527832031,8.068206787109375,6.2838287353515625
1776554614203205000,12.455205078125,37.68998718261719,8.064323425292969,6.446601867675781
1776554614213246200,12.46524609375,37.594329833984375,8.146965026855469,6.244773864746094
1776554614223286300,12.475286376953125,38.0504150390625,8.148963928222656,6.3815155029296875
1776554614233327000,12.4853271484375,37.89451599121094,8.208717346191406,6.4431304931640625
1776554614243367200,12.4953671875,37.412017822265625,8.187347412109375,5.978668212890625
1776554614253408300,12.505408203125,37.586212158203125,8.000885009765625,6.087059020996094
1776554614263448300,12.5154482421875,37.53211975097656,8.023849487304688,5.8059844970703125
1776554614273489200,12.5254892578125,36.554840087890625,7.8972625732421875,4.8537750244140625
1776554614283529200,12.535529296875,37.316619873046875,7.911186218261719,5.4502410888671875
1776554614293570300,12.5455703125,36.34684753417969,7.672996520996094,4.583747863769531
1776554614303610000,12.555610107421876,37.17930603027344,7.7766876220703125,5.181770324707031
1776554614313651200,12.565651123046875,37.532989501953125,7.86163330078125,5.267478942871094
1776554614323691000,12.57569091796875,37.4429931640625,7.699775695800781,5.084724426269531
1776554614333732000,12.585732177734375,37.915435791015625,7.777008056640625,5.440849304199219
1776554614343772200,12.595772216796876,37.67662048339844,7.610054016113281,5.379631042480469
1776554614353813200,12.605813232421875,37.39942932128906,7.483650207519531,5.0558624267578125
1776554614363853300,12.615853271484376,37.92474365234375,7.555641174316406,5.3915252685546875
1776554614373894100,12.62589404296875,38.07987976074219,7.727928161621094,5.49859619140625
1776554614383934200,12.635934326171874,38.00788879394531,7.818946838378906,5.549674987792969
1776554614393975300,12.645975341796875,37.25129699707031,7.73028564453125,4.756858825683594
1776554614404015400,12.656015380859374,37.6907958984375,7.8985748291015625,5.265449523925781
1776554614414056200,12.66605615234375,37.77656555175781,8.099998474121094,5.300651550292969
1776554614424096000,12.676095947265624,37.749053955078125,8.5189208984375,5.399101257324219
1776554614434137000,12.68613720703125,37.807861328125,8.638618469238281,5.5686798095703125
1776554614444177200,12.69617724609375,38.21903991699219,8.742988586425781,5.418304443359375
1776554614454218200,12.70621826171875,37.63995361328125,8.778053283691406,5.283729553222656
1776554614464258300,12.71625830078125,37.02500915527344,8.819664001464844,4.881904602050781
1776554614474299100,12.726299072265626,37.118621826171875,9.062644958496094,5.096809387207031
1776554614484339200,12.736339111328125,37.36985778808594,9.06817626953125,5.224479675292969
1776554614494380300,12.74638037109375,35.73313903808594,8.876411437988281,4.136512756347656
1776554614504420400,12.75642041015625,36.386566162109375,9.348731994628906,4.9349517822265625
1776554614514461200,12.766461181640626,38.05168151855469,9.497596740722656,6.111167907714844
1776554614524501000,12.7765009765625,38.45802307128906,9.528900146484375,6.260063171386719
1776554614534542000,12.7865419921875,38.33946228027344,9.471267700195312,6.467094421386719
1776554614544582100,12.79658203125,38.56727600097656,9.565803527832031,6.824615478515625
1776554614554623200,12.806623291015624,38.3173828125,9.624565124511719,6.8550872802734375
1776554614564663300,12.816663330078125,38.53314208984375,9.664825439453125,7.228057861328125
1776554614574704000,12.8267041015625,37.32225036621094,9.506317138671875,6.136810302734375
1776554614584744200,12.836744140625,37.47679138183594,9.58380126953125,6.289070129394531
1776554614594785300,12.846785400390624,38.09834289550781,9.607574462890625,6.729103088378906
1776554614604825300,12.856825439453125,37.81016540527344,9.559120178222656,6.573539733886719
1776554614614866200,12.8668662109375,36.831939697265625,9.212776184082031,5.584419250488281
1776554614624906200,12.87690625,36.87025451660156,9.23406982421875,5.648582458496094
1776554614634947300,12.886947265625,37.2210693359375,8.908668518066406,5.730430603027344
1776554614644987100,12.896987060546875,37.47801208496094,8.8570556640625,5.993492126464844
1776554614655028200,12.9070283203125,36.953216552734375,8.589958190917969,5.306617736816406
1776554614665068000,12.917068115234375,38.08784484863281,8.662254333496094,6.324226379394531
1776554614675109000,12.927109130859375,38.50724792480469,8.645606994628906,6.2358856201171875
1776554614685149200,12.937149169921875,38.29473876953125,8.533500671386719,6.117820739746094
1776554614695190300,12.947190185546875,38.6180419921875,8.472152709960938,6.592842102050781
1776554614705230300,12.957230224609376,38.90412902832031,8.53338623046875,6.941780090332031
1776554614715271200,12.967271240234375,38.98268127441406,8.353507995605469,7.067970275878906
1776554614725311200,12.977311279296876,38.99566650390625,8.433387756347656,7.2352142333984375
1776554614735352300,12.987352294921875,38.92921447753906,8.291847229003906,7.309974670410156
1776554614745392000,12.99739208984375,39.3546142578125,8.129615783691406,7.20660400390625
1776554614755433000,13.007432861328125,39.3546142578125,8.129615783691406,7.20660400390625
1776554614765473000,13.01747314453125,38.90205383300781,8.147232055664062,6.7495574951171875
1776554614775514000,13.02751416015625,38.66481018066406,7.9199981689453125,6.489082336425781
1776554614785554200,13.03755419921875,38.91557312011719,7.908332824707031,6.758979797363281
1776554614795595300,13.04759521484375,38.84202575683594,7.934814453125,6.584510803222656
1776554614805635300,13.05763525390625,39.24678039550781,7.960693359375,6.624794006347656
1776554614815676200,13.06767626953125,38.80030822753906,7.779273986816406,6.411842346191406
1776554614825716200,13.07771630859375,39.29859924316406,7.97259521484375,6.8482666015625
1776554614835757300,13.08775732421875,39.52015686035156,7.969017028808594,6.961708068847656
1776554614845797400,13.09779736328125,39.001220703125,7.987701416015625,6.437278747558594
1776554614855838200,13.107838134765625,38.95361328125,7.83184814453125,6.682365417480469
1776554614865878000,13.1178779296875,38.685638427734375,7.821067810058594,6.456085205078125
1776554614875919000,13.127919189453126,38.91046142578125,8.019424438476562,6.573799133300781
1776554614885959200,13.137959228515625,38.62577819824219,8.031455993652344,6.3201751708984375
1776554614896000300,13.148000244140626,38.5548095703125,7.8192596435546875,6.408576965332031
