time,seconds_elapsed,z,y,x
1776870177151539200,0.106539306640625,-9.49933586293161,-2.4299843366771934,-0.16785128757609052
1776870177161577500,0.116577392578125,-9.508457911542058,-2.3964452012993394,-0.12906636049924416
1776870177171614500,0.126614501953125,-9.515137243175506,-2.372127483253181,-0.074541350345104
1776870177181652200,0.13665234375,-9.517606263637543,-2.3633764599122107,-0.0029965426197348277
1776870177191689500,0.146689453125,-9.515717673411965,-2.3693283540539443,0.08821625365405343
1776870177201727500,0.1567275390625,-9.50990986391604,-2.385558919495344,0.20275383852794765
1776870177211764200,0.16676416015625,-9.499974745357036,-2.4077539462991058,0.3515436663519591
1776870177221802500,0.176802490234375,-9.483084985354543,-2.4384267324604094,0.543655443627946
1776870177231839500,0.186839599609375,-9.455963754194974,-2.4806086084991694,0.7757042406253516
1776870177241877200,0.196877197265625,-9.416379931825398,-2.5344641173273326,1.038586019314453
1776870177251915500,0.20691552734375,-9.364920378223061,-2.5991739053860305,1.3087933185860514
1776870177261952500,0.216952392578125,-9.305973099213839,-2.669725989732146,1.5626311554022132
1776870177271989200,0.2269892578125,-9.244934985405207,-2.7375299444139003,1.7909478897318243
1776870177282027500,0.237027587890625,-9.183982796314359,-2.79703281147927,2.000362209062278
1776870177292064500,0.247064453125,-9.117160253885388,-2.852271006837487,2.216375488266349
1776870177302102300,0.257102294921875,-9.042007690006495,-2.9025433964818714,2.4469834022730588
1776870177312140500,0.267140625,-8.962339110007882,-2.941118626330793,2.6826640894994136
1776870177322177500,0.277177490234375,-8.882671114531158,-2.9590307151183484,2.917648611155152
1776870177332214300,0.28721435546875,-8.805266387811303,-2.9369787500470874,3.1641473372548816
1776870177342252500,0.29725244140625,-8.73941765885055,-2.844738857766986,3.4205881961762903
1776870177352290300,0.307290283203125,-8.68590994054675,-2.684008197584748,3.6771532659992574
1776870177362327300,0.317327392578125,-8.62444044958353,-2.4926035821974275,3.946687122988701
1776870177372365600,0.327365478515625,-8.53887579728365,-2.2961731014721094,4.240940702953934
1776870177382402300,0.33740234375,-8.415048342084884,-2.107740049241483,4.573267700725793
1776870177392440300,0.3474404296875,-8.245029044553638,-1.9434642637982964,4.940933138382435
1776870177402477300,0.357477294921875,-8.033444979968667,-1.8027395959429442,5.327689645478129
1776870177412515300,0.367515380859375,-7.792614947155117,-1.681572592125088,5.711204394173622
1776870177422552300,0.37755224609375,-7.55260324498713,-1.589037077899277,6.050085635894536
1776870177432590600,0.387590576171875,-7.351101013955473,-1.5337050667777656,6.30709465009272
1776870177442627300,0.39762744140625,-7.209290742820501,-1.5095247113756836,6.4743994279682635
1776870177452665300,0.407665283203125,-7.111038458383083,-1.5107210815533996,6.581887158262729
1776870177462702300,0.417702392578125,-7.031589074093103,-1.5286805166140198,6.662602032443881
1776870177472740400,0.427740234375,-6.959716847059131,-1.551317588096857,6.732469933918118
1776870177482777300,0.43777734375,-6.88769030624628,-1.5738794023863971,6.800956025645136
1776870177492815600,0.447815673828125,-6.820213099300861,-1.5872915494062005,6.865536342105269
1776870177502852400,0.457852294921875,-6.769004890111089,-1.5913053150922059,6.91510613643825
1776870177512890400,0.467890380859375,-6.736630560728907,-1.5841211026765405,6.948291197681427
1776870177522927400,0.47792724609375,-6.716175217199325,-1.5617115563392638,6.973122272077203
1776870177532965400,0.48796533203125,-6.701522422468662,-1.5322133669152855,6.993733098429441
1776870177543002400,0.49800244140625,-6.689722679081559,-1.5174676332041621,7.008229825815558
1776870177553040400,0.508040283203125,-6.664066844299435,-1.5378312067970632,7.028205861395597
1776870177563077400,0.518077392578125,-6.6270882359921925,-1.5893116570569574,7.051678506919742
1776870177573115400,0.528115478515625,-6.590794102817774,-1.6525160089887678,7.071139578714966
1776870177583152400,0.53815234375,-6.555416499966382,-1.7121629606999456,7.089809207871556
1776870177593190400,0.5481904296875,-6.502393934831023,-1.7588642138592898,7.1271075496524565
1776870177603227400,0.558227294921875,-6.452475765451789,-1.798836451024562,7.162410333701968
1776870177613265200,0.56826513671875,-6.4315767698079345,-1.8296388549149036,7.173397007140517
1776870177623302400,0.578302490234375,-6.459555494579672,-1.8318787427961825,7.147639465549588
1776870177633340400,0.58834033203125,-6.5151926261276,-1.80174488581717,7.104672430482506
1776870177643377400,0.59837744140625,-6.565688303133845,-1.7632973740011453,7.067736492273211
1776870177653415400,0.60841552734375,-6.6036190975993865,-1.7287591445833443,7.0408800495296715
1776870177663452400,0.618452392578125,-6.616708296275139,-1.6935954767435788,7.0371361868262285
1776870177673490200,0.628490234375,-6.595826836287975,-1.6470308555759487,7.067725386357307
1776870177683527400,0.63852734375,-6.545206071597337,-1.571941712322086,7.13159550872147
1776870177693565400,0.6485654296875,-6.460695896786451,-1.4667965996310115,7.230373278337717
1776870177703602400,0.6586025390625,-6.3353644667655225,-1.3187833822026849,7.36847008190751
1776870177713640400,0.668640380859375,-6.181871941143274,-1.132001165919006,7.528174906173348
1776870177723677400,0.678677490234375,-6.010844927874207,-0.9363730145525186,7.6917697236150495
1776870177733715200,0.688715087890625,-5.842527758085727,-0.749452997233346,7.840508917230367
1776870177743752400,0.69875244140625,-5.682801306509972,-0.5749532298197969,7.971548203504085
1776870177753790500,0.70879052734375,-5.540252784228325,-0.4059181940855458,8.08153593392074
1776870177763827200,0.7188271484375,-5.421507746860384,-0.22980006822254506,8.168527404153346
1776870177773865500,0.728865478515625,-5.334524459934235,-0.05155732402154244,8.228644311463832
1776870177783902500,0.73890234375,-5.274315198165178,0.1364264683379326,8.266399164840578
1776870177793940200,0.748940185546875,-5.234666493865848,0.35184381834231315,8.285219600644707
1776870177803977500,0.7589775390625,-5.207154802083969,0.6025298765966668,8.288115906608104
1776870177814015500,0.769015380859375,-5.178015216839313,0.8971374941639602,8.279715742531419
1776870177824052200,0.77905224609375,-5.132187531644106,1.2422298654846846,8.263649573871493
1776870177834090500,0.789090576171875,-5.050957109156251,1.6232267861403524,8.247626659831404
1776870177844127500,0.79912744140625,-4.9449102253198625,2.0266899517565964,8.222576974248886
1776870177854165200,0.809165283203125,-4.822697804102301,2.4395520832285285,8.182942298474908
1776870177864202200,0.8192021484375,-4.690616899821162,2.852011771379411,8.126163011154532
1776870177874240500,0.829240478515625,-4.552570657394826,3.260712399257719,8.050605373606086
1776870177884274000,0.83927392578125,-4.416276811593771,3.6668469760403033,7.95117177042961
1776870177894312000,0.84931201171875,-4.273915336316824,4.071362719449401,7.831222033447027
1776870177904349200,0.85934912109375,-4.116893467524648,4.477064750033617,7.6926891765475265
1776870177914387000,0.869386962890625,-3.9394396360784767,4.891227150449157,7.531738736134767
1776870177924424000,0.879423828125,-3.7367727451816197,5.316835073986649,7.3442621078461405
1776870177934462000,0.8894619140625,-3.5122067416876552,5.748197615528106,7.126923425257205
1776870177944499000,0.8994990234375,-3.2827021127477285,6.17061404954791,6.878791544997692
1776870177954537000,0.909536865234375,-3.0645839702188966,6.563463028299808,6.610572569999098
1776870177964574200,0.91957421875,-2.858580336114764,6.915805224618316,6.338022872319817
1776870177974612000,0.929612060546875,-2.665878666654229,7.224934886676072,6.071556293946505
1776870177984649000,0.93964892578125,-2.475608315993845,7.494847806110978,5.819709192556142
1776870177994687000,0.94968701171875,-2.270735293354839,7.736890137323737,5.581638687583804
1776870178004724000,0.959723876953125,-2.0407417118541895,7.9609221800714725,5.350654341480135
1776870178014762000,0.969761962890625,-1.7837258295238017,8.162989643770455,5.133645329236984
1776870178024799200,0.97979931640625,-1.5007491381153464,8.33101630617976,4.9509933446258305
1776870178034837000,0.9898369140625,-1.2048190763052553,8.457958678528666,4.814740999878943
1776870178044874000,0.9998740234375,-0.8885176229219883,8.548951201096177,4.721900803618133
1776870178054912000,1.009912109375,-0.542051150236465,8.607807879212498,4.667142208470404
1776870178064949000,1.019948974609375,-0.16170485724294556,8.637149124509095,4.6415419032678
1776870178074987000,1.029987060546875,0.24145501457778737,8.63579946346581,4.640585333195329
1776870178085024000,1.04002392578125,0.6512533197659999,8.595490249431133,4.6758755500242115
1776870178095062000,1.05006201171875,1.0480942907635122,8.510180448675156,4.759067043451965
1776870178105099000,1.06009912109375,1.4172826271384953,8.38273538750112,4.887886315588653
1776870178115137000,1.070136962890625,1.757669597247243,8.22141202212274,5.04870143918395
1776870178125174000,1.080174072265625,2.0757450745657087,8.033142782151698,5.227836355584859
1776870178135212000,1.0902119140625,2.374421147148311,7.822085956311225,5.417330753436684
1776870178145248800,1.100248779296875,2.6375743631899353,7.598049237388372,5.610992207840085
1776870178155287000,1.110287109375,2.850148023334145,7.3785109989285464,5.796949663737416
1776870178165324000,1.120323974609375,2.9941704175606367,7.199571312838793,5.947397999358177
1776870178175362000,1.130362060546875,3.061871496389806,7.085954870530963,6.048517363664508
1776870178185399000,1.14039892578125,3.063658379806578,7.035358071237802,6.106398474746942
1776870178195437000,1.15043701171875,3.004962737470865,7.033278926876187,6.137880239203572
1776870178205473800,1.160473876953125,2.8984643104746937,7.046244791433215,6.174118842798471
1776870178215512000,1.170511962890625,2.7598890757381915,7.033993797147273,6.251103298279642
1776870178225549000,1.180549072265625,2.6095094214394687,6.966510160461068,6.389723248940706
1776870178235587000,1.190587158203125,2.4700410372555255,6.845962457585334,6.572829991582036
1776870178245624000,1.2006240234375,2.3456512719988822,6.698975076073408,6.766981275328994
1776870178255662000,1.210662109375,2.237972110785544,6.549493539658188,6.947374667358398
1776870178265698800,1.22069873046875,2.153450683928281,6.413191218289732,7.099577153170109
1776870178275737000,1.230737060546875,2.101726926431805,6.282408537125587,7.2308011483609675
1776870178285774000,1.240774169921875,2.06958289867416,6.147192257428169,7.355218970668315
1776870178295811800,1.250811767578125,2.0335393792599437,6.010729192540049,7.477047945526242
1776870178305849000,1.26084912109375,1.9937403067044912,5.885407699391245,7.586659243845939
1776870178315886800,1.270886962890625,1.960904643420875,5.786960769164562,7.670483774480223
1776870178325923800,1.280923828125,1.9356123812541364,5.714823169192671,7.7307544110476965
1776870178335962000,1.290962158203125,1.919245768342912,5.650239345601201,7.782137392282485
1776870178345999000,1.3009990234375,1.9082795531705021,5.5658004824608565,7.845427668932079
1776870178356036900,1.311036865234375,1.8913272493258118,5.447071811705827,7.9323834833294145
1776870178366074000,1.32107421875,1.844123307341337,5.297101030468941,8.044272078931332
1776870178376111900,1.33111181640625,1.7546338828131556,5.1508817107200615,8.158436802771687
1776870178386148900,1.34114892578125,1.6470137583106754,5.044406956860422,8.246921141910553
1776870178396187100,1.351187255859375,1.5561132979407906,4.9823476833105085,8.302115790387987
1776870178406224100,1.36122412109375,1.4822386450432241,4.940262691774964,8.340693650585413
1776870178416262000,1.371261962890625,1.4221741985723375,4.891927699933946,8.379550912246108
1776870178426299100,1.381299072265625,1.3638004816673694,4.830142567150294,8.424972354727982
1776870178436337000,1.3913369140625,1.2924262672834097,4.763724806129932,8.473898590460418
1776870178446374000,1.401373779296875,1.2262423150189221,4.6975405616045,8.520553374129534
1776870178456412200,1.411412109375,1.1849104799382388,4.631846730944514,8.562263687133788
1776870178466449000,1.421448974609375,1.1497618635371327,4.567545523686706,8.601509655851125
1776870178476487000,1.43148681640625,1.1088969883810729,4.499399331438541,8.642695068198442
1776870178486524200,1.441524169921875,1.0526236047562212,4.42659128485918,8.68721342436075
1776870178496562000,1.45156201171875,0.9815678086716682,4.350135821688175,8.73402778250575
1776870178506599000,1.461598876953125,0.906514613514021,4.276273882141709,8.778501715004444
1776870178516637200,1.47163720703125,0.8128558674119413,4.217957302251458,8.81580765556991
1776870178526674000,1.481673828125,0.7269860216204077,4.171881195253134,8.84518455670178
1776870178536712000,1.4917119140625,0.6487524428609758,4.1330324091598385,8.869473194783925
1776870178546749200,1.501749267578125,0.5678302826046944,4.090294798934459,8.894798190176486
1776870178556787000,1.511786865234375,0.47634668858461077,4.040857691070437,8.922720800846815
1776870178566824000,1.521823974609375,0.37075613368097693,3.985002825118601,8.952801466333865
1776870178576862200,1.5318623046875,0.2642501079002395,3.9253976667225357,8.982861673554778
1776870178586899000,1.54189892578125,0.16219393766783177,3.867110020665824,9.010524756506085
1776870178596937000,1.55193701171875,0.057441052864468656,3.808936648638546,9.036541825816034
1776870178606974000,1.561973876953125,-0.05515469092638232,3.7487212493896482,9.061703155079483
1776870178617012000,1.572011962890625,-0.1821627397894859,3.6802392493158576,9.088070937523245
1776870178627049000,1.582049072265625,-0.31802338180504736,3.5944533554807303,9.118615128868818
1776870178637087200,1.592087158203125,-0.4643456504717469,3.4965044379040595,9.150368111482262
1776870178647124000,1.6021240234375,-0.6200109170231968,3.391925873054564,9.180457544797658
1776870178657162000,1.612161865234375,-0.7825063949208706,3.288142257975042,9.205769096186756
1776870178667199000,1.622198974609375,-0.9628018064685165,3.1866224961742757,9.224360399410129
1776870178677237000,1.632237060546875,-1.172110984924063,3.0805493088528513,9.236164818972348
1776870178687274000,1.64227392578125,-1.3760168430313466,2.9824361406251785,9.240240105587244
1776870178697312000,1.65231201171875,-1.570749141536653,2.9138045029476283,9.231081232097745
1776870178707349000,1.662348876953125,-1.7618642724581062,2.8705425765872,9.210115016436577
1776870178717387000,1.672386962890625,-1.9567799647063016,2.852187127946317,9.176405054536461
1776870178727424000,1.682424072265625,-2.1513202477708457,2.8557389752089977,9.13164704439938
1776870178737462000,1.6924619140625,-2.310759845229238,2.868703962983191,9.088525695553422
1776870178747499000,1.7024990234375,-2.4379509316422046,2.868859738066792,9.055188658618926
1776870178757536800,1.712536865234375,-2.5622858979716896,2.83798003115654,9.030555737143754
1776870178767574000,1.722573974609375,-2.6797981786742806,2.783032927699387,9.01353445971608
1776870178777612000,1.732612060546875,-2.794004695829749,2.730681685954332,8.99484904846847
1776870178787649000,1.74264892578125,-2.9032392697915435,2.6924507394984363,8.971751081475615
1776870178797687000,1.75268701171875,-3.0152830559551713,2.672704421021044,8.940642826506496
1776870178807724000,1.76272412109375,-3.1330113174960017,2.6539325005337595,8.905687832981348
1776870178817761800,1.77276171875,-3.232889741830528,2.6307234743818637,8.876831156331301
1776870178827799000,1.782799072265625,-3.3247833048909903,2.6164529569670556,8.847055611270665
1776870178837837000,1.792837158203125,-3.4266505649551746,2.623683200481534,8.805947940334677
1776870178847874000,1.8028740234375,-3.539130696709454,2.6661013694941995,8.748535031285881
1776870178857912000,1.812912109375,-3.6625147920548913,2.749443961830437,8.671616626778244
1776870178867949000,1.822948974609375,-3.818648772096634,2.8622262914016843,8.567144444912671
1776870178877986800,1.83298681640625,-4.03296430747211,2.9893837678059936,8.424319443777202
1776870178888024000,1.843024169921875,-4.295689361229539,3.1332857505232092,8.240143026077748
1776870178898062300,1.853062255859375,-4.520560777410864,3.3151687965884804,8.04640090765357
1776870178908099000,1.86309912109375,-4.638109298470616,3.555115032304823,7.875245299568772
1776870178918137000,1.87313720703125,-4.66653489022702,3.8738834603235124,7.706287493789196
1776870178928174300,1.88317431640625,-4.599665586046874,4.261870093736052,7.539889893886446
1776870178938212000,1.893212158203125,-4.487917275698483,4.6705216217756265,7.36309891026318
1776870178948249000,1.9032490234375,-4.3682568770512935,5.055290169924497,7.178633154228329
1776870178958287400,1.913287353515625,-4.244680181743204,5.391392010059953,7.006138991016149
1776870178968324000,1.923323974609375,-4.115890427961945,5.665204859542846,6.865513545751571
1776870178978362000,1.933362060546875,-3.9706154033258554,5.884657757806778,6.765752610316873
1776870178988399400,1.9433994140625,-3.789274501313269,6.08549597197175,6.691676735758781
1776870178998437000,1.95343701171875,-3.569871287409961,6.282576294907927,6.629906216022372
1776870179008474000,1.96347412109375,-3.3428725038111207,6.462539478826522,6.57504123789072
1776870179018512100,1.97351220703125,-3.1222844640374183,6.612395109251141,6.534367866718768
1776870179028549000,1.983549072265625,-2.927680760347843,6.720405402114987,6.514233425706625
1776870179038587100,1.993587158203125,-2.7778941035062075,6.7809612853646275,6.517074202090502
1776870179048624400,2.003624267578125,-2.6471792268812653,6.810161660885811,6.540988746163249
1776870179058662100,2.013662109375,-2.513550800897181,6.837667507448792,6.564964080512524
1776870179068699100,2.02369921875,-2.396441694168001,6.887827084368467,6.55631724819839
1776870179078737200,2.033737060546875,-2.3239314614914357,6.966629402926563,6.498909599846601
1776870179088774100,2.043774169921875,-2.3036358385682103,7.06805564122498,6.395797015896439
1776870179098812200,2.053812255859375,-2.3409615067474543,7.187893734526634,6.246957869037986
1776870179108849400,2.063849365234375,-2.427786095980555,7.3265692147672175,6.049595806550979
1776870179118887200,2.07388720703125,-2.533091952191293,7.477590966361761,5.817167691379785
1776870179128924200,2.083924072265625,-2.6408503161206838,7.635320691162347,5.55861437034905
1776870179138962200,2.093962158203125,-2.7485107726335523,7.79268567430377,5.281110849654675
1776870179148999200,2.103999267578125,-2.8637922255441546,7.937828304731846,4.99599510039091
1776870179159037200,2.114037109375,-2.9930013737812637,8.06950822699666,4.700571892124414
1776870179169074200,2.12407421875,-3.034595951451361,8.172797921079397,4.490765650866925
1776870179179112200,2.1341123046875,-2.9565634482219814,8.271122686231136,4.360925218988955
1776870179189149200,2.144149169921875,-2.8370708073571325,8.364438098788261,4.261172174599767
1776870179199187200,2.154187255859375,-2.6593872588083145,8.441628305974602,4.2233799118220805
1776870179209224200,2.16422412109375,-2.4257433381065723,8.521096979486941,4.204408961631358
1776870179219262200,2.17426220703125,-2.1523386310331523,8.600637549191713,4.191282645815611
1776870179229299000,2.184298828125,-1.8955473512388765,8.681775032699107,4.147777850610018
1776870179239337200,2.194337158203125,-1.6128167435459793,8.760367507898806,4.101849335388839
1776870179249374200,2.204374267578125,-1.3144799859203398,8.829038893064856,4.060862075962126
1776870179259412200,2.214412109375,-1.0110893059059978,8.884137095430493,4.027429761959612
1776870179269449200,2.22444921875,-0.6976715912654996,8.924098518940806,4.00551165240109
1776870179279486200,2.234486328125,-0.3754743213092908,8.956855125638842,3.9754441386565564
1776870179289524000,2.24452392578125,-0.05143762489832006,8.994145284113287,3.908078575392067
1776870179299562200,2.254562255859375,0.2548442373797297,9.034548606172203,3.805568341249227
1776870179309599200,2.26459912109375,0.5277651795241981,9.082013537180423,3.661811027699709
1776870179319637000,2.274636962890625,0.7433554840758443,9.14556041893959,3.460710947728157
1776870179329674200,2.28467431640625,0.9056829119302332,9.224791776564716,3.2020851459830997
1776870179339712300,2.294712158203125,1.0083379613712429,9.307737770798802,2.918848342333734
1776870179349749000,2.3047490234375,1.107730501884967,9.37890915608704,2.641849848552048
1776870179359786200,2.3147861328125,1.2492572799034416,9.429857837557792,2.384853693835437
1776870179369824300,2.32482421875,1.4134924410752951,9.457076683872938,2.1762648655436934
1776870179379861000,2.334861083984375,1.5993137033723295,9.457755313786864,2.0404526657797395
1776870179389899300,2.344899169921875,1.7626970700204372,9.448450894346832,1.9468081673987208
1776870179399937300,2.354937255859375,1.8764840465895831,9.453748416233061,1.8099254157938063
1776870179409974000,2.36497412109375,1.9427246974773704,9.481126252502202,1.582549177184701
1776870179420011300,2.37501123046875,1.9488105932623148,9.52794177969098,1.2613009150490164
1776870179430049300,2.38504931640625,1.8860319193966686,9.582620879861713,0.8869348837751895
1776870179440087000,2.395087158203125,1.7823305757731198,9.630206806901096,0.5028035740839317
1776870179450124300,2.405124267578125,1.6515069780766962,9.665554599136113,0.14125686590275727
1776870179460161300,2.415161376953125,1.5592663551442325,9.680549339172243,-0.16129622164312749
1776870179470199000,2.425198974609375,1.5450038749054074,9.676612584245204,-0.38277507277671247
1776870179480236000,2.435236083984375,1.577420289863646,9.665829324424266,-0.5038606453888118
1776870179490274300,2.4452744140625,1.6209565031208097,9.65679846122861,-0.537675346305035
1776870179500311000,2.45531103515625,1.6460314692750573,9.654153499677777,-0.5082041910184547
1776870179510349300,2.465349365234375,1.646499232917279,9.657993808493018,-0.4273074209317565
1776870179520386300,2.47538623046875,1.6361542183831332,9.664313659164309,-0.30733722568303345
1776870179530424000,2.485424072265625,1.6191361558258532,9.67044938544035,-0.17667261794060468
1776870179540461000,2.4954609375,1.599416140833497,9.675118546295165,-0.06581039711120538
1776870179550499300,2.505499267578125,1.5773453249312936,9.678965284851193,0.002010844491484022
1776870179560536000,2.5155361328125,1.5509142679929733,9.683212420901656,0.021483743579115252
1776870179570574300,2.52557421875,1.5207802648834883,9.688011345615983,0.007563498052590875
1776870179580611300,2.535611328125,1.4925183392561971,9.692394090744852,-0.015605011713359271
1776870179590649000,2.545649169921875,1.473186154537648,9.695280459836125,-0.04055903777701314
1776870179600686000,2.55568603515625,1.4670261706031857,9.696032154986261,-0.07212202337684576
1776870179610724000,2.56572412109375,1.4717948463097215,9.694992875066399,-0.10651586218816228
1776870179620761000,2.575760986328125,1.4810348222114145,9.693222942784429,-0.13549653967721387
1776870179630799000,2.585799072265625,1.4886979041852055,9.691738841706513,-0.1560665042961016
1776870179640836400,2.59583642578125,1.49088562348783,9.691174193561077,-0.1696410753360018
1776870179650874000,2.6058740234375,1.4862313679412007,9.691718967962265,-0.17913803993975744
1776870179660911000,2.6159111328125,1.4745125808358193,9.693364981603622,-0.18666750386282802
1776870179670949000,2.62594921875,1.4554082135237754,9.696225631731748,-0.18812126460140569
1776870179680986000,2.635986083984375,1.4256919974349438,9.70067793496549,-0.1861412697653286
1776870179691024100,2.646024169921875,1.3894595313198863,9.706024556690453,-0.1813433679643087
1776870179701061400,2.656061279296875,1.3544310341671109,9.71110463643372,-0.17422422014148906
1776870179711099100,2.66609912109375,1.327331284186989,9.714957220208644,-0.16786303281281142
1776870179721136000,2.67613623046875,1.3142131516776978,9.716866268700361,-0.16051056942446157
1776870179731174100,2.686174072265625,1.3152213058069349,9.716955116027593,-0.14616515100938268
1776870179741211100,2.696211181640625,1.3255571141213178,9.715876673141121,-0.1226503285776358
1776870179751249200,2.706249267578125,1.3408584358885884,9.714081021896003,-0.09552403765046037
1776870179761286100,2.7162861328125,1.3577538949795067,9.711949270564316,-0.07038307988818268
1776870179771324200,2.72632421875,1.3745115530349314,9.709727502861618,-0.04791261084363795
1776870179781361200,2.736361083984375,1.3879117173559963,9.707903794565796,-0.026063837910990695
1776870179791399200,2.746399169921875,1.3966969352275131,9.706678052163124,-0.004156380464756512
1776870179801436200,2.756436279296875,1.4011729115977882,9.706015204340218,0.019175117293582296
1776870179811474200,2.76647412109375,1.403345141070336,9.705615975889563,0.0448879931923002
1776870179821511200,2.77651123046875,1.4046297740533946,9.705256494927406,0.07348087694016285
1776870179831549200,2.786549072265625,1.4060633139878511,9.704770757237076,0.10381734381918795
1776870179841586200,2.796586181640625,1.4062810483917594,9.704374451395868,0.1336079129190184
1776870179851624200,2.806624267578125,1.4052537511706351,9.704122522461414,0.16017375695183872
1776870179861661200,2.8166611328125,1.4024327024005352,9.704161100906132,0.18112351466855034
1776870179871699200,2.82669921875,1.3987472918860613,9.704397832271455,0.19634941484574228
1776870179881736200,2.836736083984375,1.3953184864811599,9.704684247997402,0.2063726500796154
1776870179891774200,2.846774169921875,1.392109315176308,9.705030284956097,0.21170710644274948
1776870179901811500,2.8568115234375,1.3877876525849102,9.70564052580893,0.21213556098788974
1776870179911849200,2.86684912109375,1.3812152884572744,9.706669868856668,0.20778414257904512
1776870179921886200,2.87688623046875,1.3712752014622092,9.708132342624664,0.20526132783684878
1776870179931924200,2.88692431640625,1.3571341556459664,9.710064187470078,0.2078790177882649
1776870179941961200,2.896961181640625,1.3401041103899478,9.712283032563327,0.2146500645594671
1776870179951999200,2.906999267578125,1.3217724810160696,9.714595985680818,0.2234978810721077
1776870179962036500,2.917036376953125,1.303410894895345,9.716900170969963,0.2310552193827927
1776870179972074200,2.92707421875,1.284809070277959,9.719220138350128,0.23753857178641483
1776870179982111200,2.937111328125,1.2645201693564652,9.721724814647436,0.24377658939315006
1776870179992149200,2.947149169921875,1.2413272175565362,9.724560914856195,0.24984416407011448
1776870180002186200,2.957186279296875,1.2135569479037076,9.72792659189701,0.25514393271235747
1776870180012224300,2.967224365234375,1.1801422426231205,9.731869776564835,0.26148250635042786
1776870180022261500,2.977261474609375,1.1387767975337804,9.736565240904689,0.26997760043526065
1776870180032299300,2.98729931640625,1.088982035338506,9.741956870815157,0.2806688163248822
1776870180042336300,2.997336181640625,1.0292055389635264,9.748156894499063,0.2907982701458968
1776870180052374300,3.007374267578125,0.9577979337666184,9.75519336900711,0.2986699168364517
1776870180062411300,3.017411376953125,0.8745459423232823,9.762882754465936,0.302804623754695
1776870180072449300,3.02744921875,0.7795882424518465,9.771013453951477,0.2998911839934066
1776870180082486300,3.037486328125,0.6740293613281101,9.779261057814955,0.28657756544463336
1776870180092524300,3.047524169921875,0.5602587879044935,9.787144504541159,0.26138595064077524
1776870180102561300,3.057561279296875,0.4396962527858093,9.794218972972034,0.22436755831241606
1776870180112599300,3.067599365234375,0.31143757367394864,9.80008406561315,0.17821880620298905
1776870180122636300,3.07763623046875,0.1716372541218996,9.804300222003459,0.12906688108905218
1776870180132674300,3.08767431640625,0.01688278341408004,9.806289934515952,0.08245357107464224
1776870180142711300,3.097711181640625,-0.1577241170437075,9.805292155650257,0.042207138344179836
1776870180152749300,3.107749267578125,-0.35122477312851696,9.800354699248075,0.008846462522482033
1776870180162786300,3.117786376953125,-0.5513045701416209,9.791126267653704,-0.016842453686980296
1776870180172824300,3.12782421875,-0.7430361159283667,9.778397134461999,-0.03517001766544999
1776870180182861300,3.137861328125,-0.9064490009319036,9.764546303763986,-0.04872991400931496
1776870180192899300,3.1478994140625,-1.0312499042727052,9.752101832732558,-0.05861064006653614
1776870180202936300,3.157936279296875,-1.1146714070640504,9.742886260619759,-0.06383758550116327
1776870180212974300,3.167974365234375,-1.158617589361593,9.737765848866104,-0.06259155836228747
1776870180223011300,3.17801123046875,-1.16938660146147,9.736520817241072,-0.05543721136192325
1776870180233049300,3.18804931640625,-1.1513941409140824,9.738728556418419,-0.0427257005918771
1776870180243086300,3.19808642578125,-1.104830031203106,9.744180976605415,-0.025934975950489752
1776870180253124400,3.208124267578125,-1.0309802204858511,9.75230407730639,-0.00719887512443529
1776870180263162400,3.218162353515625,-0.9367102106176316,9.761802558013796,0.013015510101744438
1776870180273199400,3.228199462890625,-0.8325554241381585,9.771172443905472,0.03800814086793689
1776870180283236400,3.238236328125,-0.7296208271034061,9.779228909111023,0.06890498385936952
1776870180293274400,3.2482744140625,-0.6381316070601344,9.785336578336358,0.10183228008234872
1776870180303311400,3.258311279296875,-0.5661900411169976,9.789391991207003,0.1327414779485669
1776870180313349000,3.26834912109375,-0.5131507805751636,9.791894913938641,0.16074677106682211
1776870180323387400,3.278387451171875,-0.4648871734699234,9.793826758784055,0.18772773523917421
1776870180333424400,3.28842431640625,-0.40512328084819016,9.795883106791972,0.21663173989597706
1776870180343461400,3.29846142578125,-0.32868827594332395,9.798021872386336,0.247225999194663
1776870180353499400,3.30849951171875,-0.24198137653945012,9.799801741540431,0.27519549948032945
1776870180363536400,3.318536376953125,-0.15659788949275388,9.800968447232245,0.29477789610028265
1776870180373574100,3.32857421875,-0.08493461076803505,9.801656429496408,0.301174337405432
1776870180383611100,3.338611083984375,-0.03209775463023688,9.802232768079637,0.29252299331296233
1776870180393649400,3.3486494140625,0.010017300966719631,9.802782803177832,0.2752160490780137
1776870180403687200,3.358687255859375,0.05381857435125857,9.803110719957948,0.25794205726459624
1776870180413724200,3.36872412109375,0.10432818855131044,9.802930687215923,0.24906569051090627
1776870180423761400,3.378761474609375,0.1564965845427476,9.802064425775407,0.255751999874413
1776870180433799200,3.388799072265625,0.20368226021816954,9.800696644553542,0.27432147485846653
1776870180443837400,3.39883740234375,0.24586121364748104,9.799128956845403,0.2949833738108165
1776870180453874400,3.40887451171875,0.28351852493388574,9.797669990208744,0.309319449008815
1776870180463911200,3.4189111328125,0.31543895480241624,9.796589793756604,0.3125778297502547
1776870180473949200,3.42894921875,0.3400118531860411,9.796035082483291,0.3040906267109327
1776870180483986400,3.438986328125,0.3570705400146544,9.795947404199838,0.2868482538784854
1776870180494024200,3.449024169921875,0.368365512217395,9.79612743694186,0.26568832400981335
1776870180504061200,3.459061279296875,0.37610907554887235,9.79635715404451,0.24560146673275157
1776870180514099500,3.469099365234375,0.3822007434874773,9.796488671469687,0.23046028569694607
1776870180524137200,3.47913720703125,0.3873042041063309,9.796456522765755,0.2232121046669781
1776870180534174200,3.48917431640625,0.39029140322357414,9.796284088808298,0.22554571698000653
1776870180544211500,3.49921142578125,0.38917292058765884,9.796061385968327,0.23683897214969618
1776870180554249200,3.509249267578125,0.38269086509197947,9.79588895201087,0.2539506495408714
1776870180564286200,3.5192861328125,0.37042704785708336,9.795787245202064,0.275134709203802
1776870180574324500,3.529324462890625,0.35182584429420527,9.795729962056875,0.30042357383705676
1776870180584361200,3.539361328125,0.3277347746107727,9.795722947794198,0.32679420582503077
1776870180594399200,3.549399169921875,0.3001721198266372,9.795773801198601,0.35084589334614574
1776870180604437200,3.559437255859375,0.2711977168147452,9.795931037586927,0.36955326069723815
1776870180614474200,3.56947412109375,0.2422130481371656,9.796292272114753,0.37995665435511616
1776870180624511200,3.57951123046875,0.21379695486146955,9.796935830715299,0.3804342452716082
1776870180634549500,3.589549560546875,0.18561315423799676,9.797850022950767,0.3715764370879158
1776870180644587300,3.599587158203125,0.15693638246580957,9.798928465837239,0.35604006445575503
1776870180654624300,3.609624267578125,0.1271294558862224,9.800003401592374,0.3378909155093133
1776870180664661500,3.61966162109375,0.09576152706760913,9.801004103067516,0.31866251995880157
1776870180674699300,3.62969921875,0.06118742718540597,9.80193115478456,0.2980021005774848
1776870180684736300,3.639736328125,0.021334953075437806,9.80275182351768,0.27566846902063114
1776870180694774300,3.649774169921875,-0.024573263709805903,9.8033854452461,0.2518789943659678
1776870180704811300,3.659811279296875,-0.07605315684727393,9.803726221507787,0.22707594048827887
1776870180714849300,3.669849365234375,-0.134064031789219,9.803656663402915,0.2017664349257946
1776870180724886300,3.67988623046875,-0.20022030146233735,9.803014273846149,0.17667698358846828
1776870180734924300,3.68992431640625,-0.27730078293019905,9.801541863206028,0.1524959431997966
1776870180744961300,3.699961181640625,-0.3686318350033834,9.798861245819925,0.12966215270161627
1776870180754999300,3.709999267578125,-0.4779394742013886,9.794390822407603,0.10891877687773667
1776870180765036300,3.720036376953125,-0.6077294910663739,9.78738532755971,0.09024398748883977
1776870180775074300,3.73007421875,-0.7584799879714846,9.777003634276985,0.07266603972620796
1776870180785111300,3.740111328125,-0.9241399212494492,9.762853528371453,0.05511122167741414
1776870180795149300,3.7501494140625,-1.098027146255225,9.744924488449096,0.0340844372187159
1776870180805186300,3.760186279296875,-1.273582158342749,9.723596453738212,0.007106183309969492
1776870180815224300,3.770224365234375,-1.443061503778398,9.69985960431993,-0.025867290142294948
1776870180825261300,3.78026123046875,-1.6017559819579124,9.674763156986236,-0.0610163358016638
1776870180835299300,3.79029931640625,-1.7494900901839137,9.648891049104929,-0.0925724761021789
1776870180845336300,3.80033642578125,-1.8902423766985534,9.622111763250826,-0.11102883696742355
1776870180855374300,3.810374267578125,-2.032699713565409,9.593069208639859,-0.10743874005358665
1776870180865411300,3.820411376953125,-2.18530654239431,9.559687748041748,-0.08478414204721338
1776870180875449000,3.830448974609375,-2.3494136932723224,9.520902382573485,-0.05518753375005908
1776870180885485800,3.84048583984375,-2.5153157647430895,9.478560785928368,-0.021170873671083244
1776870180895524000,3.850524169921875,-2.6719474651739,9.435598427036403,0.023530805452167985
1776870180905561000,3.86056103515625,-2.8188872081518173,9.392433239048719,0.08047121988469734
1776870180915598800,3.870598876953125,-2.9638568201005455,9.346920611152052,0.14504174560317767
1776870180925635800,3.8806357421875,-3.1125173955217003,9.297249110010267,0.209252169304993
1776870180935673900,3.890673828125,-3.268163884307444,9.242056215098499,0.2718089623145759
1776870180945710800,3.9007109375,-3.4314442289724942,9.180544054037332,0.3364014441365376
1776870180955749000,3.9107490234375,-3.600946516892314,9.112665280553697,0.4036232880814001
1776870180965785900,3.920785888671875,-3.7716041123270987,9.039768386647104,0.4774728796029463
1776870180975824000,3.930823974609375,-3.939390243978798,8.96286576423049,0.5644695374673232
1776870180985860900,3.94086083984375,-4.104277147057652,8.88111979343593,0.6715599755398929
1776870180995899000,3.95089892578125,-4.263250734439492,8.794833841124177,0.803724320320785
1776870181005935900,3.960935791015625,-4.414428553378582,8.70417098890245,0.9594760961119085
1776870181015974000,3.970973876953125,-4.555130278749764,8.609994575601815,1.135412874058634
1776870181026011000,3.981010986328125,-4.685355618292093,8.51218477423489,1.326851976237446
1776870181036049000,3.991048828125,-4.805478958275914,8.411751054105162,1.5232213744252918
1776870181046083800,4.001083740234375,-4.91932687125206,8.309638002586365,1.7089578810483217
1776870181056121900,4.011121826171875,-5.035269710680842,8.204481930109859,1.8716094262905418
1776870181066159000,4.0211591796875,-5.159114117014408,8.095370982527733,2.004719527488947
1776870181076196900,4.03119677734375,-5.295643232876062,7.978745421531796,2.113328955289721
1776870181086233900,4.04123388671875,-5.447536506608128,7.850338237327337,2.2061096764482557
1776870181096272000,4.05127197265625,-5.6157975622951986,7.706386277988552,2.2901539873130616
1776870181106308900,4.061308837890625,-5.795535120764375,7.546992419368028,2.3717229941055176
1776870181116347000,4.071346923828125,-5.975759585967659,7.378720842286944,2.4525845832809803
1776870181126384000,4.081384033203125,-6.151064714947342,7.206358196499943,2.5304525435984133
1776870181136422000,4.091421875,-6.32147505762279,7.029985730549693,2.6055022316247225
1776870181146459000,4.101458984375,-6.486486171603202,6.849909149384498,2.678550808961689
1776870181156497000,4.111496826171875,-6.6456368691176175,6.667951576778292,2.7466926172956825
1776870181166534000,4.121533935546875,-6.802785579159855,6.479501719543338,2.8122145985201
1776870181176572000,4.131572021484375,-6.961797744986415,6.274897430843114,2.8860733231961726
1776870181186609200,4.141609130859375,-7.121685524603724,6.054313482722639,2.9660189665704966
1776870181196647000,4.15164697265625,-7.2787559087127445,5.829625021892785,3.034068128184974
1776870181206684000,4.161683837890625,-7.4303750416785475,5.61154282746017,3.077418317350745
1776870181216722000,4.171721923828125,-7.573379491034149,5.399795096746087,3.1074931376188992
1776870181226759000,4.181759033203125,-7.71351510695517,5.187500838065147,3.1244036481484767
1776870181236797000,4.191796875,-7.854589465031028,4.967452896517515,3.1305300220742818
1776870181246834000,4.201833984375,-7.9934186745285984,4.741548337896168,3.1294340435311194
1776870181256872000,4.211871826171875,-8.123188379257916,4.5160608356431124,3.128798960497975
1776870181266909000,4.221908935546875,-8.23820007531643,4.293267687040567,3.1417019889518616
1776870181276947000,4.231947021484375,-8.337169568112492,4.073465536947548,3.1731469285294414
1776870181286984000,4.24198388671875,-8.424648529601097,3.858319103705883,3.2107728948295113
1776870181297022000,4.25202197265625,-8.505258774363995,3.6464863250568507,3.2456276428505775
1776870181307058700,4.26205859375,-8.580198572275043,3.4385242503613234,3.2752298771709203
1776870181317097000,4.272096923828125,-8.646642929041386,3.234291717582941,3.3083696379676457
1776870181327134000,4.282134033203125,-8.703633813285828,3.036898967696726,3.3458018352612853
1776870181337172000,4.292171875,-8.758096640357374,2.8418615487650034,3.3748996271908283
1776870181347209000,4.302208984375,-8.813064494341612,2.6528961432233453,3.38562034316957
1776870181357247000,4.3122470703125,-8.862724889567493,2.476263857293129,3.389780385458469
1776870181367283700,4.32228369140625,-8.90972921732664,2.2932186355806885,3.3953292517572637
1776870181377322000,4.332322021484375,-8.951237285757065,2.1056835551030932,3.407613856051862
1776870181387359000,4.34235888671875,-8.986645868268608,1.9175855800457298,3.425411670809984
1776870181397396700,4.352396728515625,-9.01657864971757,1.7303187951155006,3.446402144129574
1776870181407434000,4.36243408203125,-9.040669134879112,1.5584342882342637,3.465252098289132
1776870181417472000,4.372471923828125,-9.05471519588828,1.417846398501098,3.4888726278513666
1776870181427508700,4.3825087890625,-9.059882953915,1.3052937860324978,3.519249061414599
1776870181437547000,4.392547119140625,-9.05736366457045,1.2156325851339846,3.5576375365197657
1776870181447584000,4.402583984375,-9.04831877284944,1.1410341480065136,3.605045476643741
1776870181457621800,4.412621826171875,-9.038313511663675,1.079319596241042,3.6488831570655105
1776870181467659000,4.422658935546875,-9.028711570581793,1.0314973031625152,3.6862940193101763
1776870181477696800,4.43269677734375,-9.017817251601814,1.0025081592392175,3.720797177414596
1776870181487733800,4.442733642578125,-9.006004064211249,0.9966888785012066,3.750852123938501
1776870181497772000,4.45277197265625,-8.99330298807025,1.0129945550054311,3.7768671474218367
1776870181507809000,4.46280908203125,-8.979014350476861,1.0501604295130818,3.8006384836316105
1776870181517846800,4.4728466796875,-8.963010725659132,1.1044717923499643,3.8229520222485065
1776870181527884000,4.482884033203125,-8.947446076780556,1.176078573380783,3.8380242114350196
1776870181537921800,4.492921875,-8.931291645315289,1.2650536917112767,3.8473438284441825
1776870181547958800,4.502958740234375,-8.91491334196627,1.3672110207632184,3.850381296443939
1776870181557997000,4.5129970703125,-8.898649020385742,1.4798467814706264,3.8463597858428953
1776870181568034000,4.523033935546875,-8.881927018165587,1.6066488685660063,3.834114636775851
1776870181578071800,4.53307177734375,-8.863837819245457,1.7509259682059286,3.8127448087498546
1776870181588109000,4.543109130859375,-8.842325075617431,1.9102971766032277,3.7860841808393597
1776870181598146800,4.553146728515625,-8.817118153646588,2.07981714631021,3.7554187012016773
1776870181608183800,4.563183837890625,-8.787716702595352,2.256616020978987,3.7221105981007216
1776870181618222000,4.57322216796875,-8.754763112020491,2.4389913806058465,3.684539284597337
1776870181628258800,4.5832587890625,-8.718180809554458,2.6265885665342212,3.6420799067914484
1776870181638296800,4.593296875,-8.674636266860364,2.8191473203927275,3.6018718150436877
1776870181648334000,4.603333984375,-8.624680103558301,3.0156241244778035,3.5624840997681018
1776870181658371000,4.61337109375,-8.567351950183511,3.213347713753581,3.5277839577868577
1776870181668408800,4.623408935546875,-8.502183604702353,3.411338429532945,3.4994326003104446
1776870181678447000,4.633447021484375,-8.430412499955295,3.609714929759502,3.473974333927035
1776870181688483800,4.64348388671875,-8.352385841944812,3.811281458199024,3.44705300925374
1776870181698521900,4.65352197265625,-8.266816513469815,4.0164553634807465,3.4202649555712936
1776870181708559000,4.66355908203125,-8.173441479679942,4.22150681142658,3.397664124445617
1776870181718596000,4.67359619140625,-8.073018865466118,4.423204565030336,3.381127123403549
1776870181728633900,4.6836337890625,-7.96603791565001,4.619541376122832,3.372307857131958
1776870181738670800,4.6936708984375,-7.853051003417372,4.810329905438423,3.3705636438131332
1776870181748708900,4.703708984375,-7.735467995566129,4.9980578781396146,3.3693232883632183
1776870181758745900,4.713745849609375,-7.614286670961976,5.183679818472266,3.36488998209089
1776870181768784000,4.723783935546875,-7.488128142467141,5.369413402485847,3.3567435005143285
1776870181778820900,4.73382080078125,-7.357320911383629,5.556514183199405,3.3414620524913072
1776870181788859000,4.74385888671875,-7.224761283674836,5.740262146353722,3.3200299728840585
1776870181798895900,4.753895751953125,-7.091579724675417,5.914118830090761,3.3019811059743165
1776870181808934000,4.763933837890625,-6.9575243054509155,6.076992932042479,3.291412657947838
1776870181818971000,4.773970947265625,-6.823061474469304,6.231878373327851,3.2832766977652907
1776870181829009000,4.7840087890625,-6.6874944816380735,6.382282285284996,3.273266760404408
1776870181839046000,4.7940458984375,-6.5494947087019675,6.530139435368776,3.260640210804343
1776870181849084000,4.804083984375,-6.408476464727521,6.676807083407044,3.243772954894602
1776870181859121000,4.814120849609375,-6.269073254734278,6.8195753859192125,3.2190847961008546
1776870181869159000,4.824158935546875,-6.132026252478361,6.957215677893162,3.188382783845067
1776870181879196000,4.83419580078125,-5.997698446053266,7.089514024317264,3.152266637586057
1776870181889234000,4.84423388671875,-5.869140455201268,7.214374329695105,3.110687842006981
1776870181899271400,4.854271484375,-5.747652256605029,7.330570851624011,3.065551061685383
1776870181909309400,4.864309326171875,-5.629404647365212,7.442162510105967,3.0156928057998416
1776870181919346400,4.874346435546875,-5.508824795785546,7.555556834095716,2.955805031070113
1776870181929384400,4.884384521484375,-5.385199000638723,7.673077298104762,2.879914216044545
1776870181939421400,4.89442138671875,-5.261760252496599,7.791770313024521,2.7879350205272435
1776870181949459200,4.904459228515625,-5.142714186355471,7.906558137199283,2.6849998389706013
1776870181959496400,4.914496337890625,-5.028073077175021,8.015462748554349,2.5770599809944628
1776870181969534500,4.924534423828125,-4.915964701342582,8.118610403817891,2.4681647219896314
1776870181979571500,4.934571533203125,-4.806583704647421,8.214763085627556,2.3632233151771125
1776870181989609500,4.944609375,-4.699392326951027,8.303800966995954,2.265613274165988
1776870181999646500,4.954646484375,-4.591174528816342,8.388443828275799,2.1738265324808657
1776870182009684200,4.964684326171875,-4.47771970681101,8.471121526962518,2.0881869152486323
1776870182019721200,4.97472119140625,-4.358201054722071,8.553202428799867,2.004796830508858
1776870182029759500,4.984759521484375,-4.235189299820363,8.634006734830141,1.9202784723915158
1776870182039796500,4.99479638671875,-4.112629964861274,8.711080037638544,1.8367722139261662
1776870182049834500,5.00483447265625,-3.990801282264292,8.783592316141725,1.758518761422485
1776870182059871500,5.01487158203125,-3.8646684727326033,8.853526853111386,1.6881322429016232
1776870182069909200,5.0249091796875,-3.7285929458573457,8.923407029545306,1.6250434801734983
1776870182079946200,5.0349462890625,-3.5813401914075014,8.994216011261939,1.564760130254924
1776870182089984500,5.044984619140625,-3.426660794088244,9.064397216469049,1.5050152711272238
1776870182100021200,5.055021240234375,-3.2692186540573833,9.132036335977912,1.445159645101428
1776870182110059300,5.065059326171875,-3.1108339724794027,9.196462338659167,1.384979317165911
1776870182120096500,5.075096435546875,-2.9517087016671892,9.257631385371088,1.3244050214767455
1776870182130134300,5.08513427734375,-2.789740608644485,9.316011678147316,1.2647745825089514
1776870182140172500,5.095172607421875,-2.622773099899292,9.371714276146887,1.2093054279390723
1776870182150209500,5.10520947265625,-2.448115475042909,9.425164126783608,1.1590416599925606
1776870182160246300,5.115246337890625,-2.2664320432029665,9.476146710523963,1.1118955126099288
1776870182170284300,5.1252841796875,-2.0829218343272804,9.523462588450313,1.0655933417707681
1776870182180321500,5.135321533203125,-1.9023067623712122,9.566261865735054,1.0189422113634645
1776870182190359300,5.145359375,-1.7267456128038465,9.604517069849372,0.9705578274227679
1776870182200396300,5.155396240234375,-1.5520473636761307,9.639039517176151,0.9221984317928552
1776870182210434600,5.1654345703125,-1.3722143820084631,9.670592008781432,0.8758259721964597
1776870182220472300,5.175472412109375,-1.1870752567566931,9.698974638178944,0.8313335541930049
1776870182230509300,5.18550927734375,-0.9994690107390284,9.723774732914567,0.7871738752752542
1776870182240547300,5.19554736328125,-0.8116440804693847,9.74474913188219,0.7426117530364543
1776870182250584300,5.205584228515625,-0.6247461288515478,9.761792621141671,0.6981905736383051
1776870182260622300,5.215622314453125,-0.4381184455424547,9.77487071390152,0.6560105972956866
1776870182270659300,5.225659423828125,-0.2517027062173001,9.783871766480804,0.618794526970759
1776870182280697300,5.235697265625,-0.06811708031811285,9.788795778879523,0.5875759069623425
1776870182290734300,5.245734375,0.10763334931023419,9.789725168684125,0.5657820448379963
1776870182300772400,5.2557724609375,0.271192109057866,9.787074946436286,0.5567863990861922
1776870182310809300,5.265809326171875,0.41970998807270077,9.781610251289605,0.5606439147645608
1776870182320847400,5.275847412109375,0.5493232601312921,9.774368609598278,0.5747570131279528
1776870182330884400,5.28588427734375,0.6580298281636089,9.766362997797131,0.5962742868006229
1776870182340922400,5.29592236328125,0.7466472921628504,9.758490072464943,0.6203077810779214
1776870182350959400,5.30595947265625,0.8178599593095481,9.751334940013288,0.6426259958699345
1776870182360997400,5.315997314453125,0.8753389923971145,9.74532722403109,0.6578701806224883
1776870182371034400,5.326034423828125,0.9201458831772208,9.740771460422874,0.6641530602842569
1776870182381072400,5.336072265625,0.962260977590084,9.736962131267786,0.6603267069291323
1776870182391109400,5.346109375,1.0067910241901874,9.733086166617273,0.6510035827886312
1776870182401147400,5.3561474609375,1.0521171165388077,9.729249364933372,0.6365249755810946
1776870182411184400,5.366184326171875,1.09704324978441,9.72509166073203,0.6240868612252175
1776870182421222400,5.376222412109375,1.1415030806925146,9.720368723863363,0.6178939248692243
1776870182431259400,5.38625927734375,1.1852479682642967,9.71557973602116,0.6108011901292949
1776870182441297400,5.39629736328125,1.227452859852463,9.710590841692685,0.6067769761145114
1776870182451334400,5.40633447265625,1.2668714086577295,9.704853759345411,0.6174374863386154
1776870182461372400,5.416372314453125,1.3045474977098404,9.69792016068995,0.6472126660730689
1776870182471409400,5.426409423828125,1.342651456785202,9.689556821492314,0.6929408364165573
1776870182481447400,5.436447509765625,1.385836372386664,9.679013215646147,0.7526849648918956
1776870182491484400,5.446484375,1.4325152675837278,9.666990769419073,0.8170579952768982
1776870182501522200,5.456522216796875,1.466186504908651,9.65772960459888,0.8654149797540157
1776870182511559400,5.466559326171875,1.4426469316281378,9.657719083204865,0.904225479663536
1776870182521597400,5.476597412109375,1.3617803740166128,9.667004797944426,0.9300414734434336
1776870182531634400,5.486634521484375,1.2586597528904675,9.679260468405484,0.9476817595522851
1776870182541672400,5.49667236328125,1.1582505096148699,9.691026894044876,0.9554287204172461
1776870182551709400,5.50670947265625,1.0707605152755975,9.701340198266506,0.9528159075703472
1776870182561747200,5.516747314453125,0.9984886944647878,9.709775433656572,0.945339653405547
1776870182571784400,5.526784423828125,0.9404295964669436,9.716071903452276,0.9401742334663867
1776870182581822500,5.536822509765625,0.8947057369723915,9.72011094971001,0.9430454780537635
1776870182591859500,5.546859375,0.8580679779920727,9.722377725598216,0.953679173336178
1776870182601897500,5.5568974609375,0.828104216882959,9.723687054631114,0.9667124040409922
1776870182611934500,5.5669345703125,0.8051018192190676,9.724535780414937,0.9775422064173966
1776870182621972200,5.57697216796875,0.7882485918346792,9.725461663088202,0.9820574188195168
1776870182632009200,5.58700927734375,0.7753144375901668,9.726827690744399,0.9788182177025824
1776870182642047500,5.597047607421875,0.7657889227453619,9.728581840935348,0.9688348760876804
1776870182652084200,5.607084228515625,0.7622746310140938,9.730280461546778,0.9544268498983234
1776870182662122500,5.61712255859375,0.7687240263491869,9.73123030961752,0.9394593631953001
1776870182672159500,5.627159423828125,0.7857483725167811,9.730959091460704,0.9281314020384103
1776870182682197200,5.637197265625,0.810842554828152,9.729415369150042,0.9227167565785348
1776870182692234200,5.647234130859375,0.840060246810317,9.726814246740936,0.9239960557993501
1776870182702272500,5.6572724609375,0.8681911664690822,9.723753105604649,0.930183366132155
1776870182712309200,5.667309326171875,0.8919737547252327,9.720741648828982,0.9391188791945576
1776870182722347500,5.677347412109375,0.9119309394743293,9.717578800883889,0.9525710659638047
1776870182732384500,5.687384521484375,0.9303194866672158,9.714075761198997,0.9703799135725945
1776870182742422300,5.69742236328125,0.9481722464829683,9.71039502685964,0.9897329218834638
1776870182752459300,5.707459228515625,0.9652343673776834,9.706912445440889,1.0072546961791813
1776870182762497500,5.71749755859375,0.9799820738501847,9.704082190451025,1.0202008331224321
1776870182772534300,5.7275341796875,0.9907893721338361,9.7022812785089,1.0268686935137956
1776870182782572300,5.737572265625,0.9952811305951327,9.70189374049604,1.0261824648153037
1776870182792609500,5.747609619140625,0.9914023164004087,9.702944710853695,1.019989747655019
1776870182802647300,5.757647216796875,0.9800313198193907,9.70487772474289,1.012568950004503
1776870182812684300,5.767684326171875,0.963824719775468,9.707100076967476,1.0067982576485723
1776870182822722600,5.77772265625,0.943763782390952,9.709709382683037,1.0006194228831677
1776870182832759300,5.78775927734375,0.9205669581335038,9.713021868231891,0.9900243060454725
1776870182842797300,5.79779736328125,0.8943773087356239,9.717009476563334,0.9747925423830747
1776870182852834600,5.80783447265625,0.8658959682039916,9.721294022014737,0.9576356558769941
1776870182862872300,5.817872314453125,0.8370082388285547,9.725482121354341,0.9406341791283339
1776870182872909300,5.827909423828125,0.8096618206109851,9.729203187704085,0.9259688902422786
1776870182882947300,5.837947265625,0.7857339056000113,9.732194186213611,0.9151009478125721
1776870182892984000,5.847984130859375,0.7660716852094978,9.734370945730804,0.9085908352661878
1776870182903022000,5.85802197265625,0.7512088279247283,9.735757431653141,0.906141396287456
1776870182913059000,5.86805908203125,0.741189684344083,9.73643138539195,0.9071396866098046
1776870182923097000,5.87809716796875,0.736906746327877,9.736313896492122,0.9118780402433126
1776870182933134000,5.888134033203125,0.7389478237014263,9.735347097286581,0.9205117938801646
1776870182943172000,5.898172119140625,0.7452232507091016,9.733757782268524,0.9321904681708663
1776870182953209000,5.908208984375,0.7522960386395454,9.73197265241742,0.9450555757671594
1776870182963247000,5.9182470703125,0.7574203959159552,9.730397950446605,0.9571204728964715
1776870182973284000,5.9282841796875,0.7598096291400491,9.72930957068801,0.966236822418496
1776870182983322000,5.938322021484375,0.760567169509083,9.72880454377532,0.9707279963579029
1776870182993359000,5.948359130859375,0.760759550276026,9.7287659653306,0.9709574211996048
1776870183003396900,5.95839697265625,0.7605622741382568,9.728983407473564,0.9689211661316454
1776870183013433900,5.968433837890625,0.7590075189769268,9.729337627738714,0.9665789869196713
1776870183023472000,5.97847216796875,0.755386625066027,9.72971756696701,0.9655899758823215
1776870183033509000,5.988509033203125,0.7503457813546061,9.73007120271027,0.9659654581312089
1776870183043547100,5.998547119140625,0.7463081964015961,9.730289229375124,0.9668879067383706
1776870183053584100,6.008584228515625,0.7436104086849838,9.730364048177004,0.9682223702125251
1776870183063622000,6.018621826171875,0.7409949654895812,9.730437113413213,0.969494947431609
1776870183073659000,6.028658935546875,0.7365187699235975,9.730827574035525,0.9689734077755361
1776870183083697200,6.038697265625,0.7304355044871568,9.731570501357316,0.9661258363246917
1776870183093734100,6.048734130859375,0.7246633508265018,9.73238415582776,0.9622545478492974
1776870183103772200,6.058772216796875,0.7207920623511076,9.732987966939806,0.9590620354183018
1776870183113809200,6.06880908203125,0.7172671030953526,9.733438633316755,0.9571231763102114
1776870183123847000,6.078846923828125,0.7123802809018641,9.733872933080791,0.956375499748066
1776870183133885200,6.08888525390625,0.7052965331859886,9.734480251324177,0.9554388764850795
1776870183143922200,6.098922119140625,0.6954887673337012,9.735434191048144,0.9528905802417545
1776870183153959000,6.108958984375,0.6836226076468825,9.736582776561379,0.949734819624573
1776870183163997000,6.118996826171875,0.6708125912386924,9.737696875283122,0.9474447359260171
1776870183174035200,6.12903515625,0.657455243146047,9.738680625623465,0.9467137182377279
1776870183184072000,6.139072021484375,0.6425847870767116,9.739662622398138,0.9468209049392491
1776870183194110200,6.149110107421875,0.6241572230476886,9.740736389109491,0.948092093918845
1776870183204147200,6.159147216796875,0.6020084100058302,9.74180255703628,0.9514335133012384
1776870183214185000,6.16918505859375,0.5766257661418989,9.742750651541352,0.957443640436232
1776870183224222000,6.179221923828125,0.5473797248480842,9.743496501472592,0.9669586338870226
1776870183234260000,6.189260009765625,0.5135859571220353,9.744109080412983,0.9792511292271315
1776870183244297000,6.199296875,0.47437527891378845,9.744704708218574,0.9930258990142494
1776870183254335200,6.209335205078125,0.42842656115479766,9.74530851933062,1.0078672751195727
1776870183264372200,6.219372314453125,0.37574747569486494,9.745798348674178,1.02402557904236
1776870183274410000,6.229409912109375,0.3170508469784632,9.745992409941554,1.0418647487241774
1776870183284447000,6.239447021484375,0.2517218310428783,9.745866153213381,1.060716675645113
1776870183294485000,6.249485107421875,0.17879845098815858,9.745449973627924,1.07916710909307
1776870183304522000,6.25952197265625,0.09883870602324604,9.74486369817257,1.0946304895542562
1776870183314560000,6.26956005859375,0.013191584762925049,9.744383805701135,1.103252114361897
1776870183324599000,6.27959912109375,-0.07704501742883585,9.744131876766682,1.102892706464976
1776870183334636000,6.289635986328125,-0.169589856605418,9.744007958126067,1.0935817842189222
1776870183344674000,6.299674072265625,-0.2606436443734914,9.74376187441051,1.0777460633140057
1776870183354711000,6.3097109375,-0.3465494382612407,9.743186120349169,1.0585788598988204
1776870183364749000,6.3197490234375,-0.42753772255629297,9.742046887186168,1.0392768511228263
1776870183374786000,6.3297861328125,-0.5050132494900376,9.740195706361531,1.0217320612777023
1776870183384824000,6.339823974609375,-0.5834888203117996,9.737548991245031,1.0050245990395545
1776870183394861000,6.349861083984375,-0.6698248953755944,9.73372680260837,0.9880729527819901
1776870183404899000,6.359899169921875,-0.7698072915412485,9.728032390359044,0.9711793933872133
1776870183414936000,6.36993603515625,-0.885881136938557,9.71974094735384,0.9551241114474832
1776870183424974000,6.37997412109375,-1.0156593903005122,9.708313544410467,0.9420571976687758
1776870183435011000,6.390010986328125,-1.1500737790305167,9.694417121005058,0.9305812794085592
1776870183445049000,6.400049072265625,-1.2771370743453503,9.679546299609541,0.9196173292584717
1776870183455086000,6.410086181640625,-1.3930806444264947,9.664532854872942,0.909131591079384
1776870183465124000,6.4201240234375,-1.5096856010258197,9.64803180192709,0.8981807196065783
1776870183475161000,6.4301611328125,-1.643527085238695,9.627293549802898,0.8856770657338201
1776870183485198800,6.44019873046875,-1.8043328564837573,9.599880057698488,0.8701028453093022
1776870183495236000,6.450236083984375,-1.9823845076926052,9.566298106092214,0.8523348411675542
1776870183505274000,6.460274169921875,-2.1548617197699844,9.530193358010052,0.8380738222334534
1776870183515311000,6.47031103515625,-2.306856115788966,9.49493090597093,0.8337132889363914
1776870183525349000,6.48034912109375,-2.4423915444381534,9.459806401097774,0.8468567020174116
1776870183535386000,6.49038623046875,-2.578066819949448,9.420645188054442,0.8805651295475662
1776870183545424000,6.500423828125,-2.7280907926782962,9.373853626263141,0.9266988850172608
1776870183555460900,6.5104609375,-2.886790531554818,9.321135012510418,0.9763478820662945
1776870183565499100,6.5204990234375,-3.0397622481733557,9.2668066254735,1.0278682259451597
1776870183575536000,6.5305361328125,-3.1863404643625017,9.211263017427921,1.081779264352843
1776870183585574100,6.54057421875,-3.3383559031695125,9.150545806136726,1.137219265893474
1776870183595611100,6.550611083984375,-3.5020255394130944,9.081711339363455,1.1952885199591516
1776870183605649000,6.56064892578125,-3.673062197293341,9.00434285300076,1.2652310941047966
1776870183615686000,6.570685791015625,-3.833978735436499,8.923075021111964,1.360051066005975
1776870183625724200,6.58072412109375,-3.973841087374091,8.842811982351542,1.4777173682264984
1776870183635761000,6.590760986328125,-4.098655800044536,8.763075013291836,1.6062154455848037
1776870183645799200,6.600799072265625,-4.218118338032067,8.680508958286046,1.739716884188354
1776870183655836200,6.610836181640625,-4.3357291106730695,8.591762753340602,1.8850594211027025
1776870183665874000,6.6208740234375,-4.446329420030117,8.49665227406025,2.0512033385053274
1776870183675911000,6.630910888671875,-4.54568265144676,8.395538170450925,2.2410041719578206
1776870183685949200,6.64094921875,-4.634732515513897,8.288836037576198,2.4463928890340028
1776870183695986000,6.65098583984375,-4.718514960572123,8.176672716686129,2.654811621455848
1776870183706024000,6.66102392578125,-4.806942601087689,8.059339884203672,2.847931224067509
1776870183716061200,6.671061279296875,-4.915215344280004,7.934344554269313,3.0095234695151447
1776870183726099000,6.681098876953125,-5.048958628815412,7.800622312521934,3.135073218461871
1776870183736136000,6.691135986328125,-5.1980976354032755,7.660797077724337,3.2345553369551894
1776870183746174200,6.70117431640625,-5.35247454264462,7.514850729697942,3.323914413101971
1776870183756211000,6.7112109375,-5.511901719012856,7.357509127432108,3.4141444268643855
1776870183766249000,6.7212490234375,-5.682869695571065,7.1808753801971665,3.508619238589704
1776870183776286200,6.7312861328125,-5.866251748022437,6.985007940182089,3.6009921095997095
1776870183786324000,6.741323974609375,-6.055242872527241,6.780420602616667,3.678358257874846
1776870183796361000,6.75136083984375,-6.243121067354083,6.574343318754434,3.737891812339425
1776870183806399200,6.761399169921875,-6.426680814459919,6.373365403857827,3.774703247386217
1776870183816436000,6.77143603515625,-6.5983864576429125,6.182858029571175,3.7952547447666523
1776870183826474000,6.781473876953125,-6.753233320483565,5.995667232486605,3.823114227072894
1776870183836511200,6.79151123046875,-6.901278686615824,5.805761915746331,3.8517359259232875
1776870183846549000,6.801549072265625,-7.053852343827486,5.602814162081479,3.875826118823886
1776870183856586000,6.8115859375,-7.2106760596990584,5.384694558247923,3.8963577424600717
1776870183866624000,6.8216240234375,-7.36235481389761,5.16201919080615,3.914035730230808
1776870183876661000,6.831660888671875,-7.498457813301682,4.945637955072522,3.934995223890245
1776870183886699000,6.841698974609375,-7.61752316866517,4.736422080923616,3.963589157950878
1776870183896740400,6.851740234375,-7.721487985530495,4.529548093725741,4.0040234596699475
1776870183906778600,6.861778564453125,-7.815004473617672,4.323715140013396,4.049886216178536
1776870183916815600,6.871815673828125,-7.901820587283372,4.114581098929047,4.0990050518736245
1776870183926853400,6.881853271484375,-7.985110280388593,3.89284564268589,4.153811285555363
1776870183936890600,6.891890625,-8.059749634048343,3.660641107137501,4.220252135190368
1776870183946928400,6.901928466796875,-8.11769913419187,3.4363904532030225,4.297041360360383
1776870183956965400,6.91196533203125,-8.157364789626001,3.2316049627169963,4.38001278129667
1776870183967003600,6.922003662109375,-8.18568195257187,3.043115357993543,4.461439895400405
1776870183977040600,6.93204052734375,-8.220925115388631,2.853306195104122,4.521660847607254
1776870183987078400,6.942078369140625,-8.259821540015935,2.6612480842441317,4.567656875106692
1776870183997115600,6.95211572265625,-8.305534658920765,2.4676348528966305,4.5933927893877025
1776870184007153400,6.9621533203125,-8.357741816020011,2.2641874791465697,4.603476668767631
1776870184017190400,6.9721904296875,-8.409543314927816,2.052733032290637,4.60828114643991
1776870184027228700,6.982228759765625,-8.451389237010478,1.8442839047305284,4.619851172724366
1776870184037265700,6.992265625,-8.481353582641482,1.652893463999033,4.6373456206217405
1776870184047303400,7.002303466796875,-8.517111124721168,1.4640250890910624,4.635281089307368
1776870184057340700,7.012340576171875,-8.53947084056735,1.2849138458266853,4.647236900039017
1776870184067378400,7.02237841796875,-8.544204883351922,1.1213423361953347,4.6807624452829355
1776870184077415400,7.03241552734375,-8.544986389118433,0.9662164372175931,4.713811312925816
1776870184087453700,7.04245361328125,-8.534656718283891,0.8390111761488019,4.756688623882829
1776870184097490400,7.052490478515625,-8.518578274664282,0.7455880654335022,4.800865034739673
1776870184107528400,7.062528564453125,-8.502479372778534,0.670519964967668,4.840313248030841
1776870184117565400,7.0725654296875,-8.484391342902184,0.6047931453535333,4.8805441361323
1776870184127603500,7.082603515625,-8.471802494964003,0.5573962380802259,4.907978963285684
1776870184137640400,7.092640380859375,-8.460991762614249,0.5326943795546889,4.929323949131369
1776870184147678700,7.1026787109375,-8.45321411435008,0.5325197171075269,4.942669168394803
1776870184157715500,7.112715576171875,-8.448089026421307,0.5600264769859612,4.948388715085387
1776870184167753500,7.12275341796875,-8.440355801820754,0.6129130677167326,4.955312376868725
1776870184177790500,7.13279052734375,-8.430037236902118,0.6886116481058299,4.96292986613512
1776870184187828500,7.142828369140625,-8.41647516001761,0.7806866321478039,4.972309104377031
1776870184197865500,7.152865478515625,-8.400520635038614,0.8851490232717245,4.981781281599402
1776870184207903700,7.16290380859375,-8.386901859530806,1.0064544126469641,4.981697694969177
1776870184217940500,7.1729404296875,-8.373864098781347,1.1465920013293622,4.973339616468548
1776870184227978500,7.182978515625,-8.360293838590383,1.3034541495151817,4.957507256564497
1776870184238015500,7.193015380859375,-8.343685233616828,1.4732625807747244,4.937894209077954
1776870184248053500,7.203053466796875,-8.323171437898278,1.6533756945580242,4.915440385207534
1776870184258090500,7.213090576171875,-8.297638352712989,1.8418759668059645,4.891530517309904
1776870184268128500,7.22312841796875,-8.267733628314733,2.0346587386786936,4.865709262832999
1776870184278165500,7.23316552734375,-8.233901501339673,2.228933941066265,4.837882221491634
1776870184288203500,7.24320361328125,-8.195852048930526,2.4249754224739966,4.808106968691945
1776870184298240500,7.253240478515625,-8.153084920349716,2.625903799140453,4.775166529859602
1776870184308278500,7.263278564453125,-8.10255475655198,2.83333600474298,4.742487956833839
1776870184318315500,7.2733154296875,-8.044178555428982,3.045634939599037,4.710167987987399
1776870184328353300,7.283353271484375,-7.978319889596104,3.257033418484032,4.680655185516178
1776870184338390500,7.293390625,-7.906932231208682,3.4644469193860887,4.652786058598757
1776870184348428500,7.303428466796875,-7.8321227816790335,3.66770242382586,4.623439260344207
1776870184358465500,7.313465576171875,-7.752004704347252,3.869849674762785,4.593590357786416
1776870184368503600,7.323503662109375,-7.664806313365697,4.071681576140224,4.565363503472507
1776870184378540500,7.33354052734375,-7.570762002012133,4.2736210295453665,4.537631739199162
1776870184388578300,7.343578369140625,-7.469062791991234,4.473863615904748,4.513096432879567
1776870184398615600,7.353615478515625,-7.361608963966369,4.669674357296526,4.491239698119461
1776870184408653600,7.363653564453125,-7.2490621967166655,4.860576868380606,4.471719881874322
1776870184418690600,7.373690673828125,-7.135707620215416,5.044266671606898,4.450554051987827
1776870184428728600,7.383728515625,-7.022307451006769,5.221096818196774,4.4269332301646465
1776870184438765600,7.393765625,-6.9045420723259445,5.396778379273414,4.401416219331324
1776870184448803300,7.40380322265625,-6.781902950128912,5.573382315891981,4.371909262079
1776870184458840600,7.413840576171875,-6.653565908551216,5.746078723677993,4.345460815614461
1776870184468878600,7.423878662109375,-6.518279486227035,5.914075575470924,4.3250572022721165
1776870184478915300,7.433915283203125,-6.374806834837794,6.0823436454206705,4.305499684365094
1776870184488953600,7.44395361328125,-6.226387374696135,6.251779005584121,4.279924805864692
1776870184498990600,7.453990478515625,-6.0772793477684255,6.4202522427171465,4.244692456702888
1776870184509028400,7.4640283203125,-5.9267579469114535,6.587882599285244,4.200443857392669
1776870184519065600,7.474065673828125,-5.775761329758167,6.751775522890687,4.150239564548433
1776870184529103600,7.484103515625,-5.627486246523261,6.908442002373933,4.095755110166967
1776870184539140400,7.494140380859375,-5.482330172091722,7.059907406082749,4.033874115793407
1776870184549178600,7.5041787109375,-5.339396449884772,7.208643092566728,3.9619060271695252
1776870184559215600,7.514215576171875,-5.199034039470553,7.355071671152114,3.8785771710976955
1776870184569253400,7.52425341796875,-5.059596342685818,7.500022578400373,3.7842467362791297
1776870184579290400,7.534290283203125,-4.921142396241426,7.641441804391145,3.682542265561223
1776870184589328600,7.54432861328125,-4.785265022286772,7.777191752573847,3.5758792956531047
1776870184599365400,7.554365478515625,-4.654698029699921,7.906164169445633,3.4636300500452517
1776870184609403600,7.564403564453125,-4.531477892744541,8.0271350661695,3.3468171497836705
1776870184619440600,7.574440673828125,-4.414962221863866,8.138418097093702,3.2318174364238974
1776870184629478400,7.584478515625,-4.300039373132586,8.24179663850367,3.1229514035135506
1776870184639515400,7.594515380859375,-4.182126402674615,8.341177050188183,3.017443156598508
1776870184649553700,7.6045537109375,-4.061102898980677,8.438260875368117,2.9109406379491087
1776870184659590400,7.61459033203125,-3.9408442421793937,8.532737732920051,2.798663919812441
1776870184669628700,7.624628662109375,-3.8234114564537998,8.622594529455899,2.6837980619654056
1776870184679665700,7.634665771484375,-3.7059473988071083,8.708276086133719,2.569489545740187
1776870184689703400,7.644703369140625,-3.586873275615275,8.790939171773195,2.454409168359637
1776870184699740400,7.654740478515625,-3.465267295858264,8.870372189450263,2.340683420458436
1776870184709778400,7.6647783203125,-3.3374817506834864,8.946811286008357,2.2329696263231336
1776870184719815400,7.6748154296875,-3.2001796046227216,9.02144420992732,2.1313822061136363
1776870184729852400,7.684852294921875,-3.0521091040492054,9.095074678805469,2.0333806815668938
1776870184739890700,7.694890625,-2.896285797391832,9.166610221230982,1.9378297650426626
1776870184749927400,7.704927490234375,-2.7367612981289624,9.234317729800939,1.8460535447515547
1776870184759965400,7.71496533203125,-2.575561851391196,9.297691593080758,1.7577827022328971
1776870184770002700,7.725002685546875,-2.4149853588573635,9.356367653933168,1.672311865696311
1776870184780040400,7.73504052734375,-2.256152933511883,9.41031668626368,1.5893769773781299
1776870184790077400,7.745077392578125,-2.097750424016267,9.459970651748776,1.5095681121259927
1776870184800115700,7.75511572265625,-1.9356207106910646,9.506095274063945,1.4345406359314918
1776870184810152400,7.76515234375,-1.7662179376229643,9.549346386769413,1.364127083273232
1776870184820190500,7.7751904296875,-1.5879722251467405,9.589774843269586,1.298048783340305
1776870184830227700,7.785227783203125,-1.402486332283914,9.627027592343092,1.2344058938607574
1776870184840265500,7.795265380859375,-1.2151628487303852,9.6602845497787,1.1716128992088137
1776870184850302500,7.805302490234375,-1.0331984810572117,9.688870592793823,1.1084538477234542
1776870184860340500,7.815340576171875,-0.8599693546339869,9.712713825196028,1.0459611511923372
1776870184870377500,7.82537744140625,-0.6934691711395978,9.732252638402581,0.9862821238424628
1776870184880415500,7.83541552734375,-0.5292576465716585,9.747943544009328,0.9316006125189363
1776870184890448600,7.84544873046875,-0.36638387341350315,9.75981693715453,0.8843781850297003
1776870184900486400,7.855486328125,-0.20717324413908644,9.76774597658813,0.8477002401694655
1776870184910523600,7.865523681640625,-0.0554686796458438,9.771676886296271,0.825616199459508
1776870184920561700,7.875561767578125,0.0846184848904144,9.772168469205498,0.8172958956860006
1776870184930598400,7.885598388671875,0.20997376157781109,9.769977681162953,0.8208750693470239
1776870184940636700,7.89563671875,0.3160121515804902,9.76617828887999,0.8320292813722043
1776870184950673700,7.905673583984375,0.39763497091941535,9.762209969770907,0.8435317953784018
1776870184960711400,7.91571142578125,0.4518360052496195,9.759171624988317,0.8513599317207932
1776870184970748700,7.925748779296875,0.47935058310832823,9.757359607130288,0.8570513482954353
1776870184980786700,7.93578662109375,0.4857930007133633,9.756437231588363,0.8639037714734673
1776870184990823400,7.945823486328125,0.47689818498753006,9.756113990983366,0.872465044395998
1776870185000861700,7.95586181640625,0.466857633292675,9.755475693079829,0.8849453173931687
1776870185010898700,7.965898681640625,0.4659126075275242,9.753954182600975,0.9020482817549258
1776870185020936400,7.9759365234375,0.48412557895779607,9.751267719995974,0.9212911807548254
1776870185030973400,7.985973388671875,0.5197921913510188,9.747802674233913,0.9383724447414279
1776870185041009700,7.996009765625,0.561822018633224,9.744467976853251,0.9487304648876189
1776870185051047700,8.006047607421875,0.5980375701460987,9.74241688954234,0.9476702883102
1776870185061084400,8.01608447265625,0.6251040754437446,9.742060331189633,0.9337400357004254
1776870185071122700,8.026122802734376,0.6479170880153775,9.742760588413477,0.910605170763284
1776870185081159700,8.03615966796875,0.6712973790809512,9.74366718186438,0.8835755634099245
1776870185091197400,8.046197509765625,0.6986059495061635,9.744103819715976,0.8571892954614013
1776870185101234400,8.056234375,0.7309203653946519,9.743690562739967,0.8346435555238276
1776870185111271700,8.066271728515625,0.7665348457418382,9.742306999427079,0.8186980175688863
1776870185121309400,8.076309326171875,0.8005429868709295,9.74015888148248,0.8116985871355981
1776870185131346400,8.086346435546876,0.8275392764765769,9.737674663451314,0.8144166139226406
1776870185141384700,8.096384765625,0.8489454909902066,9.73496014379561,0.8247707616113126
1776870185151421400,8.10642138671875,0.8689478300552814,9.731668701034783,0.8425668958690017
1776870185161459500,8.11645947265625,0.8871857167311012,9.728012516614795,0.8654967397533356
1776870185171496700,8.12649658203125,0.8958351793937385,9.725154204574228,0.8883810639955103
1776870185181534500,8.136534423828126,0.89001816367805,9.724093881866334,0.9056853230830282
1776870185191571500,8.146571533203126,0.873092674775049,9.724578450512885,0.9168766522482037
1776870185201609700,8.156609619140625,0.8502540893707424,9.72606372063458,0.9225600316468626
1776870185211646500,8.166646484375,0.8244793774493038,9.728027714183925,0.925255115949735
1776870185221684500,8.1766845703125,0.7973544199626892,9.729898184230922,0.9293552447449416
1776870185231721700,8.1867216796875,0.7706654427405446,9.731422617319225,0.9358805548604577
1776870185241759500,8.196759521484376,0.7481788125790655,9.73255308265388,0.9423469013303518
1776870185251796500,8.20679638671875,0.7348430187311022,9.733235219699143,0.945796384197101
1776870185261834500,8.21683447265625,0.7321268916402012,9.733532156819104,0.9448390834722667
1776870185271871500,8.22687158203125,0.7377084180995821,9.733395378696917,0.9418928008873015
1776870185281909500,8.236909423828125,0.7486123086255043,9.73271850234866,0.9402757210794835
1776870185291946800,8.24694677734375,0.7617301488738507,9.731689159300922,0.9404005895681679
1776870185301984500,8.256984619140624,0.7741645369026809,9.730739311230183,0.9401004375778138
1776870185312021500,8.267021484375,0.7823874447163194,9.730365801742673,0.9371399072717874
1776870185322059500,8.2770595703125,0.7836510349113494,9.730787826547026,0.9316994697835296
1776870185332096500,8.287096435546875,0.7769839782375841,9.73187971343696,0.9258454830583185
1776870185342134500,8.297134521484375,0.7644346585921943,9.73328022788465,0.9215576496712863
1776870185352171800,8.307171875,0.7498112360864877,9.734571436738968,0.9199261760119348
1776870185362208500,8.31720849609375,0.735997011071816,9.735524791941046,0.9210068108554929
1776870185372246500,8.32724658203125,0.7239347442910075,9.736053784251213,0.92497059991993
1776870185382283500,8.337283447265625,0.7135537816606462,9.736130356618762,0.9321859381262212
1776870185392321500,8.347321533203125,0.705503234739229,9.735787826791405,0.9418514459636061
1776870185402358500,8.357358642578125,0.7002202528350054,9.735118549227714,0.9526461770266293
1776870185412396500,8.367396484375,0.6975661581296473,9.73422890691161,0.9636086658719927
1776870185422433500,8.37743359375,0.6963857161734253,9.733266783881186,0.9741499336306005
1776870185432471600,8.387471435546875,0.694308617638424,9.732473003154993,0.9835025030612945
1776870185442508500,8.397508544921875,0.6890379106938839,9.73210475436449,0.9908286081656813
1776870185452546600,8.407546630859375,0.6800104084990918,9.732270174059272,0.995445892702788
1776870185462583600,8.41758349609375,0.6687546357955784,9.732887429174781,0.9970262206967919
1776870185472621600,8.42762158203125,0.6564814296778291,9.733838446289301,0.995897801188752
1776870185482658600,8.437658447265624,0.6438693469945341,9.735057174429297,0.9922136327832937
1776870185492696600,8.447696533203125,0.6315879575703293,9.736389884337783,0.9869986015487462
1776870185502733600,8.457733642578125,0.6199633515544235,9.73773720729351,0.9810547445829957
1776870185512771600,8.467771484375,0.6098545569289475,9.73893255455792,0.9755116504378616
1776870185522808600,8.47780859375,0.6027358474975452,9.739789463648199,0.9713836837876587
1776870185532846300,8.487846435546874,0.5980357435151934,9.740285138210654,0.9693290893454104
1776870185542883600,8.497883544921875,0.5941895164158195,9.740514270791412,0.9693859340991824
1776870185552921600,8.507921630859375,0.5905491506194696,9.7406621548295,0.9701179016355425
1776870185562958600,8.51795849609375,0.5869206213913858,9.740821729305386,0.9707331839896738
1776870185572995600,8.52799560546875,0.5833434570243582,9.740992409697174,0.9711768361039459
1776870185583033600,8.53803369140625,0.5793923447784036,9.741166012698411,0.9718056355267762
1776870185593070600,8.548070556640624,0.5744854661775752,9.741382870319486,0.9725404526073484
1776870185603108600,8.558108642578125,0.5683402779534459,9.741678053873777,0.9731851071864366
1776870185613145600,8.5681455078125,0.5613608308622613,9.742097740590571,0.9730362002350389
1776870185623183600,8.57818359375,0.554389457479678,9.742633162641525,0.9716798171900212
1776870185633220400,8.588220458984376,0.5479272757282481,9.74325743201971,0.9690699269525707
1776870185643258600,8.598258544921874,0.541504256943427,9.743929632192849,0.9659219112504273
1776870185653295600,8.608295654296874,0.5350011586597189,9.74458137409985,0.9629702218379825
1776870185663333600,8.618333740234375,0.5288298130810261,9.745213826784491,0.9599770313713699
1776870185673370600,8.62837060546875,0.5233780504811555,9.745780813017486,0.9571825783472507
1776870185683408400,8.638408447265626,0.5174471260622143,9.746351306381822,0.9546071749012917
1776870185693445400,8.6484453125,0.5111478067222982,9.746932905662058,0.9520720304004847
1776870185703483600,8.658483642578124,0.5053914716852829,9.747516258507966,0.9491536587357521
1776870185713520600,8.668520751953125,0.5001062247587368,9.748101364919542,0.9459261480566113
1776870185723558700,8.67855859375,0.4953434673363343,9.74870225342214,0.9422465096957982
1776870185733595600,8.688595703125,0.4898918508669361,9.74932009305954,0.9387140977859496
1776870185743633400,8.69863330078125,0.4813344504019245,9.74997241948843,0.936330855911225
1776870185753670400,8.70867041015625,0.4689309324353933,9.750615978088975,0.9359330887652934
1776870185763707600,8.718707763671874,0.4522365488745272,9.75121862015724,0.9378744320914149
1776870185773745700,8.72874560546875,0.4312749728558585,9.751700266194343,0.9427326857775449
1776870185783782400,8.738782470703125,0.4072694625640288,9.751958040347695,0.9507008151125163
1776870185793820700,8.748820556640625,0.3828618742773309,9.75202233775556,0.9601335371073335
1776870185803857700,8.758857666015626,0.35999895814936606,9.752183081275223,0.9673273941341787
1776870185813895400,8.7688955078125,0.3384157796336338,9.752703305757045,0.9698544283937662
1776870185823932700,8.7789326171875,0.31518498004134743,9.753773565337061,0.9669186672028154
1776870185833970400,8.788970458984375,0.2878229441295378,9.755349436351656,0.9595227847978473
1776870185844007400,8.79900732421875,0.2559854981030337,9.757093065148592,0.9507928042449056
1776870185854045700,8.809045654296876,0.22026441557621582,9.758683549210428,0.9433739793557673
1776870185864082700,8.819082763671876,0.18088318484034388,9.75998527945876,0.9382685459755361
1776870185874120400,8.829120361328124,0.1376066545658279,9.761103469833731,0.9339686568245291
1776870185884157700,8.83915771484375,0.08896912698112427,9.76231985988617,0.9271324541289359
1776870185894195200,8.8491953125,0.03349924404217163,9.763732064771652,0.9158712745979428
1776870185904232000,8.85923193359375,-0.029826654193364083,9.765179925492406,0.9004054099187254
1776870185914270000,8.86927001953125,-0.10105072865006513,9.766232064893842,0.8836592961706221
1776870185924307200,8.87930712890625,-0.17781760499095542,9.766468211737275,0.8688158011734485
1776870185934345000,8.889344970703124,-0.25536406000275164,9.765755095031857,0.8574344293288886
1776870185944382000,8.8993818359375,-0.33016273241005833,9.764242352381348,0.8490767161544411
1776870185954420000,8.909419921875,-0.4034283134985715,9.76201883111298,0.8429924278046935
1776870185964457000,8.91945703125,-0.47889889381807293,9.758957105454803,0.8389325579546392
1776870185974494000,8.929493896484376,-0.5600194261906668,9.754928580591082,0.8355586976073682
1776870185984532200,8.9395322265625,-0.6472582587804645,9.749905783993006,0.8311416848827153
1776870185994569000,8.94956884765625,-0.7366738143548369,9.744252288275957,0.8229440576408058
1776870186004607000,8.95960693359375,-0.822802018821612,9.73855670698285,0.8086247326482087
1776870186014644000,8.96964404296875,-0.9025069853078573,9.733312376588582,0.7864378160856663
1776870186024682000,8.979681884765625,-0.9777847830016165,9.728254508677125,0.7585314989630132
1776870186034719000,8.989718994140626,-1.0535824398510159,9.7225939986974,0.7290615127202122
1776870186044757000,8.999757080078124,-1.1323180498484522,9.715740479540825,0.7018723308909685
1776870186054794000,9.0097939453125,-1.2138213709935546,9.70750398159325,0.6792591517403721
1776870186064832000,9.01983203125,-1.2990602984704076,9.697768184998631,0.6603866204228251
1776870186074869000,9.029868896484375,-1.3876584732472896,9.686763391381502,0.6414188851024956
1776870186084907000,9.039906982421876,-1.475278450641781,9.675358784791827,0.6175530024770647
1776870186094944000,9.049944091796876,-1.557492477339506,9.66442413380146,0.5860908925689756
1776870186104982000,9.05998193359375,-1.6375087017320096,9.653224694395064,0.5515326067438349
1776870186115019000,9.07001904296875,-1.7219937421016394,9.640297408282755,0.5194187183961272
1776870186125057000,9.08005712890625,-1.816535189322382,9.624185646915436,0.4956326595412567
1776870186135094000,9.090093994140625,-1.924518155787885,9.603615152573585,0.48702162919286635
1776870186145132000,9.100132080078126,-2.0435054774791,9.578435118609667,0.49804026867225765
1776870186155169000,9.1101689453125,-2.163906465360522,9.550133737754821,0.5318215422429144
1776870186165206800,9.120206787109375,-2.2787024728417395,9.52014659577012,0.5871021885033697
1776870186175244000,9.130244140625,-2.3884876664236185,9.488545588847995,0.6580438566889614
1776870186185281000,9.140281005859375,-2.500596042256057,9.454159919643402,0.7323068513169885
1776870186195319000,9.150319091796876,-2.6215634318485854,9.415701301911472,0.8014793178729712
1776870186205356000,9.16035595703125,-2.749965939877927,9.372901440104842,0.8699525501184165
1776870186215394000,9.17039404296875,-2.8813430798038837,9.325898281389474,0.9465113275334238
1776870186225431000,9.18043115234375,-3.0127427238225937,9.2743557256788,1.0392824040807782
1776870186235469000,9.190468994140625,-3.137777508984506,9.21976956448853,1.1491701081890613
1776870186245506000,9.200506103515625,-3.2470196817308663,9.165902949744462,1.2702265643045305
1776870186255544000,9.2105439453125,-3.3367034597873686,9.115476246321201,1.3945947022512555
1776870186265580800,9.220580810546876,-3.4121728345304727,9.067299367651342,1.520375045083463
1776870186275619000,9.230619140625,-3.4816692723438143,9.017829526561497,1.6514010334841907
1776870186285656000,9.240656005859375,-3.5507317026540637,8.96465440121293,1.7882034133292735
1776870186295694000,9.250694091796875,-3.6279315544515844,8.905521828764677,1.923582043981552
1776870186305731000,9.26073095703125,-3.7269355340391397,8.835909947878122,2.051101193305105
1776870186315768800,9.270768798828126,-3.8550729613915085,8.752393460279702,2.168961849053949
1776870186325805800,9.280805908203124,-4.00954748378843,8.653485926803945,2.282785650502145
1776870186335844000,9.290843994140625,-4.179061169885099,8.54099878078699,2.3994110653676093
1776870186345881000,9.300881103515625,-4.354412768355012,8.417659401366114,2.5204165950134394
1776870186355919000,9.310919189453125,-4.533060778021812,8.2833497151196,2.6472368022873995
1776870186365956000,9.3209560546875,-4.713742339342832,8.138698083078861,2.77716111305654
1776870186375993900,9.330993896484374,-4.896081020221114,7.987921246156096,2.8968779180660844
1776870186386030800,9.34103076171875,-5.079129895195365,7.837783876180648,2.9903119885668157
1776870186396068000,9.351068115234375,-5.255159246796369,7.692476995101571,3.0625954267501827
1776870186406106000,9.361106201171875,-5.41674213989377,7.549122417134046,3.1368846517980096
1776870186416142800,9.371142822265625,-5.56079522151947,7.401475110408663,3.235135767191648
1776870186426181000,9.38118115234375,-5.693481105956435,7.243202364772558,3.360160907742381
1776870186436218000,9.391218017578124,-5.825359181141853,7.0716346687555305,3.4967923149347304
1776870186446255900,9.401255859375,-5.967129120266438,6.888666457802056,3.6207772987827656
1776870186456293000,9.411293212890625,-6.11556027084589,6.698432055237889,3.7284476921677587
1776870186466331000,9.421330810546875,-6.257653450575471,6.511980678343773,3.8218142503902315
1776870186476368000,9.431367919921875,-6.390647378048301,6.340101432159543,3.890132292073965
1776870186486406100,9.44140625,-6.523319233959913,6.17574206008613,3.9340684644341466
1776870186496443100,9.451443115234374,-6.663741850128769,6.005559096425771,3.9620924896523353
1776870186506481000,9.46148095703125,-6.8075313123822205,5.821814055880904,3.9917885397359725
1776870186516518100,9.47151806640625,-6.944319371441006,5.62595830630362,4.036756685492396
1776870186526556000,9.481555908203125,-7.072019284158944,5.422510201901197,4.093080922521651
1776870186536593000,9.491593017578126,-7.194014263233542,5.21642181212306,4.147948823262751
1776870186546631200,9.501631103515624,-7.309160399326681,5.011418294972181,4.199076368431747
1776870186556668200,9.511668212890624,-7.414718038341403,4.806983809880912,4.252674687628447
1776870186566706000,9.521705810546875,-7.508148017188907,4.603569607748091,4.313379039438068
1776870186576743000,9.531742919921875,-7.602928826123476,4.393776225972175,4.365842801646888
1776870186586780200,9.5417802734375,-7.7021736287295814,4.179399608059227,4.402217891103029
1776870186596818000,9.55181787109375,-7.806226708400249,3.9669443135976787,4.4154920909568665
1776870186606855000,9.56185498046875,-7.9142586285740135,3.7497748500958084,4.412945329083502
1776870186616893000,9.571892822265625,-8.027370043969153,3.5194387387678026,4.398325559839606
1776870186626930000,9.581929931640625,-8.14155347250998,3.2770462789431214,4.375666276524961
1776870186636968000,9.591968017578125,-8.239787636768817,3.0319615112945435,4.368465843626857
1776870186647005200,9.602005126953125,-8.307270104411243,2.805558647762239,4.391866008436679
1776870186657043000,9.61204296875,-8.361897766655684,2.5853765584409234,4.423219762599468
1776870186667080000,9.622079833984374,-8.403186639377473,2.3616135418929156,4.469857010611891
1776870186677118000,9.632117919921875,-8.440417176619171,2.137713893353194,4.512197438213229
1776870186687155000,9.642155029296875,-8.487472942304612,1.9182754620060323,4.522544060182571
1776870186697193000,9.65219287109375,-8.52386118350327,1.7019674376390874,4.5406481644108885
1776870186707230200,9.662230224609376,-8.540693075838684,1.492160319598764,4.5826194664388895
1776870186717268000,9.67226806640625,-8.538041100025177,1.3023876893274486,4.644999642506241
1776870186727305000,9.682304931640624,-8.551856859409808,1.117800425804779,4.667617132505774
1776870186737343000,9.692343017578125,-8.562157304149865,0.944744902382791,4.686929151219129
1776870186747380000,9.7023798828125,-8.561522513377666,0.7900082949835807,4.716630461999774
1776870186757418000,9.71241796875,-8.556427820587158,0.6527579521752893,4.746770748719573
1776870186767455000,9.722455078125,-8.542649470603466,0.5263702910996974,4.787114449545741
1776870186777493000,9.732492919921874,-8.52675047520399,0.4167595042366534,4.826098260195553
1776870186787530000,9.742530029296875,-8.514021926534175,0.33418822506647555,4.854908175094425
1776870186797568000,9.752568115234375,-8.495876613512635,0.2746766632379964,4.890298345166444
1776870186807605000,9.76260498046875,-8.476410865542292,0.23998591013960538,4.925774147695303
1776870186817643000,9.77264306640625,-8.454120707800984,0.2306165357045829,4.964377142333984
1776870186827680000,9.782679931640626,-8.432592182081937,0.24821464490583164,5.000016026470065
1776870186837717000,9.792717041015624,-8.411282852071523,0.29177710684910413,5.03344541786313
1776870186847755000,9.802755126953125,-8.388008943989872,0.3557246418310329,5.068052036342024
1776870186857792000,9.8127919921875,-8.364355681201815,0.4387071686832234,5.1005368403613565
1776870186867830000,9.822830078125,-8.339538635331392,0.5371306449690834,5.131663800030946
1776870186877867000,9.832866943359376,-8.319564353317022,0.6504346968594938,5.1509389938652514
1776870186887905000,9.842905029296874,-8.304977025038003,0.7800748569250107,5.1564732471168035
1776870186897946600,9.852946533203125,-8.290309617260098,0.9261327025018632,5.155911521580815
1776870186907984400,9.862984375,-8.273102461871504,1.0847582070983945,5.152616571688652
1776870186918021400,9.873021484375,-8.251390396279096,1.2513747104488313,5.149660644492506
1776870186928059600,9.8830595703125,-8.227261917194724,1.425158036688715,5.143099386280775
1776870186938096600,9.8930966796875,-8.202392264354229,1.6070613948896526,5.129181335565447
1776870186948134400,9.903134521484375,-8.17346427603364,1.7962809213228523,5.112556948500871
1776870186958171600,9.913171630859376,-8.14028681357503,1.9900275697916745,5.0937125472992655
1776870186968209400,9.92320947265625,-8.103930721080303,2.186391561152041,5.071131882178783
1776870186978246400,9.933246337890624,-8.066024476534128,2.384836304309219,5.042041981294751
1776870186988284700,9.94328466796875,-8.025809955045581,2.586141697594523,5.006859024232626
1776870186998321400,9.9533212890625,-7.98028505218923,2.7909973307073113,4.969484110084176
1776870187008359400,9.963359375,-7.928395874997973,2.997182166597247,4.9323237154692405
1776870187018396700,9.973396728515626,-7.870061174929141,3.2051199836343525,4.894867552778124
1776870187028434400,9.983434326171874,-7.80480865829587,3.4168273823380466,4.855989248329401
1776870187038471400,9.993471435546875,-7.732610268047451,3.6288030765891075,4.81756248704046
1776870187048508400,10.00350830078125,-7.653976291793584,3.839381179001927,4.779768470697105
1776870187058546400,10.01354638671875,-7.568207641354203,4.047778722505271,4.744270456336438
1776870187068583400,10.02358349609375,-7.474664849781989,4.256331748831272,4.709926580446958
1776870187078621400,10.033621337890626,-7.369983409079909,4.464373318503797,4.682210013742744
1776870187088658700,10.04365869140625,-7.256441201052069,4.669354331561923,4.6595676815629
1776870187098696400,10.053696533203125,-7.139518702936172,4.866408351013064,4.638503558485209
1776870187108733400,10.0637333984375,-7.019461998447776,5.055512872764468,4.619451067490876
1776870187118771500,10.073771484375,-6.889824395665526,5.241587233039737,4.607219070166349
1776870187128808400,10.083808349609376,-6.7503978047966955,5.4269385397374625,4.599005368572473
1776870187138846500,10.093846435546874,-6.605908669841289,5.613007639315724,4.585465211258828
1776870187148883500,10.103883544921874,-6.457232020068168,5.797012207579613,4.568279975441098
1776870187158921500,10.11392138671875,-6.305111951842903,5.975370294389128,4.550922013404965
1776870187168958500,10.12395849609375,-6.149995624411106,6.147136727848649,4.534385596884786
1776870187178996500,10.13399658203125,-5.993484627750515,6.311948519864678,4.517501974362134
1776870187189033500,10.144033447265626,-5.83332855258584,6.475120727980136,4.496163418257236
1776870187199071500,10.154071533203124,-5.673488703763485,6.6408221623122685,4.458856600908935
1776870187209108500,10.1641083984375,-5.51603487329483,6.807932878920435,4.404065564796328
1776870187219146500,10.174146484375,-5.359344428414106,6.974703403788805,4.336047967363894
1776870187229183500,10.18418359375,-5.198868619775772,7.139616902613639,4.262396455697715
1776870187239221500,10.194221435546876,-5.032274620518088,7.299355044627189,4.191183277094364
1776870187249258500,10.204258544921874,-4.8624935156568885,7.4519251947075125,4.122542871588468
1776870187259296500,10.214296630859375,-4.695741403228045,7.596245402836799,4.0518464103356004
1776870187269333500,10.22433349609375,-4.5369162844061846,7.731956188052893,3.975377795422077
1776870187279371500,10.23437158203125,-4.388356539011001,7.8580574334025375,3.894052388127148
1776870187289408500,10.244408447265625,-4.248961804585159,7.97554808679521,3.8088507239207625
1776870187299445500,10.254445556640626,-4.11699985050857,8.085935045662522,3.7199922907724976
1776870187309483500,10.2644833984375,-3.991837055052817,8.19045340475738,3.6265807243645187
1776870187319520500,10.2745205078125,-3.8765988567620515,8.289694700232147,3.5246754703775047
1776870187329558500,10.28455859375,-3.7784056090354916,8.383654840433596,3.407107075573504
1776870187339595500,10.294595458984375,-3.6962621633559465,8.473608667603134,3.2719998092085123
1776870187349633500,10.304633544921876,-3.6187992767080663,8.561212716776133,3.127350222994387
1776870187359670500,10.31467041015625,-3.536100535233319,8.646600258943439,2.98373903991729
1776870187369708500,10.32470849609375,-3.4421041546747086,8.729965355372428,2.8478087667316196
1776870187379745500,10.33474560546875,-3.3357965740755198,8.811250722917913,2.7211598243713375
1776870187389783600,10.344783447265625,-3.2208930145666,8.889321220070123,2.603115921010077
1776870187399820500,10.354820556640625,-3.1035718725219366,8.963298894950746,2.4894816507846116
1776870187409858600,10.364858642578126,-2.987266044999659,9.033070350313187,2.377031768038124
1776870187419895300,10.374895263671876,-2.8694673485711215,9.099833271509409,2.2648617251463232
1776870187429933600,10.38493359375,-2.7465450255185364,9.164777745106816,2.1526045884929594
1776870187439970600,10.394970458984375,-2.616489489585161,9.228361451745032,2.040024941886961
1776870187450008300,10.40500830078125,-2.477513565093279,9.290872560715675,1.9266561907298863
1776870187460045600,10.415045654296875,-2.331596735422313,9.351543594777583,1.8118167824983595
1776870187470083600,10.42508349609375,-2.1815037891104816,9.40876711873412,1.69898301500082
1776870187480120300,10.435120361328124,-2.0256648464925586,9.46197614635229,1.5931389602601527
1776870187490158600,10.44515869140625,-1.862044456218183,9.511348372286557,1.4958097820170222
1776870187500195600,10.455195556640625,-1.6903279993802307,9.556824759826064,1.4072272432006894
1776870187510233300,10.4652333984375,-1.5128902422860264,9.598260347542166,1.324742436737567
1776870187520270600,10.4752705078125,-1.3328295893423259,9.635830492001771,1.2428667020834983
1776870187530308600,10.48530859375,-1.1517889854505658,9.669585462087392,1.1588372234616429
1776870187540345300,10.495345458984374,-0.9713585493464022,9.699072837856411,1.0746324613381177
1776870187550383600,10.505383544921875,-0.7941650493368506,9.72378642335236,0.993825305763632
1776870187560420600,10.515420654296875,-0.6220733294457197,9.743517544260621,0.920484905873239
1776870187570457300,10.525457275390625,-0.4569266063868999,9.75862568154335,0.8548888364993036
1776870187580495600,10.53549560546875,-0.3007073774808086,9.769434075805544,0.7988336987350135
1776870187590532600,10.54553271484375,-0.15564137421920896,9.776315067490934,0.7548798445876688
1776870187600570400,10.5555703125,-0.021389786251925398,9.77992332111597,0.7232042380593716
1776870187610607400,10.565607421875,0.10362493565278127,9.781036250793933,0.7007014604806899
1776870187620645600,10.575645751953125,0.21837456497531382,9.780262928333878,0.6849663504060357
1776870187630682400,10.585682373046875,0.31800164489727467,9.778250419467687,0.6746074534770101
1776870187640720600,10.595720703125,0.3967496394522488,9.775729961079358,0.6693821931093931
1776870187650759400,10.605759521484375,0.4528158465998247,9.773367323601246,0.668294617068395
1776870187660796400,10.61579638671875,0.49005800121407955,9.771420865708588,0.6704833592843263
1776870187670834400,10.62583447265625,0.5158436363883316,9.769651517948507,0.6769093737438321
1776870187680871400,10.635871337890626,0.5392111775701866,9.76754080940485,0.6890436828475445
1776870187690909400,10.645909423828124,0.5688876096379012,9.764561501333118,0.7071654688630252
1776870187700946700,10.65594677734375,0.6158801008287816,9.76024656074345,0.7270989804755896
1776870187710984400,10.665984375,0.6810284264352172,9.75442764533162,0.7468162920542061
1776870187721021400,10.676021484375,0.7572380250863731,9.747636670017242,0.7619480294082314
1776870187731059500,10.6860595703125,0.8287225679770112,9.740797763907908,0.7748923397205769
1776870187741096400,10.696096435546876,0.8700066914584487,9.735807116013765,0.7921669343221932
1776870187751133400,10.706133544921874,0.8668078954171389,9.734401340869068,0.812706741264835
1776870187761171500,10.71617138671875,0.8285685464590787,9.73642904730439,0.8281425030667334
1776870187771208400,10.72620849609375,0.7754911093313247,9.74019921349287,0.8351740091387182
1776870187781246500,10.73624658203125,0.7220900662723928,9.744147658857703,0.836986173127219
1776870187791283700,10.74628369140625,0.6746409173551946,9.747579971393943,0.8366247194036841
1776870187801321500,10.756321533203124,0.6314584129065275,9.750646373227237,0.834596574576944
1776870187811358500,10.7663583984375,0.5894244574384764,9.753619251558185,0.830592964958772
1776870187821396500,10.776396484375,0.5481878628931939,9.756201669266819,0.8285005957894027
1776870187831433500,10.78643359375,0.5095100129200145,9.75808324522972,0.8310114095665514
1776870187841471500,10.796471435546875,0.476584515928477,9.759066995570063,0.8389585691787302
1776870187851508700,10.8065087890625,0.45297388670574873,9.75911083471179,0.8514325585655868
1776870187861546500,10.81654638671875,0.43815395524725315,9.758536249694227,0.8656617941219359
1776870187871583500,10.82658349609375,0.42705330004021524,9.757872817349433,0.8785997477587312
1776870187881621500,10.83662158203125,0.41343415920622645,9.757556591007113,0.888559781563282
1776870187891658500,10.846658447265625,0.3944836672816425,9.75773077853024,0.8952381633486598
1776870187901692700,10.856692626953125,0.37281218942794947,9.758104872539638,0.9004390199273824
1776870187911729700,10.866729736328125,0.35455132373534143,9.758386612090467,0.9047579791050404
1776870187921767700,10.876767578125,0.34657347672395405,9.758388365656137,0.9078129827614874
1776870187931804700,10.8868046875,0.3523152352463454,9.757995566946267,0.9098384972397238
1776870187941842400,10.896842529296874,0.36856034066975113,9.757159700644015,0.9123461692117154
1776870187951879700,10.906879638671874,0.3889805763533339,9.755927528500557,0.9170427295301109
1776870187961917700,10.916917724609375,0.40938689310941845,9.754585466241837,0.9224223036766052
1776870187971954700,10.92695458984375,0.42927839221116154,9.753360308361053,0.9263242064859718
1776870187981991700,10.93699169921875,0.45061420836970206,9.752287126171588,0.9274995338756591
1776870187992029700,10.94702978515625,0.47326742726974186,9.751410343337058,0.925415932534635
1776870188002066700,10.957066650390624,0.4949994396716356,9.750877259373665,0.9196389565683901
1776870188012104700,10.967104736328125,0.5137403074335306,9.750761524039506,0.9105591396644711
1776870188022141700,10.9771416015625,0.5304417417896912,9.75082874405682,0.9002009003225714
1776870188032179700,10.9871796875,0.5469361823316663,9.750728206291795,0.8913735238097608
1776870188042216700,10.997216796875,0.563505624338612,9.750185185456276,0.8869922399856149
1776870188052254700,11.007254638671874,0.5801789285788312,9.749247027823328,0.8865404776301234
1776870188062291700,11.017291748046874,0.5967472380746156,9.74795698801279,0.8897236377108841
1776870188072329700,11.027329833984375,0.613214388750866,9.74642846327126,0.8952497076559811
1776870188082366700,11.03736669921875,0.6288302563600242,9.744836225643754,0.9017315439559519
1776870188092404500,11.047404541015625,0.6411432830315082,9.743570151230692,0.9067435999643058
1776870188102441700,11.057441650390626,0.6479343314111232,9.743017778044939,0.9078297877658158
1776870188112479700,11.067479736328124,0.6486774779286235,9.74329601046443,0.904292407419905
1776870188122516700,11.077516845703125,0.6456625870868563,9.744131292244791,0.8974586889423429
1776870188132554800,11.0875546875,0.6415712991852313,9.745211488696933,0.8886170647084712
1776870188142591700,11.097591796875,0.6375777725696563,9.746387546738982,0.8785258057396859
1776870188152629500,11.10762939453125,0.6331187473341823,9.747669403243064,0.8674592719979584
1776870188162666500,11.11766650390625,0.628638898506388,9.748956520444153,0.8561801914840936
1776870188172703700,11.127703857421874,0.625656302499026,9.75002678002417,0.8461109982166439
1776870188182741800,11.13774169921875,0.6254749545827507,9.750756263342499,0.8378083031650632
1776870188192778500,11.147778564453125,0.6275965498466044,9.751074827772378,0.8324951453182846
1776870188202816800,11.157816650390625,0.631048955322802,9.751009361320733,0.8306396536447107
1776870188212853800,11.167853759765626,0.6345724532738327,9.750670338624715,0.8319353925436734
1776870188222891500,11.1778916015625,0.6376427275646478,9.75021324250698,0.834967745976895
1776870188232928800,11.1879287109375,0.6408280065372586,9.749671975237131,0.8388404957570135
1776870188242966500,11.197966552734375,0.6449647410158068,9.749033092811704,0.843057748125866
1776870188253003500,11.20800341796875,0.6493396681644023,9.748426359090208,0.8467295685064047
1776870188263041800,11.218041748046875,0.6525277236159891,9.748007841417193,0.8490774468068033
1776870188273078800,11.228078857421876,0.653466904162243,9.747841252678633,0.8502544546969234
1776870188283116500,11.238116455078124,0.6533042609464377,9.747754743438959,0.8513743255723267
1776870188293153800,11.24815380859375,0.6533561372641473,9.747548991733789,0.8536832601018249
1776870188303191600,11.258191650390625,0.6539886630140245,9.747183665552734,0.8573625331364572
1776870188313228500,11.268228515625,0.654509033626318,9.746753457441926,0.8618507844664156
1776870188323266800,11.278266845703126,0.6540265108063816,9.7464091740489,0.8661119490422308
1776870188333303800,11.2883037109375,0.6531361378379166,9.746135033282638,0.8698661139439791
1776870188343341600,11.298341552734374,0.6515713727392256,9.745940387493372,0.8732164472851902
1776870188353378800,11.30837890625,0.6489881513129919,9.745852124688028,0.8761056659206747
1776870188363415800,11.318415771484375,0.6448645685769617,9.745866153213381,0.8789839247707277
1776870188373453600,11.32845361328125,0.6387685897894203,9.746011699163914,0.881819659653306
1776870188383490600,11.338490478515626,0.6299417977984995,9.746326171940565,0.8846911234363913
1776870188393528600,11.348528564453124,0.6174880474820733,9.74682009293735,0.8880326889492571
1776870188403565600,11.358565673828124,0.6010420491917059,9.747442608749866,0.8924686986353247
1776870188413603800,11.368603759765625,0.5812502110721544,9.748035313946009,0.8990696312703191
1776870188423640800,11.378640869140625,0.5586490876855328,9.74846026135981,0.9087573509395122
1776870188433678600,11.3886787109375,0.5329194935474545,9.748671273761987,0.9218432616796344
1776870188443715600,11.398715576171876,0.5027320066850632,9.748713943859935,0.9382064405247569
1776870188453753600,11.408753662109374,0.4663299926893785,9.74864672384262,0.9574985124286264
1776870188463790600,11.41879052734375,0.42395767211243507,9.748601131135224,0.977469214246422
1776870188473828600,11.42882861328125,0.37665702828783537,9.748812143537402,0.9945817501541226
1776870188483865900,11.438865966796875,0.32486396841481324,9.74946739257574,1.0063426228355616
1776870188493903600,11.448903564453126,0.2684131458638236,9.750572723469137,1.0122544041626156
1776870188503940600,11.458940673828126,0.2084275367828086,9.751852241885661,1.0140639378026126
1776870188513977900,11.468977783203124,0.14482725346912628,9.753134682911634,1.0127961828891188
1776870188524015600,11.479015625,0.08032135395207442,9.754182730659842,1.009875400071591
1776870188534052600,11.489052490234375,0.013699162109015742,9.754869543880224,1.0063285943102092
1776870188544090600,11.499090576171875,-0.061982856445992364,9.755110366898775,1.0021657024770974
1776870188554127600,11.509127685546876,-0.15345776483612134,9.754626382774115,0.9970448523320257
1776870188564165600,11.51916552734375,-0.25975581042198465,9.752959326344728,0.9913069662671535
1776870188574203000,11.529202880859375,-0.37815402537994086,9.749812845012546,0.9841454771399497
1776870188584240600,11.53924072265625,-0.5087161225959659,9.744778357976674,0.9751404059726745
1776870188594277600,11.549277587890625,-0.6368431746847927,9.738087335905432,0.9666868312083184
1776870188604315600,11.559315673828126,-0.7420605488944798,9.731061382791399,0.9623929334066808
1776870188614352600,11.5693525390625,-0.8202095911756158,9.724521751889586,0.9650474665034562
1776870188624390700,11.579390625,-0.88527637597844,9.71766764821112,0.9765243346117436
1776870188634428000,11.589427978515625,-0.9549748391699046,9.709003864762186,0.9968230262748896
1776870188644465700,11.599465576171875,-1.0377606744062156,9.697759417170285,1.0231859133478254
1776870188654502700,11.609502685546875,-1.1325943825718015,9.684317751795053,1.0495777342543005
1776870188664539600,11.61953955078125,-1.2322919704467057,9.66981459466815,1.0707519666429608
1776870188674577700,11.62957763671875,-1.3321594349958001,9.654901103174685,1.0856406890213488
1776870188684614700,11.63961474609375,-1.434169172270596,9.63909504675567,1.0960772542964667
1776870188694652700,11.649652587890625,-1.541670784959942,9.621461774909497,1.1050359290387481
1776870188704689700,11.659689697265625,-1.6565882268637417,9.601623686495422,1.111261014098674
1776870188714727700,11.669727783203125,-1.7780822706788777,9.579739771467446,1.1123739437766373
1776870188724764700,11.6797646484375,-1.9065644198156892,9.555324876657128,1.1095836554709821
1776870188734802700,11.689802734375,-2.0463062141135335,9.526927634212374,1.1048361686829478
1776870188744839700,11.699839599609374,-2.1988523987963795,9.493896302226185,1.0960660753153264
1776870188754877400,11.70987744140625,-2.3569959650948644,9.457979185670613,1.0777678367543966
1776870188764914700,11.719914794921875,-2.507888537351787,9.422031673976779,1.0517601928599178
1776870188774952700,11.72995263671875,-2.648306477345526,9.38629342111945,1.0268179862398654
1776870188784989700,11.73998974609375,-2.782569986362755,9.34875425632,1.014139925648272
1776870188795027700,11.75002783203125,-2.9100775913789865,9.308467254117131,1.0267881756234913
1776870188805064700,11.760064697265625,-3.0308661172732707,9.264553878110647,1.0734425209011882
1776870188815101700,11.770101806640625,-3.1486221436038613,9.215451116767525,1.154129484162107
1776870188825139700,11.7801396484375,-3.2641549409270283,9.160495537742971,1.2652996292963623
1776870188835176700,11.7901767578125,-3.373105437250435,9.100701286515593,1.4034857185848058
1776870188845214700,11.800214599609374,-3.4689603051573035,9.038550827550887,1.5624655895769595
1776870188855251700,11.810251708984374,-3.5497856539756056,8.975037263539432,1.7372722675152121
1776870188865289700,11.820289794921875,-3.619024025374651,8.908902703374624,1.9247082715325057
1776870188875326700,11.83032666015625,-3.6869492683485148,8.836854535251856,2.1182031371973453
1776870188885364700,11.84036474609375,-3.7655806142538784,8.757772230708598,2.300482196842879
1776870188895401500,11.8504013671875,-3.8570220496326684,8.676385156354307,2.4523703560084105
1776870188905439500,11.860439453125,-3.9552702424168587,8.599473181587458,2.564232355864346
1776870188915476500,11.8704765625,-4.054796784573793,8.527560038021207,2.64759102255255
1776870188925514500,11.880514404296875,-4.1547900674596425,8.454569620612263,2.7255025297507642
1776870188935551500,11.890551513671875,-4.256254299680888,8.374056991004943,2.816000839060545
1776870188945588500,11.90058837890625,-4.357774646003544,8.282461826369167,2.9293364186003803
1776870188955626500,11.91062646484375,-4.463119226789474,8.175767292279005,3.067212857417762
1776870188965663500,11.92066357421875,-4.58084602702558,8.048858822199701,3.2252325050756334
1776870188975701500,11.930701416015625,-4.716490176746249,7.898800947201251,3.3961823614552613
1776870188985738500,11.940738525390625,-4.865379592487216,7.72964674206674,3.5708602984473106
1776870188995776500,11.950776611328125,-5.017172328454256,7.549462024351954,3.742190094055235
1776870189005813500,11.9608134765625,-5.164858213624358,7.366471601566672,3.902529124571383
1776870189015851500,11.9708515625,-5.309127568349242,7.187738251703977,4.039799998711049
1776870189025888500,11.980888427734374,-5.448702043256163,7.017094684794545,4.152399665191769
1776870189035926500,11.990926513671875,-5.57909075666666,6.8537465355902905,4.250916153523326
1776870189045962500,12.00096240234375,-5.706012086227536,6.6902195226877925,4.341977941934764
1776870189055999500,12.01099951171875,-5.846437625005841,6.510963025733828,4.4268394144013525
1776870189066037500,12.02103759765625,-6.009056290891766,6.305820392373204,4.50535940888673
1776870189076074500,12.031074462890626,-6.187202196255326,6.080307171157002,4.573706092143058
1776870189086111500,12.041111572265624,-6.366579104718565,5.85033813957572,4.627160034433007
1776870189096149500,12.0511494140625,-6.533571163383126,5.62873770788908,4.669062655138969
1776870189106186500,12.0611865234375,-6.689076197871565,5.419433278673887,4.6964229557514185
1776870189116224500,12.071224609375,-6.84169895492196,5.215059291598201,4.707939206022024
1776870189126261500,12.081261474609375,-7.001225500011444,5.0083624145328995,4.697821716633439
1776870189136299500,12.091299560546876,-7.159927284714579,4.794990297487378,4.681226847924292
1776870189146336500,12.10133642578125,-7.307042091998458,4.576956326110661,4.672150392021239
1776870189156374500,12.11137451171875,-7.4378119136810295,4.356959822489321,4.676135662265121
1776870189166411500,12.12141162109375,-7.557123937281966,4.134564441032707,4.68675174882561
1776870189176449500,12.131449462890625,-7.667917723384499,3.9066061647519468,4.70232341196686
1776870189186486500,12.141486572265626,-7.768159720334411,3.6721804460227485,4.726644783274829
1776870189196524500,12.151524658203124,-7.860078125575185,3.4374513604328034,4.751156708718836
1776870189206561500,12.1615615234375,-7.954242263916134,3.200962279433012,4.759648642732203
1776870189216598500,12.1715986328125,-8.048103035396338,2.968214430788159,4.752697216159105
1776870189226636300,12.18163623046875,-8.127195276811719,2.747512116985023,4.750816809239983
1776870189236673500,12.191673583984375,-8.1871876809597,2.5445997268944978,4.760814179380238
1776870189246711600,12.201711669921876,-8.23116593889594,2.3535168908074495,4.783225625413656
1776870189256748500,12.21174853515625,-8.256388058435917,2.179899714914709,4.821875674064457
1776870189266786600,12.22178662109375,-8.28092336475551,2.0077247006542978,4.854454586108028
1776870189276823600,12.231823486328125,-8.31705032466948,1.8295115752734243,4.863120707644522
1776870189286861300,12.241861328125,-8.343966388645768,1.653370726121962,4.880058690702915
1776870189296898600,12.251898681640625,-8.359139992380141,1.4783949752271175,4.910143447843193
1776870189306936600,12.2619365234375,-8.36367471320033,1.3147215395912528,4.948821261283755
1776870189316973600,12.2719736328125,-8.359922667190432,1.1790577353220433,4.989177821591496
1776870189327010300,12.28201025390625,-8.355105622297526,1.0772705547567456,5.02016741861701
1776870189337048600,12.292048583984375,-8.350778406748175,0.9942463076546788,5.044438521042466
1776870189347085600,12.30208544921875,-8.344398350322246,0.9186137051738799,5.069274856135249
1776870189357123600,12.31212353515625,-8.352135082054138,0.8582016873743384,5.067120308449864
1776870189367160600,12.32216064453125,-8.356198093709349,0.8199672337871045,5.066753813225031
1776870189377198300,12.3321982421875,-8.354962414434551,0.8019338567074388,5.071674903014302
1776870189387235300,12.3422353515625,-8.355720539325475,0.8140612976789474,5.068493350368738
1776870189397273600,12.352273681640625,-8.348913781920075,0.8577489751707762,5.072503170531988
1776870189407310600,12.362310546875,-8.33469177982211,0.9290916253726929,5.083313902881741
1776870189417348600,12.3723486328125,-8.314611114823817,1.0196214988645165,5.098823022180795
1776870189427385600,12.382385498046874,-8.29090056889057,1.1239612134568393,5.115472543686628
1776870189437423400,12.39242333984375,-8.266553478619455,1.239771366416663,5.128104061722755
1776870189447460400,12.40246044921875,-8.239778868940473,1.3662133880279956,5.139055663847923
1776870189457497600,12.41249755859375,-8.210942650556564,1.5090600164733827,5.145244581615924
1776870189467535600,12.42253564453125,-8.18103441902697,1.6719509234294294,5.142532400047779
1776870189477572400,12.432572265625,-8.14477827977538,1.8480664920091627,5.13980735899806
1776870189487610600,12.442610595703124,-8.101075916171073,2.0297497777186333,5.140338104873895
1776870189497647600,12.452647705078125,-8.054815100255608,2.214817737430334,5.136625221830606
1776870189507685400,12.462685302734375,-8.007192348337172,2.4019432141937314,5.126980026128888
1776870189517722600,12.47272265625,-7.958748927685618,2.591060449296236,5.110294848787785
1776870189527760400,12.482760498046876,-7.909787036117911,2.783739614664018,5.084923676165938
1776870189537797400,12.49279736328125,-7.86071934608817,2.9828818385660645,5.047958511862158
1776870189547835600,12.502835693359375,-7.809629794842004,3.187894415806234,5.001738612478971
1776870189557872600,12.51287255859375,-7.752211040574312,3.3942133994698525,4.955091427594423
1776870189567909400,12.522909423828125,-7.687333786994218,3.59910702650547,4.911385556858778
1776870189577947600,12.53294775390625,-7.615741545945405,3.8034757528841494,4.868720719608664
1776870189587984600,12.542984619140626,-7.53801825479567,4.00634021217972,4.826790334112942
1776870189598022400,12.5530224609375,-7.454642052450776,4.204252309764922,4.787793079459667
1776870189608059400,12.563059326171874,-7.368495800870656,4.3966766235888,4.74814642098695
1776870189618097700,12.57309765625,-7.2771870519608255,4.585511973010004,4.71020305930078
1776870189628134400,12.583134521484375,-7.176753331831097,4.770355037924647,4.680631512379646
1776870189638172400,12.59317236328125,-7.064500579091906,4.9531467232674355,4.66149806510359
1776870189648209700,12.603209716796876,-6.939409972089528,5.135082084041834,4.652516009485721
1776870189658247400,12.613247314453124,-6.806466898021101,5.315411178663373,4.646375314773619
1776870189668284400,12.623284423828125,-6.666739278379082,5.492842798277735,4.642590535537899
1776870189678321700,12.63332177734375,-6.518361903813481,5.666142432653904,4.645015716858208
1776870189688359400,12.643359375,-6.36535979205668,5.832742277130484,4.6509889460489156
1776870189698396400,12.653396484375,-6.216196235549449,5.987901859182119,4.655569551837444
1776870189708434700,12.6634345703125,-6.074176121056079,6.132215637570619,4.655180260258913
1776870189718471400,12.673471435546874,-5.937139640194177,6.272044964021444,4.645664828416705
1776870189728509400,12.683509521484375,-5.8017509265393015,6.409866457781195,4.6285716547966
1776870189738546700,12.693546630859375,-5.668340234959125,6.545803452968597,4.60356113218069
1776870189748584400,12.70358447265625,-5.533737118723988,6.683368926140665,4.569542834983766
1776870189758621400,12.713621337890626,-5.397676204895973,6.824191355282068,4.523923824103177
1776870189768659700,12.72365966796875,-5.259626163077354,6.96725250326097,4.468122441904247
1776870189778696400,12.733696533203124,-5.121187414202094,7.111077036827802,4.401866008925437
1776870189788734500,12.743734375,-4.98642939966619,7.252844053342938,4.324599813893437
1776870189798771700,12.753771728515625,-4.859061495381593,7.385291452848911,4.244686319223046
1776870189808808400,12.763808349609375,-4.738755200046301,7.505239436265826,4.169647152590751
1776870189818846500,12.773846435546876,-4.624823700439929,7.615545731112361,4.096931752730906
1776870189828883500,12.783883544921874,-4.520613968902826,7.7202803633064025,4.016428183212876
1776870189838921500,12.79392138671875,-4.431697083565592,7.820879503130913,3.919731896045804
1776870189848958500,12.80395849609375,-4.355373137819766,7.917171885672211,3.810447637723386
1776870189858996500,12.81399658203125,-4.281920363596082,8.010512432670593,3.696923257613182
1776870189869033500,12.824033447265625,-4.205556670361757,8.10285344723761,3.581544189547002
1776870189879071500,12.834071533203126,-4.125668894654512,8.194467316573858,3.464092991381883
1776870189889108500,12.8441083984375,-4.042600150823593,8.28471223564446,3.345341232012212
1776870189899146500,12.854146484375,-3.9570574180945752,8.372881517484783,3.2259783550068732
1776870189909183700,12.864183837890625,-3.8693046081006526,8.457268942698835,3.110219932234287
1776870189919221800,12.8742216796875,-3.781102008512616,8.53811065813005,2.995719985090196
1776870189929258500,12.884258544921876,-3.6936587028592824,8.616324363145232,2.878582382918894
1776870189939295700,12.894295654296876,-3.605426292654872,8.691766849881411,2.7612466278269885
1776870189949333800,12.904333740234375,-3.513027994942665,8.764422920769453,2.648378958059847
1776870189959370500,12.91437060546875,-3.413318497434258,8.835292108240724,2.5411121770396825
1776870189969408800,12.92440869140625,-3.306219181935489,8.904633940014243,2.4386025274187326
1776870189979445800,12.93444580078125,-3.1927471165344117,8.972073737558722,2.3406480568841097
1776870189989483500,12.9444833984375,-3.0731667973861096,9.037773997959494,2.246034128949046
1776870189999520800,12.954520751953124,-2.945879264861345,9.102297615796328,2.1541519640654325
1776870190009558800,12.964558837890625,-2.810370139697194,9.165704796823858,2.064476369315386
1776870190019595500,12.974595458984375,-2.6679832377180457,9.22764015173316,1.9755806728966534
1776870190029633800,12.9846337890625,-2.5208497257336973,9.287810835057497,1.8847524009801446
1776870190039670800,12.9946708984375,-2.3698143840052186,9.346153718432783,1.789914308900386
1776870190049708500,13.00470849609375,-2.212763873640448,9.402823115637897,1.6914463358856737
1776870190059745800,13.014745849609374,-2.0471127081908285,9.457252624961733,1.59376878259629
